acc,accuracy,average_response_time,avg_rt,background,canvas_backend,clock_backend,color_backend,compensation,condition,coordinates,correct,correct_instructions1,correct_new_keyboard_response,correct_response,count_ISI,count_block1,count_block2,count_block3,count_errorFeedback,count_experiment,count_faster,count_finish,count_fixation,count_instructions1,count_instructions2,count_instructions3,count_new_keyboard_response,count_new_logger,count_sequence,count_stimulus,datetime,deadline,description,disable_garbage_collection,experiment_file,experiment_path,font_bold,font_family,font_italic,font_size,font_underline,foreground,form_clicks,fullscreen,height,keyboard_backend,live_row,live_row_block1,logfile,mouse_backend,opensesame_codename,opensesame_version,repeat_cycle,response,response_finish,response_instructions1,response_instructions2,response_instructions3,response_new_keyboard_response,response_time,response_time_finish,response_time_instructions1,response_time_instructions2,response_time_instructions3,response_time_new_keyboard_response,round_decimals,sampler_backend,sound_buf_size,sound_channels,sound_freq,sound_sample_size,start,stimulus,subject_nr,subject_parity,time_ISI,time_block1,time_block2,time_block3,time_errorFeedback,time_experiment,time_faster,time_finish,time_fixation,time_instructions1,time_instructions2,time_instructions3,time_new_keyboard_response,time_new_logger,time_sequence,time_stimulus,title,total_correct,total_response_time,total_responses,uniform_coordinates,width
0,0,1500,1500,black,legacy,legacy,legacy,0,incongruent,uniform,0,undefined,0,h,0,0,0,0,0,0,0,0,0,0,0,0,0,0,0,0,Wed Sep 25 09:12:25 2019,1500,The main experiment item,yes,FlankerTask.osexp,/Users/kaylicolpitts/Desktop/adv quant/lab 2,no,mono,no,18,no,white,no,yes,768,legacy,0,0,/Users/kaylicolpitts/Desktop/adv quant/lab 2/KC-subject-3.csv,legacy,Kafkaesque Koffka,3.2.8,0,None,NA,s,NA,NA,None,1500,NA,35259,NA,NA,1500,2,legacy,1024,2,48000,-16,experiment,SSHSS,3,odd,NA,38756,NA,NA,NA,3467,NA,NA,38853,3488,NA,NA,38965,40465,38842,38965,FlankerTask,0,1500,1,yes,1024
50,50,1059,1059,black,legacy,legacy,legacy,0,incongruent,uniform,1,undefined,1,h,1,0,0,0,1,0,1,0,1,0,0,0,1,1,1,1,Wed Sep 25 09:12:25 2019,1500,The main experiment item,yes,FlankerTask.osexp,/Users/kaylicolpitts/Desktop/adv quant/lab 2,no,mono,no,18,no,white,no,yes,768,legacy,1,1,/Users/kaylicolpitts/Desktop/adv quant/lab 2/KC-subject-3.csv,legacy,Kafkaesque Koffka,3.2.8,0,h,NA,s,NA,NA,h,618,NA,35259,NA,NA,618,2,legacy,1024,2,48000,-16,experiment,SSHSS,3,odd,40995,38756,NA,NA,40483,3467,NA,NA,42094,3488,NA,NA,42206,42825,42082,42206,FlankerTask,1,2118,2,yes,1024
66.66666667,66.66666667,913,913,black,legacy,legacy,legacy,0,congruent,uniform,1,undefined,1,s,2,0,0,0,2,0,2,0,2,0,0,0,2,2,2,2,Wed Sep 25 09:12:25 2019,1500,The main experiment item,yes,FlankerTask.osexp,/Users/kaylicolpitts/Desktop/adv quant/lab 2,no,mono,no,18,no,white,no,yes,768,legacy,2,2,/Users/kaylicolpitts/Desktop/adv quant/lab 2/KC-subject-3.csv,legacy,Kafkaesque Koffka,3.2.8,0,s,NA,s,NA,NA,s,621,NA,35259,NA,NA,621,2,legacy,1024,2,48000,-16,experiment,SSSSS,3,odd,42840,38756,NA,NA,40483,3467,NA,NA,43932,3488,NA,NA,44045,44667,43920,44045,FlankerTask,2,2739,3,yes,1024
75,75,809.5,809.5,black,legacy,legacy,legacy,0,congruent,uniform,1,undefined,1,s,3,0,0,0,3,0,3,0,3,0,0,0,3,3,3,3,Wed Sep 25 09:12:25 2019,1500,The main experiment item,yes,FlankerTask.osexp,/Users/kaylicolpitts/Desktop/adv quant/lab 2,no,mono,no,18,no,white,no,yes,768,legacy,3,3,/Users/kaylicolpitts/Desktop/adv quant/lab 2/KC-subject-3.csv,legacy,Kafkaesque Koffka,3.2.8,0,s,NA,s,NA,NA,s,499,NA,35259,NA,NA,499,2,legacy,1024,2,48000,-16,experiment,SSSSS,3,odd,44682,38756,NA,NA,40483,3467,NA,NA,45776,3488,NA,NA,45889,46389,45763,45889,FlankerTask,3,3238,4,yes,1024
80,80,730.6,730.6,black,legacy,legacy,legacy,0,congruent,uniform,1,undefined,1,s,4,0,0,0,4,0,4,0,4,0,0,0,4,4,4,4,Wed Sep 25 09:12:25 2019,1500,The main experiment item,yes,FlankerTask.osexp,/Users/kaylicolpitts/Desktop/adv quant/lab 2,no,mono,no,18,no,white,no,yes,768,legacy,4,4,/Users/kaylicolpitts/Desktop/adv quant/lab 2/KC-subject-3.csv,legacy,Kafkaesque Koffka,3.2.8,0,s,NA,s,NA,NA,s,415,NA,35259,NA,NA,415,2,legacy,1024,2,48000,-16,experiment,SSSSS,3,odd,46404,38756,NA,NA,40483,3467,NA,NA,47495,3488,NA,NA,47608,48024,47483,47608,FlankerTask,4,3653,5,yes,1024
83.33333333,83.33333333,722.6666667,722.6666667,black,legacy,legacy,legacy,0,incongruent,uniform,1,undefined,1,s,5,0,0,0,5,0,5,0,5,0,0,0,5,5,5,5,Wed Sep 25 09:12:25 2019,1500,The main experiment item,yes,FlankerTask.osexp,/Users/kaylicolpitts/Desktop/adv quant/lab 2,no,mono,no,18,no,white,no,yes,768,legacy,5,5,/Users/kaylicolpitts/Desktop/adv quant/lab 2/KC-subject-3.csv,legacy,Kafkaesque Koffka,3.2.8,0,s,NA,s,NA,NA,s,683,NA,35259,NA,NA,683,2,legacy,1024,2,48000,-16,experiment,HHSHH,3,odd,48039,38756,NA,NA,40483,3467,NA,NA,49131,3488,NA,NA,49246,49930,49119,49246,FlankerTask,5,4336,6,yes,1024
85.71428571,85.71428571,685.2857143,685.2857143,black,legacy,legacy,legacy,0,congruent,uniform,1,undefined,1,s,6,0,0,0,6,0,6,0,6,0,0,0,6,6,6,6,Wed Sep 25 09:12:25 2019,1500,The main experiment item,yes,FlankerTask.osexp,/Users/kaylicolpitts/Desktop/adv quant/lab 2,no,mono,no,18,no,white,no,yes,768,legacy,6,6,/Users/kaylicolpitts/Desktop/adv quant/lab 2/KC-subject-3.csv,legacy,Kafkaesque Koffka,3.2.8,0,s,NA,s,NA,NA,s,461,NA,35259,NA,NA,461,2,legacy,1024,2,48000,-16,experiment,SSSSS,3,odd,49946,38756,NA,NA,40483,3467,NA,NA,51037,3488,NA,NA,51151,51613,51024,51151,FlankerTask,6,4797,7,yes,1024
87.5,87.5,649.625,649.625,black,legacy,legacy,legacy,0,congruent,uniform,1,undefined,1,s,7,0,0,0,7,0,7,0,7,0,0,0,7,7,7,7,Wed Sep 25 09:12:25 2019,1500,The main experiment item,yes,FlankerTask.osexp,/Users/kaylicolpitts/Desktop/adv quant/lab 2,no,mono,no,18,no,white,no,yes,768,legacy,7,7,/Users/kaylicolpitts/Desktop/adv quant/lab 2/KC-subject-3.csv,legacy,Kafkaesque Koffka,3.2.8,0,s,NA,s,NA,NA,s,400,NA,35259,NA,NA,400,2,legacy,1024,2,48000,-16,experiment,SSSSS,3,odd,51628,38756,NA,NA,40483,3467,NA,NA,52722,3488,NA,NA,52834,53235,52707,52834,FlankerTask,7,5197,8,yes,1024
88.88888889,88.88888889,633.2222222,633.2222222,black,legacy,legacy,legacy,0,congruent,uniform,1,undefined,1,h,8,0,0,0,8,0,8,0,8,0,0,0,8,8,8,8,Wed Sep 25 09:12:25 2019,1500,The main experiment item,yes,FlankerTask.osexp,/Users/kaylicolpitts/Desktop/adv quant/lab 2,no,mono,no,18,no,white,no,yes,768,legacy,8,8,/Users/kaylicolpitts/Desktop/adv quant/lab 2/KC-subject-3.csv,legacy,Kafkaesque Koffka,3.2.8,0,h,NA,s,NA,NA,h,502,NA,35259,NA,NA,502,2,legacy,1024,2,48000,-16,experiment,HHHHH,3,odd,53252,38756,NA,NA,40483,3467,NA,NA,54344,3488,NA,NA,54457,54960,54332,54457,FlankerTask,8,5699,9,yes,1024
90,90,612.4,612.4,black,legacy,legacy,legacy,0,congruent,uniform,1,undefined,1,s,9,0,0,0,9,0,9,0,9,0,0,0,9,9,9,9,Wed Sep 25 09:12:25 2019,1500,The main experiment item,yes,FlankerTask.osexp,/Users/kaylicolpitts/Desktop/adv quant/lab 2,no,mono,no,18,no,white,no,yes,768,legacy,9,9,/Users/kaylicolpitts/Desktop/adv quant/lab 2/KC-subject-3.csv,legacy,Kafkaesque Koffka,3.2.8,0,s,NA,s,NA,NA,s,425,NA,35259,NA,NA,425,2,legacy,1024,2,48000,-16,experiment,SSSSS,3,odd,54976,38756,NA,NA,40483,3467,NA,NA,56067,3488,NA,NA,56180,56606,56055,56179,FlankerTask,9,6124,10,yes,1024
90.90909091,90.90909091,591.9090909,591.9090909,black,legacy,legacy,legacy,0,congruent,uniform,1,undefined,1,s,10,0,0,0,10,0,10,0,10,0,0,0,10,10,10,10,Wed Sep 25 09:12:25 2019,1500,The main experiment item,yes,FlankerTask.osexp,/Users/kaylicolpitts/Desktop/adv quant/lab 2,no,mono,no,18,no,white,no,yes,768,legacy,10,10,/Users/kaylicolpitts/Desktop/adv quant/lab 2/KC-subject-3.csv,legacy,Kafkaesque Koffka,3.2.8,0,s,NA,s,NA,NA,s,387,NA,35259,NA,NA,387,2,legacy,1024,2,48000,-16,experiment,SSSSS,3,odd,56621,38756,NA,NA,40483,3467,NA,NA,57712,3488,NA,NA,57825,58213,57700,57825,FlankerTask,10,6511,11,yes,1024
91.66666667,91.66666667,588,588,black,legacy,legacy,legacy,0,incongruent,uniform,1,undefined,1,h,11,0,0,0,11,0,11,0,11,0,0,0,11,11,11,11,Wed Sep 25 09:12:25 2019,1500,The main experiment item,yes,FlankerTask.osexp,/Users/kaylicolpitts/Desktop/adv quant/lab 2,no,mono,no,18,no,white,no,yes,768,legacy,11,11,/Users/kaylicolpitts/Desktop/adv quant/lab 2/KC-subject-3.csv,legacy,Kafkaesque Koffka,3.2.8,0,h,NA,s,NA,NA,h,545,NA,35259,NA,NA,545,2,legacy,1024,2,48000,-16,experiment,SSHSS,3,odd,58227,38756,NA,NA,40483,3467,NA,NA,59321,3488,NA,NA,59433,59979,59308,59433,FlankerTask,11,7056,12,yes,1024
92.30769231,92.30769231,573.6923077,573.6923077,black,legacy,legacy,legacy,0,congruent,uniform,1,undefined,1,s,12,0,0,0,12,0,12,0,12,0,0,0,12,12,12,12,Wed Sep 25 09:12:25 2019,1500,The main experiment item,yes,FlankerTask.osexp,/Users/kaylicolpitts/Desktop/adv quant/lab 2,no,mono,no,18,no,white,no,yes,768,legacy,12,12,/Users/kaylicolpitts/Desktop/adv quant/lab 2/KC-subject-3.csv,legacy,Kafkaesque Koffka,3.2.8,0,s,NA,s,NA,NA,s,402,NA,35259,NA,NA,402,2,legacy,1024,2,48000,-16,experiment,SSSSS,3,odd,59994,38756,NA,NA,40483,3467,NA,NA,61084,3488,NA,NA,61196,61599,61072,61196,FlankerTask,12,7458,13,yes,1024
92.85714286,92.85714286,575.7857143,575.7857143,black,legacy,legacy,legacy,0,congruent,uniform,1,undefined,1,h,13,0,0,0,13,0,13,0,13,0,0,0,13,13,13,13,Wed Sep 25 09:12:25 2019,1500,The main experiment item,yes,FlankerTask.osexp,/Users/kaylicolpitts/Desktop/adv quant/lab 2,no,mono,no,18,no,white,no,yes,768,legacy,13,13,/Users/kaylicolpitts/Desktop/adv quant/lab 2/KC-subject-3.csv,legacy,Kafkaesque Koffka,3.2.8,0,h,NA,s,NA,NA,h,603,NA,35259,NA,NA,603,2,legacy,1024,2,48000,-16,experiment,HHHHH,3,odd,61614,38756,NA,NA,40483,3467,NA,NA,62706,3488,NA,NA,62819,63424,62694,62819,FlankerTask,13,8061,14,yes,1024
93.33333333,93.33333333,579.2666667,579.2666667,black,legacy,legacy,legacy,0,incongruent,uniform,1,undefined,1,s,14,0,0,0,14,0,14,0,14,0,0,0,14,14,14,14,Wed Sep 25 09:12:25 2019,1500,The main experiment item,yes,FlankerTask.osexp,/Users/kaylicolpitts/Desktop/adv quant/lab 2,no,mono,no,18,no,white,no,yes,768,legacy,14,14,/Users/kaylicolpitts/Desktop/adv quant/lab 2/KC-subject-3.csv,legacy,Kafkaesque Koffka,3.2.8,0,s,NA,s,NA,NA,s,628,NA,35259,NA,NA,628,2,legacy,1024,2,48000,-16,experiment,HHSHH,3,odd,63439,38756,NA,NA,40483,3467,NA,NA,64531,3488,NA,NA,64644,65274,64519,64644,FlankerTask,14,8689,15,yes,1024
93.75,93.75,573.5625,573.5625,black,legacy,legacy,legacy,0,incongruent,uniform,1,undefined,1,h,15,0,0,0,15,0,15,0,15,0,0,0,15,15,15,15,Wed Sep 25 09:12:25 2019,1500,The main experiment item,yes,FlankerTask.osexp,/Users/kaylicolpitts/Desktop/adv quant/lab 2,no,mono,no,18,no,white,no,yes,768,legacy,15,15,/Users/kaylicolpitts/Desktop/adv quant/lab 2/KC-subject-3.csv,legacy,Kafkaesque Koffka,3.2.8,0,h,NA,s,NA,NA,h,488,NA,35259,NA,NA,488,2,legacy,1024,2,48000,-16,experiment,SSHSS,3,odd,65288,38756,NA,NA,40483,3467,NA,NA,66382,3488,NA,NA,66495,66985,66369,66495,FlankerTask,15,9177,16,yes,1024
94.11764706,94.11764706,562.7647059,562.7647059,black,legacy,legacy,legacy,0,congruent,uniform,1,undefined,1,s,16,0,0,0,16,0,16,0,16,0,0,0,16,16,16,16,Wed Sep 25 09:12:25 2019,1500,The main experiment item,yes,FlankerTask.osexp,/Users/kaylicolpitts/Desktop/adv quant/lab 2,no,mono,no,18,no,white,no,yes,768,legacy,16,16,/Users/kaylicolpitts/Desktop/adv quant/lab 2/KC-subject-3.csv,legacy,Kafkaesque Koffka,3.2.8,0,s,NA,s,NA,NA,s,390,NA,35259,NA,NA,390,2,legacy,1024,2,48000,-16,experiment,SSSSS,3,odd,66999,38756,NA,NA,40483,3467,NA,NA,68090,3488,NA,NA,68203,68595,68078,68202,FlankerTask,16,9567,17,yes,1024
94.44444444,94.44444444,559.1666667,559.1666667,black,legacy,legacy,legacy,0,incongruent,uniform,1,undefined,1,s,17,0,0,0,17,0,17,0,17,0,0,0,17,17,17,17,Wed Sep 25 09:12:25 2019,1500,The main experiment item,yes,FlankerTask.osexp,/Users/kaylicolpitts/Desktop/adv quant/lab 2,no,mono,no,18,no,white,no,yes,768,legacy,17,17,/Users/kaylicolpitts/Desktop/adv quant/lab 2/KC-subject-3.csv,legacy,Kafkaesque Koffka,3.2.8,0,s,NA,s,NA,NA,s,498,NA,35259,NA,NA,498,2,legacy,1024,2,48000,-16,experiment,HHSHH,3,odd,68609,38756,NA,NA,40483,3467,NA,NA,69703,3488,NA,NA,69816,70316,69690,69816,FlankerTask,17,10065,18,yes,1024
94.73684211,94.73684211,547.1052632,547.1052632,black,legacy,legacy,legacy,0,congruent,uniform,1,undefined,1,s,18,0,0,0,18,0,18,0,18,0,0,0,18,18,18,18,Wed Sep 25 09:12:25 2019,1500,The main experiment item,yes,FlankerTask.osexp,/Users/kaylicolpitts/Desktop/adv quant/lab 2,no,mono,no,18,no,white,no,yes,768,legacy,18,18,/Users/kaylicolpitts/Desktop/adv quant/lab 2/KC-subject-3.csv,legacy,Kafkaesque Koffka,3.2.8,0,s,NA,s,NA,NA,s,330,NA,35259,NA,NA,330,2,legacy,1024,2,48000,-16,experiment,SSSSS,3,odd,70330,38756,NA,NA,40483,3467,NA,NA,71421,3488,NA,NA,71534,71866,71408,71534,FlankerTask,18,10395,19,yes,1024
90,90,536.7,536.7,black,legacy,legacy,legacy,0,incongruent,uniform,0,undefined,0,h,19,0,0,0,19,0,19,0,19,0,0,0,19,19,19,19,Wed Sep 25 09:12:25 2019,1500,The main experiment item,yes,FlankerTask.osexp,/Users/kaylicolpitts/Desktop/adv quant/lab 2,no,mono,no,18,no,white,no,yes,768,legacy,19,19,/Users/kaylicolpitts/Desktop/adv quant/lab 2/KC-subject-3.csv,legacy,Kafkaesque Koffka,3.2.8,0,s,NA,s,NA,NA,s,339,NA,35259,NA,NA,339,2,legacy,1024,2,48000,-16,experiment,SSHSS,3,odd,71880,38756,NA,NA,40483,3467,NA,NA,72973,3488,NA,NA,73085,73426,72960,73085,FlankerTask,18,10734,20,yes,1024
90.47619048,90.47619048,537.952381,537.952381,black,legacy,legacy,legacy,0,incongruent,uniform,1,undefined,1,s,20,0,0,0,20,0,20,0,20,0,0,0,20,20,20,20,Wed Sep 25 09:12:25 2019,1500,The main experiment item,yes,FlankerTask.osexp,/Users/kaylicolpitts/Desktop/adv quant/lab 2,no,mono,no,18,no,white,no,yes,768,legacy,20,20,/Users/kaylicolpitts/Desktop/adv quant/lab 2/KC-subject-3.csv,legacy,Kafkaesque Koffka,3.2.8,0,s,NA,s,NA,NA,s,563,NA,35259,NA,NA,563,2,legacy,1024,2,48000,-16,experiment,HHSHH,3,odd,73953,38756,NA,NA,73440,3467,NA,NA,75045,3488,NA,NA,75158,75723,75032,75158,FlankerTask,19,11297,21,yes,1024
90.90909091,90.90909091,529.9545455,529.9545455,black,legacy,legacy,legacy,0,congruent,uniform,1,undefined,1,s,21,0,0,0,21,0,21,0,21,0,0,0,21,21,21,21,Wed Sep 25 09:12:25 2019,1500,The main experiment item,yes,FlankerTask.osexp,/Users/kaylicolpitts/Desktop/adv quant/lab 2,no,mono,no,18,no,white,no,yes,768,legacy,21,21,/Users/kaylicolpitts/Desktop/adv quant/lab 2/KC-subject-3.csv,legacy,Kafkaesque Koffka,3.2.8,0,s,NA,s,NA,NA,s,362,NA,35259,NA,NA,362,2,legacy,1024,2,48000,-16,experiment,SSSSS,3,odd,75737,38756,NA,NA,73440,3467,NA,NA,76832,3488,NA,NA,76944,77308,76819,76944,FlankerTask,20,11659,22,yes,1024
91.30434783,91.30434783,524.1304348,524.1304348,black,legacy,legacy,legacy,0,incongruent,uniform,1,undefined,1,s,22,0,0,0,22,0,22,0,22,0,0,0,22,22,22,22,Wed Sep 25 09:12:25 2019,1500,The main experiment item,yes,FlankerTask.osexp,/Users/kaylicolpitts/Desktop/adv quant/lab 2,no,mono,no,18,no,white,no,yes,768,legacy,22,22,/Users/kaylicolpitts/Desktop/adv quant/lab 2/KC-subject-3.csv,legacy,Kafkaesque Koffka,3.2.8,0,s,NA,s,NA,NA,s,396,NA,35259,NA,NA,396,2,legacy,1024,2,48000,-16,experiment,HHSHH,3,odd,77322,38756,NA,NA,73440,3467,NA,NA,78414,3488,NA,NA,78526,78923,78402,78526,FlankerTask,21,12055,23,yes,1024
91.66666667,91.66666667,520.8333333,520.8333333,black,legacy,legacy,legacy,0,congruent,uniform,1,undefined,1,h,23,0,0,0,23,0,23,0,23,0,0,0,23,23,23,23,Wed Sep 25 09:12:25 2019,1500,The main experiment item,yes,FlankerTask.osexp,/Users/kaylicolpitts/Desktop/adv quant/lab 2,no,mono,no,18,no,white,no,yes,768,legacy,23,23,/Users/kaylicolpitts/Desktop/adv quant/lab 2/KC-subject-3.csv,legacy,Kafkaesque Koffka,3.2.8,0,h,NA,s,NA,NA,h,445,NA,35259,NA,NA,445,2,legacy,1024,2,48000,-16,experiment,HHHHH,3,odd,78938,38756,NA,NA,73440,3467,NA,NA,80029,3488,NA,NA,80143,80589,80017,80143,FlankerTask,22,12500,24,yes,1024
92,92,518.12,518.12,black,legacy,legacy,legacy,0,incongruent,uniform,1,undefined,1,s,24,0,0,0,24,0,24,0,24,0,0,0,24,24,24,24,Wed Sep 25 09:12:25 2019,1500,The main experiment item,yes,FlankerTask.osexp,/Users/kaylicolpitts/Desktop/adv quant/lab 2,no,mono,no,18,no,white,no,yes,768,legacy,24,24,/Users/kaylicolpitts/Desktop/adv quant/lab 2/KC-subject-3.csv,legacy,Kafkaesque Koffka,3.2.8,0,s,NA,s,NA,NA,s,453,NA,35259,NA,NA,453,2,legacy,1024,2,48000,-16,experiment,HHSHH,3,odd,80605,38756,NA,NA,73440,3467,NA,NA,81697,3488,NA,NA,81810,82265,81685,81810,FlankerTask,23,12953,25,yes,1024
92.30769231,92.30769231,515.5384615,515.5384615,black,legacy,legacy,legacy,0,congruent,uniform,1,undefined,1,h,25,0,0,0,25,0,25,0,25,0,0,0,25,25,25,25,Wed Sep 25 09:12:25 2019,1500,The main experiment item,yes,FlankerTask.osexp,/Users/kaylicolpitts/Desktop/adv quant/lab 2,no,mono,no,18,no,white,no,yes,768,legacy,25,25,/Users/kaylicolpitts/Desktop/adv quant/lab 2/KC-subject-3.csv,legacy,Kafkaesque Koffka,3.2.8,0,h,NA,s,NA,NA,h,451,NA,35259,NA,NA,451,2,legacy,1024,2,48000,-16,experiment,HHHHH,3,odd,82279,38756,NA,NA,73440,3467,NA,NA,83371,3488,NA,NA,83484,83937,83358,83484,FlankerTask,24,13404,26,yes,1024
92.59259259,92.59259259,513,513,black,legacy,legacy,legacy,0,congruent,uniform,1,undefined,1,h,26,0,0,0,26,0,26,0,26,0,0,0,26,26,26,26,Wed Sep 25 09:12:25 2019,1500,The main experiment item,yes,FlankerTask.osexp,/Users/kaylicolpitts/Desktop/adv quant/lab 2,no,mono,no,18,no,white,no,yes,768,legacy,26,26,/Users/kaylicolpitts/Desktop/adv quant/lab 2/KC-subject-3.csv,legacy,Kafkaesque Koffka,3.2.8,0,h,NA,s,NA,NA,h,447,NA,35259,NA,NA,447,2,legacy,1024,2,48000,-16,experiment,HHHHH,3,odd,83951,38756,NA,NA,73440,3467,NA,NA,85042,3488,NA,NA,85155,85603,85030,85155,FlankerTask,25,13851,27,yes,1024
92.85714286,92.85714286,507.5714286,507.5714286,black,legacy,legacy,legacy,0,congruent,uniform,1,undefined,1,h,27,0,0,0,27,0,27,0,27,0,0,0,27,27,27,27,Wed Sep 25 09:12:25 2019,1500,The main experiment item,yes,FlankerTask.osexp,/Users/kaylicolpitts/Desktop/adv quant/lab 2,no,mono,no,18,no,white,no,yes,768,legacy,27,27,/Users/kaylicolpitts/Desktop/adv quant/lab 2/KC-subject-3.csv,legacy,Kafkaesque Koffka,3.2.8,0,h,NA,s,NA,NA,h,361,NA,35259,NA,NA,361,2,legacy,1024,2,48000,-16,experiment,HHHHH,3,odd,85618,38756,NA,NA,73440,3467,NA,NA,86711,3488,NA,NA,86824,87187,86698,86824,FlankerTask,26,14212,28,yes,1024
93.10344828,93.10344828,505.0689655,505.0689655,black,legacy,legacy,legacy,0,incongruent,uniform,1,undefined,1,s,28,0,0,0,28,0,28,0,28,0,0,0,28,28,28,28,Wed Sep 25 09:12:25 2019,1500,The main experiment item,yes,FlankerTask.osexp,/Users/kaylicolpitts/Desktop/adv quant/lab 2,no,mono,no,18,no,white,no,yes,768,legacy,28,28,/Users/kaylicolpitts/Desktop/adv quant/lab 2/KC-subject-3.csv,legacy,Kafkaesque Koffka,3.2.8,0,s,NA,s,NA,NA,s,435,NA,35259,NA,NA,435,2,legacy,1024,2,48000,-16,experiment,HHSHH,3,odd,87201,38756,NA,NA,73440,3467,NA,NA,88294,3488,NA,NA,88407,88843,88282,88406,FlankerTask,27,14647,29,yes,1024
93.33333333,93.33333333,500.6666667,500.6666667,black,legacy,legacy,legacy,0,incongruent,uniform,1,undefined,1,s,29,0,0,0,29,0,29,0,29,0,0,0,29,29,29,29,Wed Sep 25 09:12:25 2019,1500,The main experiment item,yes,FlankerTask.osexp,/Users/kaylicolpitts/Desktop/adv quant/lab 2,no,mono,no,18,no,white,no,yes,768,legacy,29,29,/Users/kaylicolpitts/Desktop/adv quant/lab 2/KC-subject-3.csv,legacy,Kafkaesque Koffka,3.2.8,0,s,NA,s,NA,NA,s,373,NA,35259,NA,NA,373,2,legacy,1024,2,48000,-16,experiment,HHSHH,3,odd,88858,38756,NA,NA,73440,3467,NA,NA,89950,3488,NA,NA,90063,90437,89937,90062,FlankerTask,28,15020,30,yes,1024
93.5483871,93.5483871,499.1935484,499.1935484,black,legacy,legacy,legacy,0,incongruent,uniform,1,undefined,1,h,30,0,0,0,30,0,30,0,30,0,0,0,30,30,30,30,Wed Sep 25 09:12:25 2019,1500,The main experiment item,yes,FlankerTask.osexp,/Users/kaylicolpitts/Desktop/adv quant/lab 2,no,mono,no,18,no,white,no,yes,768,legacy,30,30,/Users/kaylicolpitts/Desktop/adv quant/lab 2/KC-subject-3.csv,legacy,Kafkaesque Koffka,3.2.8,0,h,NA,s,NA,NA,h,455,NA,35259,NA,NA,455,2,legacy,1024,2,48000,-16,experiment,SSHSS,3,odd,90452,38756,NA,NA,73440,3467,NA,NA,91544,3488,NA,NA,91657,92113,91532,91657,FlankerTask,29,15475,31,yes,1024
93.75,93.75,497.71875,497.71875,black,legacy,legacy,legacy,0,incongruent,uniform,1,undefined,1,h,31,0,0,0,31,0,31,0,31,0,0,0,31,31,31,31,Wed Sep 25 09:12:25 2019,1500,The main experiment item,yes,FlankerTask.osexp,/Users/kaylicolpitts/Desktop/adv quant/lab 2,no,mono,no,18,no,white,no,yes,768,legacy,31,31,/Users/kaylicolpitts/Desktop/adv quant/lab 2/KC-subject-3.csv,legacy,Kafkaesque Koffka,3.2.8,0,h,NA,s,NA,NA,h,452,NA,35259,NA,NA,452,2,legacy,1024,2,48000,-16,experiment,SSHSS,3,odd,92128,38756,NA,NA,73440,3467,NA,NA,93221,3488,NA,NA,93333,93786,93208,93333,FlankerTask,30,15927,32,yes,1024
93.93939394,93.93939394,495.2727273,495.2727273,black,legacy,legacy,legacy,0,incongruent,uniform,1,undefined,1,h,32,0,0,0,32,0,32,0,32,0,0,0,32,32,32,32,Wed Sep 25 09:12:25 2019,1500,The main experiment item,yes,FlankerTask.osexp,/Users/kaylicolpitts/Desktop/adv quant/lab 2,no,mono,no,18,no,white,no,yes,768,legacy,32,32,/Users/kaylicolpitts/Desktop/adv quant/lab 2/KC-subject-3.csv,legacy,Kafkaesque Koffka,3.2.8,0,h,NA,s,NA,NA,h,417,NA,35259,NA,NA,417,2,legacy,1024,2,48000,-16,experiment,SSHSS,3,odd,93801,38756,NA,NA,73440,3467,NA,NA,94893,3488,NA,NA,95004,95423,94881,95004,FlankerTask,31,16344,33,yes,1024
94.11764706,94.11764706,495.5588235,495.5588235,black,legacy,legacy,legacy,0,congruent,uniform,1,undefined,1,s,33,0,0,0,33,0,33,0,33,0,0,0,33,33,33,33,Wed Sep 25 09:12:25 2019,1500,The main experiment item,yes,FlankerTask.osexp,/Users/kaylicolpitts/Desktop/adv quant/lab 2,no,mono,no,18,no,white,no,yes,768,legacy,33,33,/Users/kaylicolpitts/Desktop/adv quant/lab 2/KC-subject-3.csv,legacy,Kafkaesque Koffka,3.2.8,0,s,NA,s,NA,NA,s,505,NA,35259,NA,NA,505,2,legacy,1024,2,48000,-16,experiment,SSSSS,3,odd,95438,38756,NA,NA,73440,3467,NA,NA,96530,3488,NA,NA,96643,97150,96518,96642,FlankerTask,32,16849,34,yes,1024
94.28571429,94.28571429,494.1142857,494.1142857,black,legacy,legacy,legacy,0,incongruent,uniform,1,undefined,1,h,34,0,0,0,34,0,34,0,34,0,0,0,34,34,34,34,Wed Sep 25 09:12:25 2019,1500,The main experiment item,yes,FlankerTask.osexp,/Users/kaylicolpitts/Desktop/adv quant/lab 2,no,mono,no,18,no,white,no,yes,768,legacy,34,34,/Users/kaylicolpitts/Desktop/adv quant/lab 2/KC-subject-3.csv,legacy,Kafkaesque Koffka,3.2.8,0,h,NA,s,NA,NA,h,445,NA,35259,NA,NA,445,2,legacy,1024,2,48000,-16,experiment,SSHSS,3,odd,97165,38756,NA,NA,73440,3467,NA,NA,98257,3488,NA,NA,98371,98818,98245,98371,FlankerTask,33,17294,35,yes,1024
94.44444444,94.44444444,491.4722222,491.4722222,black,legacy,legacy,legacy,0,incongruent,uniform,1,undefined,1,h,35,0,0,0,35,0,35,0,35,0,0,0,35,35,35,35,Wed Sep 25 09:12:25 2019,1500,The main experiment item,yes,FlankerTask.osexp,/Users/kaylicolpitts/Desktop/adv quant/lab 2,no,mono,no,18,no,white,no,yes,768,legacy,35,35,/Users/kaylicolpitts/Desktop/adv quant/lab 2/KC-subject-3.csv,legacy,Kafkaesque Koffka,3.2.8,0,h,NA,s,NA,NA,h,399,NA,35259,NA,NA,399,2,legacy,1024,2,48000,-16,experiment,SSHSS,3,odd,98833,38756,NA,NA,73440,3467,NA,NA,99926,3488,NA,NA,100039,100440,99913,100038,FlankerTask,34,17693,36,yes,1024
94.59459459,94.59459459,488.8108108,488.8108108,black,legacy,legacy,legacy,0,congruent,uniform,1,undefined,1,h,36,0,0,0,36,0,36,0,36,0,0,0,36,36,36,36,Wed Sep 25 09:12:25 2019,1500,The main experiment item,yes,FlankerTask.osexp,/Users/kaylicolpitts/Desktop/adv quant/lab 2,no,mono,no,18,no,white,no,yes,768,legacy,36,36,/Users/kaylicolpitts/Desktop/adv quant/lab 2/KC-subject-3.csv,legacy,Kafkaesque Koffka,3.2.8,0,h,NA,s,NA,NA,h,393,NA,35259,NA,NA,393,2,legacy,1024,2,48000,-16,experiment,HHHHH,3,odd,100455,38756,NA,NA,73440,3467,NA,NA,101546,3488,NA,NA,101658,102053,101534,101658,FlankerTask,35,18086,37,yes,1024
94.73684211,94.73684211,486.8157895,486.8157895,black,legacy,legacy,legacy,0,congruent,uniform,1,undefined,1,s,37,0,0,0,37,0,37,0,37,0,0,0,37,37,37,37,Wed Sep 25 09:12:25 2019,1500,The main experiment item,yes,FlankerTask.osexp,/Users/kaylicolpitts/Desktop/adv quant/lab 2,no,mono,no,18,no,white,no,yes,768,legacy,37,37,/Users/kaylicolpitts/Desktop/adv quant/lab 2/KC-subject-3.csv,legacy,Kafkaesque Koffka,3.2.8,0,s,NA,s,NA,NA,s,413,NA,35259,NA,NA,413,2,legacy,1024,2,48000,-16,experiment,SSSSS,3,odd,102067,38756,NA,NA,73440,3467,NA,NA,103159,3488,NA,NA,103273,103688,103147,103272,FlankerTask,36,18499,38,yes,1024
94.87179487,94.87179487,489.025641,489.025641,black,legacy,legacy,legacy,0,congruent,uniform,1,undefined,1,h,38,0,0,0,38,0,38,0,38,0,0,0,38,38,38,38,Wed Sep 25 09:12:25 2019,1500,The main experiment item,yes,FlankerTask.osexp,/Users/kaylicolpitts/Desktop/adv quant/lab 2,no,mono,no,18,no,white,no,yes,768,legacy,38,38,/Users/kaylicolpitts/Desktop/adv quant/lab 2/KC-subject-3.csv,legacy,Kafkaesque Koffka,3.2.8,0,h,NA,s,NA,NA,h,573,NA,35259,NA,NA,573,2,legacy,1024,2,48000,-16,experiment,HHHHH,3,odd,103703,38756,NA,NA,73440,3467,NA,NA,104797,3488,NA,NA,104909,105484,104785,104909,FlankerTask,37,19072,39,yes,1024
95,95,487.4,487.4,black,legacy,legacy,legacy,0,incongruent,uniform,1,undefined,1,s,39,0,0,0,39,0,39,0,39,0,0,0,39,39,39,39,Wed Sep 25 09:12:25 2019,1500,The main experiment item,yes,FlankerTask.osexp,/Users/kaylicolpitts/Desktop/adv quant/lab 2,no,mono,no,18,no,white,no,yes,768,legacy,39,39,/Users/kaylicolpitts/Desktop/adv quant/lab 2/KC-subject-3.csv,legacy,Kafkaesque Koffka,3.2.8,0,s,NA,s,NA,NA,s,424,NA,35259,NA,NA,424,2,legacy,1024,2,48000,-16,experiment,HHSHH,3,odd,105499,38756,NA,NA,73440,3467,NA,NA,106592,3488,NA,NA,106705,107131,106579,106704,FlankerTask,38,19496,40,yes,1024
95.12195122,95.12195122,486.1707317,486.1707317,black,legacy,legacy,legacy,0,incongruent,uniform,1,undefined,1,h,40,0,0,0,40,0,40,0,40,0,0,0,40,40,40,40,Wed Sep 25 09:12:25 2019,1500,The main experiment item,yes,FlankerTask.osexp,/Users/kaylicolpitts/Desktop/adv quant/lab 2,no,mono,no,18,no,white,no,yes,768,legacy,40,40,/Users/kaylicolpitts/Desktop/adv quant/lab 2/KC-subject-3.csv,legacy,Kafkaesque Koffka,3.2.8,0,h,NA,s,NA,NA,h,437,NA,35259,NA,NA,437,2,legacy,1024,2,48000,-16,experiment,SSHSS,3,odd,107146,38756,NA,NA,73440,3467,NA,NA,108239,3488,NA,NA,108352,108791,108227,108352,FlankerTask,39,19933,41,yes,1024
95.23809524,95.23809524,484.4761905,484.4761905,black,legacy,legacy,legacy,0,congruent,uniform,1,undefined,1,h,41,0,0,0,41,0,41,0,41,0,0,0,41,41,41,41,Wed Sep 25 09:12:25 2019,1500,The main experiment item,yes,FlankerTask.osexp,/Users/kaylicolpitts/Desktop/adv quant/lab 2,no,mono,no,18,no,white,no,yes,768,legacy,41,41,/Users/kaylicolpitts/Desktop/adv quant/lab 2/KC-subject-3.csv,legacy,Kafkaesque Koffka,3.2.8,0,h,NA,s,NA,NA,h,415,NA,35259,NA,NA,415,2,legacy,1024,2,48000,-16,experiment,HHHHH,3,odd,108805,38756,NA,NA,73440,3467,NA,NA,109906,3488,NA,NA,110019,110436,109894,110019,FlankerTask,40,20348,42,yes,1024
95.34883721,95.34883721,482.9302326,482.9302326,black,legacy,legacy,legacy,0,congruent,uniform,1,undefined,1,s,42,0,0,0,42,0,42,0,42,0,0,0,42,42,42,42,Wed Sep 25 09:12:25 2019,1500,The main experiment item,yes,FlankerTask.osexp,/Users/kaylicolpitts/Desktop/adv quant/lab 2,no,mono,no,18,no,white,no,yes,768,legacy,42,42,/Users/kaylicolpitts/Desktop/adv quant/lab 2/KC-subject-3.csv,legacy,Kafkaesque Koffka,3.2.8,0,s,NA,s,NA,NA,s,418,NA,35259,NA,NA,418,2,legacy,1024,2,48000,-16,experiment,SSSSS,3,odd,110452,38756,NA,NA,73440,3467,NA,NA,111543,3488,NA,NA,111656,112076,111531,111656,FlankerTask,41,20766,43,yes,1024
95.45454545,95.45454545,481.2954545,481.2954545,black,legacy,legacy,legacy,0,congruent,uniform,1,undefined,1,h,43,0,0,0,43,0,43,0,43,0,0,0,43,43,43,43,Wed Sep 25 09:12:25 2019,1500,The main experiment item,yes,FlankerTask.osexp,/Users/kaylicolpitts/Desktop/adv quant/lab 2,no,mono,no,18,no,white,no,yes,768,legacy,43,43,/Users/kaylicolpitts/Desktop/adv quant/lab 2/KC-subject-3.csv,legacy,Kafkaesque Koffka,3.2.8,0,h,NA,s,NA,NA,h,411,NA,35259,NA,NA,411,2,legacy,1024,2,48000,-16,experiment,HHHHH,3,odd,112090,38756,NA,NA,73440,3467,NA,NA,113182,3488,NA,NA,113294,113707,113169,113294,FlankerTask,42,21177,44,yes,1024
95.55555556,95.55555556,479.2222222,479.2222222,black,legacy,legacy,legacy,0,congruent,uniform,1,undefined,1,s,44,0,0,0,44,0,44,0,44,0,0,0,44,44,44,44,Wed Sep 25 09:12:25 2019,1500,The main experiment item,yes,FlankerTask.osexp,/Users/kaylicolpitts/Desktop/adv quant/lab 2,no,mono,no,18,no,white,no,yes,768,legacy,44,44,/Users/kaylicolpitts/Desktop/adv quant/lab 2/KC-subject-3.csv,legacy,Kafkaesque Koffka,3.2.8,0,s,NA,s,NA,NA,s,388,NA,35259,NA,NA,388,2,legacy,1024,2,48000,-16,experiment,SSSSS,3,odd,113721,38756,NA,NA,73440,3467,NA,NA,114815,3488,NA,NA,114928,115318,114803,114928,FlankerTask,43,21565,45,yes,1024
95.65217391,95.65217391,477.5434783,477.5434783,black,legacy,legacy,legacy,0,incongruent,uniform,1,undefined,1,h,45,0,0,0,45,0,45,0,45,0,0,0,45,45,45,45,Wed Sep 25 09:12:25 2019,1500,The main experiment item,yes,FlankerTask.osexp,/Users/kaylicolpitts/Desktop/adv quant/lab 2,no,mono,no,18,no,white,no,yes,768,legacy,45,45,/Users/kaylicolpitts/Desktop/adv quant/lab 2/KC-subject-3.csv,legacy,Kafkaesque Koffka,3.2.8,0,h,NA,s,NA,NA,h,402,NA,35259,NA,NA,402,2,legacy,1024,2,48000,-16,experiment,SSHSS,3,odd,115333,38756,NA,NA,73440,3467,NA,NA,116425,3488,NA,NA,116538,116942,116413,116538,FlankerTask,44,21967,46,yes,1024
95.74468085,95.74468085,478.4468085,478.4468085,black,legacy,legacy,legacy,0,congruent,uniform,1,undefined,1,h,46,0,0,0,46,0,46,0,46,0,0,0,46,46,46,46,Wed Sep 25 09:12:25 2019,1500,The main experiment item,yes,FlankerTask.osexp,/Users/kaylicolpitts/Desktop/adv quant/lab 2,no,mono,no,18,no,white,no,yes,768,legacy,46,46,/Users/kaylicolpitts/Desktop/adv quant/lab 2/KC-subject-3.csv,legacy,Kafkaesque Koffka,3.2.8,0,h,NA,s,NA,NA,h,520,NA,35259,NA,NA,520,2,legacy,1024,2,48000,-16,experiment,HHHHH,3,odd,116956,38756,NA,NA,73440,3467,NA,NA,118049,3488,NA,NA,118162,118684,118037,118162,FlankerTask,45,22487,47,yes,1024
95.83333333,95.83333333,477.9583333,477.9583333,black,legacy,legacy,legacy,0,incongruent,uniform,1,undefined,1,s,47,0,0,0,47,0,47,0,47,0,0,0,47,47,47,47,Wed Sep 25 09:12:25 2019,1500,The main experiment item,yes,FlankerTask.osexp,/Users/kaylicolpitts/Desktop/adv quant/lab 2,no,mono,no,18,no,white,no,yes,768,legacy,47,47,/Users/kaylicolpitts/Desktop/adv quant/lab 2/KC-subject-3.csv,legacy,Kafkaesque Koffka,3.2.8,0,s,NA,s,NA,NA,s,455,NA,35259,NA,NA,455,2,legacy,1024,2,48000,-16,experiment,HHSHH,3,odd,118698,38756,NA,NA,73440,3467,NA,NA,119793,3488,NA,NA,119906,120363,119780,119905,FlankerTask,46,22942,48,yes,1024
95.91836735,95.91836735,481.3877551,481.3877551,black,legacy,legacy,legacy,0,incongruent,uniform,1,undefined,1,s,48,0,0,0,48,0,48,0,48,0,0,0,48,48,48,48,Wed Sep 25 09:12:25 2019,1500,The main experiment item,yes,FlankerTask.osexp,/Users/kaylicolpitts/Desktop/adv quant/lab 2,no,mono,no,18,no,white,no,yes,768,legacy,48,48,/Users/kaylicolpitts/Desktop/adv quant/lab 2/KC-subject-3.csv,legacy,Kafkaesque Koffka,3.2.8,0,s,NA,s,NA,NA,s,646,NA,35259,NA,NA,646,2,legacy,1024,2,48000,-16,experiment,HHSHH,3,odd,120377,38756,NA,NA,73440,3467,NA,NA,121469,3488,NA,NA,121583,122230,121457,121583,FlankerTask,47,23588,49,yes,1024
96,96,479.88,479.88,black,legacy,legacy,legacy,0,incongruent,uniform,1,undefined,1,s,49,0,0,0,49,0,49,0,49,0,0,0,49,49,49,49,Wed Sep 25 09:12:25 2019,1500,The main experiment item,yes,FlankerTask.osexp,/Users/kaylicolpitts/Desktop/adv quant/lab 2,no,mono,no,18,no,white,no,yes,768,legacy,49,49,/Users/kaylicolpitts/Desktop/adv quant/lab 2/KC-subject-3.csv,legacy,Kafkaesque Koffka,3.2.8,0,s,NA,s,NA,NA,s,406,NA,35259,NA,NA,406,2,legacy,1024,2,48000,-16,experiment,HHSHH,3,odd,122245,38756,NA,NA,73440,3467,NA,NA,123339,3488,NA,NA,123452,123859,123327,123451,FlankerTask,48,23994,50,yes,1024
96.07843137,96.07843137,477.1372549,477.1372549,black,legacy,legacy,legacy,0,congruent,uniform,1,undefined,1,s,50,0,0,0,50,0,50,0,50,0,0,0,50,50,50,50,Wed Sep 25 09:12:25 2019,1500,The main experiment item,yes,FlankerTask.osexp,/Users/kaylicolpitts/Desktop/adv quant/lab 2,no,mono,no,18,no,white,no,yes,768,legacy,50,50,/Users/kaylicolpitts/Desktop/adv quant/lab 2/KC-subject-3.csv,legacy,Kafkaesque Koffka,3.2.8,0,s,NA,s,NA,NA,s,340,NA,35259,NA,NA,340,2,legacy,1024,2,48000,-16,experiment,SSSSS,3,odd,123874,38756,NA,NA,73440,3467,NA,NA,124965,3488,NA,NA,125078,125419,124953,125078,FlankerTask,49,24334,51,yes,1024
96.15384615,96.15384615,475.7692308,475.7692308,black,legacy,legacy,legacy,0,congruent,uniform,1,undefined,1,h,51,0,0,0,51,0,51,0,51,0,0,0,51,51,51,51,Wed Sep 25 09:12:25 2019,1500,The main experiment item,yes,FlankerTask.osexp,/Users/kaylicolpitts/Desktop/adv quant/lab 2,no,mono,no,18,no,white,no,yes,768,legacy,51,51,/Users/kaylicolpitts/Desktop/adv quant/lab 2/KC-subject-3.csv,legacy,Kafkaesque Koffka,3.2.8,0,h,NA,s,NA,NA,h,406,NA,35259,NA,NA,406,2,legacy,1024,2,48000,-16,experiment,HHHHH,3,odd,125434,38756,NA,NA,73440,3467,NA,NA,126526,3488,NA,NA,126639,127047,126514,126638,FlankerTask,50,24740,52,yes,1024
96.22641509,96.22641509,474.6981132,474.6981132,black,legacy,legacy,legacy,0,incongruent,uniform,1,undefined,1,h,52,0,0,0,52,0,52,0,52,0,0,0,52,52,52,52,Wed Sep 25 09:12:25 2019,1500,The main experiment item,yes,FlankerTask.osexp,/Users/kaylicolpitts/Desktop/adv quant/lab 2,no,mono,no,18,no,white,no,yes,768,legacy,52,52,/Users/kaylicolpitts/Desktop/adv quant/lab 2/KC-subject-3.csv,legacy,Kafkaesque Koffka,3.2.8,0,h,NA,s,NA,NA,h,419,NA,35259,NA,NA,419,2,legacy,1024,2,48000,-16,experiment,SSHSS,3,odd,127062,38756,NA,NA,73440,3467,NA,NA,128154,3488,NA,NA,128268,128688,128142,128268,FlankerTask,51,25159,53,yes,1024
94.44444444,94.44444444,472.4074074,472.4074074,black,legacy,legacy,legacy,0,incongruent,uniform,0,undefined,0,s,53,0,0,0,53,0,53,0,53,0,0,0,53,53,53,53,Wed Sep 25 09:12:25 2019,1500,The main experiment item,yes,FlankerTask.osexp,/Users/kaylicolpitts/Desktop/adv quant/lab 2,no,mono,no,18,no,white,no,yes,768,legacy,53,53,/Users/kaylicolpitts/Desktop/adv quant/lab 2/KC-subject-3.csv,legacy,Kafkaesque Koffka,3.2.8,0,h,NA,s,NA,NA,h,351,NA,35259,NA,NA,351,2,legacy,1024,2,48000,-16,experiment,HHSHH,3,odd,128703,38756,NA,NA,73440,3467,NA,NA,129797,3488,NA,NA,129910,130263,129785,129910,FlankerTask,51,25510,54,yes,1024
94.54545455,94.54545455,471.4363636,471.4363636,black,legacy,legacy,legacy,0,congruent,uniform,1,undefined,1,h,54,0,0,0,54,0,54,0,54,0,0,0,54,54,54,54,Wed Sep 25 09:12:25 2019,1500,The main experiment item,yes,FlankerTask.osexp,/Users/kaylicolpitts/Desktop/adv quant/lab 2,no,mono,no,18,no,white,no,yes,768,legacy,54,54,/Users/kaylicolpitts/Desktop/adv quant/lab 2/KC-subject-3.csv,legacy,Kafkaesque Koffka,3.2.8,0,h,NA,s,NA,NA,h,419,NA,35259,NA,NA,419,2,legacy,1024,2,48000,-16,experiment,HHHHH,3,odd,130790,38756,NA,NA,130278,3467,NA,NA,131882,3488,NA,NA,131995,132416,131870,131995,FlankerTask,52,25929,55,yes,1024
94.64285714,94.64285714,472.3214286,472.3214286,black,legacy,legacy,legacy,0,incongruent,uniform,1,undefined,1,h,55,0,0,0,55,0,55,0,55,0,0,0,55,55,55,55,Wed Sep 25 09:12:25 2019,1500,The main experiment item,yes,FlankerTask.osexp,/Users/kaylicolpitts/Desktop/adv quant/lab 2,no,mono,no,18,no,white,no,yes,768,legacy,55,55,/Users/kaylicolpitts/Desktop/adv quant/lab 2/KC-subject-3.csv,legacy,Kafkaesque Koffka,3.2.8,0,h,NA,s,NA,NA,h,521,NA,35259,NA,NA,521,2,legacy,1024,2,48000,-16,experiment,SSHSS,3,odd,132431,38756,NA,NA,130278,3467,NA,NA,133524,3488,NA,NA,133637,134160,133512,133637,FlankerTask,53,26450,56,yes,1024
94.73684211,94.73684211,471.4035088,471.4035088,black,legacy,legacy,legacy,0,congruent,uniform,1,undefined,1,s,56,0,0,0,56,0,56,0,56,0,0,0,56,56,56,56,Wed Sep 25 09:12:25 2019,1500,The main experiment item,yes,FlankerTask.osexp,/Users/kaylicolpitts/Desktop/adv quant/lab 2,no,mono,no,18,no,white,no,yes,768,legacy,56,56,/Users/kaylicolpitts/Desktop/adv quant/lab 2/KC-subject-3.csv,legacy,Kafkaesque Koffka,3.2.8,0,s,NA,s,NA,NA,s,420,NA,35259,NA,NA,420,2,legacy,1024,2,48000,-16,experiment,SSSSS,3,odd,134175,38756,NA,NA,130278,3467,NA,NA,135267,3488,NA,NA,135380,135802,135254,135379,FlankerTask,54,26870,57,yes,1024
94.82758621,94.82758621,470.4137931,470.4137931,black,legacy,legacy,legacy,0,incongruent,uniform,1,undefined,1,s,57,0,0,0,57,0,57,0,57,0,0,0,57,57,57,57,Wed Sep 25 09:12:25 2019,1500,The main experiment item,yes,FlankerTask.osexp,/Users/kaylicolpitts/Desktop/adv quant/lab 2,no,mono,no,18,no,white,no,yes,768,legacy,57,57,/Users/kaylicolpitts/Desktop/adv quant/lab 2/KC-subject-3.csv,legacy,Kafkaesque Koffka,3.2.8,0,s,NA,s,NA,NA,s,414,NA,35259,NA,NA,414,2,legacy,1024,2,48000,-16,experiment,HHSHH,3,odd,135817,38756,NA,NA,130278,3467,NA,NA,136910,3488,NA,NA,137022,137439,136897,137022,FlankerTask,55,27284,58,yes,1024
94.91525424,94.91525424,468.3389831,468.3389831,black,legacy,legacy,legacy,0,congruent,uniform,1,undefined,1,s,58,0,0,0,58,0,58,0,58,0,0,0,58,58,58,58,Wed Sep 25 09:12:25 2019,1500,The main experiment item,yes,FlankerTask.osexp,/Users/kaylicolpitts/Desktop/adv quant/lab 2,no,mono,no,18,no,white,no,yes,768,legacy,58,58,/Users/kaylicolpitts/Desktop/adv quant/lab 2/KC-subject-3.csv,legacy,Kafkaesque Koffka,3.2.8,0,s,NA,s,NA,NA,s,348,NA,35259,NA,NA,348,2,legacy,1024,2,48000,-16,experiment,SSSSS,3,odd,137454,38756,NA,NA,130278,3467,NA,NA,138546,3488,NA,NA,138659,139009,138534,138658,FlankerTask,56,27632,59,yes,1024
95,95,469.3166667,469.3166667,black,legacy,legacy,legacy,0,incongruent,uniform,1,undefined,1,s,59,0,0,0,59,0,59,0,59,0,0,0,59,59,59,59,Wed Sep 25 09:12:25 2019,1500,The main experiment item,yes,FlankerTask.osexp,/Users/kaylicolpitts/Desktop/adv quant/lab 2,no,mono,no,18,no,white,no,yes,768,legacy,59,59,/Users/kaylicolpitts/Desktop/adv quant/lab 2/KC-subject-3.csv,legacy,Kafkaesque Koffka,3.2.8,0,s,NA,s,NA,NA,s,527,NA,35259,NA,NA,527,2,legacy,1024,2,48000,-16,experiment,HHSHH,3,odd,139024,38756,NA,NA,130278,3467,NA,NA,140116,3488,NA,NA,140229,140758,140104,140228,FlankerTask,57,28159,60,yes,1024
95.08196721,95.08196721,468.6557377,468.6557377,black,legacy,legacy,legacy,0,congruent,uniform,1,undefined,1,h,60,0,0,0,60,0,60,0,60,0,0,0,60,60,60,60,Wed Sep 25 09:12:25 2019,1500,The main experiment item,yes,FlankerTask.osexp,/Users/kaylicolpitts/Desktop/adv quant/lab 2,no,mono,no,18,no,white,no,yes,768,legacy,60,60,/Users/kaylicolpitts/Desktop/adv quant/lab 2/KC-subject-3.csv,legacy,Kafkaesque Koffka,3.2.8,0,h,NA,s,NA,NA,h,429,NA,35259,NA,NA,429,2,legacy,1024,2,48000,-16,experiment,HHHHH,3,odd,140775,38756,NA,NA,130278,3467,NA,NA,141867,3488,NA,NA,141980,142411,141855,141980,FlankerTask,58,28588,61,yes,1024
95.16129032,95.16129032,467.4193548,467.4193548,black,legacy,legacy,legacy,0,congruent,uniform,1,undefined,1,s,61,0,0,0,61,0,61,0,61,0,0,0,61,61,61,61,Wed Sep 25 09:12:25 2019,1500,The main experiment item,yes,FlankerTask.osexp,/Users/kaylicolpitts/Desktop/adv quant/lab 2,no,mono,no,18,no,white,no,yes,768,legacy,61,61,/Users/kaylicolpitts/Desktop/adv quant/lab 2/KC-subject-3.csv,legacy,Kafkaesque Koffka,3.2.8,0,s,NA,s,NA,NA,s,392,NA,35259,NA,NA,392,2,legacy,1024,2,48000,-16,experiment,SSSSS,3,odd,142426,38756,NA,NA,130278,3467,NA,NA,143518,3488,NA,NA,143631,144025,143505,143631,FlankerTask,59,28980,62,yes,1024
95.23809524,95.23809524,467.1269841,467.1269841,black,legacy,legacy,legacy,0,incongruent,uniform,1,undefined,1,s,62,0,0,0,62,0,62,0,62,0,0,0,62,62,62,62,Wed Sep 25 09:12:25 2019,1500,The main experiment item,yes,FlankerTask.osexp,/Users/kaylicolpitts/Desktop/adv quant/lab 2,no,mono,no,18,no,white,no,yes,768,legacy,62,62,/Users/kaylicolpitts/Desktop/adv quant/lab 2/KC-subject-3.csv,legacy,Kafkaesque Koffka,3.2.8,0,s,NA,s,NA,NA,s,449,NA,35259,NA,NA,449,2,legacy,1024,2,48000,-16,experiment,HHSHH,3,odd,144039,38756,NA,NA,130278,3467,NA,NA,145132,3488,NA,NA,145245,145696,145120,145245,FlankerTask,60,29429,63,yes,1024
95.3125,95.3125,466.671875,466.671875,black,legacy,legacy,legacy,0,incongruent,uniform,1,undefined,1,h,63,0,0,0,63,0,63,0,63,0,0,0,63,63,63,63,Wed Sep 25 09:12:25 2019,1500,The main experiment item,yes,FlankerTask.osexp,/Users/kaylicolpitts/Desktop/adv quant/lab 2,no,mono,no,18,no,white,no,yes,768,legacy,63,63,/Users/kaylicolpitts/Desktop/adv quant/lab 2/KC-subject-3.csv,legacy,Kafkaesque Koffka,3.2.8,0,h,NA,s,NA,NA,h,438,NA,35259,NA,NA,438,2,legacy,1024,2,48000,-16,experiment,SSHSS,3,odd,145711,38756,NA,NA,130278,3467,NA,NA,146805,3488,NA,NA,146919,147359,146793,146919,FlankerTask,61,29867,64,yes,1024
95.38461538,95.38461538,466.1384615,466.1384615,black,legacy,legacy,legacy,0,incongruent,uniform,1,undefined,1,s,64,0,0,0,64,0,64,0,64,0,0,0,64,64,64,64,Wed Sep 25 09:12:25 2019,1500,The main experiment item,yes,FlankerTask.osexp,/Users/kaylicolpitts/Desktop/adv quant/lab 2,no,mono,no,18,no,white,no,yes,768,legacy,64,64,/Users/kaylicolpitts/Desktop/adv quant/lab 2/KC-subject-3.csv,legacy,Kafkaesque Koffka,3.2.8,0,s,NA,s,NA,NA,s,432,NA,35259,NA,NA,432,2,legacy,1024,2,48000,-16,experiment,HHSHH,3,odd,147373,38756,NA,NA,130278,3467,NA,NA,148466,3488,NA,NA,148578,149012,148453,148578,FlankerTask,62,30299,65,yes,1024
95.45454545,95.45454545,465.3030303,465.3030303,black,legacy,legacy,legacy,0,congruent,uniform,1,undefined,1,h,65,0,0,0,65,0,65,0,65,0,0,0,65,65,65,65,Wed Sep 25 09:12:25 2019,1500,The main experiment item,yes,FlankerTask.osexp,/Users/kaylicolpitts/Desktop/adv quant/lab 2,no,mono,no,18,no,white,no,yes,768,legacy,65,65,/Users/kaylicolpitts/Desktop/adv quant/lab 2/KC-subject-3.csv,legacy,Kafkaesque Koffka,3.2.8,0,h,NA,s,NA,NA,h,411,NA,35259,NA,NA,411,2,legacy,1024,2,48000,-16,experiment,HHHHH,3,odd,149027,38756,NA,NA,130278,3467,NA,NA,150119,3488,NA,NA,150232,150645,150107,150232,FlankerTask,63,30710,66,yes,1024
95.52238806,95.52238806,466.2686567,466.2686567,black,legacy,legacy,legacy,0,incongruent,uniform,1,undefined,1,h,66,0,0,0,66,0,66,0,66,0,0,0,66,66,66,66,Wed Sep 25 09:12:25 2019,1500,The main experiment item,yes,FlankerTask.osexp,/Users/kaylicolpitts/Desktop/adv quant/lab 2,no,mono,no,18,no,white,no,yes,768,legacy,66,66,/Users/kaylicolpitts/Desktop/adv quant/lab 2/KC-subject-3.csv,legacy,Kafkaesque Koffka,3.2.8,0,h,NA,s,NA,NA,h,530,NA,35259,NA,NA,530,2,legacy,1024,2,48000,-16,experiment,SSHSS,3,odd,150659,38756,NA,NA,130278,3467,NA,NA,151753,3488,NA,NA,151865,152397,151739,151865,FlankerTask,64,31240,67,yes,1024
95.58823529,95.58823529,467.9117647,467.9117647,black,legacy,legacy,legacy,0,incongruent,uniform,1,undefined,1,s,67,0,0,0,67,0,67,0,67,0,0,0,67,67,67,67,Wed Sep 25 09:12:25 2019,1500,The main experiment item,yes,FlankerTask.osexp,/Users/kaylicolpitts/Desktop/adv quant/lab 2,no,mono,no,18,no,white,no,yes,768,legacy,67,67,/Users/kaylicolpitts/Desktop/adv quant/lab 2/KC-subject-3.csv,legacy,Kafkaesque Koffka,3.2.8,0,s,NA,s,NA,NA,s,578,NA,35259,NA,NA,578,2,legacy,1024,2,48000,-16,experiment,HHSHH,3,odd,152411,38756,NA,NA,130278,3467,NA,NA,153504,3488,NA,NA,153617,154197,153492,153617,FlankerTask,65,31818,68,yes,1024
95.65217391,95.65217391,467.3623188,467.3623188,black,legacy,legacy,legacy,0,congruent,uniform,1,undefined,1,s,68,0,0,0,68,0,68,0,68,0,0,0,68,68,68,68,Wed Sep 25 09:12:25 2019,1500,The main experiment item,yes,FlankerTask.osexp,/Users/kaylicolpitts/Desktop/adv quant/lab 2,no,mono,no,18,no,white,no,yes,768,legacy,68,68,/Users/kaylicolpitts/Desktop/adv quant/lab 2/KC-subject-3.csv,legacy,Kafkaesque Koffka,3.2.8,0,s,NA,s,NA,NA,s,430,NA,35259,NA,NA,430,2,legacy,1024,2,48000,-16,experiment,SSSSS,3,odd,154211,38756,NA,NA,130278,3467,NA,NA,155303,3488,NA,NA,155416,155848,155291,155416,FlankerTask,66,32248,69,yes,1024
95.71428571,95.71428571,467.6714286,467.6714286,black,legacy,legacy,legacy,0,incongruent,uniform,1,undefined,1,h,69,0,0,0,69,0,69,0,69,0,0,0,69,69,69,69,Wed Sep 25 09:12:25 2019,1500,The main experiment item,yes,FlankerTask.osexp,/Users/kaylicolpitts/Desktop/adv quant/lab 2,no,mono,no,18,no,white,no,yes,768,legacy,69,69,/Users/kaylicolpitts/Desktop/adv quant/lab 2/KC-subject-3.csv,legacy,Kafkaesque Koffka,3.2.8,0,h,NA,s,NA,NA,h,489,NA,35259,NA,NA,489,2,legacy,1024,2,48000,-16,experiment,SSHSS,3,odd,155862,38756,NA,NA,130278,3467,NA,NA,156954,3488,NA,NA,157068,157559,156942,157068,FlankerTask,67,32737,70,yes,1024
94.36619718,94.36619718,467.3661972,467.3661972,black,legacy,legacy,legacy,0,incongruent,uniform,0,undefined,0,h,70,0,0,0,70,0,70,0,70,0,0,0,70,70,70,70,Wed Sep 25 09:12:25 2019,1500,The main experiment item,yes,FlankerTask.osexp,/Users/kaylicolpitts/Desktop/adv quant/lab 2,no,mono,no,18,no,white,no,yes,768,legacy,70,70,/Users/kaylicolpitts/Desktop/adv quant/lab 2/KC-subject-3.csv,legacy,Kafkaesque Koffka,3.2.8,0,s,NA,s,NA,NA,s,446,NA,35259,NA,NA,446,2,legacy,1024,2,48000,-16,experiment,SSHSS,3,odd,157573,38756,NA,NA,130278,3467,NA,NA,158666,3488,NA,NA,158779,159227,158654,158778,FlankerTask,67,33183,71,yes,1024
94.44444444,94.44444444,468.1388889,468.1388889,black,legacy,legacy,legacy,0,incongruent,uniform,1,undefined,1,h,71,0,0,0,71,0,71,0,71,0,0,0,71,71,71,71,Wed Sep 25 09:12:25 2019,1500,The main experiment item,yes,FlankerTask.osexp,/Users/kaylicolpitts/Desktop/adv quant/lab 2,no,mono,no,18,no,white,no,yes,768,legacy,71,71,/Users/kaylicolpitts/Desktop/adv quant/lab 2/KC-subject-3.csv,legacy,Kafkaesque Koffka,3.2.8,0,h,NA,s,NA,NA,h,523,NA,35259,NA,NA,523,2,legacy,1024,2,48000,-16,experiment,SSHSS,3,odd,159755,38756,NA,NA,159241,3467,NA,NA,160848,3488,NA,NA,160961,161487,160836,160960,FlankerTask,68,33706,72,yes,1024
94.52054795,94.52054795,468.0273973,468.0273973,black,legacy,legacy,legacy,0,congruent,uniform,1,undefined,1,h,72,0,0,0,72,0,72,0,72,0,0,0,72,72,72,72,Wed Sep 25 09:12:25 2019,1500,The main experiment item,yes,FlankerTask.osexp,/Users/kaylicolpitts/Desktop/adv quant/lab 2,no,mono,no,18,no,white,no,yes,768,legacy,72,72,/Users/kaylicolpitts/Desktop/adv quant/lab 2/KC-subject-3.csv,legacy,Kafkaesque Koffka,3.2.8,0,h,NA,s,NA,NA,h,460,NA,35259,NA,NA,460,2,legacy,1024,2,48000,-16,experiment,HHHHH,3,odd,161501,38756,NA,NA,159241,3467,NA,NA,162593,3488,NA,NA,162705,163167,162581,162705,FlankerTask,69,34166,73,yes,1024
94.59459459,94.59459459,468.7837838,468.7837838,black,legacy,legacy,legacy,0,congruent,uniform,1,undefined,1,h,73,0,0,0,73,0,73,0,73,0,0,0,73,73,73,73,Wed Sep 25 09:12:25 2019,1500,The main experiment item,yes,FlankerTask.osexp,/Users/kaylicolpitts/Desktop/adv quant/lab 2,no,mono,no,18,no,white,no,yes,768,legacy,73,73,/Users/kaylicolpitts/Desktop/adv quant/lab 2/KC-subject-3.csv,legacy,Kafkaesque Koffka,3.2.8,0,h,NA,s,NA,NA,h,524,NA,35259,NA,NA,524,2,legacy,1024,2,48000,-16,experiment,HHHHH,3,odd,163182,38756,NA,NA,159241,3467,NA,NA,164276,3488,NA,NA,164389,164915,164262,164389,FlankerTask,70,34690,74,yes,1024
94.66666667,94.66666667,468.9866667,468.9866667,black,legacy,legacy,legacy,0,incongruent,uniform,1,undefined,1,h,74,0,0,0,74,0,74,0,74,0,0,0,74,74,74,74,Wed Sep 25 09:12:25 2019,1500,The main experiment item,yes,FlankerTask.osexp,/Users/kaylicolpitts/Desktop/adv quant/lab 2,no,mono,no,18,no,white,no,yes,768,legacy,74,74,/Users/kaylicolpitts/Desktop/adv quant/lab 2/KC-subject-3.csv,legacy,Kafkaesque Koffka,3.2.8,0,h,NA,s,NA,NA,h,484,NA,35259,NA,NA,484,2,legacy,1024,2,48000,-16,experiment,SSHSS,3,odd,164930,38756,NA,NA,159241,3467,NA,NA,166021,3488,NA,NA,166134,166620,166009,166134,FlankerTask,71,35174,75,yes,1024
94.73684211,94.73684211,467.7236842,467.7236842,black,legacy,legacy,legacy,0,congruent,uniform,1,undefined,1,h,75,0,0,0,75,0,75,0,75,0,0,0,75,75,75,75,Wed Sep 25 09:12:25 2019,1500,The main experiment item,yes,FlankerTask.osexp,/Users/kaylicolpitts/Desktop/adv quant/lab 2,no,mono,no,18,no,white,no,yes,768,legacy,75,75,/Users/kaylicolpitts/Desktop/adv quant/lab 2/KC-subject-3.csv,legacy,Kafkaesque Koffka,3.2.8,0,h,NA,s,NA,NA,h,373,NA,35259,NA,NA,373,2,legacy,1024,2,48000,-16,experiment,HHHHH,3,odd,166635,38756,NA,NA,159241,3467,NA,NA,167729,3488,NA,NA,167842,168217,167716,167842,FlankerTask,72,35547,76,yes,1024
94.80519481,94.80519481,465.5974026,465.5974026,black,legacy,legacy,legacy,0,congruent,uniform,1,undefined,1,h,76,0,0,0,76,0,76,0,76,0,0,0,76,76,76,76,Wed Sep 25 09:12:25 2019,1500,The main experiment item,yes,FlankerTask.osexp,/Users/kaylicolpitts/Desktop/adv quant/lab 2,no,mono,no,18,no,white,no,yes,768,legacy,76,76,/Users/kaylicolpitts/Desktop/adv quant/lab 2/KC-subject-3.csv,legacy,Kafkaesque Koffka,3.2.8,0,h,NA,s,NA,NA,h,304,NA,35259,NA,NA,304,2,legacy,1024,2,48000,-16,experiment,HHHHH,3,odd,168232,38756,NA,NA,159241,3467,NA,NA,169325,3488,NA,NA,169438,169745,169313,169438,FlankerTask,73,35851,77,yes,1024
93.58974359,93.58974359,464.9615385,464.9615385,black,legacy,legacy,legacy,0,incongruent,uniform,0,undefined,0,s,77,0,0,0,77,0,77,0,77,0,0,0,77,77,77,77,Wed Sep 25 09:12:25 2019,1500,The main experiment item,yes,FlankerTask.osexp,/Users/kaylicolpitts/Desktop/adv quant/lab 2,no,mono,no,18,no,white,no,yes,768,legacy,77,77,/Users/kaylicolpitts/Desktop/adv quant/lab 2/KC-subject-3.csv,legacy,Kafkaesque Koffka,3.2.8,0,h,NA,s,NA,NA,h,416,NA,35259,NA,NA,416,2,legacy,1024,2,48000,-16,experiment,HHSHH,3,odd,169765,38756,NA,NA,159241,3467,NA,NA,170859,3488,NA,NA,170971,171389,170847,170971,FlankerTask,73,36267,78,yes,1024
93.67088608,93.67088608,465.556962,465.556962,black,legacy,legacy,legacy,0,incongruent,uniform,1,undefined,1,s,78,0,0,0,78,0,78,0,78,0,0,0,78,78,78,78,Wed Sep 25 09:12:25 2019,1500,The main experiment item,yes,FlankerTask.osexp,/Users/kaylicolpitts/Desktop/adv quant/lab 2,no,mono,no,18,no,white,no,yes,768,legacy,78,78,/Users/kaylicolpitts/Desktop/adv quant/lab 2/KC-subject-3.csv,legacy,Kafkaesque Koffka,3.2.8,0,s,NA,s,NA,NA,s,512,NA,35259,NA,NA,512,2,legacy,1024,2,48000,-16,experiment,HHSHH,3,odd,171920,38756,NA,NA,171407,3467,NA,NA,173011,3488,NA,NA,173124,173639,173000,173124,FlankerTask,74,36779,79,yes,1024
93.75,93.75,464.875,464.875,black,legacy,legacy,legacy,0,congruent,uniform,1,undefined,1,h,79,0,0,0,79,0,79,0,79,0,0,0,79,79,79,79,Wed Sep 25 09:12:25 2019,1500,The main experiment item,yes,FlankerTask.osexp,/Users/kaylicolpitts/Desktop/adv quant/lab 2,no,mono,no,18,no,white,no,yes,768,legacy,79,79,/Users/kaylicolpitts/Desktop/adv quant/lab 2/KC-subject-3.csv,legacy,Kafkaesque Koffka,3.2.8,0,h,NA,s,NA,NA,h,411,NA,35259,NA,NA,411,2,legacy,1024,2,48000,-16,experiment,HHHHH,3,odd,173653,38756,NA,NA,171407,3467,NA,NA,174747,3488,NA,NA,174859,175272,174733,174859,FlankerTask,75,37190,80,yes,1024
93.82716049,93.82716049,465.1358025,465.1358025,black,legacy,legacy,legacy,0,incongruent,uniform,1,undefined,1,s,80,0,0,0,80,0,80,0,80,0,0,0,80,80,80,80,Wed Sep 25 09:12:25 2019,600,The main experiment item,yes,FlankerTask.osexp,/Users/kaylicolpitts/Desktop/adv quant/lab 2,no,mono,no,18,no,white,no,yes,768,legacy,0,79,/Users/kaylicolpitts/Desktop/adv quant/lab 2/KC-subject-3.csv,legacy,Kafkaesque Koffka,3.2.8,0,s,NA,s,h,NA,s,486,NA,35259,12959,NA,486,2,legacy,1024,2,48000,-16,experiment,HHSHH,3,odd,175287,38756,189281,NA,171407,3467,NA,NA,189368,3488,176320,NA,189481,189970,189356,189480,FlankerTask,76,37676,81,yes,1024
93.90243902,93.90243902,464.4390244,464.4390244,black,legacy,legacy,legacy,0,congruent,uniform,1,undefined,1,s,81,0,0,0,81,0,81,0,81,0,0,0,81,81,81,81,Wed Sep 25 09:12:25 2019,600,The main experiment item,yes,FlankerTask.osexp,/Users/kaylicolpitts/Desktop/adv quant/lab 2,no,mono,no,18,no,white,no,yes,768,legacy,1,79,/Users/kaylicolpitts/Desktop/adv quant/lab 2/KC-subject-3.csv,legacy,Kafkaesque Koffka,3.2.8,0,s,NA,s,h,NA,s,408,NA,35259,12959,NA,408,2,legacy,1024,2,48000,-16,experiment,SSSSS,3,odd,189984,38756,189281,NA,171407,3467,NA,NA,191076,3488,176320,NA,191189,191599,191063,191188,FlankerTask,77,38084,82,yes,1024
93.97590361,93.97590361,463.5301205,463.5301205,black,legacy,legacy,legacy,0,incongruent,uniform,1,undefined,1,s,82,0,0,0,82,0,82,0,82,0,0,0,82,82,82,82,Wed Sep 25 09:12:25 2019,600,The main experiment item,yes,FlankerTask.osexp,/Users/kaylicolpitts/Desktop/adv quant/lab 2,no,mono,no,18,no,white,no,yes,768,legacy,2,79,/Users/kaylicolpitts/Desktop/adv quant/lab 2/KC-subject-3.csv,legacy,Kafkaesque Koffka,3.2.8,0,s,NA,s,h,NA,s,389,NA,35259,12959,NA,389,2,legacy,1024,2,48000,-16,experiment,HHSHH,3,odd,191613,38756,189281,NA,171407,3467,NA,NA,192706,3488,176320,NA,192818,193210,192693,192818,FlankerTask,78,38473,83,yes,1024
94.04761905,94.04761905,461.9047619,461.9047619,black,legacy,legacy,legacy,0,congruent,uniform,1,undefined,1,s,83,0,0,0,83,0,83,0,83,0,0,0,83,83,83,83,Wed Sep 25 09:12:25 2019,600,The main experiment item,yes,FlankerTask.osexp,/Users/kaylicolpitts/Desktop/adv quant/lab 2,no,mono,no,18,no,white,no,yes,768,legacy,3,79,/Users/kaylicolpitts/Desktop/adv quant/lab 2/KC-subject-3.csv,legacy,Kafkaesque Koffka,3.2.8,0,s,NA,s,h,NA,s,327,NA,35259,12959,NA,327,2,legacy,1024,2,48000,-16,experiment,SSSSS,3,odd,193224,38756,189281,NA,171407,3467,NA,NA,194319,3488,176320,NA,194432,194761,194307,194432,FlankerTask,79,38800,84,yes,1024
92.94117647,92.94117647,460.8,460.8,black,legacy,legacy,legacy,0,incongruent,uniform,0,undefined,0,h,84,0,0,0,84,0,84,0,84,0,0,0,84,84,84,84,Wed Sep 25 09:12:25 2019,600,The main experiment item,yes,FlankerTask.osexp,/Users/kaylicolpitts/Desktop/adv quant/lab 2,no,mono,no,18,no,white,no,yes,768,legacy,4,79,/Users/kaylicolpitts/Desktop/adv quant/lab 2/KC-subject-3.csv,legacy,Kafkaesque Koffka,3.2.8,0,s,NA,s,h,NA,s,368,NA,35259,12959,NA,368,2,legacy,1024,2,48000,-16,experiment,SSHSS,3,odd,194776,38756,189281,NA,171407,3467,NA,NA,195867,3488,176320,NA,195981,196352,195855,195981,FlankerTask,79,39168,85,yes,1024
93.02325581,93.02325581,461.1395349,461.1395349,black,legacy,legacy,legacy,0,congruent,uniform,1,undefined,1,s,85,0,0,0,85,0,85,0,85,0,0,0,85,85,85,85,Wed Sep 25 09:12:25 2019,600,The main experiment item,yes,FlankerTask.osexp,/Users/kaylicolpitts/Desktop/adv quant/lab 2,no,mono,no,18,no,white,no,yes,768,legacy,5,79,/Users/kaylicolpitts/Desktop/adv quant/lab 2/KC-subject-3.csv,legacy,Kafkaesque Koffka,3.2.8,0,s,NA,s,h,NA,s,490,NA,35259,12959,NA,490,2,legacy,1024,2,48000,-16,experiment,SSSSS,3,odd,196878,38756,189281,NA,196366,3467,NA,NA,197970,3488,176320,NA,198083,198576,197957,198083,FlankerTask,80,39658,86,yes,1024
93.10344828,93.10344828,460.6551724,460.6551724,black,legacy,legacy,legacy,0,congruent,uniform,1,undefined,1,s,86,0,0,0,86,0,86,0,86,0,0,0,86,86,86,86,Wed Sep 25 09:12:25 2019,600,The main experiment item,yes,FlankerTask.osexp,/Users/kaylicolpitts/Desktop/adv quant/lab 2,no,mono,no,18,no,white,no,yes,768,legacy,6,79,/Users/kaylicolpitts/Desktop/adv quant/lab 2/KC-subject-3.csv,legacy,Kafkaesque Koffka,3.2.8,0,s,NA,s,h,NA,s,419,NA,35259,12959,NA,419,2,legacy,1024,2,48000,-16,experiment,SSSSS,3,odd,198590,38756,189281,NA,196366,3467,NA,NA,199681,3488,176320,NA,199793,200215,199669,199793,FlankerTask,81,40077,87,yes,1024
93.18181818,93.18181818,459.875,459.875,black,legacy,legacy,legacy,0,congruent,uniform,1,undefined,1,h,87,0,0,0,87,0,87,0,87,0,0,0,87,87,87,87,Wed Sep 25 09:12:25 2019,600,The main experiment item,yes,FlankerTask.osexp,/Users/kaylicolpitts/Desktop/adv quant/lab 2,no,mono,no,18,no,white,no,yes,768,legacy,7,79,/Users/kaylicolpitts/Desktop/adv quant/lab 2/KC-subject-3.csv,legacy,Kafkaesque Koffka,3.2.8,0,h,NA,s,h,NA,h,392,NA,35259,12959,NA,392,2,legacy,1024,2,48000,-16,experiment,HHHHH,3,odd,200231,38756,189281,NA,196366,3467,NA,NA,201325,3488,176320,NA,201438,201832,201313,201437,FlankerTask,82,40469,88,yes,1024
93.25842697,93.25842697,459.6179775,459.6179775,black,legacy,legacy,legacy,0,incongruent,uniform,1,undefined,1,s,88,0,0,0,88,0,88,0,88,0,0,0,88,88,88,88,Wed Sep 25 09:12:25 2019,600,The main experiment item,yes,FlankerTask.osexp,/Users/kaylicolpitts/Desktop/adv quant/lab 2,no,mono,no,18,no,white,no,yes,768,legacy,8,79,/Users/kaylicolpitts/Desktop/adv quant/lab 2/KC-subject-3.csv,legacy,Kafkaesque Koffka,3.2.8,0,s,NA,s,h,NA,s,437,NA,35259,12959,NA,437,2,legacy,1024,2,48000,-16,experiment,HHSHH,3,odd,201847,38756,189281,NA,196366,3467,NA,NA,202939,3488,176320,NA,203051,203490,202927,203051,FlankerTask,83,40906,89,yes,1024
93.33333333,93.33333333,459.5777778,459.5777778,black,legacy,legacy,legacy,0,incongruent,uniform,1,undefined,1,h,89,0,0,0,89,0,89,0,89,0,0,0,89,89,89,89,Wed Sep 25 09:12:25 2019,600,The main experiment item,yes,FlankerTask.osexp,/Users/kaylicolpitts/Desktop/adv quant/lab 2,no,mono,no,18,no,white,no,yes,768,legacy,9,79,/Users/kaylicolpitts/Desktop/adv quant/lab 2/KC-subject-3.csv,legacy,Kafkaesque Koffka,3.2.8,0,h,NA,s,h,NA,h,456,NA,35259,12959,NA,456,2,legacy,1024,2,48000,-16,experiment,SSHSS,3,odd,203505,38756,189281,NA,196366,3467,NA,NA,204597,3488,176320,NA,204710,205168,204585,204709,FlankerTask,84,41362,90,yes,1024
93.40659341,93.40659341,459.6483516,459.6483516,black,legacy,legacy,legacy,0,incongruent,uniform,1,undefined,1,h,90,0,0,0,90,0,90,0,90,0,0,0,90,90,90,90,Wed Sep 25 09:12:25 2019,600,The main experiment item,yes,FlankerTask.osexp,/Users/kaylicolpitts/Desktop/adv quant/lab 2,no,mono,no,18,no,white,no,yes,768,legacy,10,79,/Users/kaylicolpitts/Desktop/adv quant/lab 2/KC-subject-3.csv,legacy,Kafkaesque Koffka,3.2.8,0,h,NA,s,h,NA,h,466,NA,35259,12959,NA,466,2,legacy,1024,2,48000,-16,experiment,SSHSS,3,odd,205183,38756,189281,NA,196366,3467,NA,NA,206276,3488,176320,NA,206388,206856,206263,206388,FlankerTask,85,41828,91,yes,1024
93.47826087,93.47826087,459.4565217,459.4565217,black,legacy,legacy,legacy,0,incongruent,uniform,1,undefined,1,s,91,0,0,0,91,0,91,0,91,0,0,0,91,91,91,91,Wed Sep 25 09:12:25 2019,600,The main experiment item,yes,FlankerTask.osexp,/Users/kaylicolpitts/Desktop/adv quant/lab 2,no,mono,no,18,no,white,no,yes,768,legacy,11,79,/Users/kaylicolpitts/Desktop/adv quant/lab 2/KC-subject-3.csv,legacy,Kafkaesque Koffka,3.2.8,0,s,NA,s,h,NA,s,442,NA,35259,12959,NA,442,2,legacy,1024,2,48000,-16,experiment,HHSHH,3,odd,206871,38756,189281,NA,196366,3467,NA,NA,207964,3488,176320,NA,208076,208520,207952,208076,FlankerTask,86,42270,92,yes,1024
93.5483871,93.5483871,459.0752688,459.0752688,black,legacy,legacy,legacy,0,congruent,uniform,1,undefined,1,h,92,0,0,0,92,0,92,0,92,0,0,0,92,92,92,92,Wed Sep 25 09:12:25 2019,600,The main experiment item,yes,FlankerTask.osexp,/Users/kaylicolpitts/Desktop/adv quant/lab 2,no,mono,no,18,no,white,no,yes,768,legacy,12,79,/Users/kaylicolpitts/Desktop/adv quant/lab 2/KC-subject-3.csv,legacy,Kafkaesque Koffka,3.2.8,0,h,NA,s,h,NA,h,424,NA,35259,12959,NA,424,2,legacy,1024,2,48000,-16,experiment,HHHHH,3,odd,208535,38756,189281,NA,196366,3467,NA,NA,209627,3488,176320,NA,209742,210168,209615,209742,FlankerTask,87,42694,93,yes,1024
93.61702128,93.61702128,458.4574468,458.4574468,black,legacy,legacy,legacy,0,congruent,uniform,1,undefined,1,h,93,0,0,0,93,0,93,0,93,0,0,0,93,93,93,93,Wed Sep 25 09:12:25 2019,600,The main experiment item,yes,FlankerTask.osexp,/Users/kaylicolpitts/Desktop/adv quant/lab 2,no,mono,no,18,no,white,no,yes,768,legacy,13,79,/Users/kaylicolpitts/Desktop/adv quant/lab 2/KC-subject-3.csv,legacy,Kafkaesque Koffka,3.2.8,0,h,NA,s,h,NA,h,401,NA,35259,12959,NA,401,2,legacy,1024,2,48000,-16,experiment,HHHHH,3,odd,210183,38756,189281,NA,196366,3467,NA,NA,211276,3488,176320,NA,211389,211792,211263,211388,FlankerTask,88,43095,94,yes,1024
93.68421053,93.68421053,457.9052632,457.9052632,black,legacy,legacy,legacy,0,congruent,uniform,1,undefined,1,s,94,0,0,0,94,0,94,0,94,0,0,0,94,94,94,94,Wed Sep 25 09:12:25 2019,600,The main experiment item,yes,FlankerTask.osexp,/Users/kaylicolpitts/Desktop/adv quant/lab 2,no,mono,no,18,no,white,no,yes,768,legacy,14,79,/Users/kaylicolpitts/Desktop/adv quant/lab 2/KC-subject-3.csv,legacy,Kafkaesque Koffka,3.2.8,0,s,NA,s,h,NA,s,406,NA,35259,12959,NA,406,2,legacy,1024,2,48000,-16,experiment,SSSSS,3,odd,211808,38756,189281,NA,196366,3467,NA,NA,212900,3488,176320,NA,213013,213421,212888,213013,FlankerTask,89,43501,95,yes,1024
93.75,93.75,458.2291667,458.2291667,black,legacy,legacy,legacy,0,incongruent,uniform,1,undefined,1,h,95,0,0,0,95,0,95,0,95,0,0,0,95,95,95,95,Wed Sep 25 09:12:25 2019,600,The main experiment item,yes,FlankerTask.osexp,/Users/kaylicolpitts/Desktop/adv quant/lab 2,no,mono,no,18,no,white,no,yes,768,legacy,15,79,/Users/kaylicolpitts/Desktop/adv quant/lab 2/KC-subject-3.csv,legacy,Kafkaesque Koffka,3.2.8,0,h,NA,s,h,NA,h,489,NA,35259,12959,NA,489,2,legacy,1024,2,48000,-16,experiment,SSHSS,3,odd,213436,38756,189281,NA,196366,3467,NA,NA,214528,3488,176320,NA,214641,215132,214515,214641,FlankerTask,90,43990,96,yes,1024
93.81443299,93.81443299,459.8969072,459.8969072,black,legacy,legacy,legacy,0,congruent,uniform,1,undefined,1,s,96,0,0,0,96,0,96,0,96,0,0,0,96,96,96,96,Wed Sep 25 09:12:25 2019,600,The main experiment item,yes,FlankerTask.osexp,/Users/kaylicolpitts/Desktop/adv quant/lab 2,no,mono,no,18,no,white,no,yes,768,legacy,16,79,/Users/kaylicolpitts/Desktop/adv quant/lab 2/KC-subject-3.csv,legacy,Kafkaesque Koffka,3.2.8,0,s,NA,s,h,NA,s,620,NA,35259,12959,NA,620,2,legacy,1024,2,48000,-16,experiment,SSSSS,3,odd,215146,38756,189281,NA,196366,3467,NA,NA,216238,3488,176320,NA,216350,216972,216226,216350,FlankerTask,91,44610,97,yes,1024
92.85714286,92.85714286,459.744898,459.744898,black,legacy,legacy,legacy,0,incongruent,uniform,0,undefined,0,h,97,0,0,0,97,0,97,0,97,0,0,0,97,97,97,97,Wed Sep 25 09:12:25 2019,600,The main experiment item,yes,FlankerTask.osexp,/Users/kaylicolpitts/Desktop/adv quant/lab 2,no,mono,no,18,no,white,no,yes,768,legacy,17,79,/Users/kaylicolpitts/Desktop/adv quant/lab 2/KC-subject-3.csv,legacy,Kafkaesque Koffka,3.2.8,0,s,NA,s,h,NA,s,445,NA,35259,12959,NA,445,2,legacy,1024,2,48000,-16,experiment,SSHSS,3,odd,217499,38756,189281,NA,196366,3467,216986,NA,218591,3488,176320,NA,218704,219151,218579,218704,FlankerTask,91,45055,98,yes,1024
91.91919192,91.91919192,459.6262626,459.6262626,black,legacy,legacy,legacy,0,incongruent,uniform,0,undefined,0,s,98,0,0,0,98,0,98,0,98,0,0,0,98,98,98,98,Wed Sep 25 09:12:25 2019,600,The main experiment item,yes,FlankerTask.osexp,/Users/kaylicolpitts/Desktop/adv quant/lab 2,no,mono,no,18,no,white,no,yes,768,legacy,18,79,/Users/kaylicolpitts/Desktop/adv quant/lab 2/KC-subject-3.csv,legacy,Kafkaesque Koffka,3.2.8,0,h,NA,s,h,NA,h,448,NA,35259,12959,NA,448,2,legacy,1024,2,48000,-16,experiment,HHSHH,3,odd,219679,38756,189281,NA,219166,3467,216986,NA,220773,3488,176320,NA,220886,221336,220760,220885,FlankerTask,91,45503,99,yes,1024
92,92,459.42,459.42,black,legacy,legacy,legacy,0,incongruent,uniform,1,undefined,1,h,99,0,0,0,99,0,99,0,99,0,0,0,99,99,99,99,Wed Sep 25 09:12:25 2019,600,The main experiment item,yes,FlankerTask.osexp,/Users/kaylicolpitts/Desktop/adv quant/lab 2,no,mono,no,18,no,white,no,yes,768,legacy,19,79,/Users/kaylicolpitts/Desktop/adv quant/lab 2/KC-subject-3.csv,legacy,Kafkaesque Koffka,3.2.8,0,h,NA,s,h,NA,h,439,NA,35259,12959,NA,439,2,legacy,1024,2,48000,-16,experiment,SSHSS,3,odd,221863,38756,189281,NA,221351,3467,216986,NA,222956,3488,176320,NA,223068,223509,222943,223068,FlankerTask,92,45942,100,yes,1024
92.07920792,92.07920792,458.6435644,458.6435644,black,legacy,legacy,legacy,0,congruent,uniform,1,undefined,1,s,100,0,0,0,100,0,100,0,100,0,0,0,100,100,100,100,Wed Sep 25 09:12:25 2019,600,The main experiment item,yes,FlankerTask.osexp,/Users/kaylicolpitts/Desktop/adv quant/lab 2,no,mono,no,18,no,white,no,yes,768,legacy,20,79,/Users/kaylicolpitts/Desktop/adv quant/lab 2/KC-subject-3.csv,legacy,Kafkaesque Koffka,3.2.8,0,s,NA,s,h,NA,s,381,NA,35259,12959,NA,381,2,legacy,1024,2,48000,-16,experiment,SSSSS,3,odd,223523,38756,189281,NA,221351,3467,216986,NA,224615,3488,176320,NA,224728,225112,224603,224728,FlankerTask,93,46323,101,yes,1024
92.15686275,92.15686275,458.6666667,458.6666667,black,legacy,legacy,legacy,0,congruent,uniform,1,undefined,1,h,101,0,0,0,101,0,101,0,101,0,0,0,101,101,101,101,Wed Sep 25 09:12:25 2019,600,The main experiment item,yes,FlankerTask.osexp,/Users/kaylicolpitts/Desktop/adv quant/lab 2,no,mono,no,18,no,white,no,yes,768,legacy,21,79,/Users/kaylicolpitts/Desktop/adv quant/lab 2/KC-subject-3.csv,legacy,Kafkaesque Koffka,3.2.8,0,h,NA,s,h,NA,h,461,NA,35259,12959,NA,461,2,legacy,1024,2,48000,-16,experiment,HHHHH,3,odd,225126,38756,189281,NA,221351,3467,216986,NA,226218,3488,176320,NA,226331,226794,226206,226331,FlankerTask,94,46784,102,yes,1024
92.23300971,92.23300971,458.9029126,458.9029126,black,legacy,legacy,legacy,0,congruent,uniform,1,undefined,1,h,102,0,0,0,102,0,102,0,102,0,0,0,102,102,102,102,Wed Sep 25 09:12:25 2019,600,The main experiment item,yes,FlankerTask.osexp,/Users/kaylicolpitts/Desktop/adv quant/lab 2,no,mono,no,18,no,white,no,yes,768,legacy,22,79,/Users/kaylicolpitts/Desktop/adv quant/lab 2/KC-subject-3.csv,legacy,Kafkaesque Koffka,3.2.8,0,h,NA,s,h,NA,h,483,NA,35259,12959,NA,483,2,legacy,1024,2,48000,-16,experiment,HHHHH,3,odd,226809,38756,189281,NA,221351,3467,216986,NA,227901,3488,176320,NA,228014,228500,227889,228013,FlankerTask,95,47267,103,yes,1024
92.30769231,92.30769231,458.9230769,458.9230769,black,legacy,legacy,legacy,0,congruent,uniform,1,undefined,1,h,103,0,0,0,103,0,103,0,103,0,0,0,103,103,103,103,Wed Sep 25 09:12:25 2019,600,The main experiment item,yes,FlankerTask.osexp,/Users/kaylicolpitts/Desktop/adv quant/lab 2,no,mono,no,18,no,white,no,yes,768,legacy,23,79,/Users/kaylicolpitts/Desktop/adv quant/lab 2/KC-subject-3.csv,legacy,Kafkaesque Koffka,3.2.8,0,h,NA,s,h,NA,h,461,NA,35259,12959,NA,461,2,legacy,1024,2,48000,-16,experiment,HHHHH,3,odd,228514,38756,189281,NA,221351,3467,216986,NA,229607,3488,176320,NA,229720,230184,229594,229720,FlankerTask,96,47728,104,yes,1024
92.38095238,92.38095238,459.0571429,459.0571429,black,legacy,legacy,legacy,0,congruent,uniform,1,undefined,1,h,104,0,0,0,104,0,104,0,104,0,0,0,104,104,104,104,Wed Sep 25 09:12:25 2019,600,The main experiment item,yes,FlankerTask.osexp,/Users/kaylicolpitts/Desktop/adv quant/lab 2,no,mono,no,18,no,white,no,yes,768,legacy,24,79,/Users/kaylicolpitts/Desktop/adv quant/lab 2/KC-subject-3.csv,legacy,Kafkaesque Koffka,3.2.8,0,h,NA,s,h,NA,h,473,NA,35259,12959,NA,473,2,legacy,1024,2,48000,-16,experiment,HHHHH,3,odd,230201,38756,189281,NA,221351,3467,216986,NA,231294,3488,176320,NA,231407,231883,231281,231407,FlankerTask,97,48201,105,yes,1024
92.45283019,92.45283019,458.5566038,458.5566038,black,legacy,legacy,legacy,0,congruent,uniform,1,undefined,1,h,105,0,0,0,105,0,105,0,105,0,0,0,105,105,105,105,Wed Sep 25 09:12:25 2019,600,The main experiment item,yes,FlankerTask.osexp,/Users/kaylicolpitts/Desktop/adv quant/lab 2,no,mono,no,18,no,white,no,yes,768,legacy,25,79,/Users/kaylicolpitts/Desktop/adv quant/lab 2/KC-subject-3.csv,legacy,Kafkaesque Koffka,3.2.8,0,h,NA,s,h,NA,h,406,NA,35259,12959,NA,406,2,legacy,1024,2,48000,-16,experiment,HHHHH,3,odd,231897,38756,189281,NA,221351,3467,216986,NA,232989,3488,176320,NA,233103,233512,232977,233103,FlankerTask,98,48607,106,yes,1024
92.52336449,92.52336449,458.8504673,458.8504673,black,legacy,legacy,legacy,0,incongruent,uniform,1,undefined,1,h,106,0,0,0,106,0,106,0,106,0,0,0,106,106,106,106,Wed Sep 25 09:12:25 2019,600,The main experiment item,yes,FlankerTask.osexp,/Users/kaylicolpitts/Desktop/adv quant/lab 2,no,mono,no,18,no,white,no,yes,768,legacy,26,79,/Users/kaylicolpitts/Desktop/adv quant/lab 2/KC-subject-3.csv,legacy,Kafkaesque Koffka,3.2.8,0,h,NA,s,h,NA,h,490,NA,35259,12959,NA,490,2,legacy,1024,2,48000,-16,experiment,SSHSS,3,odd,233526,38756,189281,NA,221351,3467,216986,NA,234618,3488,176320,NA,234731,235224,234606,234730,FlankerTask,99,49097,107,yes,1024
92.59259259,92.59259259,458.6759259,458.6759259,black,legacy,legacy,legacy,0,congruent,uniform,1,undefined,1,h,107,0,0,0,107,0,107,0,107,0,0,0,107,107,107,107,Wed Sep 25 09:12:25 2019,600,The main experiment item,yes,FlankerTask.osexp,/Users/kaylicolpitts/Desktop/adv quant/lab 2,no,mono,no,18,no,white,no,yes,768,legacy,27,79,/Users/kaylicolpitts/Desktop/adv quant/lab 2/KC-subject-3.csv,legacy,Kafkaesque Koffka,3.2.8,0,h,NA,s,h,NA,h,440,NA,35259,12959,NA,440,2,legacy,1024,2,48000,-16,experiment,HHHHH,3,odd,235238,38756,189281,NA,221351,3467,216986,NA,236331,3488,176320,NA,236444,236887,236319,236443,FlankerTask,100,49537,108,yes,1024
92.66055046,92.66055046,458.412844,458.412844,black,legacy,legacy,legacy,0,congruent,uniform,1,undefined,1,s,108,0,0,0,108,0,108,0,108,0,0,0,108,108,108,108,Wed Sep 25 09:12:25 2019,600,The main experiment item,yes,FlankerTask.osexp,/Users/kaylicolpitts/Desktop/adv quant/lab 2,no,mono,no,18,no,white,no,yes,768,legacy,28,79,/Users/kaylicolpitts/Desktop/adv quant/lab 2/KC-subject-3.csv,legacy,Kafkaesque Koffka,3.2.8,0,s,NA,s,h,NA,s,430,NA,35259,12959,NA,430,2,legacy,1024,2,48000,-16,experiment,SSSSS,3,odd,236901,38756,189281,NA,221351,3467,216986,NA,237993,3488,176320,NA,238106,238539,237981,238106,FlankerTask,101,49967,109,yes,1024
92.72727273,92.72727273,458.9272727,458.9272727,black,legacy,legacy,legacy,0,congruent,uniform,1,undefined,1,h,109,0,0,0,109,0,109,0,109,0,0,0,109,109,109,109,Wed Sep 25 09:12:25 2019,600,The main experiment item,yes,FlankerTask.osexp,/Users/kaylicolpitts/Desktop/adv quant/lab 2,no,mono,no,18,no,white,no,yes,768,legacy,29,79,/Users/kaylicolpitts/Desktop/adv quant/lab 2/KC-subject-3.csv,legacy,Kafkaesque Koffka,3.2.8,0,h,NA,s,h,NA,h,515,NA,35259,12959,NA,515,2,legacy,1024,2,48000,-16,experiment,HHHHH,3,odd,238553,38756,189281,NA,221351,3467,216986,NA,239646,3488,176320,NA,239759,240276,239633,239759,FlankerTask,102,50482,110,yes,1024
92.79279279,92.79279279,458.4774775,458.4774775,black,legacy,legacy,legacy,0,incongruent,uniform,1,undefined,1,s,110,0,0,0,110,0,110,0,110,0,0,0,110,110,110,110,Wed Sep 25 09:12:25 2019,600,The main experiment item,yes,FlankerTask.osexp,/Users/kaylicolpitts/Desktop/adv quant/lab 2,no,mono,no,18,no,white,no,yes,768,legacy,30,79,/Users/kaylicolpitts/Desktop/adv quant/lab 2/KC-subject-3.csv,legacy,Kafkaesque Koffka,3.2.8,0,s,NA,s,h,NA,s,409,NA,35259,12959,NA,409,2,legacy,1024,2,48000,-16,experiment,HHSHH,3,odd,240291,38756,189281,NA,221351,3467,216986,NA,241383,3488,176320,NA,241496,241907,241371,241495,FlankerTask,103,50891,111,yes,1024
92.85714286,92.85714286,459.7946429,459.7946429,black,legacy,legacy,legacy,0,incongruent,uniform,1,undefined,1,h,111,0,0,0,111,0,111,0,111,0,0,0,111,111,111,111,Wed Sep 25 09:12:25 2019,600,The main experiment item,yes,FlankerTask.osexp,/Users/kaylicolpitts/Desktop/adv quant/lab 2,no,mono,no,18,no,white,no,yes,768,legacy,31,79,/Users/kaylicolpitts/Desktop/adv quant/lab 2/KC-subject-3.csv,legacy,Kafkaesque Koffka,3.2.8,0,h,NA,s,h,NA,h,606,NA,35259,12959,NA,606,2,legacy,1024,2,48000,-16,experiment,SSHSS,3,odd,241922,38756,189281,NA,221351,3467,216986,NA,243014,3488,176320,NA,243127,243735,243001,243126,FlankerTask,104,51497,112,yes,1024
92.92035398,92.92035398,459.8672566,459.8672566,black,legacy,legacy,legacy,0,congruent,uniform,1,undefined,1,s,112,0,0,0,112,0,112,0,112,0,0,0,112,112,112,112,Wed Sep 25 09:12:25 2019,600,The main experiment item,yes,FlankerTask.osexp,/Users/kaylicolpitts/Desktop/adv quant/lab 2,no,mono,no,18,no,white,no,yes,768,legacy,32,79,/Users/kaylicolpitts/Desktop/adv quant/lab 2/KC-subject-3.csv,legacy,Kafkaesque Koffka,3.2.8,0,s,NA,s,h,NA,s,468,NA,35259,12959,NA,468,2,legacy,1024,2,48000,-16,experiment,SSSSS,3,odd,244263,38756,189281,NA,221351,3467,243751,NA,245356,3488,176320,NA,245469,245939,245344,245469,FlankerTask,105,51965,113,yes,1024
92.98245614,92.98245614,459.2982456,459.2982456,black,legacy,legacy,legacy,0,congruent,uniform,1,undefined,1,h,113,0,0,0,113,0,113,0,113,0,0,0,113,113,113,113,Wed Sep 25 09:12:25 2019,600,The main experiment item,yes,FlankerTask.osexp,/Users/kaylicolpitts/Desktop/adv quant/lab 2,no,mono,no,18,no,white,no,yes,768,legacy,33,79,/Users/kaylicolpitts/Desktop/adv quant/lab 2/KC-subject-3.csv,legacy,Kafkaesque Koffka,3.2.8,0,h,NA,s,h,NA,h,395,NA,35259,12959,NA,395,2,legacy,1024,2,48000,-16,experiment,HHHHH,3,odd,245954,38756,189281,NA,221351,3467,243751,NA,247046,3488,176320,NA,247159,247556,247034,247159,FlankerTask,106,52360,114,yes,1024
93.04347826,93.04347826,458.6086957,458.6086957,black,legacy,legacy,legacy,0,congruent,uniform,1,undefined,1,h,114,0,0,0,114,0,114,0,114,0,0,0,114,114,114,114,Wed Sep 25 09:12:25 2019,600,The main experiment item,yes,FlankerTask.osexp,/Users/kaylicolpitts/Desktop/adv quant/lab 2,no,mono,no,18,no,white,no,yes,768,legacy,34,79,/Users/kaylicolpitts/Desktop/adv quant/lab 2/KC-subject-3.csv,legacy,Kafkaesque Koffka,3.2.8,0,h,NA,s,h,NA,h,380,NA,35259,12959,NA,380,2,legacy,1024,2,48000,-16,experiment,HHHHH,3,odd,247571,38756,189281,NA,221351,3467,243751,NA,248663,3488,176320,NA,248776,249158,248651,248776,FlankerTask,107,52740,115,yes,1024
93.10344828,93.10344828,458.8362069,458.8362069,black,legacy,legacy,legacy,0,incongruent,uniform,1,undefined,1,s,115,0,0,0,115,0,115,0,115,0,0,0,115,115,115,115,Wed Sep 25 09:12:25 2019,600,The main experiment item,yes,FlankerTask.osexp,/Users/kaylicolpitts/Desktop/adv quant/lab 2,no,mono,no,18,no,white,no,yes,768,legacy,35,79,/Users/kaylicolpitts/Desktop/adv quant/lab 2/KC-subject-3.csv,legacy,Kafkaesque Koffka,3.2.8,0,s,NA,s,h,NA,s,485,NA,35259,12959,NA,485,2,legacy,1024,2,48000,-16,experiment,HHSHH,3,odd,249173,38756,189281,NA,221351,3467,243751,NA,250266,3488,176320,NA,250379,250866,250253,250379,FlankerTask,108,53225,116,yes,1024
93.16239316,93.16239316,458.7264957,458.7264957,black,legacy,legacy,legacy,0,incongruent,uniform,1,undefined,1,s,116,0,0,0,116,0,116,0,116,0,0,0,116,116,116,116,Wed Sep 25 09:12:25 2019,600,The main experiment item,yes,FlankerTask.osexp,/Users/kaylicolpitts/Desktop/adv quant/lab 2,no,mono,no,18,no,white,no,yes,768,legacy,36,79,/Users/kaylicolpitts/Desktop/adv quant/lab 2/KC-subject-3.csv,legacy,Kafkaesque Koffka,3.2.8,0,s,NA,s,h,NA,s,446,NA,35259,12959,NA,446,2,legacy,1024,2,48000,-16,experiment,HHSHH,3,odd,250881,38756,189281,NA,221351,3467,243751,NA,251974,3488,176320,NA,252087,252535,251962,252087,FlankerTask,109,53671,117,yes,1024
93.22033898,93.22033898,458.3898305,458.3898305,black,legacy,legacy,legacy,0,congruent,uniform,1,undefined,1,s,117,0,0,0,117,0,117,0,117,0,0,0,117,117,117,117,Wed Sep 25 09:12:25 2019,600,The main experiment item,yes,FlankerTask.osexp,/Users/kaylicolpitts/Desktop/adv quant/lab 2,no,mono,no,18,no,white,no,yes,768,legacy,37,79,/Users/kaylicolpitts/Desktop/adv quant/lab 2/KC-subject-3.csv,legacy,Kafkaesque Koffka,3.2.8,0,s,NA,s,h,NA,s,419,NA,35259,12959,NA,419,2,legacy,1024,2,48000,-16,experiment,SSSSS,3,odd,252550,38756,189281,NA,221351,3467,243751,NA,253643,3488,176320,NA,253756,254177,253631,253756,FlankerTask,110,54090,118,yes,1024
93.27731092,93.27731092,457.697479,457.697479,black,legacy,legacy,legacy,0,congruent,uniform,1,undefined,1,h,118,0,0,0,118,0,118,0,118,0,0,0,118,118,118,118,Wed Sep 25 09:12:25 2019,600,The main experiment item,yes,FlankerTask.osexp,/Users/kaylicolpitts/Desktop/adv quant/lab 2,no,mono,no,18,no,white,no,yes,768,legacy,38,79,/Users/kaylicolpitts/Desktop/adv quant/lab 2/KC-subject-3.csv,legacy,Kafkaesque Koffka,3.2.8,0,h,NA,s,h,NA,h,376,NA,35259,12959,NA,376,2,legacy,1024,2,48000,-16,experiment,HHHHH,3,odd,254192,38756,189281,NA,221351,3467,243751,NA,255285,3488,176320,NA,255398,255776,255273,255398,FlankerTask,111,54466,119,yes,1024
93.33333333,93.33333333,457.2083333,457.2083333,black,legacy,legacy,legacy,0,congruent,uniform,1,undefined,1,s,119,0,0,0,119,0,119,0,119,0,0,0,119,119,119,119,Wed Sep 25 09:12:25 2019,600,The main experiment item,yes,FlankerTask.osexp,/Users/kaylicolpitts/Desktop/adv quant/lab 2,no,mono,no,18,no,white,no,yes,768,legacy,39,79,/Users/kaylicolpitts/Desktop/adv quant/lab 2/KC-subject-3.csv,legacy,Kafkaesque Koffka,3.2.8,0,s,NA,s,h,NA,s,399,NA,35259,12959,NA,399,2,legacy,1024,2,48000,-16,experiment,SSSSS,3,odd,255790,38756,189281,NA,221351,3467,243751,NA,256882,3488,176320,NA,256994,257395,256870,256994,FlankerTask,112,54865,120,yes,1024
93.38842975,93.38842975,456.8429752,456.8429752,black,legacy,legacy,legacy,0,incongruent,uniform,1,undefined,1,s,120,0,0,0,120,0,120,0,120,0,0,0,120,120,120,120,Wed Sep 25 09:12:25 2019,600,The main experiment item,yes,FlankerTask.osexp,/Users/kaylicolpitts/Desktop/adv quant/lab 2,no,mono,no,18,no,white,no,yes,768,legacy,40,79,/Users/kaylicolpitts/Desktop/adv quant/lab 2/KC-subject-3.csv,legacy,Kafkaesque Koffka,3.2.8,0,s,NA,s,h,NA,s,413,NA,35259,12959,NA,413,2,legacy,1024,2,48000,-16,experiment,HHSHH,3,odd,257409,38756,189281,NA,221351,3467,243751,NA,258501,3488,176320,NA,258614,259030,258489,258613,FlankerTask,113,55278,121,yes,1024
93.44262295,93.44262295,456.852459,456.852459,black,legacy,legacy,legacy,0,incongruent,uniform,1,undefined,1,h,121,0,0,0,121,0,121,0,121,0,0,0,121,121,121,121,Wed Sep 25 09:12:25 2019,600,The main experiment item,yes,FlankerTask.osexp,/Users/kaylicolpitts/Desktop/adv quant/lab 2,no,mono,no,18,no,white,no,yes,768,legacy,41,79,/Users/kaylicolpitts/Desktop/adv quant/lab 2/KC-subject-3.csv,legacy,Kafkaesque Koffka,3.2.8,0,h,NA,s,h,NA,h,458,NA,35259,12959,NA,458,2,legacy,1024,2,48000,-16,experiment,SSHSS,3,odd,259045,38756,189281,NA,221351,3467,243751,NA,260138,3488,176320,NA,260251,260712,260125,260251,FlankerTask,114,55736,122,yes,1024
93.49593496,93.49593496,456.9756098,456.9756098,black,legacy,legacy,legacy,0,incongruent,uniform,1,undefined,1,h,122,0,0,0,122,0,122,0,122,0,0,0,122,122,122,122,Wed Sep 25 09:12:25 2019,600,The main experiment item,yes,FlankerTask.osexp,/Users/kaylicolpitts/Desktop/adv quant/lab 2,no,mono,no,18,no,white,no,yes,768,legacy,42,79,/Users/kaylicolpitts/Desktop/adv quant/lab 2/KC-subject-3.csv,legacy,Kafkaesque Koffka,3.2.8,0,h,NA,s,h,NA,h,472,NA,35259,12959,NA,472,2,legacy,1024,2,48000,-16,experiment,SSHSS,3,odd,260728,38756,189281,NA,221351,3467,243751,NA,261823,3488,176320,NA,261936,262411,261811,261936,FlankerTask,115,56208,123,yes,1024
93.5483871,93.5483871,457.1451613,457.1451613,black,legacy,legacy,legacy,0,congruent,uniform,1,undefined,1,h,123,0,0,0,123,0,123,0,123,0,0,0,123,123,123,123,Wed Sep 25 09:12:25 2019,600,The main experiment item,yes,FlankerTask.osexp,/Users/kaylicolpitts/Desktop/adv quant/lab 2,no,mono,no,18,no,white,no,yes,768,legacy,43,79,/Users/kaylicolpitts/Desktop/adv quant/lab 2/KC-subject-3.csv,legacy,Kafkaesque Koffka,3.2.8,0,h,NA,s,h,NA,h,478,NA,35259,12959,NA,478,2,legacy,1024,2,48000,-16,experiment,HHHHH,3,odd,262426,38756,189281,NA,221351,3467,243751,NA,263518,3488,176320,NA,263631,264112,263506,263630,FlankerTask,116,56686,124,yes,1024
93.6,93.6,456.808,456.808,black,legacy,legacy,legacy,0,congruent,uniform,1,undefined,1,h,124,0,0,0,124,0,124,0,124,0,0,0,124,124,124,124,Wed Sep 25 09:12:25 2019,600,The main experiment item,yes,FlankerTask.osexp,/Users/kaylicolpitts/Desktop/adv quant/lab 2,no,mono,no,18,no,white,no,yes,768,legacy,44,79,/Users/kaylicolpitts/Desktop/adv quant/lab 2/KC-subject-3.csv,legacy,Kafkaesque Koffka,3.2.8,0,h,NA,s,h,NA,h,415,NA,35259,12959,NA,415,2,legacy,1024,2,48000,-16,experiment,HHHHH,3,odd,264126,38756,189281,NA,221351,3467,243751,NA,265219,3488,176320,NA,265332,265750,265207,265331,FlankerTask,117,57101,125,yes,1024
93.65079365,93.65079365,456.015873,456.015873,black,legacy,legacy,legacy,0,congruent,uniform,1,undefined,1,s,125,0,0,0,125,0,125,0,125,0,0,0,125,125,125,125,Wed Sep 25 09:12:25 2019,600,The main experiment item,yes,FlankerTask.osexp,/Users/kaylicolpitts/Desktop/adv quant/lab 2,no,mono,no,18,no,white,no,yes,768,legacy,45,79,/Users/kaylicolpitts/Desktop/adv quant/lab 2/KC-subject-3.csv,legacy,Kafkaesque Koffka,3.2.8,0,s,NA,s,h,NA,s,357,NA,35259,12959,NA,357,2,legacy,1024,2,48000,-16,experiment,SSSSS,3,odd,265764,38756,189281,NA,221351,3467,243751,NA,266858,3488,176320,NA,266970,267330,266845,266970,FlankerTask,118,57458,126,yes,1024
93.7007874,93.7007874,455.7952756,455.7952756,black,legacy,legacy,legacy,0,incongruent,uniform,1,undefined,1,h,126,0,0,0,126,0,126,0,126,0,0,0,126,126,126,126,Wed Sep 25 09:12:25 2019,600,The main experiment item,yes,FlankerTask.osexp,/Users/kaylicolpitts/Desktop/adv quant/lab 2,no,mono,no,18,no,white,no,yes,768,legacy,46,79,/Users/kaylicolpitts/Desktop/adv quant/lab 2/KC-subject-3.csv,legacy,Kafkaesque Koffka,3.2.8,0,h,NA,s,h,NA,h,428,NA,35259,12959,NA,428,2,legacy,1024,2,48000,-16,experiment,SSHSS,3,odd,267344,38756,189281,NA,221351,3467,243751,NA,268436,3488,176320,NA,268549,268980,268424,268548,FlankerTask,119,57886,127,yes,1024
93.75,93.75,455.4453125,455.4453125,black,legacy,legacy,legacy,0,incongruent,uniform,1,undefined,1,s,127,0,0,0,127,0,127,0,127,0,0,0,127,127,127,127,Wed Sep 25 09:12:25 2019,600,The main experiment item,yes,FlankerTask.osexp,/Users/kaylicolpitts/Desktop/adv quant/lab 2,no,mono,no,18,no,white,no,yes,768,legacy,47,79,/Users/kaylicolpitts/Desktop/adv quant/lab 2/KC-subject-3.csv,legacy,Kafkaesque Koffka,3.2.8,0,s,NA,s,h,NA,s,411,NA,35259,12959,NA,411,2,legacy,1024,2,48000,-16,experiment,HHSHH,3,odd,268994,38756,189281,NA,221351,3467,243751,NA,270086,3488,176320,NA,270199,270613,270073,270198,FlankerTask,120,58297,128,yes,1024
93.79844961,93.79844961,455.5271318,455.5271318,black,legacy,legacy,legacy,0,incongruent,uniform,1,undefined,1,s,128,0,0,0,128,0,128,0,128,0,0,0,128,128,128,128,Wed Sep 25 09:12:25 2019,600,The main experiment item,yes,FlankerTask.osexp,/Users/kaylicolpitts/Desktop/adv quant/lab 2,no,mono,no,18,no,white,no,yes,768,legacy,48,79,/Users/kaylicolpitts/Desktop/adv quant/lab 2/KC-subject-3.csv,legacy,Kafkaesque Koffka,3.2.8,0,s,NA,s,h,NA,s,466,NA,35259,12959,NA,466,2,legacy,1024,2,48000,-16,experiment,HHSHH,3,odd,270627,38756,189281,NA,221351,3467,243751,NA,271719,3488,176320,NA,271831,272300,271707,271831,FlankerTask,121,58763,129,yes,1024
93.84615385,93.84615385,455.9230769,455.9230769,black,legacy,legacy,legacy,0,incongruent,uniform,1,undefined,1,s,129,0,0,0,129,0,129,0,129,0,0,0,129,129,129,129,Wed Sep 25 09:12:25 2019,600,The main experiment item,yes,FlankerTask.osexp,/Users/kaylicolpitts/Desktop/adv quant/lab 2,no,mono,no,18,no,white,no,yes,768,legacy,49,79,/Users/kaylicolpitts/Desktop/adv quant/lab 2/KC-subject-3.csv,legacy,Kafkaesque Koffka,3.2.8,0,s,NA,s,h,NA,s,507,NA,35259,12959,NA,507,2,legacy,1024,2,48000,-16,experiment,HHSHH,3,odd,272314,38756,189281,NA,221351,3467,243751,NA,273406,3488,176320,NA,273519,274029,273394,273519,FlankerTask,122,59270,130,yes,1024
93.89312977,93.89312977,455.2290076,455.2290076,black,legacy,legacy,legacy,0,incongruent,uniform,1,undefined,1,s,130,0,0,0,130,0,130,0,130,0,0,0,130,130,130,130,Wed Sep 25 09:12:25 2019,600,The main experiment item,yes,FlankerTask.osexp,/Users/kaylicolpitts/Desktop/adv quant/lab 2,no,mono,no,18,no,white,no,yes,768,legacy,50,79,/Users/kaylicolpitts/Desktop/adv quant/lab 2/KC-subject-3.csv,legacy,Kafkaesque Koffka,3.2.8,0,s,NA,s,h,NA,s,365,NA,35259,12959,NA,365,2,legacy,1024,2,48000,-16,experiment,HHSHH,3,odd,274043,38756,189281,NA,221351,3467,243751,NA,275135,3488,176320,NA,275248,275616,275123,275248,FlankerTask,123,59635,131,yes,1024
93.93939394,93.93939394,455.1893939,455.1893939,black,legacy,legacy,legacy,0,incongruent,uniform,1,undefined,1,h,131,0,0,0,131,0,131,0,131,0,0,0,131,131,131,131,Wed Sep 25 09:12:25 2019,600,The main experiment item,yes,FlankerTask.osexp,/Users/kaylicolpitts/Desktop/adv quant/lab 2,no,mono,no,18,no,white,no,yes,768,legacy,51,79,/Users/kaylicolpitts/Desktop/adv quant/lab 2/KC-subject-3.csv,legacy,Kafkaesque Koffka,3.2.8,0,h,NA,s,h,NA,h,450,NA,35259,12959,NA,450,2,legacy,1024,2,48000,-16,experiment,SSHSS,3,odd,275631,38756,189281,NA,221351,3467,243751,NA,276724,3488,176320,NA,276837,277290,276711,276836,FlankerTask,124,60085,132,yes,1024
93.98496241,93.98496241,454.1052632,454.1052632,black,legacy,legacy,legacy,0,congruent,uniform,1,undefined,1,s,132,0,0,0,132,0,132,0,132,0,0,0,132,132,132,132,Wed Sep 25 09:12:25 2019,600,The main experiment item,yes,FlankerTask.osexp,/Users/kaylicolpitts/Desktop/adv quant/lab 2,no,mono,no,18,no,white,no,yes,768,legacy,52,79,/Users/kaylicolpitts/Desktop/adv quant/lab 2/KC-subject-3.csv,legacy,Kafkaesque Koffka,3.2.8,0,s,NA,s,h,NA,s,311,NA,35259,12959,NA,311,2,legacy,1024,2,48000,-16,experiment,SSSSS,3,odd,277304,38756,189281,NA,221351,3467,243751,NA,278395,3488,176320,NA,278508,278822,278383,278507,FlankerTask,125,60396,133,yes,1024
94.02985075,94.02985075,453.3208955,453.3208955,black,legacy,legacy,legacy,0,congruent,uniform,1,undefined,1,s,133,0,0,0,133,0,133,0,133,0,0,0,133,133,133,133,Wed Sep 25 09:12:25 2019,600,The main experiment item,yes,FlankerTask.osexp,/Users/kaylicolpitts/Desktop/adv quant/lab 2,no,mono,no,18,no,white,no,yes,768,legacy,53,79,/Users/kaylicolpitts/Desktop/adv quant/lab 2/KC-subject-3.csv,legacy,Kafkaesque Koffka,3.2.8,0,s,NA,s,h,NA,s,349,NA,35259,12959,NA,349,2,legacy,1024,2,48000,-16,experiment,SSSSS,3,odd,278836,38756,189281,NA,221351,3467,243751,NA,279929,3488,176320,NA,280042,280394,279916,280041,FlankerTask,126,60745,134,yes,1024
94.07407407,94.07407407,452.5185185,452.5185185,black,legacy,legacy,legacy,0,congruent,uniform,1,undefined,1,s,134,0,0,0,134,0,134,0,134,0,0,0,134,134,134,134,Wed Sep 25 09:12:25 2019,600,The main experiment item,yes,FlankerTask.osexp,/Users/kaylicolpitts/Desktop/adv quant/lab 2,no,mono,no,18,no,white,no,yes,768,legacy,54,79,/Users/kaylicolpitts/Desktop/adv quant/lab 2/KC-subject-3.csv,legacy,Kafkaesque Koffka,3.2.8,0,s,NA,s,h,NA,s,345,NA,35259,12959,NA,345,2,legacy,1024,2,48000,-16,experiment,SSSSS,3,odd,280408,38756,189281,NA,221351,3467,243751,NA,281500,3488,176320,NA,281613,281960,281488,281612,FlankerTask,127,61090,135,yes,1024
94.11764706,94.11764706,451.3529412,451.3529412,black,legacy,legacy,legacy,0,congruent,uniform,1,undefined,1,s,135,0,0,0,135,0,135,0,135,0,0,0,135,135,135,135,Wed Sep 25 09:12:25 2019,600,The main experiment item,yes,FlankerTask.osexp,/Users/kaylicolpitts/Desktop/adv quant/lab 2,no,mono,no,18,no,white,no,yes,768,legacy,55,79,/Users/kaylicolpitts/Desktop/adv quant/lab 2/KC-subject-3.csv,legacy,Kafkaesque Koffka,3.2.8,0,s,NA,s,h,NA,s,294,NA,35259,12959,NA,294,2,legacy,1024,2,48000,-16,experiment,SSSSS,3,odd,281975,38756,189281,NA,221351,3467,243751,NA,283067,3488,176320,NA,283180,283476,283054,283179,FlankerTask,128,61384,136,yes,1024
94.16058394,94.16058394,451.1678832,451.1678832,black,legacy,legacy,legacy,0,incongruent,uniform,1,undefined,1,s,136,0,0,0,136,0,136,0,136,0,0,0,136,136,136,136,Wed Sep 25 09:12:25 2019,600,The main experiment item,yes,FlankerTask.osexp,/Users/kaylicolpitts/Desktop/adv quant/lab 2,no,mono,no,18,no,white,no,yes,768,legacy,56,79,/Users/kaylicolpitts/Desktop/adv quant/lab 2/KC-subject-3.csv,legacy,Kafkaesque Koffka,3.2.8,0,s,NA,s,h,NA,s,426,NA,35259,12959,NA,426,2,legacy,1024,2,48000,-16,experiment,HHSHH,3,odd,283491,38756,189281,NA,221351,3467,243751,NA,284583,3488,176320,NA,284696,285124,284571,284696,FlankerTask,129,61810,137,yes,1024
94.20289855,94.20289855,450.9275362,450.9275362,black,legacy,legacy,legacy,0,congruent,uniform,1,undefined,1,h,137,0,0,0,137,0,137,0,137,0,0,0,137,137,137,137,Wed Sep 25 09:12:25 2019,600,The main experiment item,yes,FlankerTask.osexp,/Users/kaylicolpitts/Desktop/adv quant/lab 2,no,mono,no,18,no,white,no,yes,768,legacy,57,79,/Users/kaylicolpitts/Desktop/adv quant/lab 2/KC-subject-3.csv,legacy,Kafkaesque Koffka,3.2.8,0,h,NA,s,h,NA,h,418,NA,35259,12959,NA,418,2,legacy,1024,2,48000,-16,experiment,HHHHH,3,odd,285139,38756,189281,NA,221351,3467,243751,NA,286232,3488,176320,NA,286345,286765,286219,286344,FlankerTask,130,62228,138,yes,1024
94.24460432,94.24460432,450.7913669,450.7913669,black,legacy,legacy,legacy,0,incongruent,uniform,1,undefined,1,s,138,0,0,0,138,0,138,0,138,0,0,0,138,138,138,138,Wed Sep 25 09:12:25 2019,600,The main experiment item,yes,FlankerTask.osexp,/Users/kaylicolpitts/Desktop/adv quant/lab 2,no,mono,no,18,no,white,no,yes,768,legacy,58,79,/Users/kaylicolpitts/Desktop/adv quant/lab 2/KC-subject-3.csv,legacy,Kafkaesque Koffka,3.2.8,0,s,NA,s,h,NA,s,432,NA,35259,12959,NA,432,2,legacy,1024,2,48000,-16,experiment,HHSHH,3,odd,286781,38756,189281,NA,221351,3467,243751,NA,287874,3488,176320,NA,287986,288420,287861,287986,FlankerTask,131,62660,139,yes,1024
93.57142857,93.57142857,449.7642857,449.7642857,black,legacy,legacy,legacy,0,incongruent,uniform,0,undefined,0,h,139,0,0,0,139,0,139,0,139,0,0,0,139,139,139,139,Wed Sep 25 09:12:25 2019,600,The main experiment item,yes,FlankerTask.osexp,/Users/kaylicolpitts/Desktop/adv quant/lab 2,no,mono,no,18,no,white,no,yes,768,legacy,59,79,/Users/kaylicolpitts/Desktop/adv quant/lab 2/KC-subject-3.csv,legacy,Kafkaesque Koffka,3.2.8,0,s,NA,s,h,NA,s,307,NA,35259,12959,NA,307,2,legacy,1024,2,48000,-16,experiment,SSHSS,3,odd,288435,38756,189281,NA,221351,3467,243751,NA,289528,3488,176320,NA,289641,289950,289515,289640,FlankerTask,131,62967,140,yes,1024
93.61702128,93.61702128,449.822695,449.822695,black,legacy,legacy,legacy,0,incongruent,uniform,1,undefined,1,h,140,0,0,0,140,0,140,0,140,0,0,0,140,140,140,140,Wed Sep 25 09:12:25 2019,600,The main experiment item,yes,FlankerTask.osexp,/Users/kaylicolpitts/Desktop/adv quant/lab 2,no,mono,no,18,no,white,no,yes,768,legacy,60,79,/Users/kaylicolpitts/Desktop/adv quant/lab 2/KC-subject-3.csv,legacy,Kafkaesque Koffka,3.2.8,0,h,NA,s,h,NA,h,458,NA,35259,12959,NA,458,2,legacy,1024,2,48000,-16,experiment,SSHSS,3,odd,290478,38756,189281,NA,289966,3467,243751,NA,291571,3488,176320,NA,291684,292144,291558,291684,FlankerTask,132,63425,141,yes,1024
93.66197183,93.66197183,449.3591549,449.3591549,black,legacy,legacy,legacy,0,congruent,uniform,1,undefined,1,h,141,0,0,0,141,0,141,0,141,0,0,0,141,141,141,141,Wed Sep 25 09:12:25 2019,600,The main experiment item,yes,FlankerTask.osexp,/Users/kaylicolpitts/Desktop/adv quant/lab 2,no,mono,no,18,no,white,no,yes,768,legacy,61,79,/Users/kaylicolpitts/Desktop/adv quant/lab 2/KC-subject-3.csv,legacy,Kafkaesque Koffka,3.2.8,0,h,NA,s,h,NA,h,384,NA,35259,12959,NA,384,2,legacy,1024,2,48000,-16,experiment,HHHHH,3,odd,292159,38756,189281,NA,289966,3467,243751,NA,293251,3488,176320,NA,293364,293751,293239,293364,FlankerTask,133,63809,142,yes,1024
93.70629371,93.70629371,449.4195804,449.4195804,black,legacy,legacy,legacy,0,congruent,uniform,1,undefined,1,h,142,0,0,0,142,0,142,0,142,0,0,0,142,142,142,142,Wed Sep 25 09:12:25 2019,600,The main experiment item,yes,FlankerTask.osexp,/Users/kaylicolpitts/Desktop/adv quant/lab 2,no,mono,no,18,no,white,no,yes,768,legacy,62,79,/Users/kaylicolpitts/Desktop/adv quant/lab 2/KC-subject-3.csv,legacy,Kafkaesque Koffka,3.2.8,0,h,NA,s,h,NA,h,458,NA,35259,12959,NA,458,2,legacy,1024,2,48000,-16,experiment,HHHHH,3,odd,293766,38756,189281,NA,289966,3467,243751,NA,294859,3488,176320,NA,294972,295433,294847,294971,FlankerTask,134,64267,143,yes,1024
93.75,93.75,448.9166667,448.9166667,black,legacy,legacy,legacy,0,congruent,uniform,1,undefined,1,h,143,0,0,0,143,0,143,0,143,0,0,0,143,143,143,143,Wed Sep 25 09:12:25 2019,600,The main experiment item,yes,FlankerTask.osexp,/Users/kaylicolpitts/Desktop/adv quant/lab 2,no,mono,no,18,no,white,no,yes,768,legacy,63,79,/Users/kaylicolpitts/Desktop/adv quant/lab 2/KC-subject-3.csv,legacy,Kafkaesque Koffka,3.2.8,0,h,NA,s,h,NA,h,377,NA,35259,12959,NA,377,2,legacy,1024,2,48000,-16,experiment,HHHHH,3,odd,295448,38756,189281,NA,289966,3467,243751,NA,296541,3488,176320,NA,296654,297034,296529,296654,FlankerTask,135,64644,144,yes,1024
93.10344828,93.10344828,448.662069,448.662069,black,legacy,legacy,legacy,0,congruent,uniform,0,undefined,0,s,144,0,0,0,144,0,144,0,144,0,0,0,144,144,144,144,Wed Sep 25 09:12:25 2019,600,The main experiment item,yes,FlankerTask.osexp,/Users/kaylicolpitts/Desktop/adv quant/lab 2,no,mono,no,18,no,white,no,yes,768,legacy,64,79,/Users/kaylicolpitts/Desktop/adv quant/lab 2/KC-subject-3.csv,legacy,Kafkaesque Koffka,3.2.8,0,h,NA,s,h,NA,h,412,NA,35259,12959,NA,412,2,legacy,1024,2,48000,-16,experiment,SSSSS,3,odd,297049,38756,189281,NA,289966,3467,243751,NA,298141,3488,176320,NA,298255,298670,298129,298255,FlankerTask,135,65056,145,yes,1024
93.15068493,93.15068493,449.3013699,449.3013699,black,legacy,legacy,legacy,0,incongruent,uniform,1,undefined,1,h,145,0,0,0,145,0,145,0,145,0,0,0,145,145,145,145,Wed Sep 25 09:12:25 2019,600,The main experiment item,yes,FlankerTask.osexp,/Users/kaylicolpitts/Desktop/adv quant/lab 2,no,mono,no,18,no,white,no,yes,768,legacy,65,79,/Users/kaylicolpitts/Desktop/adv quant/lab 2/KC-subject-3.csv,legacy,Kafkaesque Koffka,3.2.8,0,h,NA,s,h,NA,h,542,NA,35259,12959,NA,542,2,legacy,1024,2,48000,-16,experiment,SSHSS,3,odd,299199,38756,189281,NA,298685,3467,243751,NA,300293,3488,176320,NA,300405,300950,300280,300405,FlankerTask,136,65598,146,yes,1024
93.19727891,93.19727891,449.8435374,449.8435374,black,legacy,legacy,legacy,0,incongruent,uniform,1,undefined,1,s,146,0,0,0,146,0,146,0,146,0,0,0,146,146,146,146,Wed Sep 25 09:12:25 2019,600,The main experiment item,yes,FlankerTask.osexp,/Users/kaylicolpitts/Desktop/adv quant/lab 2,no,mono,no,18,no,white,no,yes,768,legacy,66,79,/Users/kaylicolpitts/Desktop/adv quant/lab 2/KC-subject-3.csv,legacy,Kafkaesque Koffka,3.2.8,0,s,NA,s,h,NA,s,529,NA,35259,12959,NA,529,2,legacy,1024,2,48000,-16,experiment,HHSHH,3,odd,300965,38756,189281,NA,298685,3467,243751,NA,302057,3488,176320,NA,302170,302702,302044,302169,FlankerTask,137,66127,147,yes,1024
93.24324324,93.24324324,451.4189189,451.4189189,black,legacy,legacy,legacy,0,incongruent,uniform,1,undefined,1,s,147,0,0,0,147,0,147,0,147,0,0,0,147,147,147,147,Wed Sep 25 09:12:25 2019,600,The main experiment item,yes,FlankerTask.osexp,/Users/kaylicolpitts/Desktop/adv quant/lab 2,no,mono,no,18,no,white,no,yes,768,legacy,67,79,/Users/kaylicolpitts/Desktop/adv quant/lab 2/KC-subject-3.csv,legacy,Kafkaesque Koffka,3.2.8,0,s,NA,s,h,NA,s,683,NA,35259,12959,NA,683,2,legacy,1024,2,48000,-16,experiment,HHSHH,3,odd,302717,38756,189281,NA,298685,3467,243751,NA,303812,3488,176320,NA,303925,304611,303800,303925,FlankerTask,138,66810,148,yes,1024
93.2885906,93.2885906,451.4765101,451.4765101,black,legacy,legacy,legacy,0,incongruent,uniform,1,undefined,1,h,148,0,0,0,148,0,148,0,148,0,0,0,148,148,148,148,Wed Sep 25 09:12:25 2019,600,The main experiment item,yes,FlankerTask.osexp,/Users/kaylicolpitts/Desktop/adv quant/lab 2,no,mono,no,18,no,white,no,yes,768,legacy,68,79,/Users/kaylicolpitts/Desktop/adv quant/lab 2/KC-subject-3.csv,legacy,Kafkaesque Koffka,3.2.8,0,h,NA,s,h,NA,h,460,NA,35259,12959,NA,460,2,legacy,1024,2,48000,-16,experiment,SSHSS,3,odd,305138,38756,189281,NA,298685,3467,304625,NA,306230,3488,176320,NA,306343,306806,306218,306342,FlankerTask,139,67270,149,yes,1024
93.33333333,93.33333333,452.04,452.04,black,legacy,legacy,legacy,0,incongruent,uniform,1,undefined,1,h,149,0,0,0,149,0,149,0,149,0,0,0,149,149,149,149,Wed Sep 25 09:12:25 2019,600,The main experiment item,yes,FlankerTask.osexp,/Users/kaylicolpitts/Desktop/adv quant/lab 2,no,mono,no,18,no,white,no,yes,768,legacy,69,79,/Users/kaylicolpitts/Desktop/adv quant/lab 2/KC-subject-3.csv,legacy,Kafkaesque Koffka,3.2.8,0,h,NA,s,h,NA,h,536,NA,35259,12959,NA,536,2,legacy,1024,2,48000,-16,experiment,SSHSS,3,odd,306820,38756,189281,NA,298685,3467,304625,NA,307914,3488,176320,NA,308026,308565,307901,308026,FlankerTask,140,67806,150,yes,1024
93.37748344,93.37748344,451.7549669,451.7549669,black,legacy,legacy,legacy,0,incongruent,uniform,1,undefined,1,h,150,0,0,0,150,0,150,0,150,0,0,0,150,150,150,150,Wed Sep 25 09:12:25 2019,600,The main experiment item,yes,FlankerTask.osexp,/Users/kaylicolpitts/Desktop/adv quant/lab 2,no,mono,no,18,no,white,no,yes,768,legacy,70,79,/Users/kaylicolpitts/Desktop/adv quant/lab 2/KC-subject-3.csv,legacy,Kafkaesque Koffka,3.2.8,0,h,NA,s,h,NA,h,409,NA,35259,12959,NA,409,2,legacy,1024,2,48000,-16,experiment,SSHSS,3,odd,308580,38756,189281,NA,298685,3467,304625,NA,309672,3488,176320,NA,309785,310197,309660,309785,FlankerTask,141,68215,151,yes,1024
93.42105263,93.42105263,451.7631579,451.7631579,black,legacy,legacy,legacy,0,incongruent,uniform,1,undefined,1,s,151,0,0,0,151,0,151,0,151,0,0,0,151,151,151,151,Wed Sep 25 09:12:25 2019,600,The main experiment item,yes,FlankerTask.osexp,/Users/kaylicolpitts/Desktop/adv quant/lab 2,no,mono,no,18,no,white,no,yes,768,legacy,71,79,/Users/kaylicolpitts/Desktop/adv quant/lab 2/KC-subject-3.csv,legacy,Kafkaesque Koffka,3.2.8,0,s,NA,s,h,NA,s,453,NA,35259,12959,NA,453,2,legacy,1024,2,48000,-16,experiment,HHSHH,3,odd,310211,38756,189281,NA,298685,3467,304625,NA,311304,3488,176320,NA,311418,311874,311292,311417,FlankerTask,142,68668,152,yes,1024
93.46405229,93.46405229,451.3006536,451.3006536,black,legacy,legacy,legacy,0,incongruent,uniform,1,undefined,1,s,152,0,0,0,152,0,152,0,152,0,0,0,152,152,152,152,Wed Sep 25 09:12:25 2019,600,The main experiment item,yes,FlankerTask.osexp,/Users/kaylicolpitts/Desktop/adv quant/lab 2,no,mono,no,18,no,white,no,yes,768,legacy,72,79,/Users/kaylicolpitts/Desktop/adv quant/lab 2/KC-subject-3.csv,legacy,Kafkaesque Koffka,3.2.8,0,s,NA,s,h,NA,s,381,NA,35259,12959,NA,381,2,legacy,1024,2,48000,-16,experiment,HHSHH,3,odd,311888,38756,189281,NA,298685,3467,304625,NA,312981,3488,176320,NA,313094,313478,312968,313093,FlankerTask,143,69049,153,yes,1024
93.50649351,93.50649351,450.7337662,450.7337662,black,legacy,legacy,legacy,0,congruent,uniform,1,undefined,1,s,153,0,0,0,153,0,153,0,153,0,0,0,153,153,153,153,Wed Sep 25 09:12:25 2019,600,The main experiment item,yes,FlankerTask.osexp,/Users/kaylicolpitts/Desktop/adv quant/lab 2,no,mono,no,18,no,white,no,yes,768,legacy,73,79,/Users/kaylicolpitts/Desktop/adv quant/lab 2/KC-subject-3.csv,legacy,Kafkaesque Koffka,3.2.8,0,s,NA,s,h,NA,s,364,NA,35259,12959,NA,364,2,legacy,1024,2,48000,-16,experiment,SSSSS,3,odd,313492,38756,189281,NA,298685,3467,304625,NA,314585,3488,176320,NA,314697,315064,314572,314697,FlankerTask,144,69413,154,yes,1024
93.5483871,93.5483871,450.6,450.6,black,legacy,legacy,legacy,0,incongruent,uniform,1,undefined,1,h,154,0,0,0,154,0,154,0,154,0,0,0,154,154,154,154,Wed Sep 25 09:12:25 2019,600,The main experiment item,yes,FlankerTask.osexp,/Users/kaylicolpitts/Desktop/adv quant/lab 2,no,mono,no,18,no,white,no,yes,768,legacy,74,79,/Users/kaylicolpitts/Desktop/adv quant/lab 2/KC-subject-3.csv,legacy,Kafkaesque Koffka,3.2.8,0,h,NA,s,h,NA,h,430,NA,35259,12959,NA,430,2,legacy,1024,2,48000,-16,experiment,SSHSS,3,odd,315078,38756,189281,NA,298685,3467,304625,NA,316171,3488,176320,NA,316284,316717,316159,316284,FlankerTask,145,69843,155,yes,1024
93.58974359,93.58974359,449.8141026,449.8141026,black,legacy,legacy,legacy,0,congruent,uniform,1,undefined,1,s,155,0,0,0,155,0,155,0,155,0,0,0,155,155,155,155,Wed Sep 25 09:12:25 2019,600,The main experiment item,yes,FlankerTask.osexp,/Users/kaylicolpitts/Desktop/adv quant/lab 2,no,mono,no,18,no,white,no,yes,768,legacy,75,79,/Users/kaylicolpitts/Desktop/adv quant/lab 2/KC-subject-3.csv,legacy,Kafkaesque Koffka,3.2.8,0,s,NA,s,h,NA,s,328,NA,35259,12959,NA,328,2,legacy,1024,2,48000,-16,experiment,SSSSS,3,odd,316731,38756,189281,NA,298685,3467,304625,NA,317825,3488,176320,NA,317938,318269,317813,317937,FlankerTask,146,70171,156,yes,1024
93.63057325,93.63057325,449.6433121,449.6433121,black,legacy,legacy,legacy,0,incongruent,uniform,1,undefined,1,s,156,0,0,0,156,0,156,0,156,0,0,0,156,156,156,156,Wed Sep 25 09:12:25 2019,600,The main experiment item,yes,FlankerTask.osexp,/Users/kaylicolpitts/Desktop/adv quant/lab 2,no,mono,no,18,no,white,no,yes,768,legacy,76,79,/Users/kaylicolpitts/Desktop/adv quant/lab 2/KC-subject-3.csv,legacy,Kafkaesque Koffka,3.2.8,0,s,NA,s,h,NA,s,423,NA,35259,12959,NA,423,2,legacy,1024,2,48000,-16,experiment,HHSHH,3,odd,318284,38756,189281,NA,298685,3467,304625,NA,319377,3488,176320,NA,319490,319916,319364,319489,FlankerTask,147,70594,157,yes,1024
