"acc","accuracy","average_response_time","avg_rt","background","canvas_backend","clock_backend","color_backend","condition","correct","correct_Instructions1","correct_Keyboard_response","correct_response","count_Block1","count_Block2","count_Block3","count_ErrorFeedback","count_Faster","count_Finish","count_Fixation","count_ISI","count_Instructions1","count_Instructions2","count_Instructions3","count_Keyboard_response","count_Logger","count_Sequence","count_Stimulus","count_experiment","datetime","deadline","description","disable_garbage_collection","experiment_file","experiment_path","font_bold","font_family","font_italic","font_size","font_underline","foreground","form_clicks","fullscreen","height","keyboard_backend","live_row","live_row_Block1","logfile","mouse_backend","opensesame_codename","opensesame_version","repeat_cycle","response","response_Finish","response_Instructions1","response_Instructions2","response_Instructions3","response_Keyboard_response","response_time","response_time_Finish","response_time_Instructions1","response_time_Instructions2","response_time_Instructions3","response_time_Keyboard_response","round_decimals","sampler_backend","sound_buf_size","sound_channels","sound_freq","sound_sample_size","start","stimulus","subject_nr","subject_parity","time_Block1","time_Block2","time_Block3","time_ErrorFeedback","time_Faster","time_Finish","time_Fixation","time_ISI","time_Instructions1","time_Instructions2","time_Instructions3","time_Keyboard_response","time_Logger","time_Sequence","time_Stimulus","time_experiment","title","total_correct","total_response_time","total_responses","width"
"100","100","594","594","#3d3846","legacy","legacy","legacy","congruent","1","undefined","1","s","0","0","0","0","0","0","0","0","0","0","0","0","0","0","0","0","Thu Sep 21 13:42:57 2023","1500","The main experiment item","False","FlankerEffectTest.osexp","C:\Users\stcka\OneDrive\Sam Docs\Psychology Program\AP Textbooks\Quantitative Methods","False","mono","False","18","no","white","no","yes","768","legacy","0","0","C:/Users/stcka/OneDrive/Sam Docs/Psychology Program/AP Textbooks/Quantitative Methods/SA-subject-2.csv","legacy","Melodramatic Milgram","4.0.5","0","s","NA","s","NA","NA","s","594.0","NA","351585","NA","NA","594","2","legacy","1024","2","48000","-16","experiment","SSSSS","2","even","353348","NA","NA","NA","NA","NA","353390","NA","1762","NA","NA","353491","354087","353389","353490","1760","Flanker Effect Test","1","594.0","1","1024"
"100","100","603","603","#3d3846","legacy","legacy","legacy","incongruent","1","undefined","1","h","0","0","0","1","1","0","1","1","0","0","0","1","1","1","1","0","Thu Sep 21 13:42:57 2023","1500","The main experiment item","False","FlankerEffectTest.osexp","C:\Users\stcka\OneDrive\Sam Docs\Psychology Program\AP Textbooks\Quantitative Methods","False","mono","False","18","no","white","no","yes","768","legacy","1","1","C:/Users/stcka/OneDrive/Sam Docs/Psychology Program/AP Textbooks/Quantitative Methods/SA-subject-2.csv","legacy","Melodramatic Milgram","4.0.5","0","h","NA","s","NA","NA","h","612.0","NA","351585","NA","NA","612","2","legacy","1024","2","48000","-16","experiment","SSHSS","2","even","353348","NA","NA","NA","NA","NA","355117","354096","1762","NA","NA","355218","355830","355115","355218","1760","Flanker Effect Test","2","1206.0","2","1024"
"100","100","602","602","#3d3846","legacy","legacy","legacy","incongruent","1","undefined","1","h","0","0","0","2","2","0","2","2","0","0","0","2","2","2","2","0","Thu Sep 21 13:42:57 2023","1500","The main experiment item","False","FlankerEffectTest.osexp","C:\Users\stcka\OneDrive\Sam Docs\Psychology Program\AP Textbooks\Quantitative Methods","False","mono","False","18","no","white","no","yes","768","legacy","2","2","C:/Users/stcka/OneDrive/Sam Docs/Psychology Program/AP Textbooks/Quantitative Methods/SA-subject-2.csv","legacy","Melodramatic Milgram","4.0.5","0","h","NA","s","NA","NA","h","600.0","NA","351585","NA","NA","600","2","legacy","1024","2","48000","-16","experiment","SSHSS","2","even","353348","NA","NA","NA","NA","NA","356863","355836","1762","NA","NA","356963","357565","356860","356963","1760","Flanker Effect Test","3","1806.0","3","1024"
"100","100","570","570","#3d3846","legacy","legacy","legacy","incongruent","1","undefined","1","h","0","0","0","3","3","0","3","3","0","0","0","3","3","3","3","0","Thu Sep 21 13:42:57 2023","1500","The main experiment item","False","FlankerEffectTest.osexp","C:\Users\stcka\OneDrive\Sam Docs\Psychology Program\AP Textbooks\Quantitative Methods","False","mono","False","18","no","white","no","yes","768","legacy","3","3","C:/Users/stcka/OneDrive/Sam Docs/Psychology Program/AP Textbooks/Quantitative Methods/SA-subject-2.csv","legacy","Melodramatic Milgram","4.0.5","0","h","NA","s","NA","NA","h","476.0","NA","351585","NA","NA","476","2","legacy","1024","2","48000","-16","experiment","SSHSS","2","even","353348","NA","NA","NA","NA","NA","358591","357570","1762","NA","NA","358692","359169","358589","358692","1760","Flanker Effect Test","4","2282.0","4","1024"
"100","100","556","556","#3d3846","legacy","legacy","legacy","congruent","1","undefined","1","h","0","0","0","4","4","0","4","4","0","0","0","4","4","4","4","0","Thu Sep 21 13:42:57 2023","1500","The main experiment item","False","FlankerEffectTest.osexp","C:\Users\stcka\OneDrive\Sam Docs\Psychology Program\AP Textbooks\Quantitative Methods","False","mono","False","18","no","white","no","yes","768","legacy","4","4","C:/Users/stcka/OneDrive/Sam Docs/Psychology Program/AP Textbooks/Quantitative Methods/SA-subject-2.csv","legacy","Melodramatic Milgram","4.0.5","0","h","NA","s","NA","NA","h","498.0","NA","351585","NA","NA","498","2","legacy","1024","2","48000","-16","experiment","HHHHH","2","even","353348","NA","NA","NA","NA","NA","360194","359173","1762","NA","NA","360294","360793","360192","360294","1760","Flanker Effect Test","5","2780.0","5","1024"
"100","100","547","547","#3d3846","legacy","legacy","legacy","incongruent","1","undefined","1","h","0","0","0","5","5","0","5","5","0","0","0","5","5","5","5","0","Thu Sep 21 13:42:57 2023","1500","The main experiment item","False","FlankerEffectTest.osexp","C:\Users\stcka\OneDrive\Sam Docs\Psychology Program\AP Textbooks\Quantitative Methods","False","mono","False","18","no","white","no","yes","768","legacy","5","5","C:/Users/stcka/OneDrive/Sam Docs/Psychology Program/AP Textbooks/Quantitative Methods/SA-subject-2.csv","legacy","Melodramatic Milgram","4.0.5","0","h","NA","s","NA","NA","h","505.0","NA","351585","NA","NA","505","2","legacy","1024","2","48000","-16","experiment","SSHSS","2","even","353348","NA","NA","NA","NA","NA","361824","360798","1762","NA","NA","361924","362429","361821","361924","1760","Flanker Effect Test","6","3285.0","6","1024"
"100","100","547","547","#3d3846","legacy","legacy","legacy","incongruent","1","undefined","1","h","0","0","0","6","6","0","6","6","0","0","0","6","6","6","6","0","Thu Sep 21 13:42:57 2023","1500","The main experiment item","False","FlankerEffectTest.osexp","C:\Users\stcka\OneDrive\Sam Docs\Psychology Program\AP Textbooks\Quantitative Methods","False","mono","False","18","no","white","no","yes","768","legacy","6","6","C:/Users/stcka/OneDrive/Sam Docs/Psychology Program/AP Textbooks/Quantitative Methods/SA-subject-2.csv","legacy","Melodramatic Milgram","4.0.5","0","h","NA","s","NA","NA","h","549.0","NA","351585","NA","NA","549","2","legacy","1024","2","48000","-16","experiment","SSHSS","2","even","353348","NA","NA","NA","NA","NA","363455","362434","1762","NA","NA","363556","364106","363454","363556","1760","Flanker Effect Test","7","3834.0","7","1024"
"100","100","524","524","#3d3846","legacy","legacy","legacy","congruent","1","undefined","1","s","0","0","0","7","7","0","7","7","0","0","0","7","7","7","7","0","Thu Sep 21 13:42:57 2023","1500","The main experiment item","False","FlankerEffectTest.osexp","C:\Users\stcka\OneDrive\Sam Docs\Psychology Program\AP Textbooks\Quantitative Methods","False","mono","False","18","no","white","no","yes","768","legacy","7","7","C:/Users/stcka/OneDrive/Sam Docs/Psychology Program/AP Textbooks/Quantitative Methods/SA-subject-2.csv","legacy","Melodramatic Milgram","4.0.5","0","s","NA","s","NA","NA","s","360.0","NA","351585","NA","NA","360","2","legacy","1024","2","48000","-16","experiment","SSSSS","2","even","353348","NA","NA","NA","NA","NA","365135","364111","1762","NA","NA","365236","365597","365134","365236","1760","Flanker Effect Test","8","4194.0","8","1024"
"100","100","528","528","#3d3846","legacy","legacy","legacy","incongruent","1","undefined","1","s","0","0","0","8","8","0","8","8","0","0","0","8","8","8","8","0","Thu Sep 21 13:42:57 2023","1500","The main experiment item","False","FlankerEffectTest.osexp","C:\Users\stcka\OneDrive\Sam Docs\Psychology Program\AP Textbooks\Quantitative Methods","False","mono","False","18","no","white","no","yes","768","legacy","8","8","C:/Users/stcka/OneDrive/Sam Docs/Psychology Program/AP Textbooks/Quantitative Methods/SA-subject-2.csv","legacy","Melodramatic Milgram","4.0.5","0","s","NA","s","NA","NA","s","565.0","NA","351585","NA","NA","565","2","legacy","1024","2","48000","-16","experiment","HHSHH","2","even","353348","NA","NA","NA","NA","NA","366629","365602","1762","NA","NA","366730","367296","366628","366730","1760","Flanker Effect Test","9","4759.0","9","1024"
"100","100","518","518","#3d3846","legacy","legacy","legacy","congruent","1","undefined","1","s","0","0","0","9","9","0","9","9","0","0","0","9","9","9","9","0","Thu Sep 21 13:42:57 2023","1500","The main experiment item","False","FlankerEffectTest.osexp","C:\Users\stcka\OneDrive\Sam Docs\Psychology Program\AP Textbooks\Quantitative Methods","False","mono","False","18","no","white","no","yes","768","legacy","9","9","C:/Users/stcka/OneDrive/Sam Docs/Psychology Program/AP Textbooks/Quantitative Methods/SA-subject-2.csv","legacy","Melodramatic Milgram","4.0.5","0","s","NA","s","NA","NA","s","422.0","NA","351585","NA","NA","422","2","legacy","1024","2","48000","-16","experiment","SSSSS","2","even","353348","NA","NA","NA","NA","NA","368323","367301","1762","NA","NA","368424","368847","368322","368424","1760","Flanker Effect Test","10","5181.0","10","1024"
"100","100","511","511","#3d3846","legacy","legacy","legacy","congruent","1","undefined","1","s","0","0","0","10","10","0","10","10","0","0","0","10","10","10","10","0","Thu Sep 21 13:42:57 2023","1500","The main experiment item","False","FlankerEffectTest.osexp","C:\Users\stcka\OneDrive\Sam Docs\Psychology Program\AP Textbooks\Quantitative Methods","False","mono","False","18","no","white","no","yes","768","legacy","10","10","C:/Users/stcka/OneDrive/Sam Docs/Psychology Program/AP Textbooks/Quantitative Methods/SA-subject-2.csv","legacy","Melodramatic Milgram","4.0.5","0","s","NA","s","NA","NA","s","448.0","NA","351585","NA","NA","448","2","legacy","1024","2","48000","-16","experiment","SSSSS","2","even","353348","NA","NA","NA","NA","NA","369875","368851","1762","NA","NA","369976","370425","369874","369976","1760","Flanker Effect Test","11","5629.0","11","1024"
"100","100","510","510","#3d3846","legacy","legacy","legacy","incongruent","1","undefined","1","h","0","0","0","11","11","0","11","11","0","0","0","11","11","11","11","0","Thu Sep 21 13:42:57 2023","1500","The main experiment item","False","FlankerEffectTest.osexp","C:\Users\stcka\OneDrive\Sam Docs\Psychology Program\AP Textbooks\Quantitative Methods","False","mono","False","18","no","white","no","yes","768","legacy","11","11","C:/Users/stcka/OneDrive/Sam Docs/Psychology Program/AP Textbooks/Quantitative Methods/SA-subject-2.csv","legacy","Melodramatic Milgram","4.0.5","0","h","NA","s","NA","NA","h","495.0","NA","351585","NA","NA","495","2","legacy","1024","2","48000","-16","experiment","SSHSS","2","even","353348","NA","NA","NA","NA","NA","371452","370429","1762","NA","NA","371553","372049","371451","371553","1760","Flanker Effect Test","12","6124.0","12","1024"
"100","100","524","524","#3d3846","legacy","legacy","legacy","incongruent","1","undefined","1","s","0","0","0","12","12","0","12","12","0","0","0","12","12","12","12","0","Thu Sep 21 13:42:57 2023","1500","The main experiment item","False","FlankerEffectTest.osexp","C:\Users\stcka\OneDrive\Sam Docs\Psychology Program\AP Textbooks\Quantitative Methods","False","mono","False","18","no","white","no","yes","768","legacy","12","12","C:/Users/stcka/OneDrive/Sam Docs/Psychology Program/AP Textbooks/Quantitative Methods/SA-subject-2.csv","legacy","Melodramatic Milgram","4.0.5","0","s","NA","s","NA","NA","s","698.0","NA","351585","NA","NA","698","2","legacy","1024","2","48000","-16","experiment","HHSHH","2","even","353348","NA","NA","NA","NA","NA","373075","372055","1762","NA","NA","373176","373875","373074","373176","1760","Flanker Effect Test","13","6822.0","13","1024"
"100","100","529","529","#3d3846","legacy","legacy","legacy","incongruent","1","undefined","1","s","0","0","0","13","13","0","13","13","0","0","0","13","13","13","13","0","Thu Sep 21 13:42:57 2023","1500","The main experiment item","False","FlankerEffectTest.osexp","C:\Users\stcka\OneDrive\Sam Docs\Psychology Program\AP Textbooks\Quantitative Methods","False","mono","False","18","no","white","no","yes","768","legacy","13","13","C:/Users/stcka/OneDrive/Sam Docs/Psychology Program/AP Textbooks/Quantitative Methods/SA-subject-2.csv","legacy","Melodramatic Milgram","4.0.5","0","s","NA","s","NA","NA","s","587.0","NA","351585","NA","NA","587","2","legacy","1024","2","48000","-16","experiment","HHSHH","2","even","353348","NA","NA","NA","NA","NA","374901","373879","1762","NA","NA","375002","375590","374900","375002","1760","Flanker Effect Test","14","7409.0","14","1024"
"100","100","529","529","#3d3846","legacy","legacy","legacy","incongruent","1","undefined","1","h","0","0","0","14","14","0","14","14","0","0","0","14","14","14","14","0","Thu Sep 21 13:42:57 2023","1500","The main experiment item","False","FlankerEffectTest.osexp","C:\Users\stcka\OneDrive\Sam Docs\Psychology Program\AP Textbooks\Quantitative Methods","False","mono","False","18","no","white","no","yes","768","legacy","14","14","C:/Users/stcka/OneDrive/Sam Docs/Psychology Program/AP Textbooks/Quantitative Methods/SA-subject-2.csv","legacy","Melodramatic Milgram","4.0.5","0","h","NA","s","NA","NA","h","538.0","NA","351585","NA","NA","538","2","legacy","1024","2","48000","-16","experiment","SSHSS","2","even","353348","NA","NA","NA","NA","NA","376617","375595","1762","NA","NA","376717","377255","376616","376717","1760","Flanker Effect Test","15","7947.0","15","1024"
"100","100","525","525","#3d3846","legacy","legacy","legacy","congruent","1","undefined","1","s","0","0","0","15","15","0","15","15","0","0","0","15","15","15","15","0","Thu Sep 21 13:42:57 2023","1500","The main experiment item","False","FlankerEffectTest.osexp","C:\Users\stcka\OneDrive\Sam Docs\Psychology Program\AP Textbooks\Quantitative Methods","False","mono","False","18","no","white","no","yes","768","legacy","15","15","C:/Users/stcka/OneDrive/Sam Docs/Psychology Program/AP Textbooks/Quantitative Methods/SA-subject-2.csv","legacy","Melodramatic Milgram","4.0.5","0","s","NA","s","NA","NA","s","455.0","NA","351585","NA","NA","455","2","legacy","1024","2","48000","-16","experiment","SSSSS","2","even","353348","NA","NA","NA","NA","NA","378283","377261","1762","NA","NA","378383","378839","378282","378383","1760","Flanker Effect Test","16","8402.0","16","1024"
"100","100","522","522","#3d3846","legacy","legacy","legacy","incongruent","1","undefined","1","s","0","0","0","16","16","0","16","16","0","0","0","16","16","16","16","0","Thu Sep 21 13:42:57 2023","1500","The main experiment item","False","FlankerEffectTest.osexp","C:\Users\stcka\OneDrive\Sam Docs\Psychology Program\AP Textbooks\Quantitative Methods","False","mono","False","18","no","white","no","yes","768","legacy","16","16","C:/Users/stcka/OneDrive/Sam Docs/Psychology Program/AP Textbooks/Quantitative Methods/SA-subject-2.csv","legacy","Melodramatic Milgram","4.0.5","0","s","NA","s","NA","NA","s","488.0","NA","351585","NA","NA","488","2","legacy","1024","2","48000","-16","experiment","HHSHH","2","even","353348","NA","NA","NA","NA","NA","379883","378844","1762","NA","NA","379985","380474","379882","379984","1760","Flanker Effect Test","17","8890.0","17","1024"
"100","100","521","521","#3d3846","legacy","legacy","legacy","incongruent","1","undefined","1","h","0","0","0","17","17","0","17","17","0","0","0","17","17","17","17","0","Thu Sep 21 13:42:57 2023","1500","The main experiment item","False","FlankerEffectTest.osexp","C:\Users\stcka\OneDrive\Sam Docs\Psychology Program\AP Textbooks\Quantitative Methods","False","mono","False","18","no","white","no","yes","768","legacy","17","17","C:/Users/stcka/OneDrive/Sam Docs/Psychology Program/AP Textbooks/Quantitative Methods/SA-subject-2.csv","legacy","Melodramatic Milgram","4.0.5","0","h","NA","s","NA","NA","h","497.0","NA","351585","NA","NA","497","2","legacy","1024","2","48000","-16","experiment","SSHSS","2","even","353348","NA","NA","NA","NA","NA","381511","380479","1762","NA","NA","381612","382111","381510","381612","1760","Flanker Effect Test","18","9387.0","18","1024"
"100","100","520","520","#3d3846","legacy","legacy","legacy","congruent","1","undefined","1","h","0","0","0","18","18","0","18","18","0","0","0","18","18","18","18","0","Thu Sep 21 13:42:57 2023","1500","The main experiment item","False","FlankerEffectTest.osexp","C:\Users\stcka\OneDrive\Sam Docs\Psychology Program\AP Textbooks\Quantitative Methods","False","mono","False","18","no","white","no","yes","768","legacy","18","18","C:/Users/stcka/OneDrive/Sam Docs/Psychology Program/AP Textbooks/Quantitative Methods/SA-subject-2.csv","legacy","Melodramatic Milgram","4.0.5","0","h","NA","s","NA","NA","h","502.0","NA","351585","NA","NA","502","2","legacy","1024","2","48000","-16","experiment","HHHHH","2","even","353348","NA","NA","NA","NA","NA","383152","382116","1762","NA","NA","383252","383755","383151","383252","1760","Flanker Effect Test","19","9889.0","19","1024"
"95","95","519","519","#3d3846","legacy","legacy","legacy","incongruent","0","undefined","0","h","0","0","0","19","19","0","19","19","0","0","0","19","19","19","19","0","Thu Sep 21 13:42:57 2023","1500","The main experiment item","False","FlankerEffectTest.osexp","C:\Users\stcka\OneDrive\Sam Docs\Psychology Program\AP Textbooks\Quantitative Methods","False","mono","False","18","no","white","no","yes","768","legacy","19","19","C:/Users/stcka/OneDrive/Sam Docs/Psychology Program/AP Textbooks/Quantitative Methods/SA-subject-2.csv","legacy","Melodramatic Milgram","4.0.5","0","s","NA","s","NA","NA","s","495.0","NA","351585","NA","NA","495","2","legacy","1024","2","48000","-16","experiment","SSHSS","2","even","353348","NA","NA","NA","NA","NA","384780","383760","1762","NA","NA","384880","385376","384779","384880","1760","Flanker Effect Test","19","10384.0","20","1024"
"95","95","516","516","#3d3846","legacy","legacy","legacy","congruent","1","undefined","1","h","0","0","0","20","20","0","20","20","0","0","0","20","20","20","20","0","Thu Sep 21 13:42:57 2023","1500","The main experiment item","False","FlankerEffectTest.osexp","C:\Users\stcka\OneDrive\Sam Docs\Psychology Program\AP Textbooks\Quantitative Methods","False","mono","False","18","no","white","no","yes","768","legacy","20","20","C:/Users/stcka/OneDrive/Sam Docs/Psychology Program/AP Textbooks/Quantitative Methods/SA-subject-2.csv","legacy","Melodramatic Milgram","4.0.5","0","h","NA","s","NA","NA","h","469.0","NA","351585","NA","NA","469","2","legacy","1024","2","48000","-16","experiment","HHHHH","2","even","353348","NA","NA","385382","NA","NA","386908","385883","1762","NA","NA","387009","387479","386907","387009","1760","Flanker Effect Test","20","10853.0","21","1024"
"95","95","515","515","#3d3846","legacy","legacy","legacy","incongruent","1","undefined","1","h","0","0","0","21","21","0","21","21","0","0","0","21","21","21","21","0","Thu Sep 21 13:42:57 2023","1500","The main experiment item","False","FlankerEffectTest.osexp","C:\Users\stcka\OneDrive\Sam Docs\Psychology Program\AP Textbooks\Quantitative Methods","False","mono","False","18","no","white","no","yes","768","legacy","21","21","C:/Users/stcka/OneDrive/Sam Docs/Psychology Program/AP Textbooks/Quantitative Methods/SA-subject-2.csv","legacy","Melodramatic Milgram","4.0.5","0","h","NA","s","NA","NA","h","481.0","NA","351585","NA","NA","481","2","legacy","1024","2","48000","-16","experiment","SSHSS","2","even","353348","NA","NA","385382","NA","NA","388504","387484","1762","NA","NA","388605","389086","388503","388604","1760","Flanker Effect Test","21","11334.0","22","1024"
"95","95","520","520","#3d3846","legacy","legacy","legacy","congruent","1","undefined","1","s","0","0","0","22","22","0","22","22","0","0","0","22","22","22","22","0","Thu Sep 21 13:42:57 2023","1500","The main experiment item","False","FlankerEffectTest.osexp","C:\Users\stcka\OneDrive\Sam Docs\Psychology Program\AP Textbooks\Quantitative Methods","False","mono","False","18","no","white","no","yes","768","legacy","22","22","C:/Users/stcka/OneDrive/Sam Docs/Psychology Program/AP Textbooks/Quantitative Methods/SA-subject-2.csv","legacy","Melodramatic Milgram","4.0.5","0","s","NA","s","NA","NA","s","630.0","NA","351585","NA","NA","630","2","legacy","1024","2","48000","-16","experiment","SSSSS","2","even","353348","NA","NA","385382","NA","NA","390115","389091","1762","NA","NA","390216","390848","390114","390216","1760","Flanker Effect Test","22","11964.0","23","1024"
"95","95","519","519","#3d3846","legacy","legacy","legacy","congruent","1","undefined","1","h","0","0","0","23","23","0","23","23","0","0","0","23","23","23","23","0","Thu Sep 21 13:42:57 2023","1500","The main experiment item","False","FlankerEffectTest.osexp","C:\Users\stcka\OneDrive\Sam Docs\Psychology Program\AP Textbooks\Quantitative Methods","False","mono","False","18","no","white","no","yes","768","legacy","23","23","C:/Users/stcka/OneDrive/Sam Docs/Psychology Program/AP Textbooks/Quantitative Methods/SA-subject-2.csv","legacy","Melodramatic Milgram","4.0.5","0","h","NA","s","NA","NA","h","500.0","NA","351585","NA","NA","500","2","legacy","1024","2","48000","-16","experiment","HHHHH","2","even","353348","NA","NA","385382","NA","NA","391876","390854","1762","NA","NA","391976","392476","391874","391976","1760","Flanker Effect Test","23","12464.0","24","1024"
"96","96","516","516","#3d3846","legacy","legacy","legacy","congruent","1","undefined","1","h","0","0","0","24","24","0","24","24","0","0","0","24","24","24","24","0","Thu Sep 21 13:42:57 2023","1500","The main experiment item","False","FlankerEffectTest.osexp","C:\Users\stcka\OneDrive\Sam Docs\Psychology Program\AP Textbooks\Quantitative Methods","False","mono","False","18","no","white","no","yes","768","legacy","24","24","C:/Users/stcka/OneDrive/Sam Docs/Psychology Program/AP Textbooks/Quantitative Methods/SA-subject-2.csv","legacy","Melodramatic Milgram","4.0.5","0","h","NA","s","NA","NA","h","454.0","NA","351585","NA","NA","454","2","legacy","1024","2","48000","-16","experiment","HHHHH","2","even","353348","NA","NA","385382","NA","NA","393505","392481","1762","NA","NA","393606","394061","393503","393605","1760","Flanker Effect Test","24","12918.0","25","1024"
"96","96","513","513","#3d3846","legacy","legacy","legacy","congruent","1","undefined","1","s","0","0","0","25","25","0","25","25","0","0","0","25","25","25","25","0","Thu Sep 21 13:42:57 2023","1500","The main experiment item","False","FlankerEffectTest.osexp","C:\Users\stcka\OneDrive\Sam Docs\Psychology Program\AP Textbooks\Quantitative Methods","False","mono","False","18","no","white","no","yes","768","legacy","25","25","C:/Users/stcka/OneDrive/Sam Docs/Psychology Program/AP Textbooks/Quantitative Methods/SA-subject-2.csv","legacy","Melodramatic Milgram","4.0.5","0","s","NA","s","NA","NA","s","437.0","NA","351585","NA","NA","437","2","legacy","1024","2","48000","-16","experiment","SSSSS","2","even","353348","NA","NA","385382","NA","NA","395088","394067","1762","NA","NA","395188","395626","395087","395188","1760","Flanker Effect Test","25","13355.0","26","1024"
"96","96","512","512","#3d3846","legacy","legacy","legacy","congruent","1","undefined","1","h","0","0","0","26","26","0","26","26","0","0","0","26","26","26","26","0","Thu Sep 21 13:42:57 2023","1500","The main experiment item","False","FlankerEffectTest.osexp","C:\Users\stcka\OneDrive\Sam Docs\Psychology Program\AP Textbooks\Quantitative Methods","False","mono","False","18","no","white","no","yes","768","legacy","26","26","C:/Users/stcka/OneDrive/Sam Docs/Psychology Program/AP Textbooks/Quantitative Methods/SA-subject-2.csv","legacy","Melodramatic Milgram","4.0.5","0","h","NA","s","NA","NA","h","471.0","NA","351585","NA","NA","471","2","legacy","1024","2","48000","-16","experiment","HHHHH","2","even","353348","NA","NA","385382","NA","NA","396660","395631","1762","NA","NA","396760","397233","396659","396760","1760","Flanker Effect Test","26","13826.0","27","1024"
"96","96","511","511","#3d3846","legacy","legacy","legacy","congruent","1","undefined","1","s","0","0","0","27","27","0","27","27","0","0","0","27","27","27","27","0","Thu Sep 21 13:42:57 2023","1500","The main experiment item","False","FlankerEffectTest.osexp","C:\Users\stcka\OneDrive\Sam Docs\Psychology Program\AP Textbooks\Quantitative Methods","False","mono","False","18","no","white","no","yes","768","legacy","27","27","C:/Users/stcka/OneDrive/Sam Docs/Psychology Program/AP Textbooks/Quantitative Methods/SA-subject-2.csv","legacy","Melodramatic Milgram","4.0.5","0","s","NA","s","NA","NA","s","492.0","NA","351585","NA","NA","492","2","legacy","1024","2","48000","-16","experiment","SSSSS","2","even","353348","NA","NA","385382","NA","NA","398260","397238","1762","NA","NA","398361","398854","398258","398361","1760","Flanker Effect Test","27","14318.0","28","1024"
"96","96","510","510","#3d3846","legacy","legacy","legacy","congruent","1","undefined","1","s","0","0","0","28","28","0","28","28","0","0","0","28","28","28","28","0","Thu Sep 21 13:42:57 2023","1500","The main experiment item","False","FlankerEffectTest.osexp","C:\Users\stcka\OneDrive\Sam Docs\Psychology Program\AP Textbooks\Quantitative Methods","False","mono","False","18","no","white","no","yes","768","legacy","28","28","C:/Users/stcka/OneDrive/Sam Docs/Psychology Program/AP Textbooks/Quantitative Methods/SA-subject-2.csv","legacy","Melodramatic Milgram","4.0.5","0","s","NA","s","NA","NA","s","481.0","NA","351585","NA","NA","481","2","legacy","1024","2","48000","-16","experiment","SSSSS","2","even","353348","NA","NA","385382","NA","NA","399884","398860","1762","NA","NA","399985","400467","399883","399985","1760","Flanker Effect Test","28","14799.0","29","1024"
"96","96","510","510","#3d3846","legacy","legacy","legacy","incongruent","1","undefined","1","h","0","0","0","29","29","0","29","29","0","0","0","29","29","29","29","0","Thu Sep 21 13:42:57 2023","1500","The main experiment item","False","FlankerEffectTest.osexp","C:\Users\stcka\OneDrive\Sam Docs\Psychology Program\AP Textbooks\Quantitative Methods","False","mono","False","18","no","white","no","yes","768","legacy","29","29","C:/Users/stcka/OneDrive/Sam Docs/Psychology Program/AP Textbooks/Quantitative Methods/SA-subject-2.csv","legacy","Melodramatic Milgram","4.0.5","0","h","NA","s","NA","NA","h","522.0","NA","351585","NA","NA","522","2","legacy","1024","2","48000","-16","experiment","SSHSS","2","even","353348","NA","NA","385382","NA","NA","401497","400472","1762","NA","NA","401597","402121","401496","401597","1760","Flanker Effect Test","29","15321.0","30","1024"
"96","96","514","514","#3d3846","legacy","legacy","legacy","incongruent","1","undefined","1","s","0","0","0","30","30","0","30","30","0","0","0","30","30","30","30","0","Thu Sep 21 13:42:57 2023","1500","The main experiment item","False","FlankerEffectTest.osexp","C:\Users\stcka\OneDrive\Sam Docs\Psychology Program\AP Textbooks\Quantitative Methods","False","mono","False","18","no","white","no","yes","768","legacy","30","30","C:/Users/stcka/OneDrive/Sam Docs/Psychology Program/AP Textbooks/Quantitative Methods/SA-subject-2.csv","legacy","Melodramatic Milgram","4.0.5","0","s","NA","s","NA","NA","s","634.0","NA","351585","NA","NA","634","2","legacy","1024","2","48000","-16","experiment","HHSHH","2","even","353348","NA","NA","385382","NA","NA","403150","402126","1762","NA","NA","403252","403887","403149","403252","1760","Flanker Effect Test","30","15955.0","31","1024"
"96","96","512","512","#3d3846","legacy","legacy","legacy","congruent","1","undefined","1","s","0","0","0","31","31","0","31","31","0","0","0","31","31","31","31","0","Thu Sep 21 13:42:57 2023","1500","The main experiment item","False","FlankerEffectTest.osexp","C:\Users\stcka\OneDrive\Sam Docs\Psychology Program\AP Textbooks\Quantitative Methods","False","mono","False","18","no","white","no","yes","768","legacy","31","31","C:/Users/stcka/OneDrive/Sam Docs/Psychology Program/AP Textbooks/Quantitative Methods/SA-subject-2.csv","legacy","Melodramatic Milgram","4.0.5","0","s","NA","s","NA","NA","s","437.0","NA","351585","NA","NA","437","2","legacy","1024","2","48000","-16","experiment","SSSSS","2","even","353348","NA","NA","385382","NA","NA","404913","403893","1762","NA","NA","405014","405452","404912","405014","1760","Flanker Effect Test","31","16392.0","32","1024"
"96","96","512","512","#3d3846","legacy","legacy","legacy","incongruent","1","undefined","1","s","0","0","0","32","32","0","32","32","0","0","0","32","32","32","32","0","Thu Sep 21 13:42:57 2023","1500","The main experiment item","False","FlankerEffectTest.osexp","C:\Users\stcka\OneDrive\Sam Docs\Psychology Program\AP Textbooks\Quantitative Methods","False","mono","False","18","no","white","no","yes","768","legacy","32","32","C:/Users/stcka/OneDrive/Sam Docs/Psychology Program/AP Textbooks/Quantitative Methods/SA-subject-2.csv","legacy","Melodramatic Milgram","4.0.5","0","s","NA","s","NA","NA","s","508.0","NA","351585","NA","NA","508","2","legacy","1024","2","48000","-16","experiment","HHSHH","2","even","353348","NA","NA","385382","NA","NA","406485","405456","1762","NA","NA","406585","407095","406484","406585","1760","Flanker Effect Test","32","16900.0","33","1024"
"97","97","510","510","#3d3846","legacy","legacy","legacy","congruent","1","undefined","1","h","0","0","0","33","33","0","33","33","0","0","0","33","33","33","33","0","Thu Sep 21 13:42:57 2023","1500","The main experiment item","False","FlankerEffectTest.osexp","C:\Users\stcka\OneDrive\Sam Docs\Psychology Program\AP Textbooks\Quantitative Methods","False","mono","False","18","no","white","no","yes","768","legacy","33","33","C:/Users/stcka/OneDrive/Sam Docs/Psychology Program/AP Textbooks/Quantitative Methods/SA-subject-2.csv","legacy","Melodramatic Milgram","4.0.5","0","h","NA","s","NA","NA","h","450.0","NA","351585","NA","NA","450","2","legacy","1024","2","48000","-16","experiment","HHHHH","2","even","353348","NA","NA","385382","NA","NA","408122","407100","1762","NA","NA","408223","408674","408120","408223","1760","Flanker Effect Test","33","17350.0","34","1024"
"97","97","509","509","#3d3846","legacy","legacy","legacy","incongruent","1","undefined","1","h","0","0","0","34","34","0","34","34","0","0","0","34","34","34","34","0","Thu Sep 21 13:42:57 2023","1500","The main experiment item","False","FlankerEffectTest.osexp","C:\Users\stcka\OneDrive\Sam Docs\Psychology Program\AP Textbooks\Quantitative Methods","False","mono","False","18","no","white","no","yes","768","legacy","34","34","C:/Users/stcka/OneDrive/Sam Docs/Psychology Program/AP Textbooks/Quantitative Methods/SA-subject-2.csv","legacy","Melodramatic Milgram","4.0.5","0","h","NA","s","NA","NA","h","497.0","NA","351585","NA","NA","497","2","legacy","1024","2","48000","-16","experiment","SSHSS","2","even","353348","NA","NA","385382","NA","NA","409701","408680","1762","NA","NA","409802","410299","409700","409802","1760","Flanker Effect Test","34","17847.0","35","1024"
"97","97","511","511","#3d3846","legacy","legacy","legacy","congruent","1","undefined","1","s","0","0","0","35","35","0","35","35","0","0","0","35","35","35","35","0","Thu Sep 21 13:42:57 2023","1500","The main experiment item","False","FlankerEffectTest.osexp","C:\Users\stcka\OneDrive\Sam Docs\Psychology Program\AP Textbooks\Quantitative Methods","False","mono","False","18","no","white","no","yes","768","legacy","35","35","C:/Users/stcka/OneDrive/Sam Docs/Psychology Program/AP Textbooks/Quantitative Methods/SA-subject-2.csv","legacy","Melodramatic Milgram","4.0.5","0","s","NA","s","NA","NA","s","550.0","NA","351585","NA","NA","550","2","legacy","1024","2","48000","-16","experiment","SSSSS","2","even","353348","NA","NA","385382","NA","NA","411336","410305","1762","NA","NA","411437","411989","411334","411437","1760","Flanker Effect Test","35","18397.0","36","1024"
"97","97","511","511","#3d3846","legacy","legacy","legacy","congruent","1","undefined","1","h","0","0","0","36","36","0","36","36","0","0","0","36","36","36","36","0","Thu Sep 21 13:42:57 2023","1500","The main experiment item","False","FlankerEffectTest.osexp","C:\Users\stcka\OneDrive\Sam Docs\Psychology Program\AP Textbooks\Quantitative Methods","False","mono","False","18","no","white","no","yes","768","legacy","36","36","C:/Users/stcka/OneDrive/Sam Docs/Psychology Program/AP Textbooks/Quantitative Methods/SA-subject-2.csv","legacy","Melodramatic Milgram","4.0.5","0","h","NA","s","NA","NA","h","510.0","NA","351585","NA","NA","510","2","legacy","1024","2","48000","-16","experiment","HHHHH","2","even","353348","NA","NA","385382","NA","NA","413017","411994","1762","NA","NA","413118","413629","413016","413118","1760","Flanker Effect Test","36","18907.0","37","1024"
"97","97","511","511","#3d3846","legacy","legacy","legacy","incongruent","1","undefined","1","s","0","0","0","37","37","0","37","37","0","0","0","37","37","37","37","0","Thu Sep 21 13:42:57 2023","1500","The main experiment item","False","FlankerEffectTest.osexp","C:\Users\stcka\OneDrive\Sam Docs\Psychology Program\AP Textbooks\Quantitative Methods","False","mono","False","18","no","white","no","yes","768","legacy","37","37","C:/Users/stcka/OneDrive/Sam Docs/Psychology Program/AP Textbooks/Quantitative Methods/SA-subject-2.csv","legacy","Melodramatic Milgram","4.0.5","0","s","NA","s","NA","NA","s","514.0","NA","351585","NA","NA","514","2","legacy","1024","2","48000","-16","experiment","HHSHH","2","even","353348","NA","NA","385382","NA","NA","414656","413634","1762","NA","NA","414756","415271","414655","414756","1760","Flanker Effect Test","37","19421.0","38","1024"
"97","97","512","512","#3d3846","legacy","legacy","legacy","incongruent","1","undefined","1","s","0","0","0","38","38","0","38","38","0","0","0","38","38","38","38","0","Thu Sep 21 13:42:57 2023","1500","The main experiment item","False","FlankerEffectTest.osexp","C:\Users\stcka\OneDrive\Sam Docs\Psychology Program\AP Textbooks\Quantitative Methods","False","mono","False","18","no","white","no","yes","768","legacy","38","38","C:/Users/stcka/OneDrive/Sam Docs/Psychology Program/AP Textbooks/Quantitative Methods/SA-subject-2.csv","legacy","Melodramatic Milgram","4.0.5","0","s","NA","s","NA","NA","s","566.0","NA","351585","NA","NA","566","2","legacy","1024","2","48000","-16","experiment","HHSHH","2","even","353348","NA","NA","385382","NA","NA","416298","415277","1762","NA","NA","416399","416967","416297","416399","1760","Flanker Effect Test","38","19987.0","39","1024"
"97","97","510","510","#3d3846","legacy","legacy","legacy","incongruent","1","undefined","1","s","0","0","0","39","39","0","39","39","0","0","0","39","39","39","39","0","Thu Sep 21 13:42:57 2023","1500","The main experiment item","False","FlankerEffectTest.osexp","C:\Users\stcka\OneDrive\Sam Docs\Psychology Program\AP Textbooks\Quantitative Methods","False","mono","False","18","no","white","no","yes","768","legacy","39","39","C:/Users/stcka/OneDrive/Sam Docs/Psychology Program/AP Textbooks/Quantitative Methods/SA-subject-2.csv","legacy","Melodramatic Milgram","4.0.5","0","s","NA","s","NA","NA","s","426.0","NA","351585","NA","NA","426","2","legacy","1024","2","48000","-16","experiment","HHSHH","2","even","353348","NA","NA","385382","NA","NA","417995","416972","1762","NA","NA","418096","418523","417994","418096","1760","Flanker Effect Test","39","20413.0","40","1024"
"97","97","509","509","#3d3846","legacy","legacy","legacy","congruent","1","undefined","1","s","0","0","0","40","40","0","40","40","0","0","0","40","40","40","40","0","Thu Sep 21 13:42:57 2023","1500","The main experiment item","False","FlankerEffectTest.osexp","C:\Users\stcka\OneDrive\Sam Docs\Psychology Program\AP Textbooks\Quantitative Methods","False","mono","False","18","no","white","no","yes","768","legacy","40","40","C:/Users/stcka/OneDrive/Sam Docs/Psychology Program/AP Textbooks/Quantitative Methods/SA-subject-2.csv","legacy","Melodramatic Milgram","4.0.5","0","s","NA","s","NA","NA","s","459.0","NA","351585","NA","NA","459","2","legacy","1024","2","48000","-16","experiment","SSSSS","2","even","353348","NA","NA","385382","NA","NA","419550","418527","1762","NA","NA","419650","420110","419549","419650","1760","Flanker Effect Test","40","20872.0","41","1024"
"97","97","511","511","#3d3846","legacy","legacy","legacy","congruent","1","undefined","1","s","0","0","0","41","41","0","41","41","0","0","0","41","41","41","41","0","Thu Sep 21 13:42:57 2023","1500","The main experiment item","False","FlankerEffectTest.osexp","C:\Users\stcka\OneDrive\Sam Docs\Psychology Program\AP Textbooks\Quantitative Methods","False","mono","False","18","no","white","no","yes","768","legacy","41","41","C:/Users/stcka/OneDrive/Sam Docs/Psychology Program/AP Textbooks/Quantitative Methods/SA-subject-2.csv","legacy","Melodramatic Milgram","4.0.5","0","s","NA","s","NA","NA","s","592.0","NA","351585","NA","NA","592","2","legacy","1024","2","48000","-16","experiment","SSSSS","2","even","353348","NA","NA","385382","NA","NA","421139","420115","1762","NA","NA","421239","421834","421138","421239","1760","Flanker Effect Test","41","21464.0","42","1024"
"97","97","510","510","#3d3846","legacy","legacy","legacy","congruent","1","undefined","1","s","0","0","0","42","42","0","42","42","0","0","0","42","42","42","42","0","Thu Sep 21 13:42:57 2023","1500","The main experiment item","False","FlankerEffectTest.osexp","C:\Users\stcka\OneDrive\Sam Docs\Psychology Program\AP Textbooks\Quantitative Methods","False","mono","False","18","no","white","no","yes","768","legacy","42","42","C:/Users/stcka/OneDrive/Sam Docs/Psychology Program/AP Textbooks/Quantitative Methods/SA-subject-2.csv","legacy","Melodramatic Milgram","4.0.5","0","s","NA","s","NA","NA","s","471.0","NA","351585","NA","NA","471","2","legacy","1024","2","48000","-16","experiment","SSSSS","2","even","353348","NA","NA","385382","NA","NA","422860","421838","1762","NA","NA","422960","423432","422859","422960","1760","Flanker Effect Test","42","21935.0","43","1024"
"95","95","508","508","#3d3846","legacy","legacy","legacy","incongruent","0","undefined","0","s","0","0","0","43","43","0","43","43","0","0","0","43","43","43","43","0","Thu Sep 21 13:42:57 2023","1500","The main experiment item","False","FlankerEffectTest.osexp","C:\Users\stcka\OneDrive\Sam Docs\Psychology Program\AP Textbooks\Quantitative Methods","False","mono","False","18","no","white","no","yes","768","legacy","43","43","C:/Users/stcka/OneDrive/Sam Docs/Psychology Program/AP Textbooks/Quantitative Methods/SA-subject-2.csv","legacy","Melodramatic Milgram","4.0.5","0","h","NA","s","NA","NA","h","424.0","NA","351585","NA","NA","424","2","legacy","1024","2","48000","-16","experiment","HHSHH","2","even","353348","NA","NA","385382","NA","NA","424458","423437","1762","NA","NA","424559","424984","424457","424558","1760","Flanker Effect Test","42","22359.0","44","1024"
"95","95","507","507","#3d3846","legacy","legacy","legacy","congruent","1","undefined","1","s","0","0","0","44","44","0","44","44","0","0","0","44","44","44","44","0","Thu Sep 21 13:42:57 2023","1500","The main experiment item","False","FlankerEffectTest.osexp","C:\Users\stcka\OneDrive\Sam Docs\Psychology Program\AP Textbooks\Quantitative Methods","False","mono","False","18","no","white","no","yes","768","legacy","44","44","C:/Users/stcka/OneDrive/Sam Docs/Psychology Program/AP Textbooks/Quantitative Methods/SA-subject-2.csv","legacy","Melodramatic Milgram","4.0.5","0","s","NA","s","NA","NA","s","479.0","NA","351585","NA","NA","479","2","legacy","1024","2","48000","-16","experiment","SSSSS","2","even","353348","NA","NA","424989","NA","NA","426522","425489","1762","NA","NA","426623","427103","426520","426622","1760","Flanker Effect Test","43","22838.0","45","1024"
"95","95","508","508","#3d3846","legacy","legacy","legacy","incongruent","1","undefined","1","s","0","0","0","45","45","0","45","45","0","0","0","45","45","45","45","0","Thu Sep 21 13:42:57 2023","1500","The main experiment item","False","FlankerEffectTest.osexp","C:\Users\stcka\OneDrive\Sam Docs\Psychology Program\AP Textbooks\Quantitative Methods","False","mono","False","18","no","white","no","yes","768","legacy","45","45","C:/Users/stcka/OneDrive/Sam Docs/Psychology Program/AP Textbooks/Quantitative Methods/SA-subject-2.csv","legacy","Melodramatic Milgram","4.0.5","0","s","NA","s","NA","NA","s","549.0","NA","351585","NA","NA","549","2","legacy","1024","2","48000","-16","experiment","HHSHH","2","even","353348","NA","NA","424989","NA","NA","428130","427108","1762","NA","NA","428230","428780","428128","428230","1760","Flanker Effect Test","44","23387.0","46","1024"
"95","95","506","506","#3d3846","legacy","legacy","legacy","incongruent","1","undefined","1","s","0","0","0","46","46","0","46","46","0","0","0","46","46","46","46","0","Thu Sep 21 13:42:57 2023","1500","The main experiment item","False","FlankerEffectTest.osexp","C:\Users\stcka\OneDrive\Sam Docs\Psychology Program\AP Textbooks\Quantitative Methods","False","mono","False","18","no","white","no","yes","768","legacy","46","46","C:/Users/stcka/OneDrive/Sam Docs/Psychology Program/AP Textbooks/Quantitative Methods/SA-subject-2.csv","legacy","Melodramatic Milgram","4.0.5","0","s","NA","s","NA","NA","s","440.0","NA","351585","NA","NA","440","2","legacy","1024","2","48000","-16","experiment","HHSHH","2","even","353348","NA","NA","424989","NA","NA","429810","428786","1762","NA","NA","429910","430351","429808","429910","1760","Flanker Effect Test","45","23827.0","47","1024"
"95","95","507","507","#3d3846","legacy","legacy","legacy","incongruent","1","undefined","1","s","0","0","0","47","47","0","47","47","0","0","0","47","47","47","47","0","Thu Sep 21 13:42:57 2023","1500","The main experiment item","False","FlankerEffectTest.osexp","C:\Users\stcka\OneDrive\Sam Docs\Psychology Program\AP Textbooks\Quantitative Methods","False","mono","False","18","no","white","no","yes","768","legacy","47","47","C:/Users/stcka/OneDrive/Sam Docs/Psychology Program/AP Textbooks/Quantitative Methods/SA-subject-2.csv","legacy","Melodramatic Milgram","4.0.5","0","s","NA","s","NA","NA","s","511.0","NA","351585","NA","NA","511","2","legacy","1024","2","48000","-16","experiment","HHSHH","2","even","353348","NA","NA","424989","NA","NA","431380","430357","1762","NA","NA","431480","431993","431378","431480","1760","Flanker Effect Test","46","24338.0","48","1024"
"95","95","507","507","#3d3846","legacy","legacy","legacy","incongruent","1","undefined","1","h","0","0","0","48","48","0","48","48","0","0","0","48","48","48","48","0","Thu Sep 21 13:42:57 2023","1500","The main experiment item","False","FlankerEffectTest.osexp","C:\Users\stcka\OneDrive\Sam Docs\Psychology Program\AP Textbooks\Quantitative Methods","False","mono","False","18","no","white","no","yes","768","legacy","48","48","C:/Users/stcka/OneDrive/Sam Docs/Psychology Program/AP Textbooks/Quantitative Methods/SA-subject-2.csv","legacy","Melodramatic Milgram","4.0.5","0","h","NA","s","NA","NA","h","505.0","NA","351585","NA","NA","505","2","legacy","1024","2","48000","-16","experiment","SSHSS","2","even","353348","NA","NA","424989","NA","NA","433021","431998","1762","NA","NA","433121","433627","433020","433121","1760","Flanker Effect Test","47","24843.0","49","1024"
"96","96","505","505","#3d3846","legacy","legacy","legacy","congruent","1","undefined","1","h","0","0","0","49","49","0","49","49","0","0","0","49","49","49","49","0","Thu Sep 21 13:42:57 2023","1500","The main experiment item","False","FlankerEffectTest.osexp","C:\Users\stcka\OneDrive\Sam Docs\Psychology Program\AP Textbooks\Quantitative Methods","False","mono","False","18","no","white","no","yes","768","legacy","49","49","C:/Users/stcka/OneDrive/Sam Docs/Psychology Program/AP Textbooks/Quantitative Methods/SA-subject-2.csv","legacy","Melodramatic Milgram","4.0.5","0","h","NA","s","NA","NA","h","455.0","NA","351585","NA","NA","455","2","legacy","1024","2","48000","-16","experiment","HHHHH","2","even","353348","NA","NA","424989","NA","NA","434653","433632","1762","NA","NA","434754","435210","434652","434754","1760","Flanker Effect Test","48","25298.0","50","1024"
"96","96","507","507","#3d3846","legacy","legacy","legacy","congruent","1","undefined","1","s","0","0","0","50","50","0","50","50","0","0","0","50","50","50","50","0","Thu Sep 21 13:42:57 2023","1500","The main experiment item","False","FlankerEffectTest.osexp","C:\Users\stcka\OneDrive\Sam Docs\Psychology Program\AP Textbooks\Quantitative Methods","False","mono","False","18","no","white","no","yes","768","legacy","50","50","C:/Users/stcka/OneDrive/Sam Docs/Psychology Program/AP Textbooks/Quantitative Methods/SA-subject-2.csv","legacy","Melodramatic Milgram","4.0.5","0","s","NA","s","NA","NA","s","593.0","NA","351585","NA","NA","593","2","legacy","1024","2","48000","-16","experiment","SSSSS","2","even","353348","NA","NA","424989","NA","NA","436237","435215","1762","NA","NA","436338","436932","436236","436338","1760","Flanker Effect Test","49","25891.0","51","1024"
"96","96","508","508","#3d3846","legacy","legacy","legacy","incongruent","1","undefined","1","h","0","0","0","51","51","0","51","51","0","0","0","51","51","51","51","0","Thu Sep 21 13:42:57 2023","1500","The main experiment item","False","FlankerEffectTest.osexp","C:\Users\stcka\OneDrive\Sam Docs\Psychology Program\AP Textbooks\Quantitative Methods","False","mono","False","18","no","white","no","yes","768","legacy","51","51","C:/Users/stcka/OneDrive/Sam Docs/Psychology Program/AP Textbooks/Quantitative Methods/SA-subject-2.csv","legacy","Melodramatic Milgram","4.0.5","0","h","NA","s","NA","NA","h","540.0","NA","351585","NA","NA","540","2","legacy","1024","2","48000","-16","experiment","SSHSS","2","even","353348","NA","NA","424989","NA","NA","437957","436937","1762","NA","NA","438058","438599","437955","438058","1760","Flanker Effect Test","50","26431.0","52","1024"
"96","96","507","507","#3d3846","legacy","legacy","legacy","congruent","1","undefined","1","s","0","0","0","52","52","0","52","52","0","0","0","52","52","52","52","0","Thu Sep 21 13:42:57 2023","1500","The main experiment item","False","FlankerEffectTest.osexp","C:\Users\stcka\OneDrive\Sam Docs\Psychology Program\AP Textbooks\Quantitative Methods","False","mono","False","18","no","white","no","yes","768","legacy","52","52","C:/Users/stcka/OneDrive/Sam Docs/Psychology Program/AP Textbooks/Quantitative Methods/SA-subject-2.csv","legacy","Melodramatic Milgram","4.0.5","0","s","NA","s","NA","NA","s","456.0","NA","351585","NA","NA","456","2","legacy","1024","2","48000","-16","experiment","SSSSS","2","even","353348","NA","NA","424989","NA","NA","439634","438604","1762","NA","NA","439734","440191","439632","439734","1760","Flanker Effect Test","51","26887.0","53","1024"
"96","96","506","506","#3d3846","legacy","legacy","legacy","congruent","1","undefined","1","s","0","0","0","53","53","0","53","53","0","0","0","53","53","53","53","0","Thu Sep 21 13:42:57 2023","1500","The main experiment item","False","FlankerEffectTest.osexp","C:\Users\stcka\OneDrive\Sam Docs\Psychology Program\AP Textbooks\Quantitative Methods","False","mono","False","18","no","white","no","yes","768","legacy","53","53","C:/Users/stcka/OneDrive/Sam Docs/Psychology Program/AP Textbooks/Quantitative Methods/SA-subject-2.csv","legacy","Melodramatic Milgram","4.0.5","0","s","NA","s","NA","NA","s","484.0","NA","351585","NA","NA","484","2","legacy","1024","2","48000","-16","experiment","SSSSS","2","even","353348","NA","NA","424989","NA","NA","441222","440196","1762","NA","NA","441323","441808","441219","441323","1760","Flanker Effect Test","52","27371.0","54","1024"
"96","96","506","506","#3d3846","legacy","legacy","legacy","incongruent","1","undefined","1","h","0","0","0","54","54","0","54","54","0","0","0","54","54","54","54","0","Thu Sep 21 13:42:57 2023","1500","The main experiment item","False","FlankerEffectTest.osexp","C:\Users\stcka\OneDrive\Sam Docs\Psychology Program\AP Textbooks\Quantitative Methods","False","mono","False","18","no","white","no","yes","768","legacy","54","54","C:/Users/stcka/OneDrive/Sam Docs/Psychology Program/AP Textbooks/Quantitative Methods/SA-subject-2.csv","legacy","Melodramatic Milgram","4.0.5","0","h","NA","s","NA","NA","h","504.0","NA","351585","NA","NA","504","2","legacy","1024","2","48000","-16","experiment","SSHSS","2","even","353348","NA","NA","424989","NA","NA","442833","441813","1762","NA","NA","442933","443438","442832","442933","1760","Flanker Effect Test","53","27875.0","55","1024"
"96","96","506","506","#3d3846","legacy","legacy","legacy","incongruent","1","undefined","1","h","0","0","0","55","55","0","55","55","0","0","0","55","55","55","55","0","Thu Sep 21 13:42:57 2023","1500","The main experiment item","False","FlankerEffectTest.osexp","C:\Users\stcka\OneDrive\Sam Docs\Psychology Program\AP Textbooks\Quantitative Methods","False","mono","False","18","no","white","no","yes","768","legacy","55","55","C:/Users/stcka/OneDrive/Sam Docs/Psychology Program/AP Textbooks/Quantitative Methods/SA-subject-2.csv","legacy","Melodramatic Milgram","4.0.5","0","h","NA","s","NA","NA","h","497.0","NA","351585","NA","NA","497","2","legacy","1024","2","48000","-16","experiment","SSHSS","2","even","353348","NA","NA","424989","NA","NA","444462","443443","1762","NA","NA","444562","445060","444461","444562","1760","Flanker Effect Test","54","28372.0","56","1024"
"96","96","508","508","#3d3846","legacy","legacy","legacy","congruent","1","undefined","1","h","0","0","0","56","56","0","56","56","0","0","0","56","56","56","56","0","Thu Sep 21 13:42:57 2023","1500","The main experiment item","False","FlankerEffectTest.osexp","C:\Users\stcka\OneDrive\Sam Docs\Psychology Program\AP Textbooks\Quantitative Methods","False","mono","False","18","no","white","no","yes","768","legacy","56","56","C:/Users/stcka/OneDrive/Sam Docs/Psychology Program/AP Textbooks/Quantitative Methods/SA-subject-2.csv","legacy","Melodramatic Milgram","4.0.5","0","h","NA","s","NA","NA","h","633.0","NA","351585","NA","NA","633","2","legacy","1024","2","48000","-16","experiment","HHHHH","2","even","353348","NA","NA","424989","NA","NA","446087","445066","1762","NA","NA","446188","446823","446086","446188","1760","Flanker Effect Test","55","29005.0","57","1024"
"96","96","508","508","#3d3846","legacy","legacy","legacy","congruent","1","undefined","1","s","0","0","0","57","57","0","57","57","0","0","0","57","57","57","57","0","Thu Sep 21 13:42:57 2023","1500","The main experiment item","False","FlankerEffectTest.osexp","C:\Users\stcka\OneDrive\Sam Docs\Psychology Program\AP Textbooks\Quantitative Methods","False","mono","False","18","no","white","no","yes","768","legacy","57","57","C:/Users/stcka/OneDrive/Sam Docs/Psychology Program/AP Textbooks/Quantitative Methods/SA-subject-2.csv","legacy","Melodramatic Milgram","4.0.5","0","s","NA","s","NA","NA","s","516.0","NA","351585","NA","NA","516","2","legacy","1024","2","48000","-16","experiment","SSSSS","2","even","353348","NA","NA","424989","NA","NA","447853","446828","1762","NA","NA","447953","448470","447851","447953","1760","Flanker Effect Test","56","29521.0","58","1024"
"96","96","509","509","#3d3846","legacy","legacy","legacy","incongruent","1","undefined","1","s","0","0","0","58","58","0","58","58","0","0","0","58","58","58","58","0","Thu Sep 21 13:42:57 2023","1500","The main experiment item","False","FlankerEffectTest.osexp","C:\Users\stcka\OneDrive\Sam Docs\Psychology Program\AP Textbooks\Quantitative Methods","False","mono","False","18","no","white","no","yes","768","legacy","58","58","C:/Users/stcka/OneDrive/Sam Docs/Psychology Program/AP Textbooks/Quantitative Methods/SA-subject-2.csv","legacy","Melodramatic Milgram","4.0.5","0","s","NA","s","NA","NA","s","551.0","NA","351585","NA","NA","551","2","legacy","1024","2","48000","-16","experiment","HHSHH","2","even","353348","NA","NA","424989","NA","NA","449500","448475","1762","NA","NA","449601","450153","449498","449601","1760","Flanker Effect Test","57","30072.0","59","1024"
"96","96","509","509","#3d3846","legacy","legacy","legacy","incongruent","1","undefined","1","s","0","0","0","59","59","0","59","59","0","0","0","59","59","59","59","0","Thu Sep 21 13:42:57 2023","1500","The main experiment item","False","FlankerEffectTest.osexp","C:\Users\stcka\OneDrive\Sam Docs\Psychology Program\AP Textbooks\Quantitative Methods","False","mono","False","18","no","white","no","yes","768","legacy","59","59","C:/Users/stcka/OneDrive/Sam Docs/Psychology Program/AP Textbooks/Quantitative Methods/SA-subject-2.csv","legacy","Melodramatic Milgram","4.0.5","0","s","NA","s","NA","NA","s","507.0","NA","351585","NA","NA","507","2","legacy","1024","2","48000","-16","experiment","HHSHH","2","even","353348","NA","NA","424989","NA","NA","451179","450158","1762","NA","NA","451280","451788","451178","451280","1760","Flanker Effect Test","58","30579.0","60","1024"
"96","96","510","510","#3d3846","legacy","legacy","legacy","incongruent","1","undefined","1","h","0","0","0","60","60","0","60","60","0","0","0","60","60","60","60","0","Thu Sep 21 13:42:57 2023","1500","The main experiment item","False","FlankerEffectTest.osexp","C:\Users\stcka\OneDrive\Sam Docs\Psychology Program\AP Textbooks\Quantitative Methods","False","mono","False","18","no","white","no","yes","768","legacy","60","60","C:/Users/stcka/OneDrive/Sam Docs/Psychology Program/AP Textbooks/Quantitative Methods/SA-subject-2.csv","legacy","Melodramatic Milgram","4.0.5","0","h","NA","s","NA","NA","h","535.0","NA","351585","NA","NA","535","2","legacy","1024","2","48000","-16","experiment","SSHSS","2","even","353348","NA","NA","424989","NA","NA","452814","451793","1762","NA","NA","452915","453451","452812","452915","1760","Flanker Effect Test","59","31114.0","61","1024"
"96","96","512","512","#3d3846","legacy","legacy","legacy","congruent","1","undefined","1","h","0","0","0","61","61","0","61","61","0","0","0","61","61","61","61","0","Thu Sep 21 13:42:57 2023","1500","The main experiment item","False","FlankerEffectTest.osexp","C:\Users\stcka\OneDrive\Sam Docs\Psychology Program\AP Textbooks\Quantitative Methods","False","mono","False","18","no","white","no","yes","768","legacy","61","61","C:/Users/stcka/OneDrive/Sam Docs/Psychology Program/AP Textbooks/Quantitative Methods/SA-subject-2.csv","legacy","Melodramatic Milgram","4.0.5","0","h","NA","s","NA","NA","h","667.0","NA","351585","NA","NA","667","2","legacy","1024","2","48000","-16","experiment","HHHHH","2","even","353348","NA","NA","424989","NA","NA","454481","453456","1762","NA","NA","454581","455248","454479","454581","1760","Flanker Effect Test","60","31781.0","62","1024"
"96","96","511","511","#3d3846","legacy","legacy","legacy","congruent","1","undefined","1","h","0","0","0","62","62","0","62","62","0","0","0","62","62","62","62","0","Thu Sep 21 13:42:57 2023","1500","The main experiment item","False","FlankerEffectTest.osexp","C:\Users\stcka\OneDrive\Sam Docs\Psychology Program\AP Textbooks\Quantitative Methods","False","mono","False","18","no","white","no","yes","768","legacy","62","62","C:/Users/stcka/OneDrive/Sam Docs/Psychology Program/AP Textbooks/Quantitative Methods/SA-subject-2.csv","legacy","Melodramatic Milgram","4.0.5","0","h","NA","s","NA","NA","h","468.0","NA","351585","NA","NA","468","2","legacy","1024","2","48000","-16","experiment","HHHHH","2","even","353348","NA","NA","424989","NA","NA","456288","455252","1762","NA","NA","456389","456858","456286","456389","1760","Flanker Effect Test","61","32249.0","63","1024"
"96","96","512","512","#3d3846","legacy","legacy","legacy","incongruent","1","undefined","1","s","0","0","0","63","63","0","63","63","0","0","0","63","63","63","63","0","Thu Sep 21 13:42:57 2023","1500","The main experiment item","False","FlankerEffectTest.osexp","C:\Users\stcka\OneDrive\Sam Docs\Psychology Program\AP Textbooks\Quantitative Methods","False","mono","False","18","no","white","no","yes","768","legacy","63","63","C:/Users/stcka/OneDrive/Sam Docs/Psychology Program/AP Textbooks/Quantitative Methods/SA-subject-2.csv","legacy","Melodramatic Milgram","4.0.5","0","s","NA","s","NA","NA","s","576.0","NA","351585","NA","NA","576","2","legacy","1024","2","48000","-16","experiment","HHSHH","2","even","353348","NA","NA","424989","NA","NA","457886","456862","1762","NA","NA","457987","458564","457884","457987","1760","Flanker Effect Test","62","32825.0","64","1024"
"96","96","513","513","#3d3846","legacy","legacy","legacy","incongruent","1","undefined","1","s","0","0","0","64","64","0","64","64","0","0","0","64","64","64","64","0","Thu Sep 21 13:42:57 2023","1500","The main experiment item","False","FlankerEffectTest.osexp","C:\Users\stcka\OneDrive\Sam Docs\Psychology Program\AP Textbooks\Quantitative Methods","False","mono","False","18","no","white","no","yes","768","legacy","64","64","C:/Users/stcka/OneDrive/Sam Docs/Psychology Program/AP Textbooks/Quantitative Methods/SA-subject-2.csv","legacy","Melodramatic Milgram","4.0.5","0","s","NA","s","NA","NA","s","539.0","NA","351585","NA","NA","539","2","legacy","1024","2","48000","-16","experiment","HHSHH","2","even","353348","NA","NA","424989","NA","NA","459590","458570","1762","NA","NA","459690","460231","459588","459690","1760","Flanker Effect Test","63","33364.0","65","1024"
"96","96","519","519","#3d3846","legacy","legacy","legacy","incongruent","1","undefined","1","s","0","0","0","65","65","0","65","65","0","0","0","65","65","65","65","0","Thu Sep 21 13:42:57 2023","1500","The main experiment item","False","FlankerEffectTest.osexp","C:\Users\stcka\OneDrive\Sam Docs\Psychology Program\AP Textbooks\Quantitative Methods","False","mono","False","18","no","white","no","yes","768","legacy","65","65","C:/Users/stcka/OneDrive/Sam Docs/Psychology Program/AP Textbooks/Quantitative Methods/SA-subject-2.csv","legacy","Melodramatic Milgram","4.0.5","0","s","NA","s","NA","NA","s","926.0","NA","351585","NA","NA","926","2","legacy","1024","2","48000","-16","experiment","HHSHH","2","even","353348","NA","NA","424989","NA","NA","461258","460236","1762","NA","NA","461360","462288","461257","461360","1760","Flanker Effect Test","64","34290.0","66","1024"
"97","97","519","519","#3d3846","legacy","legacy","legacy","congruent","1","undefined","1","h","0","0","0","66","66","0","66","66","0","0","0","66","66","66","66","0","Thu Sep 21 13:42:57 2023","1500","The main experiment item","False","FlankerEffectTest.osexp","C:\Users\stcka\OneDrive\Sam Docs\Psychology Program\AP Textbooks\Quantitative Methods","False","mono","False","18","no","white","no","yes","768","legacy","66","66","C:/Users/stcka/OneDrive/Sam Docs/Psychology Program/AP Textbooks/Quantitative Methods/SA-subject-2.csv","legacy","Melodramatic Milgram","4.0.5","0","h","NA","s","NA","NA","h","499.0","NA","351585","NA","NA","499","2","legacy","1024","2","48000","-16","experiment","HHHHH","2","even","353348","NA","NA","424989","NA","NA","463319","462294","1762","NA","NA","463420","463920","463318","463420","1760","Flanker Effect Test","65","34789.0","67","1024"
"97","97","520","520","#3d3846","legacy","legacy","legacy","congruent","1","undefined","1","h","0","0","0","67","67","0","67","67","0","0","0","67","67","67","67","0","Thu Sep 21 13:42:57 2023","1500","The main experiment item","False","FlankerEffectTest.osexp","C:\Users\stcka\OneDrive\Sam Docs\Psychology Program\AP Textbooks\Quantitative Methods","False","mono","False","18","no","white","no","yes","768","legacy","67","67","C:/Users/stcka/OneDrive/Sam Docs/Psychology Program/AP Textbooks/Quantitative Methods/SA-subject-2.csv","legacy","Melodramatic Milgram","4.0.5","0","h","NA","s","NA","NA","h","635.0","NA","351585","NA","NA","635","2","legacy","1024","2","48000","-16","experiment","HHHHH","2","even","353348","NA","NA","424989","NA","NA","464945","463925","1762","NA","NA","465045","465681","464944","465045","1760","Flanker Effect Test","66","35424.0","68","1024"
"97","97","522","522","#3d3846","legacy","legacy","legacy","congruent","1","undefined","1","s","0","0","0","68","68","0","68","68","0","0","0","68","68","68","68","0","Thu Sep 21 13:42:57 2023","1500","The main experiment item","False","FlankerEffectTest.osexp","C:\Users\stcka\OneDrive\Sam Docs\Psychology Program\AP Textbooks\Quantitative Methods","False","mono","False","18","no","white","no","yes","768","legacy","68","68","C:/Users/stcka/OneDrive/Sam Docs/Psychology Program/AP Textbooks/Quantitative Methods/SA-subject-2.csv","legacy","Melodramatic Milgram","4.0.5","0","s","NA","s","NA","NA","s","621.0","NA","351585","NA","NA","621","2","legacy","1024","2","48000","-16","experiment","SSSSS","2","even","353348","NA","NA","424989","NA","NA","466709","465686","1762","NA","NA","466810","467431","466707","466810","1760","Flanker Effect Test","67","36045.0","69","1024"
"97","97","522","522","#3d3846","legacy","legacy","legacy","congruent","1","undefined","1","h","0","0","0","69","69","0","69","69","0","0","0","69","69","69","69","0","Thu Sep 21 13:42:57 2023","1500","The main experiment item","False","FlankerEffectTest.osexp","C:\Users\stcka\OneDrive\Sam Docs\Psychology Program\AP Textbooks\Quantitative Methods","False","mono","False","18","no","white","no","yes","768","legacy","69","69","C:/Users/stcka/OneDrive/Sam Docs/Psychology Program/AP Textbooks/Quantitative Methods/SA-subject-2.csv","legacy","Melodramatic Milgram","4.0.5","0","h","NA","s","NA","NA","h","524.0","NA","351585","NA","NA","524","2","legacy","1024","2","48000","-16","experiment","HHHHH","2","even","353348","NA","NA","424989","NA","NA","468463","467437","1762","NA","NA","468563","469088","468461","468563","1760","Flanker Effect Test","68","36569.0","70","1024"
"97","97","522","522","#3d3846","legacy","legacy","legacy","congruent","1","undefined","1","h","0","0","0","70","70","0","70","70","0","0","0","70","70","70","70","0","Thu Sep 21 13:42:57 2023","1500","The main experiment item","False","FlankerEffectTest.osexp","C:\Users\stcka\OneDrive\Sam Docs\Psychology Program\AP Textbooks\Quantitative Methods","False","mono","False","18","no","white","no","yes","768","legacy","70","70","C:/Users/stcka/OneDrive/Sam Docs/Psychology Program/AP Textbooks/Quantitative Methods/SA-subject-2.csv","legacy","Melodramatic Milgram","4.0.5","0","h","NA","s","NA","NA","h","518.0","NA","351585","NA","NA","518","2","legacy","1024","2","48000","-16","experiment","HHHHH","2","even","353348","NA","NA","424989","NA","NA","470115","469093","1762","NA","NA","470216","470735","470114","470216","1760","Flanker Effect Test","69","37087.0","71","1024"
"97","97","521","521","#3d3846","legacy","legacy","legacy","congruent","1","undefined","1","h","0","0","0","71","71","0","71","71","0","0","0","71","71","71","71","0","Thu Sep 21 13:42:57 2023","1500","The main experiment item","False","FlankerEffectTest.osexp","C:\Users\stcka\OneDrive\Sam Docs\Psychology Program\AP Textbooks\Quantitative Methods","False","mono","False","18","no","white","no","yes","768","legacy","71","71","C:/Users/stcka/OneDrive/Sam Docs/Psychology Program/AP Textbooks/Quantitative Methods/SA-subject-2.csv","legacy","Melodramatic Milgram","4.0.5","0","h","NA","s","NA","NA","h","495.0","NA","351585","NA","NA","495","2","legacy","1024","2","48000","-16","experiment","HHHHH","2","even","353348","NA","NA","424989","NA","NA","471769","470740","1762","NA","NA","471870","472367","471765","471870","1760","Flanker Effect Test","70","37582.0","72","1024"
"97","97","521","521","#3d3846","legacy","legacy","legacy","congruent","1","undefined","1","h","0","0","0","72","72","0","72","72","0","0","0","72","72","72","72","0","Thu Sep 21 13:42:57 2023","1500","The main experiment item","False","FlankerEffectTest.osexp","C:\Users\stcka\OneDrive\Sam Docs\Psychology Program\AP Textbooks\Quantitative Methods","False","mono","False","18","no","white","no","yes","768","legacy","72","72","C:/Users/stcka/OneDrive/Sam Docs/Psychology Program/AP Textbooks/Quantitative Methods/SA-subject-2.csv","legacy","Melodramatic Milgram","4.0.5","0","h","NA","s","NA","NA","h","487.0","NA","351585","NA","NA","487","2","legacy","1024","2","48000","-16","experiment","HHHHH","2","even","353348","NA","NA","424989","NA","NA","473397","472373","1762","NA","NA","473498","473986","473395","473498","1760","Flanker Effect Test","71","38069.0","73","1024"
"97","97","520","520","#3d3846","legacy","legacy","legacy","congruent","1","undefined","1","h","0","0","0","73","73","0","73","73","0","0","0","73","73","73","73","0","Thu Sep 21 13:42:57 2023","1500","The main experiment item","False","FlankerEffectTest.osexp","C:\Users\stcka\OneDrive\Sam Docs\Psychology Program\AP Textbooks\Quantitative Methods","False","mono","False","18","no","white","no","yes","768","legacy","73","73","C:/Users/stcka/OneDrive/Sam Docs/Psychology Program/AP Textbooks/Quantitative Methods/SA-subject-2.csv","legacy","Melodramatic Milgram","4.0.5","0","h","NA","s","NA","NA","h","459.0","NA","351585","NA","NA","459","2","legacy","1024","2","48000","-16","experiment","HHHHH","2","even","353348","NA","NA","424989","NA","NA","475013","473992","1762","NA","NA","475113","475573","475012","475113","1760","Flanker Effect Test","72","38528.0","74","1024"
"97","97","520","520","#3d3846","legacy","legacy","legacy","congruent","1","undefined","1","h","0","0","0","74","74","0","74","74","0","0","0","74","74","74","74","0","Thu Sep 21 13:42:57 2023","1500","The main experiment item","False","FlankerEffectTest.osexp","C:\Users\stcka\OneDrive\Sam Docs\Psychology Program\AP Textbooks\Quantitative Methods","False","mono","False","18","no","white","no","yes","768","legacy","74","74","C:/Users/stcka/OneDrive/Sam Docs/Psychology Program/AP Textbooks/Quantitative Methods/SA-subject-2.csv","legacy","Melodramatic Milgram","4.0.5","0","h","NA","s","NA","NA","h","502.0","NA","351585","NA","NA","502","2","legacy","1024","2","48000","-16","experiment","HHHHH","2","even","353348","NA","NA","424989","NA","NA","476600","475578","1762","NA","NA","476700","477203","476599","476700","1760","Flanker Effect Test","73","39030.0","75","1024"
"97","97","524","524","#3d3846","legacy","legacy","legacy","incongruent","1","undefined","1","h","0","0","0","75","75","0","75","75","0","0","0","75","75","75","75","0","Thu Sep 21 13:42:57 2023","1500","The main experiment item","False","FlankerEffectTest.osexp","C:\Users\stcka\OneDrive\Sam Docs\Psychology Program\AP Textbooks\Quantitative Methods","False","mono","False","18","no","white","no","yes","768","legacy","75","75","C:/Users/stcka/OneDrive/Sam Docs/Psychology Program/AP Textbooks/Quantitative Methods/SA-subject-2.csv","legacy","Melodramatic Milgram","4.0.5","0","h","NA","s","NA","NA","h","861.0","NA","351585","NA","NA","861","2","legacy","1024","2","48000","-16","experiment","SSHSS","2","even","353348","NA","NA","424989","NA","NA","478231","477208","1762","NA","NA","478332","479196","478230","478332","1760","Flanker Effect Test","74","39891.0","76","1024"
"97","97","525","525","#3d3846","legacy","legacy","legacy","incongruent","1","undefined","1","s","0","0","0","76","76","0","76","76","0","0","0","76","76","76","76","0","Thu Sep 21 13:42:57 2023","1500","The main experiment item","False","FlankerEffectTest.osexp","C:\Users\stcka\OneDrive\Sam Docs\Psychology Program\AP Textbooks\Quantitative Methods","False","mono","False","18","no","white","no","yes","768","legacy","76","76","C:/Users/stcka/OneDrive/Sam Docs/Psychology Program/AP Textbooks/Quantitative Methods/SA-subject-2.csv","legacy","Melodramatic Milgram","4.0.5","0","s","NA","s","NA","NA","s","596.0","NA","351585","NA","NA","596","2","legacy","1024","2","48000","-16","experiment","HHSHH","2","even","353348","NA","NA","424989","NA","NA","480223","479202","1762","NA","NA","480323","480919","480222","480323","1760","Flanker Effect Test","75","40487.0","77","1024"
"97","97","525","525","#3d3846","legacy","legacy","legacy","incongruent","1","undefined","1","h","0","0","0","77","77","0","77","77","0","0","0","77","77","77","77","0","Thu Sep 21 13:42:57 2023","1500","The main experiment item","False","FlankerEffectTest.osexp","C:\Users\stcka\OneDrive\Sam Docs\Psychology Program\AP Textbooks\Quantitative Methods","False","mono","False","18","no","white","no","yes","768","legacy","77","77","C:/Users/stcka/OneDrive/Sam Docs/Psychology Program/AP Textbooks/Quantitative Methods/SA-subject-2.csv","legacy","Melodramatic Milgram","4.0.5","0","h","NA","s","NA","NA","h","521.0","NA","351585","NA","NA","521","2","legacy","1024","2","48000","-16","experiment","SSHSS","2","even","353348","NA","NA","424989","NA","NA","481947","480925","1762","NA","NA","482048","482570","481946","482048","1760","Flanker Effect Test","76","41008.0","78","1024"
"97","97","524","524","#3d3846","legacy","legacy","legacy","incongruent","1","undefined","1","s","0","0","0","78","78","0","78","78","0","0","0","78","78","78","78","0","Thu Sep 21 13:42:57 2023","1500","The main experiment item","False","FlankerEffectTest.osexp","C:\Users\stcka\OneDrive\Sam Docs\Psychology Program\AP Textbooks\Quantitative Methods","False","mono","False","18","no","white","no","yes","768","legacy","78","78","C:/Users/stcka/OneDrive/Sam Docs/Psychology Program/AP Textbooks/Quantitative Methods/SA-subject-2.csv","legacy","Melodramatic Milgram","4.0.5","0","s","NA","s","NA","NA","s","455.0","NA","351585","NA","NA","455","2","legacy","1024","2","48000","-16","experiment","HHSHH","2","even","353348","NA","NA","424989","NA","NA","483597","482576","1762","NA","NA","483698","484154","483595","483698","1760","Flanker Effect Test","77","41463.0","79","1024"
"97","97","525","525","#3d3846","legacy","legacy","legacy","incongruent","1","undefined","1","h","0","0","0","79","79","0","79","79","0","0","0","79","79","79","79","0","Thu Sep 21 13:42:57 2023","1500","The main experiment item","False","FlankerEffectTest.osexp","C:\Users\stcka\OneDrive\Sam Docs\Psychology Program\AP Textbooks\Quantitative Methods","False","mono","False","18","no","white","no","yes","768","legacy","79","79","C:/Users/stcka/OneDrive/Sam Docs/Psychology Program/AP Textbooks/Quantitative Methods/SA-subject-2.csv","legacy","Melodramatic Milgram","4.0.5","0","h","NA","s","NA","NA","h","549.0","NA","351585","NA","NA","549","2","legacy","1024","2","48000","-16","experiment","SSHSS","2","even","353348","NA","NA","424989","NA","NA","485216","484160","1762","NA","NA","485317","485867","485213","485317","1760","Flanker Effect Test","78","42012.0","80","1024"
"97","97","526","526","#3d3846","legacy","legacy","legacy","incongruent","1","undefined","1","s","0","0","0","80","80","0","80","80","0","0","0","80","80","80","80","0","Thu Sep 21 13:42:57 2023","600","The main experiment item","False","FlankerEffectTest.osexp","C:\Users\stcka\OneDrive\Sam Docs\Psychology Program\AP Textbooks\Quantitative Methods","False","mono","False","18","no","white","no","yes","768","legacy","0","79","C:/Users/stcka/OneDrive/Sam Docs/Psychology Program/AP Textbooks/Quantitative Methods/SA-subject-2.csv","legacy","Melodramatic Milgram","4.0.5","0","s","NA","s","s","NA","s","666.0","NA","351585","86323","NA","666","2","legacy","1024","2","48000","-16","experiment","HHSHH","2","even","353348","573196","NA","424989","NA","NA","573227","485872","1762","486872","NA","573327","573994","573226","573327","1760","Flanker Effect Test","79","42678.0","81","1024"
"97","97","525","525","#3d3846","legacy","legacy","legacy","incongruent","1","undefined","1","s","0","0","0","81","81","0","81","81","0","0","0","81","81","81","81","0","Thu Sep 21 13:42:57 2023","600","The main experiment item","False","FlankerEffectTest.osexp","C:\Users\stcka\OneDrive\Sam Docs\Psychology Program\AP Textbooks\Quantitative Methods","False","mono","False","18","no","white","no","yes","768","legacy","1","79","C:/Users/stcka/OneDrive/Sam Docs/Psychology Program/AP Textbooks/Quantitative Methods/SA-subject-2.csv","legacy","Melodramatic Milgram","4.0.5","0","s","NA","s","s","NA","s","431.0","NA","351585","86323","NA","431","2","legacy","1024","2","48000","-16","experiment","HHSHH","2","even","353348","573196","NA","424989","574000","NA","575521","574500","1762","486872","NA","575622","576054","575519","575622","1760","Flanker Effect Test","80","43109.0","82","1024"
"97","97","524","524","#3d3846","legacy","legacy","legacy","congruent","1","undefined","1","s","0","0","0","82","82","0","82","82","0","0","0","82","82","82","82","0","Thu Sep 21 13:42:57 2023","600","The main experiment item","False","FlankerEffectTest.osexp","C:\Users\stcka\OneDrive\Sam Docs\Psychology Program\AP Textbooks\Quantitative Methods","False","mono","False","18","no","white","no","yes","768","legacy","2","79","C:/Users/stcka/OneDrive/Sam Docs/Psychology Program/AP Textbooks/Quantitative Methods/SA-subject-2.csv","legacy","Melodramatic Milgram","4.0.5","0","s","NA","s","s","NA","s","431.0","NA","351585","86323","NA","431","2","legacy","1024","2","48000","-16","experiment","SSSSS","2","even","353348","573196","NA","424989","574000","NA","577083","576059","1762","486872","NA","577184","577617","577081","577184","1760","Flanker Effect Test","81","43540.0","83","1024"
"97","97","523","523","#3d3846","legacy","legacy","legacy","congruent","1","undefined","1","h","0","0","0","83","83","0","83","83","0","0","0","83","83","83","83","0","Thu Sep 21 13:42:57 2023","600","The main experiment item","False","FlankerEffectTest.osexp","C:\Users\stcka\OneDrive\Sam Docs\Psychology Program\AP Textbooks\Quantitative Methods","False","mono","False","18","no","white","no","yes","768","legacy","3","79","C:/Users/stcka/OneDrive/Sam Docs/Psychology Program/AP Textbooks/Quantitative Methods/SA-subject-2.csv","legacy","Melodramatic Milgram","4.0.5","0","h","NA","s","s","NA","h","453.0","NA","351585","86323","NA","453","2","legacy","1024","2","48000","-16","experiment","HHHHH","2","even","353348","573196","NA","424989","574000","NA","578642","577620","1762","486872","NA","578743","579197","578640","578743","1760","Flanker Effect Test","82","43993.0","84","1024"
"97","97","522","522","#3d3846","legacy","legacy","legacy","congruent","1","undefined","1","h","0","0","0","84","84","0","84","84","0","0","0","84","84","84","84","0","Thu Sep 21 13:42:57 2023","600","The main experiment item","False","FlankerEffectTest.osexp","C:\Users\stcka\OneDrive\Sam Docs\Psychology Program\AP Textbooks\Quantitative Methods","False","mono","False","18","no","white","no","yes","768","legacy","4","79","C:/Users/stcka/OneDrive/Sam Docs/Psychology Program/AP Textbooks/Quantitative Methods/SA-subject-2.csv","legacy","Melodramatic Milgram","4.0.5","0","h","NA","s","s","NA","h","451.0","NA","351585","86323","NA","451","2","legacy","1024","2","48000","-16","experiment","HHHHH","2","even","353348","573196","NA","424989","574000","NA","580226","579203","1762","486872","NA","580326","580778","580224","580326","1760","Flanker Effect Test","83","44444.0","85","1024"
"97","97","521","521","#3d3846","legacy","legacy","legacy","congruent","1","undefined","1","s","0","0","0","85","85","0","85","85","0","0","0","85","85","85","85","0","Thu Sep 21 13:42:57 2023","600","The main experiment item","False","FlankerEffectTest.osexp","C:\Users\stcka\OneDrive\Sam Docs\Psychology Program\AP Textbooks\Quantitative Methods","False","mono","False","18","no","white","no","yes","768","legacy","5","79","C:/Users/stcka/OneDrive/Sam Docs/Psychology Program/AP Textbooks/Quantitative Methods/SA-subject-2.csv","legacy","Melodramatic Milgram","4.0.5","0","s","NA","s","s","NA","s","440.0","NA","351585","86323","NA","440","2","legacy","1024","2","48000","-16","experiment","SSSSS","2","even","353348","573196","NA","424989","574000","NA","581811","580784","1762","486872","NA","581912","582353","581810","581912","1760","Flanker Effect Test","84","44884.0","86","1024"
"97","97","520","520","#3d3846","legacy","legacy","legacy","congruent","1","undefined","1","h","0","0","0","86","86","0","86","86","0","0","0","86","86","86","86","0","Thu Sep 21 13:42:57 2023","600","The main experiment item","False","FlankerEffectTest.osexp","C:\Users\stcka\OneDrive\Sam Docs\Psychology Program\AP Textbooks\Quantitative Methods","False","mono","False","18","no","white","no","yes","768","legacy","6","79","C:/Users/stcka/OneDrive/Sam Docs/Psychology Program/AP Textbooks/Quantitative Methods/SA-subject-2.csv","legacy","Melodramatic Milgram","4.0.5","0","h","NA","s","s","NA","h","382.0","NA","351585","86323","NA","382","2","legacy","1024","2","48000","-16","experiment","HHHHH","2","even","353348","573196","NA","424989","574000","NA","583385","582358","1762","486872","NA","583486","583869","583384","583486","1760","Flanker Effect Test","85","45266.0","87","1024"
"96","96","518","518","#3d3846","legacy","legacy","legacy","incongruent","0","undefined","0","h","0","0","0","87","87","0","87","87","0","0","0","87","87","87","87","0","Thu Sep 21 13:42:57 2023","600","The main experiment item","False","FlankerEffectTest.osexp","C:\Users\stcka\OneDrive\Sam Docs\Psychology Program\AP Textbooks\Quantitative Methods","False","mono","False","18","no","white","no","yes","768","legacy","7","79","C:/Users/stcka/OneDrive/Sam Docs/Psychology Program/AP Textbooks/Quantitative Methods/SA-subject-2.csv","legacy","Melodramatic Milgram","4.0.5","0","s","NA","s","s","NA","s","352.0","NA","351585","86323","NA","352","2","legacy","1024","2","48000","-16","experiment","SSHSS","2","even","353348","573196","NA","424989","574000","NA","584897","583874","1762","486872","NA","584998","585352","584895","584998","1760","Flanker Effect Test","85","45618.0","88","1024"
"95","95","516","516","#3d3846","legacy","legacy","legacy","incongruent","0","undefined","0","h","0","0","0","88","88","0","88","88","0","0","0","88","88","88","88","0","Thu Sep 21 13:42:57 2023","600","The main experiment item","False","FlankerEffectTest.osexp","C:\Users\stcka\OneDrive\Sam Docs\Psychology Program\AP Textbooks\Quantitative Methods","False","mono","False","18","no","white","no","yes","768","legacy","8","79","C:/Users/stcka/OneDrive/Sam Docs/Psychology Program/AP Textbooks/Quantitative Methods/SA-subject-2.csv","legacy","Melodramatic Milgram","4.0.5","0","s","NA","s","s","NA","s","355.0","NA","351585","86323","NA","355","2","legacy","1024","2","48000","-16","experiment","SSHSS","2","even","353348","573196","NA","585357","574000","NA","586879","585857","1762","486872","NA","586980","587336","586878","586980","1760","Flanker Effect Test","85","45973.0","89","1024"
"95","95","516","516","#3d3846","legacy","legacy","legacy","congruent","1","undefined","1","s","0","0","0","89","89","0","89","89","0","0","0","89","89","89","89","0","Thu Sep 21 13:42:57 2023","600","The main experiment item","False","FlankerEffectTest.osexp","C:\Users\stcka\OneDrive\Sam Docs\Psychology Program\AP Textbooks\Quantitative Methods","False","mono","False","18","no","white","no","yes","768","legacy","9","79","C:/Users/stcka/OneDrive/Sam Docs/Psychology Program/AP Textbooks/Quantitative Methods/SA-subject-2.csv","legacy","Melodramatic Milgram","4.0.5","0","s","NA","s","s","NA","s","522.0","NA","351585","86323","NA","522","2","legacy","1024","2","48000","-16","experiment","SSSSS","2","even","353348","573196","NA","587342","574000","NA","588866","587843","1762","486872","NA","588967","589492","588865","588967","1760","Flanker Effect Test","86","46495.0","90","1024"
"95","95","515","515","#3d3846","legacy","legacy","legacy","congruent","1","undefined","1","s","0","0","0","90","90","0","90","90","0","0","0","90","90","90","90","0","Thu Sep 21 13:42:57 2023","600","The main experiment item","False","FlankerEffectTest.osexp","C:\Users\stcka\OneDrive\Sam Docs\Psychology Program\AP Textbooks\Quantitative Methods","False","mono","False","18","no","white","no","yes","768","legacy","10","79","C:/Users/stcka/OneDrive/Sam Docs/Psychology Program/AP Textbooks/Quantitative Methods/SA-subject-2.csv","legacy","Melodramatic Milgram","4.0.5","0","s","NA","s","s","NA","s","432.0","NA","351585","86323","NA","432","2","legacy","1024","2","48000","-16","experiment","SSSSS","2","even","353348","573196","NA","587342","574000","NA","590519","589497","1762","486872","NA","590620","591053","590517","590620","1760","Flanker Effect Test","87","46927.0","91","1024"
"95","95","515","515","#3d3846","legacy","legacy","legacy","incongruent","1","undefined","1","s","0","0","0","91","91","0","91","91","0","0","0","91","91","91","91","0","Thu Sep 21 13:42:57 2023","600","The main experiment item","False","FlankerEffectTest.osexp","C:\Users\stcka\OneDrive\Sam Docs\Psychology Program\AP Textbooks\Quantitative Methods","False","mono","False","18","no","white","no","yes","768","legacy","11","79","C:/Users/stcka/OneDrive/Sam Docs/Psychology Program/AP Textbooks/Quantitative Methods/SA-subject-2.csv","legacy","Melodramatic Milgram","4.0.5","0","s","NA","s","s","NA","s","544.0","NA","351585","86323","NA","544","2","legacy","1024","2","48000","-16","experiment","HHSHH","2","even","353348","573196","NA","587342","574000","NA","592082","591058","1762","486872","NA","592183","592729","592079","592183","1760","Flanker Effect Test","88","47471.0","92","1024"
"95","95","515","515","#3d3846","legacy","legacy","legacy","congruent","1","undefined","1","s","0","0","0","92","92","0","92","92","0","0","0","92","92","92","92","0","Thu Sep 21 13:42:57 2023","600","The main experiment item","False","FlankerEffectTest.osexp","C:\Users\stcka\OneDrive\Sam Docs\Psychology Program\AP Textbooks\Quantitative Methods","False","mono","False","18","no","white","no","yes","768","legacy","12","79","C:/Users/stcka/OneDrive/Sam Docs/Psychology Program/AP Textbooks/Quantitative Methods/SA-subject-2.csv","legacy","Melodramatic Milgram","4.0.5","0","s","NA","s","s","NA","s","450.0","NA","351585","86323","NA","450","2","legacy","1024","2","48000","-16","experiment","SSSSS","2","even","353348","573196","NA","587342","574000","NA","593756","592733","1762","486872","NA","593857","594309","593755","593857","1760","Flanker Effect Test","89","47921.0","93","1024"
"95","95","514","514","#3d3846","legacy","legacy","legacy","incongruent","1","undefined","1","h","0","0","0","93","93","0","93","93","0","0","0","93","93","93","93","0","Thu Sep 21 13:42:57 2023","600","The main experiment item","False","FlankerEffectTest.osexp","C:\Users\stcka\OneDrive\Sam Docs\Psychology Program\AP Textbooks\Quantitative Methods","False","mono","False","18","no","white","no","yes","768","legacy","13","79","C:/Users/stcka/OneDrive/Sam Docs/Psychology Program/AP Textbooks/Quantitative Methods/SA-subject-2.csv","legacy","Melodramatic Milgram","4.0.5","0","h","NA","s","s","NA","h","403.0","NA","351585","86323","NA","403","2","legacy","1024","2","48000","-16","experiment","SSHSS","2","even","353348","573196","NA","587342","574000","NA","595335","594314","1762","486872","NA","595435","595839","595334","595435","1760","Flanker Effect Test","90","48324.0","94","1024"
"95","95","515","515","#3d3846","legacy","legacy","legacy","incongruent","1","undefined","1","h","0","0","0","94","94","0","94","94","0","0","0","94","94","94","94","0","Thu Sep 21 13:42:57 2023","600","The main experiment item","False","FlankerEffectTest.osexp","C:\Users\stcka\OneDrive\Sam Docs\Psychology Program\AP Textbooks\Quantitative Methods","False","mono","False","18","no","white","no","yes","768","legacy","14","79","C:/Users/stcka/OneDrive/Sam Docs/Psychology Program/AP Textbooks/Quantitative Methods/SA-subject-2.csv","legacy","Melodramatic Milgram","4.0.5","0","h","NA","s","s","NA","h","651.0","NA","351585","86323","NA","651","2","legacy","1024","2","48000","-16","experiment","SSHSS","2","even","353348","573196","NA","587342","574000","NA","596870","595844","1762","486872","NA","596971","597623","596869","596970","1760","Flanker Effect Test","91","48975.0","95","1024"
"95","95","514","514","#3d3846","legacy","legacy","legacy","congruent","1","undefined","1","s","0","0","0","95","95","0","95","95","0","0","0","95","95","95","95","0","Thu Sep 21 13:42:57 2023","600","The main experiment item","False","FlankerEffectTest.osexp","C:\Users\stcka\OneDrive\Sam Docs\Psychology Program\AP Textbooks\Quantitative Methods","False","mono","False","18","no","white","no","yes","768","legacy","15","79","C:/Users/stcka/OneDrive/Sam Docs/Psychology Program/AP Textbooks/Quantitative Methods/SA-subject-2.csv","legacy","Melodramatic Milgram","4.0.5","0","s","NA","s","s","NA","s","448.0","NA","351585","86323","NA","448","2","legacy","1024","2","48000","-16","experiment","SSSSS","2","even","353348","573196","NA","587342","597626","NA","599154","598126","1762","486872","NA","599255","599704","599152","599255","1760","Flanker Effect Test","92","49423.0","96","1024"
"95","95","515","515","#3d3846","legacy","legacy","legacy","incongruent","1","undefined","1","s","0","0","0","96","96","0","96","96","0","0","0","96","96","96","96","0","Thu Sep 21 13:42:57 2023","600","The main experiment item","False","FlankerEffectTest.osexp","C:\Users\stcka\OneDrive\Sam Docs\Psychology Program\AP Textbooks\Quantitative Methods","False","mono","False","18","no","white","no","yes","768","legacy","16","79","C:/Users/stcka/OneDrive/Sam Docs/Psychology Program/AP Textbooks/Quantitative Methods/SA-subject-2.csv","legacy","Melodramatic Milgram","4.0.5","0","s","NA","s","s","NA","s","581.0","NA","351585","86323","NA","581","2","legacy","1024","2","48000","-16","experiment","HHSHH","2","even","353348","573196","NA","587342","597626","NA","600729","599709","1762","486872","NA","600829","601412","600728","600829","1760","Flanker Effect Test","93","50004.0","97","1024"
"95","95","515","515","#3d3846","legacy","legacy","legacy","congruent","1","undefined","1","s","0","0","0","97","97","0","97","97","0","0","0","97","97","97","97","0","Thu Sep 21 13:42:57 2023","600","The main experiment item","False","FlankerEffectTest.osexp","C:\Users\stcka\OneDrive\Sam Docs\Psychology Program\AP Textbooks\Quantitative Methods","False","mono","False","18","no","white","no","yes","768","legacy","17","79","C:/Users/stcka/OneDrive/Sam Docs/Psychology Program/AP Textbooks/Quantitative Methods/SA-subject-2.csv","legacy","Melodramatic Milgram","4.0.5","0","s","NA","s","s","NA","s","467.0","NA","351585","86323","NA","467","2","legacy","1024","2","48000","-16","experiment","SSSSS","2","even","353348","573196","NA","587342","597626","NA","602447","601416","1762","486872","NA","602548","603017","602446","602548","1760","Flanker Effect Test","94","50471.0","98","1024"
"95","95","514","514","#3d3846","legacy","legacy","legacy","congruent","1","undefined","1","s","0","0","0","98","98","0","98","98","0","0","0","98","98","98","98","0","Thu Sep 21 13:42:57 2023","600","The main experiment item","False","FlankerEffectTest.osexp","C:\Users\stcka\OneDrive\Sam Docs\Psychology Program\AP Textbooks\Quantitative Methods","False","mono","False","18","no","white","no","yes","768","legacy","18","79","C:/Users/stcka/OneDrive/Sam Docs/Psychology Program/AP Textbooks/Quantitative Methods/SA-subject-2.csv","legacy","Melodramatic Milgram","4.0.5","0","s","NA","s","s","NA","s","428.0","NA","351585","86323","NA","428","2","legacy","1024","2","48000","-16","experiment","SSSSS","2","even","353348","573196","NA","587342","597626","NA","604046","603022","1762","486872","NA","604147","604576","604044","604147","1760","Flanker Effect Test","95","50899.0","99","1024"
"96","96","513","513","#3d3846","legacy","legacy","legacy","congruent","1","undefined","1","h","0","0","0","99","99","0","99","99","0","0","0","99","99","99","99","0","Thu Sep 21 13:42:57 2023","600","The main experiment item","False","FlankerEffectTest.osexp","C:\Users\stcka\OneDrive\Sam Docs\Psychology Program\AP Textbooks\Quantitative Methods","False","mono","False","18","no","white","no","yes","768","legacy","19","79","C:/Users/stcka/OneDrive/Sam Docs/Psychology Program/AP Textbooks/Quantitative Methods/SA-subject-2.csv","legacy","Melodramatic Milgram","4.0.5","0","h","NA","s","s","NA","h","403.0","NA","351585","86323","NA","403","2","legacy","1024","2","48000","-16","experiment","HHHHH","2","even","353348","573196","NA","587342","597626","NA","605603","604581","1762","486872","NA","605704","606108","605601","605704","1760","Flanker Effect Test","96","51302.0","100","1024"
"96","96","512","512","#3d3846","legacy","legacy","legacy","incongruent","1","undefined","1","h","0","0","0","100","100","0","100","100","0","0","0","100","100","100","100","0","Thu Sep 21 13:42:57 2023","600","The main experiment item","False","FlankerEffectTest.osexp","C:\Users\stcka\OneDrive\Sam Docs\Psychology Program\AP Textbooks\Quantitative Methods","False","mono","False","18","no","white","no","yes","768","legacy","20","79","C:/Users/stcka/OneDrive/Sam Docs/Psychology Program/AP Textbooks/Quantitative Methods/SA-subject-2.csv","legacy","Melodramatic Milgram","4.0.5","0","h","NA","s","s","NA","h","502.0","NA","351585","86323","NA","502","2","legacy","1024","2","48000","-16","experiment","SSHSS","2","even","353348","573196","NA","587342","597626","NA","607134","606112","1762","486872","NA","607235","607740","607132","607235","1760","Flanker Effect Test","97","51804.0","101","1024"
"96","96","512","512","#3d3846","legacy","legacy","legacy","incongruent","1","undefined","1","s","0","0","0","101","101","0","101","101","0","0","0","101","101","101","101","0","Thu Sep 21 13:42:57 2023","600","The main experiment item","False","FlankerEffectTest.osexp","C:\Users\stcka\OneDrive\Sam Docs\Psychology Program\AP Textbooks\Quantitative Methods","False","mono","False","18","no","white","no","yes","768","legacy","21","79","C:/Users/stcka/OneDrive/Sam Docs/Psychology Program/AP Textbooks/Quantitative Methods/SA-subject-2.csv","legacy","Melodramatic Milgram","4.0.5","0","s","NA","s","s","NA","s","490.0","NA","351585","86323","NA","490","2","legacy","1024","2","48000","-16","experiment","HHSHH","2","even","353348","573196","NA","587342","597626","NA","608768","607745","1762","486872","NA","608868","609360","608767","608868","1760","Flanker Effect Test","98","52294.0","102","1024"
"96","96","512","512","#3d3846","legacy","legacy","legacy","incongruent","1","undefined","1","h","0","0","0","102","102","0","102","102","0","0","0","102","102","102","102","0","Thu Sep 21 13:42:57 2023","600","The main experiment item","False","FlankerEffectTest.osexp","C:\Users\stcka\OneDrive\Sam Docs\Psychology Program\AP Textbooks\Quantitative Methods","False","mono","False","18","no","white","no","yes","768","legacy","22","79","C:/Users/stcka/OneDrive/Sam Docs/Psychology Program/AP Textbooks/Quantitative Methods/SA-subject-2.csv","legacy","Melodramatic Milgram","4.0.5","0","h","NA","s","s","NA","h","544.0","NA","351585","86323","NA","544","2","legacy","1024","2","48000","-16","experiment","SSHSS","2","even","353348","573196","NA","587342","597626","NA","610388","609365","1762","486872","NA","610489","611035","610387","610489","1760","Flanker Effect Test","99","52838.0","103","1024"
"96","96","513","513","#3d3846","legacy","legacy","legacy","congruent","1","undefined","1","s","0","0","0","103","103","0","103","103","0","0","0","103","103","103","103","0","Thu Sep 21 13:42:57 2023","600","The main experiment item","False","FlankerEffectTest.osexp","C:\Users\stcka\OneDrive\Sam Docs\Psychology Program\AP Textbooks\Quantitative Methods","False","mono","False","18","no","white","no","yes","768","legacy","23","79","C:/Users/stcka/OneDrive/Sam Docs/Psychology Program/AP Textbooks/Quantitative Methods/SA-subject-2.csv","legacy","Melodramatic Milgram","4.0.5","0","s","NA","s","s","NA","s","584.0","NA","351585","86323","NA","584","2","legacy","1024","2","48000","-16","experiment","SSSSS","2","even","353348","573196","NA","587342","597626","NA","612062","611040","1762","486872","NA","612162","612747","612060","612162","1760","Flanker Effect Test","100","53422.0","104","1024"
"95","95","512","512","#3d3846","legacy","legacy","legacy","incongruent","0","undefined","0","h","0","0","0","104","104","0","104","104","0","0","0","104","104","104","104","0","Thu Sep 21 13:42:57 2023","600","The main experiment item","False","FlankerEffectTest.osexp","C:\Users\stcka\OneDrive\Sam Docs\Psychology Program\AP Textbooks\Quantitative Methods","False","mono","False","18","no","white","no","yes","768","legacy","24","79","C:/Users/stcka/OneDrive/Sam Docs/Psychology Program/AP Textbooks/Quantitative Methods/SA-subject-2.csv","legacy","Melodramatic Milgram","4.0.5","0","s","NA","s","s","NA","s","410.0","NA","351585","86323","NA","410","2","legacy","1024","2","48000","-16","experiment","SSHSS","2","even","353348","573196","NA","587342","597626","NA","613777","612751","1762","486872","NA","613877","614289","613775","613877","1760","Flanker Effect Test","100","53832.0","105","1024"
"95","95","512","512","#3d3846","legacy","legacy","legacy","congruent","1","undefined","1","h","0","0","0","105","105","0","105","105","0","0","0","105","105","105","105","0","Thu Sep 21 13:42:57 2023","600","The main experiment item","False","FlankerEffectTest.osexp","C:\Users\stcka\OneDrive\Sam Docs\Psychology Program\AP Textbooks\Quantitative Methods","False","mono","False","18","no","white","no","yes","768","legacy","25","79","C:/Users/stcka/OneDrive/Sam Docs/Psychology Program/AP Textbooks/Quantitative Methods/SA-subject-2.csv","legacy","Melodramatic Milgram","4.0.5","0","h","NA","s","s","NA","h","484.0","NA","351585","86323","NA","484","2","legacy","1024","2","48000","-16","experiment","HHHHH","2","even","353348","573196","NA","614292","597626","NA","615820","614793","1762","486872","NA","615921","616406","615816","615921","1760","Flanker Effect Test","101","54316.0","106","1024"
"94","94","512","512","#3d3846","legacy","legacy","legacy","congruent","0","undefined","0","s","0","0","0","106","106","0","106","106","0","0","0","106","106","106","106","0","Thu Sep 21 13:42:57 2023","600","The main experiment item","False","FlankerEffectTest.osexp","C:\Users\stcka\OneDrive\Sam Docs\Psychology Program\AP Textbooks\Quantitative Methods","False","mono","False","18","no","white","no","yes","768","legacy","26","79","C:/Users/stcka/OneDrive/Sam Docs/Psychology Program/AP Textbooks/Quantitative Methods/SA-subject-2.csv","legacy","Melodramatic Milgram","4.0.5","0","h","NA","s","s","NA","h","496.0","NA","351585","86323","NA","496","2","legacy","1024","2","48000","-16","experiment","SSSSS","2","even","353348","573196","NA","614292","597626","NA","617441","616412","1762","486872","NA","617542","618039","617440","617542","1760","Flanker Effect Test","101","54812.0","107","1024"
"94","94","511","511","#3d3846","legacy","legacy","legacy","congruent","1","undefined","1","h","0","0","0","107","107","0","107","107","0","0","0","107","107","107","107","0","Thu Sep 21 13:42:57 2023","600","The main experiment item","False","FlankerEffectTest.osexp","C:\Users\stcka\OneDrive\Sam Docs\Psychology Program\AP Textbooks\Quantitative Methods","False","mono","False","18","no","white","no","yes","768","legacy","27","79","C:/Users/stcka/OneDrive/Sam Docs/Psychology Program/AP Textbooks/Quantitative Methods/SA-subject-2.csv","legacy","Melodramatic Milgram","4.0.5","0","h","NA","s","s","NA","h","460.0","NA","351585","86323","NA","460","2","legacy","1024","2","48000","-16","experiment","HHHHH","2","even","353348","573196","NA","618044","597626","NA","619566","618544","1762","486872","NA","619666","620127","619565","619666","1760","Flanker Effect Test","102","55272.0","108","1024"
"94","94","511","511","#3d3846","legacy","legacy","legacy","congruent","1","undefined","1","s","0","0","0","108","108","0","108","108","0","0","0","108","108","108","108","0","Thu Sep 21 13:42:57 2023","600","The main experiment item","False","FlankerEffectTest.osexp","C:\Users\stcka\OneDrive\Sam Docs\Psychology Program\AP Textbooks\Quantitative Methods","False","mono","False","18","no","white","no","yes","768","legacy","28","79","C:/Users/stcka/OneDrive/Sam Docs/Psychology Program/AP Textbooks/Quantitative Methods/SA-subject-2.csv","legacy","Melodramatic Milgram","4.0.5","0","s","NA","s","s","NA","s","436.0","NA","351585","86323","NA","436","2","legacy","1024","2","48000","-16","experiment","SSSSS","2","even","353348","573196","NA","618044","597626","NA","621153","620132","1762","486872","NA","621254","621691","621152","621254","1760","Flanker Effect Test","103","55708.0","109","1024"
"94","94","510","510","#3d3846","legacy","legacy","legacy","incongruent","1","undefined","1","s","0","0","0","109","109","0","109","109","0","0","0","109","109","109","109","0","Thu Sep 21 13:42:57 2023","600","The main experiment item","False","FlankerEffectTest.osexp","C:\Users\stcka\OneDrive\Sam Docs\Psychology Program\AP Textbooks\Quantitative Methods","False","mono","False","18","no","white","no","yes","768","legacy","29","79","C:/Users/stcka/OneDrive/Sam Docs/Psychology Program/AP Textbooks/Quantitative Methods/SA-subject-2.csv","legacy","Melodramatic Milgram","4.0.5","0","s","NA","s","s","NA","s","481.0","NA","351585","86323","NA","481","2","legacy","1024","2","48000","-16","experiment","HHSHH","2","even","353348","573196","NA","618044","597626","NA","622715","621696","1762","486872","NA","622816","623298","622714","622816","1760","Flanker Effect Test","104","56189.0","110","1024"
"94","94","510","510","#3d3846","legacy","legacy","legacy","congruent","1","undefined","1","s","0","0","0","110","110","0","110","110","0","0","0","110","110","110","110","0","Thu Sep 21 13:42:57 2023","600","The main experiment item","False","FlankerEffectTest.osexp","C:\Users\stcka\OneDrive\Sam Docs\Psychology Program\AP Textbooks\Quantitative Methods","False","mono","False","18","no","white","no","yes","768","legacy","30","79","C:/Users/stcka/OneDrive/Sam Docs/Psychology Program/AP Textbooks/Quantitative Methods/SA-subject-2.csv","legacy","Melodramatic Milgram","4.0.5","0","s","NA","s","s","NA","s","480.0","NA","351585","86323","NA","480","2","legacy","1024","2","48000","-16","experiment","SSSSS","2","even","353348","573196","NA","618044","597626","NA","624328","623303","1762","486872","NA","624430","624911","624327","624430","1760","Flanker Effect Test","105","56669.0","111","1024"
