acc,condition,Stimulus,accuracy,average_response_time,avg_rt,background,canvas_backend,clock_backend,color_backend,compensation,coordinates,correct,correct_Instruction1,correct_keyboard_response,correct_response,count_Block1,count_Block2,count_Block3,count_ErrorFeedback,count_Faster,count_Finish,count_Fixation,count_ISI,count_Instruction1,count_Instructions2,count_Instructions3,count_Sequence,count_Stimulus,count_experiment,count_keyboard_response,count_logger,datetime,deadline,description,disable_garbage_collection,experiment_file,experiment_path,font_bold,font_family,font_italic,font_size,font_underline,foreground,form_clicks,fullscreen,height,keyboard_backend,live_row,live_row_Block1,logfile,mouse_backend,opensesame_codename,opensesame_version,repeat_cycle,response,response_Finish,response_Instruction1,response_Instructions2,response_Instructions3,response_keyboard_response,response_time,response_time_Finish,response_time_Instruction1,response_time_Instructions2,response_time_Instructions3,response_time_keyboard_response,round_decimals,sampler_backend,sound_buf_size,sound_channels,sound_freq,sound_sample_size,start,subject_nr,subject_parity,time_Block1,time_Block2,time_Block3,time_ErrorFeedback,time_Faster,time_Finish,time_Fixation,time_ISI,time_Instruction1,time_Instructions2,time_Instructions3,time_Sequence,time_Stimulus,time_experiment,time_keyboard_response,time_logger,title,total_correct,total_response_time,total_responses,uniform_coordinates,width
100,Congruent,HHHHH,100,522,522,black,legacy,legacy,legacy,0,uniform,1,undefined,1,h,0,0,0,0,0,0,0,0,0,0,0,0,0,0,0,0,Fri Sep 17 19:38:57 2021,1500,The main experiment item,yes,KS - FlankerTask (2).osexp,/Users/kaylinsilva/Downloads,no,mono,no,18,no,white,no,yes,768,legacy,0,0,/Users/kaylinsilva/Downloads/KS-subject-1.csv,legacy,Lentiform Loewenfeld,3.3.9,0,h,NA,h,NA,NA,h,522,NA,1011,NA,NA,522,2,legacy,1024,2,48000,-16,experiment,1,odd,6436,NA,NA,NA,NA,NA,6483,NA,5403,NA,NA,6478,6591,5394,6591,7116,KS - Flanker Task,1,522,1,yes,1024
100,Incongruent,SSHSS,100,467,467,black,legacy,legacy,legacy,0,uniform,1,undefined,1,h,0,0,0,1,1,0,1,1,0,0,0,1,1,0,1,1,Fri Sep 17 19:38:57 2021,1500,The main experiment item,yes,KS - FlankerTask (2).osexp,/Users/kaylinsilva/Downloads,no,mono,no,18,no,white,no,yes,768,legacy,1,1,/Users/kaylinsilva/Downloads/KS-subject-1.csv,legacy,Lentiform Loewenfeld,3.3.9,0,h,NA,h,NA,NA,h,412,NA,1011,NA,NA,412,2,legacy,1024,2,48000,-16,experiment,1,odd,6436,NA,NA,NA,NA,NA,8219,7123,5403,NA,NA,8217,8326,5394,8326,8739,KS - Flanker Task,2,934,2,yes,1024
100,Incongruent,HHSHH,100,471,471,black,legacy,legacy,legacy,0,uniform,1,undefined,1,s,0,0,0,2,2,0,2,2,0,0,0,2,2,0,2,2,Fri Sep 17 19:38:57 2021,1500,The main experiment item,yes,KS - FlankerTask (2).osexp,/Users/kaylinsilva/Downloads,no,mono,no,18,no,white,no,yes,768,legacy,2,2,/Users/kaylinsilva/Downloads/KS-subject-1.csv,legacy,Lentiform Loewenfeld,3.3.9,0,s,NA,h,NA,NA,s,479,NA,1011,NA,NA,479,2,legacy,1024,2,48000,-16,experiment,1,odd,6436,NA,NA,NA,NA,NA,9810,8742,5403,NA,NA,9806,9915,5394,9915,10395,KS - Flanker Task,3,1413,3,yes,1024
100,Congruent,HHHHH,100,429.25,429.25,black,legacy,legacy,legacy,0,uniform,1,undefined,1,h,0,0,0,3,3,0,3,3,0,0,0,3,3,0,3,3,Fri Sep 17 19:38:57 2021,1500,The main experiment item,yes,KS - FlankerTask (2).osexp,/Users/kaylinsilva/Downloads,no,mono,no,18,no,white,no,yes,768,legacy,3,3,/Users/kaylinsilva/Downloads/KS-subject-1.csv,legacy,Lentiform Loewenfeld,3.3.9,0,h,NA,h,NA,NA,h,304,NA,1011,NA,NA,304,2,legacy,1024,2,48000,-16,experiment,1,odd,6436,NA,NA,NA,NA,NA,11469,10400,5403,NA,NA,11465,11573,5394,11573,11878,KS - Flanker Task,4,1717,4,yes,1024
100,Incongruent,SSHSS,100,396.8,396.8,black,legacy,legacy,legacy,0,uniform,1,undefined,1,h,0,0,0,4,4,0,4,4,0,0,0,4,4,0,4,4,Fri Sep 17 19:38:57 2021,1500,The main experiment item,yes,KS - FlankerTask (2).osexp,/Users/kaylinsilva/Downloads,no,mono,no,18,no,white,no,yes,768,legacy,4,4,/Users/kaylinsilva/Downloads/KS-subject-1.csv,legacy,Lentiform Loewenfeld,3.3.9,0,h,NA,h,NA,NA,h,267,NA,1011,NA,NA,267,2,legacy,1024,2,48000,-16,experiment,1,odd,6436,NA,NA,NA,NA,NA,12948,11881,5403,NA,NA,12945,13052,5394,13052,13320,KS - Flanker Task,5,1984,5,yes,1024
100,Congruent,HHHHH,100,386.6666667,386.6666667,black,legacy,legacy,legacy,0,uniform,1,undefined,1,h,0,0,0,5,5,0,5,5,0,0,0,5,5,0,5,5,Fri Sep 17 19:38:57 2021,1500,The main experiment item,yes,KS - FlankerTask (2).osexp,/Users/kaylinsilva/Downloads,no,mono,no,18,no,white,no,yes,768,legacy,5,5,/Users/kaylinsilva/Downloads/KS-subject-1.csv,legacy,Lentiform Loewenfeld,3.3.9,0,h,NA,h,NA,NA,h,336,NA,1011,NA,NA,336,2,legacy,1024,2,48000,-16,experiment,1,odd,6436,NA,NA,NA,NA,NA,14391,13323,5403,NA,NA,14387,14495,5394,14495,14832,KS - Flanker Task,6,2320,6,yes,1024
85.71428571,Incongruent,HHSHH,85.71428571,383.7142857,383.7142857,black,legacy,legacy,legacy,0,uniform,0,undefined,0,s,0,0,0,6,6,0,6,6,0,0,0,6,6,0,6,6,Fri Sep 17 19:38:57 2021,1500,The main experiment item,yes,KS - FlankerTask (2).osexp,/Users/kaylinsilva/Downloads,no,mono,no,18,no,white,no,yes,768,legacy,6,6,/Users/kaylinsilva/Downloads/KS-subject-1.csv,legacy,Lentiform Loewenfeld,3.3.9,0,h,NA,h,NA,NA,h,366,NA,1011,NA,NA,366,2,legacy,1024,2,48000,-16,experiment,1,odd,6436,NA,NA,NA,NA,NA,15902,14835,5403,NA,NA,15899,16006,5394,16006,16372,KS - Flanker Task,6,2686,7,yes,1024
75,Congruent,HHHHH,75,374.375,374.375,black,legacy,legacy,legacy,0,uniform,0,undefined,0,h,0,0,0,7,7,0,7,7,0,0,0,7,7,0,7,7,Fri Sep 17 19:38:57 2021,1500,The main experiment item,yes,KS - FlankerTask (2).osexp,/Users/kaylinsilva/Downloads,no,mono,no,18,no,white,no,yes,768,legacy,7,7,/Users/kaylinsilva/Downloads/KS-subject-1.csv,legacy,Lentiform Loewenfeld,3.3.9,0,s,NA,h,NA,NA,s,309,NA,1011,NA,NA,309,2,legacy,1024,2,48000,-16,experiment,1,odd,6436,NA,NA,16376,NA,NA,17947,16881,5403,NA,NA,17945,18052,5394,18052,18361,KS - Flanker Task,6,2995,8,yes,1024
66.66666667,Incongruent,HHSHH,66.66666667,357.2222222,357.2222222,black,legacy,legacy,legacy,0,uniform,0,undefined,0,s,0,0,0,8,8,0,8,8,0,0,0,8,8,0,8,8,Fri Sep 17 19:38:57 2021,1500,The main experiment item,yes,KS - FlankerTask (2).osexp,/Users/kaylinsilva/Downloads,no,mono,no,18,no,white,no,yes,768,legacy,8,8,/Users/kaylinsilva/Downloads/KS-subject-1.csv,legacy,Lentiform Loewenfeld,3.3.9,0,h,NA,h,NA,NA,h,220,NA,1011,NA,NA,220,2,legacy,1024,2,48000,-16,experiment,1,odd,6436,NA,NA,18364,NA,NA,19937,18871,5403,NA,NA,19934,20041,5394,20041,20262,KS - Flanker Task,6,3215,9,yes,1024
70,Incongruent,HHSHH,70,353.2,353.2,black,legacy,legacy,legacy,0,uniform,1,undefined,1,s,0,0,0,9,9,0,9,9,0,0,0,9,9,0,9,9,Fri Sep 17 19:38:57 2021,1500,The main experiment item,yes,KS - FlankerTask (2).osexp,/Users/kaylinsilva/Downloads,no,mono,no,18,no,white,no,yes,768,legacy,9,9,/Users/kaylinsilva/Downloads/KS-subject-1.csv,legacy,Lentiform Loewenfeld,3.3.9,0,s,NA,h,NA,NA,s,317,NA,1011,NA,NA,317,2,legacy,1024,2,48000,-16,experiment,1,odd,6436,NA,NA,20265,NA,NA,21839,20771,5403,NA,NA,21836,21943,5394,21943,22261,KS - Flanker Task,7,3532,10,yes,1024
63.63636364,Congruent,SSSSS,63.63636364,351,351,black,legacy,legacy,legacy,0,uniform,0,undefined,0,s,0,0,0,10,10,0,10,10,0,0,0,10,10,0,10,10,Fri Sep 17 19:38:57 2021,1500,The main experiment item,yes,KS - FlankerTask (2).osexp,/Users/kaylinsilva/Downloads,no,mono,no,18,no,white,no,yes,768,legacy,10,10,/Users/kaylinsilva/Downloads/KS-subject-1.csv,legacy,Lentiform Loewenfeld,3.3.9,0,h,NA,h,NA,NA,h,329,NA,1011,NA,NA,329,2,legacy,1024,2,48000,-16,experiment,1,odd,6436,NA,NA,20265,NA,NA,23331,22264,5403,NA,NA,23328,23435,5394,23435,23765,KS - Flanker Task,7,3861,11,yes,1024
66.66666667,Incongruent,HHSHH,66.66666667,345.5,345.5,black,legacy,legacy,legacy,0,uniform,1,undefined,1,s,0,0,0,11,11,0,11,11,0,0,0,11,11,0,11,11,Fri Sep 17 19:38:57 2021,1500,The main experiment item,yes,KS - FlankerTask (2).osexp,/Users/kaylinsilva/Downloads,no,mono,no,18,no,white,no,yes,768,legacy,11,11,/Users/kaylinsilva/Downloads/KS-subject-1.csv,legacy,Lentiform Loewenfeld,3.3.9,0,s,NA,h,NA,NA,s,285,NA,1011,NA,NA,285,2,legacy,1024,2,48000,-16,experiment,1,odd,6436,NA,NA,23768,NA,NA,25338,24272,5403,NA,NA,25336,25443,5394,25443,25729,KS - Flanker Task,8,4146,12,yes,1024
61.53846154,Incongruent,SSHSS,61.53846154,340.7692308,340.7692308,black,legacy,legacy,legacy,0,uniform,0,undefined,0,h,0,0,0,12,12,0,12,12,0,0,0,12,12,0,12,12,Fri Sep 17 19:38:57 2021,1500,The main experiment item,yes,KS - FlankerTask (2).osexp,/Users/kaylinsilva/Downloads,no,mono,no,18,no,white,no,yes,768,legacy,12,12,/Users/kaylinsilva/Downloads/KS-subject-1.csv,legacy,Lentiform Loewenfeld,3.3.9,0,s,NA,h,NA,NA,s,284,NA,1011,NA,NA,284,2,legacy,1024,2,48000,-16,experiment,1,odd,6436,NA,NA,23768,NA,NA,26800,25732,5403,NA,NA,26796,26904,5394,26904,27188,KS - Flanker Task,8,4430,13,yes,1024
64.28571429,Congruent,HHHHH,64.28571429,343.7142857,343.7142857,black,legacy,legacy,legacy,0,uniform,1,undefined,1,h,0,0,0,13,13,0,13,13,0,0,0,13,13,0,13,13,Fri Sep 17 19:38:57 2021,1500,The main experiment item,yes,KS - FlankerTask (2).osexp,/Users/kaylinsilva/Downloads,no,mono,no,18,no,white,no,yes,768,legacy,13,13,/Users/kaylinsilva/Downloads/KS-subject-1.csv,legacy,Lentiform Loewenfeld,3.3.9,0,h,NA,h,NA,NA,h,382,NA,1011,NA,NA,382,2,legacy,1024,2,48000,-16,experiment,1,odd,6436,NA,NA,27191,NA,NA,28762,27696,5403,NA,NA,28760,28866,5394,28866,29249,KS - Flanker Task,9,4812,14,yes,1024
66.66666667,Congruent,SSSSS,66.66666667,345.1333333,345.1333333,black,legacy,legacy,legacy,0,uniform,1,undefined,1,s,0,0,0,14,14,0,14,14,0,0,0,14,14,0,14,14,Fri Sep 17 19:38:57 2021,1500,The main experiment item,yes,KS - FlankerTask (2).osexp,/Users/kaylinsilva/Downloads,no,mono,no,18,no,white,no,yes,768,legacy,14,14,/Users/kaylinsilva/Downloads/KS-subject-1.csv,legacy,Lentiform Loewenfeld,3.3.9,0,s,NA,h,NA,NA,s,365,NA,1011,NA,NA,365,2,legacy,1024,2,48000,-16,experiment,1,odd,6436,NA,NA,27191,NA,NA,30320,29252,5403,NA,NA,30316,30424,5394,30424,30789,KS - Flanker Task,10,5177,15,yes,1024
68.75,Congruent,SSSSS,68.75,341.875,341.875,black,legacy,legacy,legacy,0,uniform,1,undefined,1,s,0,0,0,15,15,0,15,15,0,0,0,15,15,0,15,15,Fri Sep 17 19:38:57 2021,1500,The main experiment item,yes,KS - FlankerTask (2).osexp,/Users/kaylinsilva/Downloads,no,mono,no,18,no,white,no,yes,768,legacy,15,15,/Users/kaylinsilva/Downloads/KS-subject-1.csv,legacy,Lentiform Loewenfeld,3.3.9,0,s,NA,h,NA,NA,s,293,NA,1011,NA,NA,293,2,legacy,1024,2,48000,-16,experiment,1,odd,6436,NA,NA,27191,NA,NA,31860,30793,5403,NA,NA,31857,31964,5394,31964,32258,KS - Flanker Task,11,5470,16,yes,1024
70.58823529,Incongruent,HHSHH,70.58823529,337.4117647,337.4117647,black,legacy,legacy,legacy,0,uniform,1,undefined,1,s,0,0,0,16,16,0,16,16,0,0,0,16,16,0,16,16,Fri Sep 17 19:38:57 2021,1500,The main experiment item,yes,KS - FlankerTask (2).osexp,/Users/kaylinsilva/Downloads,no,mono,no,18,no,white,no,yes,768,legacy,16,16,/Users/kaylinsilva/Downloads/KS-subject-1.csv,legacy,Lentiform Loewenfeld,3.3.9,0,s,NA,h,NA,NA,s,266,NA,1011,NA,NA,266,2,legacy,1024,2,48000,-16,experiment,1,odd,6436,NA,NA,27191,NA,NA,33328,32261,5403,NA,NA,33325,33432,5394,33432,33698,KS - Flanker Task,12,5736,17,yes,1024
66.66666667,Incongruent,SSHSS,66.66666667,333.6111111,333.6111111,black,legacy,legacy,legacy,0,uniform,0,undefined,0,h,0,0,0,17,17,0,17,17,0,0,0,17,17,0,17,17,Fri Sep 17 19:38:57 2021,1500,The main experiment item,yes,KS - FlankerTask (2).osexp,/Users/kaylinsilva/Downloads,no,mono,no,18,no,white,no,yes,768,legacy,17,17,/Users/kaylinsilva/Downloads/KS-subject-1.csv,legacy,Lentiform Loewenfeld,3.3.9,0,s,NA,h,NA,NA,s,269,NA,1011,NA,NA,269,2,legacy,1024,2,48000,-16,experiment,1,odd,6436,NA,NA,27191,NA,NA,34768,33701,5403,NA,NA,34765,34872,5394,34872,35141,KS - Flanker Task,12,6005,18,yes,1024
68.42105263,Incongruent,SSHSS,68.42105263,336.6315789,336.6315789,black,legacy,legacy,legacy,0,uniform,1,undefined,1,h,0,0,0,18,18,0,18,18,0,0,0,18,18,0,18,18,Fri Sep 17 19:38:57 2021,1500,The main experiment item,yes,KS - FlankerTask (2).osexp,/Users/kaylinsilva/Downloads,no,mono,no,18,no,white,no,yes,768,legacy,18,18,/Users/kaylinsilva/Downloads/KS-subject-1.csv,legacy,Lentiform Loewenfeld,3.3.9,0,h,NA,h,NA,NA,h,391,NA,1011,NA,NA,391,2,legacy,1024,2,48000,-16,experiment,1,odd,6436,NA,NA,35145,NA,NA,36717,35650,5403,NA,NA,36714,36821,5394,36821,37213,KS - Flanker Task,13,6396,19,yes,1024
70,Congruent,SSSSS,70,337.85,337.85,black,legacy,legacy,legacy,0,uniform,1,undefined,1,s,0,0,0,19,19,0,19,19,0,0,0,19,19,0,19,19,Fri Sep 17 19:38:57 2021,1500,The main experiment item,yes,KS - FlankerTask (2).osexp,/Users/kaylinsilva/Downloads,no,mono,no,18,no,white,no,yes,768,legacy,19,19,/Users/kaylinsilva/Downloads/KS-subject-1.csv,legacy,Lentiform Loewenfeld,3.3.9,0,s,NA,h,NA,NA,s,361,NA,1011,NA,NA,361,2,legacy,1024,2,48000,-16,experiment,1,odd,6436,NA,NA,35145,NA,NA,38259,37216,5403,NA,NA,38257,38364,5394,38364,38726,KS - Flanker Task,14,6757,20,yes,1024
71.42857143,Incongruent,SSHSS,71.42857143,335.047619,335.047619,black,legacy,legacy,legacy,0,uniform,1,undefined,1,h,0,0,0,20,20,0,20,20,0,0,0,20,20,0,20,20,Fri Sep 17 19:38:57 2021,1500,The main experiment item,yes,KS - FlankerTask (2).osexp,/Users/kaylinsilva/Downloads,no,mono,no,18,no,white,no,yes,768,legacy,20,20,/Users/kaylinsilva/Downloads/KS-subject-1.csv,legacy,Lentiform Loewenfeld,3.3.9,0,h,NA,h,NA,NA,h,279,NA,1011,NA,NA,279,2,legacy,1024,2,48000,-16,experiment,1,odd,6436,NA,NA,35145,NA,NA,39796,38729,5403,NA,NA,39792,39900,5394,39900,40180,KS - Flanker Task,15,7036,21,yes,1024
72.72727273,Congruent,HHHHH,72.72727273,333.4090909,333.4090909,black,legacy,legacy,legacy,0,uniform,1,undefined,1,h,0,0,0,21,21,0,21,21,0,0,0,21,21,0,21,21,Fri Sep 17 19:38:57 2021,1500,The main experiment item,yes,KS - FlankerTask (2).osexp,/Users/kaylinsilva/Downloads,no,mono,no,18,no,white,no,yes,768,legacy,21,21,/Users/kaylinsilva/Downloads/KS-subject-1.csv,legacy,Lentiform Loewenfeld,3.3.9,0,h,NA,h,NA,NA,h,299,NA,1011,NA,NA,299,2,legacy,1024,2,48000,-16,experiment,1,odd,6436,NA,NA,35145,NA,NA,41249,40183,5403,NA,NA,41246,41353,5394,41354,41653,KS - Flanker Task,16,7335,22,yes,1024
73.91304348,Incongruent,HHSHH,73.91304348,332.3478261,332.3478261,black,legacy,legacy,legacy,0,uniform,1,undefined,1,s,0,0,0,22,22,0,22,22,0,0,0,22,22,0,22,22,Fri Sep 17 19:38:57 2021,1500,The main experiment item,yes,KS - FlankerTask (2).osexp,/Users/kaylinsilva/Downloads,no,mono,no,18,no,white,no,yes,768,legacy,22,22,/Users/kaylinsilva/Downloads/KS-subject-1.csv,legacy,Lentiform Loewenfeld,3.3.9,0,s,NA,h,NA,NA,s,309,NA,1011,NA,NA,309,2,legacy,1024,2,48000,-16,experiment,1,odd,6436,NA,NA,35145,NA,NA,42724,41656,5403,NA,NA,42721,42828,5394,42828,43138,KS - Flanker Task,17,7644,23,yes,1024
75,Congruent,HHHHH,75,333.6666667,333.6666667,black,legacy,legacy,legacy,0,uniform,1,undefined,1,h,0,0,0,23,23,0,23,23,0,0,0,23,23,0,23,23,Fri Sep 17 19:38:57 2021,1500,The main experiment item,yes,KS - FlankerTask (2).osexp,/Users/kaylinsilva/Downloads,no,mono,no,18,no,white,no,yes,768,legacy,23,23,/Users/kaylinsilva/Downloads/KS-subject-1.csv,legacy,Lentiform Loewenfeld,3.3.9,0,h,NA,h,NA,NA,h,364,NA,1011,NA,NA,364,2,legacy,1024,2,48000,-16,experiment,1,odd,6436,NA,NA,35145,NA,NA,44208,43141,5403,NA,NA,44205,44312,5394,44312,44677,KS - Flanker Task,18,8008,24,yes,1024
76,Congruent,SSSSS,76,332.84,332.84,black,legacy,legacy,legacy,0,uniform,1,undefined,1,s,0,0,0,24,24,0,24,24,0,0,0,24,24,0,24,24,Fri Sep 17 19:38:57 2021,1500,The main experiment item,yes,KS - FlankerTask (2).osexp,/Users/kaylinsilva/Downloads,no,mono,no,18,no,white,no,yes,768,legacy,24,24,/Users/kaylinsilva/Downloads/KS-subject-1.csv,legacy,Lentiform Loewenfeld,3.3.9,0,s,NA,h,NA,NA,s,313,NA,1011,NA,NA,313,2,legacy,1024,2,48000,-16,experiment,1,odd,6436,NA,NA,35145,NA,NA,45747,44680,5403,NA,NA,45744,45851,5394,45852,46166,KS - Flanker Task,19,8321,25,yes,1024
73.07692308,Incongruent,HHSHH,73.07692308,329.8076923,329.8076923,black,legacy,legacy,legacy,0,uniform,0,undefined,0,s,0,0,0,25,25,0,25,25,0,0,0,25,25,0,25,25,Fri Sep 17 19:38:57 2021,1500,The main experiment item,yes,KS - FlankerTask (2).osexp,/Users/kaylinsilva/Downloads,no,mono,no,18,no,white,no,yes,768,legacy,25,25,/Users/kaylinsilva/Downloads/KS-subject-1.csv,legacy,Lentiform Loewenfeld,3.3.9,0,h,NA,h,NA,NA,h,254,NA,1011,NA,NA,254,2,legacy,1024,2,48000,-16,experiment,1,odd,6436,NA,NA,35145,NA,NA,47236,46169,5403,NA,NA,47233,47340,5394,47340,47595,KS - Flanker Task,19,8575,26,yes,1024
70.37037037,Congruent,HHHHH,70.37037037,330.0740741,330.0740741,black,legacy,legacy,legacy,0,uniform,0,undefined,0,h,0,0,0,26,26,0,26,26,0,0,0,26,26,0,26,26,Fri Sep 17 19:38:57 2021,1500,The main experiment item,yes,KS - FlankerTask (2).osexp,/Users/kaylinsilva/Downloads,no,mono,no,18,no,white,no,yes,768,legacy,26,26,/Users/kaylinsilva/Downloads/KS-subject-1.csv,legacy,Lentiform Loewenfeld,3.3.9,0,s,NA,h,NA,NA,s,337,NA,1011,NA,NA,337,2,legacy,1024,2,48000,-16,experiment,1,odd,6436,NA,NA,47598,NA,NA,49170,48103,5403,NA,NA,49167,49274,5394,49274,49612,KS - Flanker Task,19,8912,27,yes,1024
71.42857143,Incongruent,SSHSS,71.42857143,334.8214286,334.8214286,black,legacy,legacy,legacy,0,uniform,1,undefined,1,h,0,0,0,27,27,0,27,27,0,0,0,27,27,0,27,27,Fri Sep 17 19:38:57 2021,1500,The main experiment item,yes,KS - FlankerTask (2).osexp,/Users/kaylinsilva/Downloads,no,mono,no,18,no,white,no,yes,768,legacy,27,27,/Users/kaylinsilva/Downloads/KS-subject-1.csv,legacy,Lentiform Loewenfeld,3.3.9,0,h,NA,h,NA,NA,h,463,NA,1011,NA,NA,463,2,legacy,1024,2,48000,-16,experiment,1,odd,6436,NA,NA,49615,NA,NA,51187,50120,5403,NA,NA,51184,51293,5394,51293,51756,KS - Flanker Task,20,9375,28,yes,1024
72.4137931,Incongruent,HHSHH,72.4137931,335.8275862,335.8275862,black,legacy,legacy,legacy,0,uniform,1,undefined,1,s,0,0,0,28,28,0,28,28,0,0,0,28,28,0,28,28,Fri Sep 17 19:38:57 2021,1500,The main experiment item,yes,KS - FlankerTask (2).osexp,/Users/kaylinsilva/Downloads,no,mono,no,18,no,white,no,yes,768,legacy,28,28,/Users/kaylinsilva/Downloads/KS-subject-1.csv,legacy,Lentiform Loewenfeld,3.3.9,0,s,NA,h,NA,NA,s,364,NA,1011,NA,NA,364,2,legacy,1024,2,48000,-16,experiment,1,odd,6436,NA,NA,49615,NA,NA,52827,51759,5403,NA,NA,52823,52931,5394,52931,53296,KS - Flanker Task,21,9739,29,yes,1024
73.33333333,Congruent,SSSSS,73.33333333,336.6,336.6,black,legacy,legacy,legacy,0,uniform,1,undefined,1,s,0,0,0,29,29,0,29,29,0,0,0,29,29,0,29,29,Fri Sep 17 19:38:57 2021,1500,The main experiment item,yes,KS - FlankerTask (2).osexp,/Users/kaylinsilva/Downloads,no,mono,no,18,no,white,no,yes,768,legacy,29,29,/Users/kaylinsilva/Downloads/KS-subject-1.csv,legacy,Lentiform Loewenfeld,3.3.9,0,s,NA,h,NA,NA,s,359,NA,1011,NA,NA,359,2,legacy,1024,2,48000,-16,experiment,1,odd,6436,NA,NA,49615,NA,NA,54366,53299,5403,NA,NA,54363,54470,5394,54470,54830,KS - Flanker Task,22,10098,30,yes,1024
74.19354839,Congruent,SSSSS,74.19354839,335.7741935,335.7741935,black,legacy,legacy,legacy,0,uniform,1,undefined,1,s,0,0,0,30,30,0,30,30,0,0,0,30,30,0,30,30,Fri Sep 17 19:38:57 2021,1500,The main experiment item,yes,KS - FlankerTask (2).osexp,/Users/kaylinsilva/Downloads,no,mono,no,18,no,white,no,yes,768,legacy,30,30,/Users/kaylinsilva/Downloads/KS-subject-1.csv,legacy,Lentiform Loewenfeld,3.3.9,0,s,NA,h,NA,NA,s,311,NA,1011,NA,NA,311,2,legacy,1024,2,48000,-16,experiment,1,odd,6436,NA,NA,49615,NA,NA,55900,54833,5403,NA,NA,55897,56004,5394,56004,56316,KS - Flanker Task,23,10409,31,yes,1024
75,Congruent,SSSSS,75,335.0625,335.0625,black,legacy,legacy,legacy,0,uniform,1,undefined,1,s,0,0,0,31,31,0,31,31,0,0,0,31,31,0,31,31,Fri Sep 17 19:38:57 2021,1500,The main experiment item,yes,KS - FlankerTask (2).osexp,/Users/kaylinsilva/Downloads,no,mono,no,18,no,white,no,yes,768,legacy,31,31,/Users/kaylinsilva/Downloads/KS-subject-1.csv,legacy,Lentiform Loewenfeld,3.3.9,0,s,NA,h,NA,NA,s,313,NA,1011,NA,NA,313,2,legacy,1024,2,48000,-16,experiment,1,odd,6436,NA,NA,49615,NA,NA,57393,56319,5403,NA,NA,57390,57497,5394,57497,57811,KS - Flanker Task,24,10722,32,yes,1024
72.72727273,Incongruent,SSHSS,72.72727273,330.7878788,330.7878788,black,legacy,legacy,legacy,0,uniform,0,undefined,0,h,0,0,0,32,32,0,32,32,0,0,0,32,32,0,32,32,Fri Sep 17 19:38:57 2021,1500,The main experiment item,yes,KS - FlankerTask (2).osexp,/Users/kaylinsilva/Downloads,no,mono,no,18,no,white,no,yes,768,legacy,32,32,/Users/kaylinsilva/Downloads/KS-subject-1.csv,legacy,Lentiform Loewenfeld,3.3.9,0,s,NA,h,NA,NA,s,194,NA,1011,NA,NA,194,2,legacy,1024,2,48000,-16,experiment,1,odd,6436,NA,NA,49615,NA,NA,58881,57814,5403,NA,NA,58878,58985,5394,58985,59180,KS - Flanker Task,24,10916,33,yes,1024
70.58823529,Congruent,HHHHH,70.58823529,331.2647059,331.2647059,black,legacy,legacy,legacy,0,uniform,0,undefined,0,h,0,0,0,33,33,0,33,33,0,0,0,33,33,0,33,33,Fri Sep 17 19:38:57 2021,1500,The main experiment item,yes,KS - FlankerTask (2).osexp,/Users/kaylinsilva/Downloads,no,mono,no,18,no,white,no,yes,768,legacy,33,33,/Users/kaylinsilva/Downloads/KS-subject-1.csv,legacy,Lentiform Loewenfeld,3.3.9,0,s,NA,h,NA,NA,s,347,NA,1011,NA,NA,347,2,legacy,1024,2,48000,-16,experiment,1,odd,6436,NA,NA,59183,NA,NA,60754,59687,5403,NA,NA,60751,60858,5394,60858,61206,KS - Flanker Task,24,11263,34,yes,1024
71.42857143,Incongruent,SSHSS,71.42857143,355.5714286,355.5714286,black,legacy,legacy,legacy,0,uniform,1,undefined,1,h,0,0,0,34,34,0,34,34,0,0,0,34,34,0,34,34,Fri Sep 17 19:38:57 2021,1500,The main experiment item,yes,KS - FlankerTask (2).osexp,/Users/kaylinsilva/Downloads,no,mono,no,18,no,white,no,yes,768,legacy,34,34,/Users/kaylinsilva/Downloads/KS-subject-1.csv,legacy,Lentiform Loewenfeld,3.3.9,0,h,NA,h,NA,NA,h,1182,NA,1011,NA,NA,1182,2,legacy,1024,2,48000,-16,experiment,1,odd,6436,NA,NA,61209,NA,NA,62782,61714,5403,NA,NA,62778,62887,5394,62887,64070,KS - Flanker Task,25,12445,35,yes,1024
69.44444444,Incongruent,HHSHH,69.44444444,354.9166667,354.9166667,black,legacy,legacy,legacy,0,uniform,0,undefined,0,s,0,0,0,35,35,0,35,35,0,0,0,35,35,0,35,35,Fri Sep 17 19:38:57 2021,1500,The main experiment item,yes,KS - FlankerTask (2).osexp,/Users/kaylinsilva/Downloads,no,mono,no,18,no,white,no,yes,768,legacy,35,35,/Users/kaylinsilva/Downloads/KS-subject-1.csv,legacy,Lentiform Loewenfeld,3.3.9,0,h,NA,h,NA,NA,h,332,NA,1011,NA,NA,332,2,legacy,1024,2,48000,-16,experiment,1,odd,6436,NA,NA,61209,NA,NA,65141,64073,5403,NA,NA,65138,65247,5394,65247,65579,KS - Flanker Task,25,12777,36,yes,1024
70.27027027,Incongruent,SSHSS,70.27027027,357.1351351,357.1351351,black,legacy,legacy,legacy,0,uniform,1,undefined,1,h,0,0,0,36,36,0,36,36,0,0,0,36,36,0,36,36,Fri Sep 17 19:38:57 2021,1500,The main experiment item,yes,KS - FlankerTask (2).osexp,/Users/kaylinsilva/Downloads,no,mono,no,18,no,white,no,yes,768,legacy,36,36,/Users/kaylinsilva/Downloads/KS-subject-1.csv,legacy,Lentiform Loewenfeld,3.3.9,0,h,NA,h,NA,NA,h,437,NA,1011,NA,NA,437,2,legacy,1024,2,48000,-16,experiment,1,odd,6436,NA,NA,65583,NA,NA,67155,66088,5403,NA,NA,67152,67260,5394,67260,67698,KS - Flanker Task,26,13214,37,yes,1024
71.05263158,Congruent,HHHHH,71.05263158,355.3684211,355.3684211,black,legacy,legacy,legacy,0,uniform,1,undefined,1,h,0,0,0,37,37,0,37,37,0,0,0,37,37,0,37,37,Fri Sep 17 19:38:57 2021,1500,The main experiment item,yes,KS - FlankerTask (2).osexp,/Users/kaylinsilva/Downloads,no,mono,no,18,no,white,no,yes,768,legacy,37,37,/Users/kaylinsilva/Downloads/KS-subject-1.csv,legacy,Lentiform Loewenfeld,3.3.9,0,h,NA,h,NA,NA,h,290,NA,1011,NA,NA,290,2,legacy,1024,2,48000,-16,experiment,1,odd,6436,NA,NA,65583,NA,NA,68768,67701,5403,NA,NA,68765,68872,5394,68872,69163,KS - Flanker Task,27,13504,38,yes,1024
71.79487179,Incongruent,SSHSS,71.79487179,355.4871795,355.4871795,black,legacy,legacy,legacy,0,uniform,1,undefined,1,h,0,0,0,38,38,0,38,38,0,0,0,38,38,0,38,38,Fri Sep 17 19:38:57 2021,1500,The main experiment item,yes,KS - FlankerTask (2).osexp,/Users/kaylinsilva/Downloads,no,mono,no,18,no,white,no,yes,768,legacy,38,38,/Users/kaylinsilva/Downloads/KS-subject-1.csv,legacy,Lentiform Loewenfeld,3.3.9,0,h,NA,h,NA,NA,h,360,NA,1011,NA,NA,360,2,legacy,1024,2,48000,-16,experiment,1,odd,6436,NA,NA,65583,NA,NA,70232,69166,5403,NA,NA,70228,70336,5394,70336,70697,KS - Flanker Task,28,13864,39,yes,1024
72.5,Incongruent,HHSHH,72.5,356.5,356.5,black,legacy,legacy,legacy,0,uniform,1,undefined,1,s,0,0,0,39,39,0,39,39,0,0,0,39,39,0,39,39,Fri Sep 17 19:38:57 2021,1500,The main experiment item,yes,KS - FlankerTask (2).osexp,/Users/kaylinsilva/Downloads,no,mono,no,18,no,white,no,yes,768,legacy,39,39,/Users/kaylinsilva/Downloads/KS-subject-1.csv,legacy,Lentiform Loewenfeld,3.3.9,0,s,NA,h,NA,NA,s,396,NA,1011,NA,NA,396,2,legacy,1024,2,48000,-16,experiment,1,odd,6436,NA,NA,65583,NA,NA,71768,70700,5403,NA,NA,71765,71873,5394,71873,72270,KS - Flanker Task,29,14260,40,yes,1024
73.17073171,Congruent,SSSSS,73.17073171,355.2926829,355.2926829,black,legacy,legacy,legacy,0,uniform,1,undefined,1,s,0,0,0,40,40,0,40,40,0,0,0,40,40,0,40,40,Fri Sep 17 19:38:57 2021,1500,The main experiment item,yes,KS - FlankerTask (2).osexp,/Users/kaylinsilva/Downloads,no,mono,no,18,no,white,no,yes,768,legacy,40,40,/Users/kaylinsilva/Downloads/KS-subject-1.csv,legacy,Lentiform Loewenfeld,3.3.9,0,s,NA,h,NA,NA,s,307,NA,1011,NA,NA,307,2,legacy,1024,2,48000,-16,experiment,1,odd,6436,NA,NA,65583,NA,NA,73340,72273,5403,NA,NA,73337,73445,5394,73445,73752,KS - Flanker Task,30,14567,41,yes,1024
71.42857143,Incongruent,HHSHH,71.42857143,353.0714286,353.0714286,black,legacy,legacy,legacy,0,uniform,0,undefined,0,s,0,0,0,41,41,0,41,41,0,0,0,41,41,0,41,41,Fri Sep 17 19:38:57 2021,1500,The main experiment item,yes,KS - FlankerTask (2).osexp,/Users/kaylinsilva/Downloads,no,mono,no,18,no,white,no,yes,768,legacy,41,41,/Users/kaylinsilva/Downloads/KS-subject-1.csv,legacy,Lentiform Loewenfeld,3.3.9,0,h,NA,h,NA,NA,h,262,NA,1011,NA,NA,262,2,legacy,1024,2,48000,-16,experiment,1,odd,6436,NA,NA,65583,NA,NA,74823,73755,5403,NA,NA,74820,74927,5394,74927,75190,KS - Flanker Task,30,14829,42,yes,1024
72.09302326,Incongruent,HHSHH,72.09302326,350.9534884,350.9534884,black,legacy,legacy,legacy,0,uniform,1,undefined,1,s,0,0,0,42,42,0,42,42,0,0,0,42,42,0,42,42,Fri Sep 17 19:38:57 2021,1500,The main experiment item,yes,KS - FlankerTask (2).osexp,/Users/kaylinsilva/Downloads,no,mono,no,18,no,white,no,yes,768,legacy,42,42,/Users/kaylinsilva/Downloads/KS-subject-1.csv,legacy,Lentiform Loewenfeld,3.3.9,0,s,NA,h,NA,NA,s,262,NA,1011,NA,NA,262,2,legacy,1024,2,48000,-16,experiment,1,odd,6436,NA,NA,75195,NA,NA,76766,75699,5403,NA,NA,76763,76870,5394,76870,77133,KS - Flanker Task,31,15091,43,yes,1024
70.45454545,Incongruent,SSHSS,70.45454545,350.6363636,350.6363636,black,legacy,legacy,legacy,0,uniform,0,undefined,0,h,0,0,0,43,43,0,43,43,0,0,0,43,43,0,43,43,Fri Sep 17 19:38:57 2021,1500,The main experiment item,yes,KS - FlankerTask (2).osexp,/Users/kaylinsilva/Downloads,no,mono,no,18,no,white,no,yes,768,legacy,43,43,/Users/kaylinsilva/Downloads/KS-subject-1.csv,legacy,Lentiform Loewenfeld,3.3.9,0,s,NA,h,NA,NA,s,337,NA,1011,NA,NA,337,2,legacy,1024,2,48000,-16,experiment,1,odd,6436,NA,NA,75195,NA,NA,78218,77136,5403,NA,NA,78214,78322,5394,78322,78660,KS - Flanker Task,31,15428,44,yes,1024
68.88888889,Incongruent,HHSHH,68.88888889,346.9333333,346.9333333,black,legacy,legacy,legacy,0,uniform,0,undefined,0,s,0,0,0,44,44,0,44,44,0,0,0,44,44,0,44,44,Fri Sep 17 19:38:57 2021,1500,The main experiment item,yes,KS - FlankerTask (2).osexp,/Users/kaylinsilva/Downloads,no,mono,no,18,no,white,no,yes,768,legacy,44,44,/Users/kaylinsilva/Downloads/KS-subject-1.csv,legacy,Lentiform Loewenfeld,3.3.9,0,h,NA,h,NA,NA,h,184,NA,1011,NA,NA,184,2,legacy,1024,2,48000,-16,experiment,1,odd,6436,NA,NA,78663,NA,NA,80236,79168,5403,NA,NA,80232,80341,5394,80341,80526,KS - Flanker Task,31,15612,45,yes,1024
69.56521739,Congruent,SSSSS,69.56521739,343.3913043,343.3913043,black,legacy,legacy,legacy,0,uniform,1,undefined,1,s,0,0,0,45,45,0,45,45,0,0,0,45,45,0,45,45,Fri Sep 17 19:38:57 2021,1500,The main experiment item,yes,KS - FlankerTask (2).osexp,/Users/kaylinsilva/Downloads,no,mono,no,18,no,white,no,yes,768,legacy,45,45,/Users/kaylinsilva/Downloads/KS-subject-1.csv,legacy,Lentiform Loewenfeld,3.3.9,0,s,NA,h,NA,NA,s,184,NA,1011,NA,NA,184,2,legacy,1024,2,48000,-16,experiment,1,odd,6436,NA,NA,80529,NA,NA,82101,81033,5403,NA,NA,82098,82205,5394,82205,82389,KS - Flanker Task,32,15796,46,yes,1024
70.21276596,Congruent,SSSSS,70.21276596,342.4042553,342.4042553,black,legacy,legacy,legacy,0,uniform,1,undefined,1,s,0,0,0,46,46,0,46,46,0,0,0,46,46,0,46,46,Fri Sep 17 19:38:57 2021,1500,The main experiment item,yes,KS - FlankerTask (2).osexp,/Users/kaylinsilva/Downloads,no,mono,no,18,no,white,no,yes,768,legacy,46,46,/Users/kaylinsilva/Downloads/KS-subject-1.csv,legacy,Lentiform Loewenfeld,3.3.9,0,s,NA,h,NA,NA,s,297,NA,1011,NA,NA,297,2,legacy,1024,2,48000,-16,experiment,1,odd,6436,NA,NA,80529,NA,NA,83459,82393,5403,NA,NA,83456,83563,5394,83563,83861,KS - Flanker Task,33,16093,47,yes,1024
70.83333333,Incongruent,SSHSS,70.83333333,345.5416667,345.5416667,black,legacy,legacy,legacy,0,uniform,1,undefined,1,h,0,0,0,47,47,0,47,47,0,0,0,47,47,0,47,47,Fri Sep 17 19:38:57 2021,1500,The main experiment item,yes,KS - FlankerTask (2).osexp,/Users/kaylinsilva/Downloads,no,mono,no,18,no,white,no,yes,768,legacy,47,47,/Users/kaylinsilva/Downloads/KS-subject-1.csv,legacy,Lentiform Loewenfeld,3.3.9,0,h,NA,h,NA,NA,h,493,NA,1011,NA,NA,493,2,legacy,1024,2,48000,-16,experiment,1,odd,6436,NA,NA,80529,NA,NA,84931,83864,5403,NA,NA,84928,85034,5394,85035,85528,KS - Flanker Task,34,16586,48,yes,1024
71.42857143,Congruent,SSSSS,71.42857143,345.5918367,345.5918367,black,legacy,legacy,legacy,0,uniform,1,undefined,1,s,0,0,0,48,48,0,48,48,0,0,0,48,48,0,48,48,Fri Sep 17 19:38:57 2021,1500,The main experiment item,yes,KS - FlankerTask (2).osexp,/Users/kaylinsilva/Downloads,no,mono,no,18,no,white,no,yes,768,legacy,48,48,/Users/kaylinsilva/Downloads/KS-subject-1.csv,legacy,Lentiform Loewenfeld,3.3.9,0,s,NA,h,NA,NA,s,348,NA,1011,NA,NA,348,2,legacy,1024,2,48000,-16,experiment,1,odd,6436,NA,NA,80529,NA,NA,86599,85531,5403,NA,NA,86596,86703,5394,86703,87052,KS - Flanker Task,35,16934,49,yes,1024
72,Congruent,HHHHH,72,345.6,345.6,black,legacy,legacy,legacy,0,uniform,1,undefined,1,h,0,0,0,49,49,0,49,49,0,0,0,49,49,0,49,49,Fri Sep 17 19:38:57 2021,1500,The main experiment item,yes,KS - FlankerTask (2).osexp,/Users/kaylinsilva/Downloads,no,mono,no,18,no,white,no,yes,768,legacy,49,49,/Users/kaylinsilva/Downloads/KS-subject-1.csv,legacy,Lentiform Loewenfeld,3.3.9,0,h,NA,h,NA,NA,h,346,NA,1011,NA,NA,346,2,legacy,1024,2,48000,-16,experiment,1,odd,6436,NA,NA,80529,NA,NA,88123,87055,5403,NA,NA,88119,88227,5394,88227,88574,KS - Flanker Task,36,17280,50,yes,1024
72.54901961,Congruent,SSSSS,72.54901961,345.7647059,345.7647059,black,legacy,legacy,legacy,0,uniform,1,undefined,1,s,0,0,0,50,50,0,50,50,0,0,0,50,50,0,50,50,Fri Sep 17 19:38:57 2021,1500,The main experiment item,yes,KS - FlankerTask (2).osexp,/Users/kaylinsilva/Downloads,no,mono,no,18,no,white,no,yes,768,legacy,50,50,/Users/kaylinsilva/Downloads/KS-subject-1.csv,legacy,Lentiform Loewenfeld,3.3.9,0,s,NA,h,NA,NA,s,354,NA,1011,NA,NA,354,2,legacy,1024,2,48000,-16,experiment,1,odd,6436,NA,NA,80529,NA,NA,89644,88577,5403,NA,NA,89641,89748,5394,89748,90103,KS - Flanker Task,37,17634,51,yes,1024
73.07692308,Congruent,HHHHH,73.07692308,346.4230769,346.4230769,black,legacy,legacy,legacy,0,uniform,1,undefined,1,h,0,0,0,51,51,0,51,51,0,0,0,51,51,0,51,51,Fri Sep 17 19:38:57 2021,1500,The main experiment item,yes,KS - FlankerTask (2).osexp,/Users/kaylinsilva/Downloads,no,mono,no,18,no,white,no,yes,768,legacy,51,51,/Users/kaylinsilva/Downloads/KS-subject-1.csv,legacy,Lentiform Loewenfeld,3.3.9,0,h,NA,h,NA,NA,h,380,NA,1011,NA,NA,380,2,legacy,1024,2,48000,-16,experiment,1,odd,6436,NA,NA,80529,NA,NA,91171,90106,5403,NA,NA,91168,91275,5394,91275,91656,KS - Flanker Task,38,18014,52,yes,1024
73.58490566,Congruent,SSSSS,73.58490566,346.0188679,346.0188679,black,legacy,legacy,legacy,0,uniform,1,undefined,1,s,0,0,0,52,52,0,52,52,0,0,0,52,52,0,52,52,Fri Sep 17 19:38:57 2021,1500,The main experiment item,yes,KS - FlankerTask (2).osexp,/Users/kaylinsilva/Downloads,no,mono,no,18,no,white,no,yes,768,legacy,52,52,/Users/kaylinsilva/Downloads/KS-subject-1.csv,legacy,Lentiform Loewenfeld,3.3.9,0,s,NA,h,NA,NA,s,325,NA,1011,NA,NA,325,2,legacy,1024,2,48000,-16,experiment,1,odd,6436,NA,NA,80529,NA,NA,92726,91659,5403,NA,NA,92723,92830,5394,92830,93156,KS - Flanker Task,39,18339,53,yes,1024
74.07407407,Incongruent,SSHSS,74.07407407,346.6296296,346.6296296,black,legacy,legacy,legacy,0,uniform,1,undefined,1,h,0,0,0,53,53,0,53,53,0,0,0,53,53,0,53,53,Fri Sep 17 19:38:57 2021,1500,The main experiment item,yes,KS - FlankerTask (2).osexp,/Users/kaylinsilva/Downloads,no,mono,no,18,no,white,no,yes,768,legacy,53,53,/Users/kaylinsilva/Downloads/KS-subject-1.csv,legacy,Lentiform Loewenfeld,3.3.9,0,h,NA,h,NA,NA,h,379,NA,1011,NA,NA,379,2,legacy,1024,2,48000,-16,experiment,1,odd,6436,NA,NA,80529,NA,NA,94226,93159,5403,NA,NA,94222,94330,5394,94330,94710,KS - Flanker Task,40,18718,54,yes,1024
74.54545455,Congruent,SSSSS,74.54545455,349.3454545,349.3454545,black,legacy,legacy,legacy,0,uniform,1,undefined,1,s,0,0,0,54,54,0,54,54,0,0,0,54,54,0,54,54,Fri Sep 17 19:38:57 2021,1500,The main experiment item,yes,KS - FlankerTask (2).osexp,/Users/kaylinsilva/Downloads,no,mono,no,18,no,white,no,yes,768,legacy,54,54,/Users/kaylinsilva/Downloads/KS-subject-1.csv,legacy,Lentiform Loewenfeld,3.3.9,0,s,NA,h,NA,NA,s,496,NA,1011,NA,NA,496,2,legacy,1024,2,48000,-16,experiment,1,odd,6436,NA,NA,80529,NA,NA,95781,94713,5403,NA,NA,95778,95885,5394,95886,96383,KS - Flanker Task,41,19214,55,yes,1024
75,Congruent,SSSSS,75,349.6607143,349.6607143,black,legacy,legacy,legacy,0,uniform,1,undefined,1,s,0,0,0,55,55,0,55,55,0,0,0,55,55,0,55,55,Fri Sep 17 19:38:57 2021,1500,The main experiment item,yes,KS - FlankerTask (2).osexp,/Users/kaylinsilva/Downloads,no,mono,no,18,no,white,no,yes,768,legacy,55,55,/Users/kaylinsilva/Downloads/KS-subject-1.csv,legacy,Lentiform Loewenfeld,3.3.9,0,s,NA,h,NA,NA,s,367,NA,1011,NA,NA,367,2,legacy,1024,2,48000,-16,experiment,1,odd,6436,NA,NA,80529,NA,NA,97454,96386,5403,NA,NA,97450,97558,5394,97558,97926,KS - Flanker Task,42,19581,56,yes,1024
75.43859649,Congruent,SSSSS,75.43859649,349.1403509,349.1403509,black,legacy,legacy,legacy,0,uniform,1,undefined,1,s,0,0,0,56,56,0,56,56,0,0,0,56,56,0,56,56,Fri Sep 17 19:38:57 2021,1500,The main experiment item,yes,KS - FlankerTask (2).osexp,/Users/kaylinsilva/Downloads,no,mono,no,18,no,white,no,yes,768,legacy,56,56,/Users/kaylinsilva/Downloads/KS-subject-1.csv,legacy,Lentiform Loewenfeld,3.3.9,0,s,NA,h,NA,NA,s,320,NA,1011,NA,NA,320,2,legacy,1024,2,48000,-16,experiment,1,odd,6436,NA,NA,80529,NA,NA,98997,97931,5403,NA,NA,98994,99101,5394,99101,99422,KS - Flanker Task,43,19901,57,yes,1024
75.86206897,Congruent,HHHHH,75.86206897,348.6034483,348.6034483,black,legacy,legacy,legacy,0,uniform,1,undefined,1,h,0,0,0,57,57,0,57,57,0,0,0,57,57,0,57,57,Fri Sep 17 19:38:57 2021,1500,The main experiment item,yes,KS - FlankerTask (2).osexp,/Users/kaylinsilva/Downloads,no,mono,no,18,no,white,no,yes,768,legacy,57,57,/Users/kaylinsilva/Downloads/KS-subject-1.csv,legacy,Lentiform Loewenfeld,3.3.9,0,h,NA,h,NA,NA,h,318,NA,1011,NA,NA,318,2,legacy,1024,2,48000,-16,experiment,1,odd,6436,NA,NA,80529,NA,NA,100492,99425,5403,NA,NA,100489,100596,5394,100596,100915,KS - Flanker Task,44,20219,58,yes,1024
76.27118644,Congruent,HHHHH,76.27118644,347.2033898,347.2033898,black,legacy,legacy,legacy,0,uniform,1,undefined,1,h,0,0,0,58,58,0,58,58,0,0,0,58,58,0,58,58,Fri Sep 17 19:38:57 2021,1500,The main experiment item,yes,KS - FlankerTask (2).osexp,/Users/kaylinsilva/Downloads,no,mono,no,18,no,white,no,yes,768,legacy,58,58,/Users/kaylinsilva/Downloads/KS-subject-1.csv,legacy,Lentiform Loewenfeld,3.3.9,0,h,NA,h,NA,NA,h,266,NA,1011,NA,NA,266,2,legacy,1024,2,48000,-16,experiment,1,odd,6436,NA,NA,80529,NA,NA,101984,100918,5403,NA,NA,101981,102088,5394,102088,102355,KS - Flanker Task,45,20485,59,yes,1024
75,Congruent,HHHHH,75,346.8833333,346.8833333,black,legacy,legacy,legacy,0,uniform,0,undefined,0,h,0,0,0,59,59,0,59,59,0,0,0,59,59,0,59,59,Fri Sep 17 19:38:57 2021,1500,The main experiment item,yes,KS - FlankerTask (2).osexp,/Users/kaylinsilva/Downloads,no,mono,no,18,no,white,no,yes,768,legacy,59,59,/Users/kaylinsilva/Downloads/KS-subject-1.csv,legacy,Lentiform Loewenfeld,3.3.9,0,s,NA,h,NA,NA,s,328,NA,1011,NA,NA,328,2,legacy,1024,2,48000,-16,experiment,1,odd,6436,NA,NA,80529,NA,NA,103425,102358,5403,NA,NA,103422,103529,5394,103529,103858,KS - Flanker Task,45,20813,60,yes,1024
73.7704918,Incongruent,HHSHH,73.7704918,345.8360656,345.8360656,black,legacy,legacy,legacy,0,uniform,0,undefined,0,s,0,0,0,60,60,0,60,60,0,0,0,60,60,0,60,60,Fri Sep 17 19:38:57 2021,1500,The main experiment item,yes,KS - FlankerTask (2).osexp,/Users/kaylinsilva/Downloads,no,mono,no,18,no,white,no,yes,768,legacy,60,60,/Users/kaylinsilva/Downloads/KS-subject-1.csv,legacy,Lentiform Loewenfeld,3.3.9,0,h,NA,h,NA,NA,h,283,NA,1011,NA,NA,283,2,legacy,1024,2,48000,-16,experiment,1,odd,6436,NA,NA,103861,NA,NA,105432,104365,5403,NA,NA,105429,105536,5394,105536,105820,KS - Flanker Task,45,21096,61,yes,1024
72.58064516,Congruent,HHHHH,72.58064516,345.6129032,345.6129032,black,legacy,legacy,legacy,0,uniform,0,undefined,0,h,0,0,0,61,61,0,61,61,0,0,0,61,61,0,61,61,Fri Sep 17 19:38:57 2021,1500,The main experiment item,yes,KS - FlankerTask (2).osexp,/Users/kaylinsilva/Downloads,no,mono,no,18,no,white,no,yes,768,legacy,61,61,/Users/kaylinsilva/Downloads/KS-subject-1.csv,legacy,Lentiform Loewenfeld,3.3.9,0,s,NA,h,NA,NA,s,332,NA,1011,NA,NA,332,2,legacy,1024,2,48000,-16,experiment,1,odd,6436,NA,NA,105823,NA,NA,107394,106327,5403,NA,NA,107390,107498,5394,107498,107831,KS - Flanker Task,45,21428,62,yes,1024
73.01587302,Congruent,HHHHH,73.01587302,344.5238095,344.5238095,black,legacy,legacy,legacy,0,uniform,1,undefined,1,h,0,0,0,62,62,0,62,62,0,0,0,62,62,0,62,62,Fri Sep 17 19:38:57 2021,1500,The main experiment item,yes,KS - FlankerTask (2).osexp,/Users/kaylinsilva/Downloads,no,mono,no,18,no,white,no,yes,768,legacy,62,62,/Users/kaylinsilva/Downloads/KS-subject-1.csv,legacy,Lentiform Loewenfeld,3.3.9,0,h,NA,h,NA,NA,h,277,NA,1011,NA,NA,277,2,legacy,1024,2,48000,-16,experiment,1,odd,6436,NA,NA,107834,NA,NA,109406,108339,5403,NA,NA,109403,109510,5394,109510,109788,KS - Flanker Task,46,21705,63,yes,1024
73.4375,Congruent,HHHHH,73.4375,343.59375,343.59375,black,legacy,legacy,legacy,0,uniform,1,undefined,1,h,0,0,0,63,63,0,63,63,0,0,0,63,63,0,63,63,Fri Sep 17 19:38:57 2021,1500,The main experiment item,yes,KS - FlankerTask (2).osexp,/Users/kaylinsilva/Downloads,no,mono,no,18,no,white,no,yes,768,legacy,63,63,/Users/kaylinsilva/Downloads/KS-subject-1.csv,legacy,Lentiform Loewenfeld,3.3.9,0,h,NA,h,NA,NA,h,285,NA,1011,NA,NA,285,2,legacy,1024,2,48000,-16,experiment,1,odd,6436,NA,NA,107834,NA,NA,110859,109791,5403,NA,NA,110856,110963,5394,110963,111248,KS - Flanker Task,47,21990,64,yes,1024
73.84615385,Incongruent,SSHSS,73.84615385,342.4769231,342.4769231,black,legacy,legacy,legacy,0,uniform,1,undefined,1,h,0,0,0,64,64,0,64,64,0,0,0,64,64,0,64,64,Fri Sep 17 19:38:57 2021,1500,The main experiment item,yes,KS - FlankerTask (2).osexp,/Users/kaylinsilva/Downloads,no,mono,no,18,no,white,no,yes,768,legacy,64,64,/Users/kaylinsilva/Downloads/KS-subject-1.csv,legacy,Lentiform Loewenfeld,3.3.9,0,h,NA,h,NA,NA,h,271,NA,1011,NA,NA,271,2,legacy,1024,2,48000,-16,experiment,1,odd,6436,NA,NA,107834,NA,NA,112319,111252,5403,NA,NA,112316,112423,5394,112423,112695,KS - Flanker Task,48,22261,65,yes,1024
74.24242424,Incongruent,SSHSS,74.24242424,341.8939394,341.8939394,black,legacy,legacy,legacy,0,uniform,1,undefined,1,h,0,0,0,65,65,0,65,65,0,0,0,65,65,0,65,65,Fri Sep 17 19:38:57 2021,1500,The main experiment item,yes,KS - FlankerTask (2).osexp,/Users/kaylinsilva/Downloads,no,mono,no,18,no,white,no,yes,768,legacy,65,65,/Users/kaylinsilva/Downloads/KS-subject-1.csv,legacy,Lentiform Loewenfeld,3.3.9,0,h,NA,h,NA,NA,h,304,NA,1011,NA,NA,304,2,legacy,1024,2,48000,-16,experiment,1,odd,6436,NA,NA,107834,NA,NA,113765,112698,5403,NA,NA,113762,113869,5394,113869,114174,KS - Flanker Task,49,22565,66,yes,1024
74.62686567,Congruent,SSSSS,74.62686567,342.8507463,342.8507463,black,legacy,legacy,legacy,0,uniform,1,undefined,1,s,0,0,0,66,66,0,66,66,0,0,0,66,66,0,66,66,Fri Sep 17 19:38:57 2021,1500,The main experiment item,yes,KS - FlankerTask (2).osexp,/Users/kaylinsilva/Downloads,no,mono,no,18,no,white,no,yes,768,legacy,66,66,/Users/kaylinsilva/Downloads/KS-subject-1.csv,legacy,Lentiform Loewenfeld,3.3.9,0,s,NA,h,NA,NA,s,406,NA,1011,NA,NA,406,2,legacy,1024,2,48000,-16,experiment,1,odd,6436,NA,NA,107834,NA,NA,115244,114177,5403,NA,NA,115241,115348,5394,115348,115755,KS - Flanker Task,50,22971,67,yes,1024
75,Congruent,HHHHH,75,342.4705882,342.4705882,black,legacy,legacy,legacy,0,uniform,1,undefined,1,h,0,0,0,67,67,0,67,67,0,0,0,67,67,0,67,67,Fri Sep 17 19:38:57 2021,1500,The main experiment item,yes,KS - FlankerTask (2).osexp,/Users/kaylinsilva/Downloads,no,mono,no,18,no,white,no,yes,768,legacy,67,67,/Users/kaylinsilva/Downloads/KS-subject-1.csv,legacy,Lentiform Loewenfeld,3.3.9,0,h,NA,h,NA,NA,h,317,NA,1011,NA,NA,317,2,legacy,1024,2,48000,-16,experiment,1,odd,6436,NA,NA,107834,NA,NA,116825,115758,5403,NA,NA,116822,116929,5394,116929,117247,KS - Flanker Task,51,23288,68,yes,1024
75.36231884,Incongruent,SSHSS,75.36231884,341.9275362,341.9275362,black,legacy,legacy,legacy,0,uniform,1,undefined,1,h,0,0,0,68,68,0,68,68,0,0,0,68,68,0,68,68,Fri Sep 17 19:38:57 2021,1500,The main experiment item,yes,KS - FlankerTask (2).osexp,/Users/kaylinsilva/Downloads,no,mono,no,18,no,white,no,yes,768,legacy,68,68,/Users/kaylinsilva/Downloads/KS-subject-1.csv,legacy,Lentiform Loewenfeld,3.3.9,0,h,NA,h,NA,NA,h,305,NA,1011,NA,NA,305,2,legacy,1024,2,48000,-16,experiment,1,odd,6436,NA,NA,107834,NA,NA,118316,117250,5403,NA,NA,118313,118421,5394,118421,118727,KS - Flanker Task,52,23593,69,yes,1024
75.71428571,Incongruent,SSHSS,75.71428571,341.1571429,341.1571429,black,legacy,legacy,legacy,0,uniform,1,undefined,1,h,0,0,0,69,69,0,69,69,0,0,0,69,69,0,69,69,Fri Sep 17 19:38:57 2021,1500,The main experiment item,yes,KS - FlankerTask (2).osexp,/Users/kaylinsilva/Downloads,no,mono,no,18,no,white,no,yes,768,legacy,69,69,/Users/kaylinsilva/Downloads/KS-subject-1.csv,legacy,Lentiform Loewenfeld,3.3.9,0,h,NA,h,NA,NA,h,288,NA,1011,NA,NA,288,2,legacy,1024,2,48000,-16,experiment,1,odd,6436,NA,NA,107834,NA,NA,119796,118730,5403,NA,NA,119793,119900,5394,119900,120189,KS - Flanker Task,53,23881,70,yes,1024
74.64788732,Incongruent,HHSHH,74.64788732,340.1830986,340.1830986,black,legacy,legacy,legacy,0,uniform,0,undefined,0,s,0,0,0,70,70,0,70,70,0,0,0,70,70,0,70,70,Fri Sep 17 19:38:57 2021,1500,The main experiment item,yes,KS - FlankerTask (2).osexp,/Users/kaylinsilva/Downloads,no,mono,no,18,no,white,no,yes,768,legacy,70,70,/Users/kaylinsilva/Downloads/KS-subject-1.csv,legacy,Lentiform Loewenfeld,3.3.9,0,h,NA,h,NA,NA,h,272,NA,1011,NA,NA,272,2,legacy,1024,2,48000,-16,experiment,1,odd,6436,NA,NA,107834,NA,NA,121260,120192,5403,NA,NA,121257,121364,5394,121364,121637,KS - Flanker Task,53,24153,71,yes,1024
75,Congruent,SSSSS,75,339.3611111,339.3611111,black,legacy,legacy,legacy,0,uniform,1,undefined,1,s,0,0,0,71,71,0,71,71,0,0,0,71,71,0,71,71,Fri Sep 17 19:38:57 2021,1500,The main experiment item,yes,KS - FlankerTask (2).osexp,/Users/kaylinsilva/Downloads,no,mono,no,18,no,white,no,yes,768,legacy,71,71,/Users/kaylinsilva/Downloads/KS-subject-1.csv,legacy,Lentiform Loewenfeld,3.3.9,0,s,NA,h,NA,NA,s,281,NA,1011,NA,NA,281,2,legacy,1024,2,48000,-16,experiment,1,odd,6436,NA,NA,121640,NA,NA,123210,122144,5403,NA,NA,123207,123314,5394,123314,123596,KS - Flanker Task,54,24434,72,yes,1024
75.34246575,Incongruent,SSHSS,75.34246575,338.1643836,338.1643836,black,legacy,legacy,legacy,0,uniform,1,undefined,1,h,0,0,0,72,72,0,72,72,0,0,0,72,72,0,72,72,Fri Sep 17 19:38:57 2021,1500,The main experiment item,yes,KS - FlankerTask (2).osexp,/Users/kaylinsilva/Downloads,no,mono,no,18,no,white,no,yes,768,legacy,72,72,/Users/kaylinsilva/Downloads/KS-subject-1.csv,legacy,Lentiform Loewenfeld,3.3.9,0,h,NA,h,NA,NA,h,252,NA,1011,NA,NA,252,2,legacy,1024,2,48000,-16,experiment,1,odd,6436,NA,NA,121640,NA,NA,124667,123599,5403,NA,NA,124664,124771,5394,124771,125024,KS - Flanker Task,55,24686,73,yes,1024
75.67567568,Incongruent,HHSHH,75.67567568,337.1216216,337.1216216,black,legacy,legacy,legacy,0,uniform,1,undefined,1,s,0,0,0,73,73,0,73,73,0,0,0,73,73,0,73,73,Fri Sep 17 19:38:57 2021,1500,The main experiment item,yes,KS - FlankerTask (2).osexp,/Users/kaylinsilva/Downloads,no,mono,no,18,no,white,no,yes,768,legacy,73,73,/Users/kaylinsilva/Downloads/KS-subject-1.csv,legacy,Lentiform Loewenfeld,3.3.9,0,s,NA,h,NA,NA,s,261,NA,1011,NA,NA,261,2,legacy,1024,2,48000,-16,experiment,1,odd,6436,NA,NA,121640,NA,NA,126095,125027,5403,NA,NA,126092,126199,5394,126199,126461,KS - Flanker Task,56,24947,74,yes,1024
76,Congruent,HHHHH,76,337.3733333,337.3733333,black,legacy,legacy,legacy,0,uniform,1,undefined,1,h,0,0,0,74,74,0,74,74,0,0,0,74,74,0,74,74,Fri Sep 17 19:38:57 2021,1500,The main experiment item,yes,KS - FlankerTask (2).osexp,/Users/kaylinsilva/Downloads,no,mono,no,18,no,white,no,yes,768,legacy,74,74,/Users/kaylinsilva/Downloads/KS-subject-1.csv,legacy,Lentiform Loewenfeld,3.3.9,0,h,NA,h,NA,NA,h,356,NA,1011,NA,NA,356,2,legacy,1024,2,48000,-16,experiment,1,odd,6436,NA,NA,121640,NA,NA,127531,126464,5403,NA,NA,127528,127635,5394,127636,127993,KS - Flanker Task,57,25303,75,yes,1024
75,Incongruent,HHSHH,75,336.8289474,336.8289474,black,legacy,legacy,legacy,0,uniform,0,undefined,0,s,0,0,0,75,75,0,75,75,0,0,0,75,75,0,75,75,Fri Sep 17 19:38:57 2021,1500,The main experiment item,yes,KS - FlankerTask (2).osexp,/Users/kaylinsilva/Downloads,no,mono,no,18,no,white,no,yes,768,legacy,75,75,/Users/kaylinsilva/Downloads/KS-subject-1.csv,legacy,Lentiform Loewenfeld,3.3.9,0,h,NA,h,NA,NA,h,296,NA,1011,NA,NA,296,2,legacy,1024,2,48000,-16,experiment,1,odd,6436,NA,NA,121640,NA,NA,129063,127996,5403,NA,NA,129060,129167,5394,129167,129464,KS - Flanker Task,57,25599,76,yes,1024
75.32467532,Congruent,SSSSS,75.32467532,336.3116883,336.3116883,black,legacy,legacy,legacy,0,uniform,1,undefined,1,s,0,0,0,76,76,0,76,76,0,0,0,76,76,0,76,76,Fri Sep 17 19:38:57 2021,1500,The main experiment item,yes,KS - FlankerTask (2).osexp,/Users/kaylinsilva/Downloads,no,mono,no,18,no,white,no,yes,768,legacy,76,76,/Users/kaylinsilva/Downloads/KS-subject-1.csv,legacy,Lentiform Loewenfeld,3.3.9,0,s,NA,h,NA,NA,s,297,NA,1011,NA,NA,297,2,legacy,1024,2,48000,-16,experiment,1,odd,6436,NA,NA,129467,NA,NA,131038,129971,5403,NA,NA,131035,131142,5394,131142,131440,KS - Flanker Task,58,25896,77,yes,1024
74.35897436,Incongruent,HHSHH,74.35897436,336.3461538,336.3461538,black,legacy,legacy,legacy,0,uniform,0,undefined,0,s,0,0,0,77,77,0,77,77,0,0,0,77,77,0,77,77,Fri Sep 17 19:38:57 2021,1500,The main experiment item,yes,KS - FlankerTask (2).osexp,/Users/kaylinsilva/Downloads,no,mono,no,18,no,white,no,yes,768,legacy,77,77,/Users/kaylinsilva/Downloads/KS-subject-1.csv,legacy,Lentiform Loewenfeld,3.3.9,0,h,NA,h,NA,NA,h,339,NA,1011,NA,NA,339,2,legacy,1024,2,48000,-16,experiment,1,odd,6436,NA,NA,129467,NA,NA,132510,131443,5403,NA,NA,132507,132614,5394,132614,132954,KS - Flanker Task,58,26235,78,yes,1024
73.41772152,Incongruent,HHSHH,73.41772152,335.3037975,335.3037975,black,legacy,legacy,legacy,0,uniform,0,undefined,0,s,0,0,0,78,78,0,78,78,0,0,0,78,78,0,78,78,Fri Sep 17 19:38:57 2021,1500,The main experiment item,yes,KS - FlankerTask (2).osexp,/Users/kaylinsilva/Downloads,no,mono,no,18,no,white,no,yes,768,legacy,78,78,/Users/kaylinsilva/Downloads/KS-subject-1.csv,legacy,Lentiform Loewenfeld,3.3.9,0,h,NA,h,NA,NA,h,254,NA,1011,NA,NA,254,2,legacy,1024,2,48000,-16,experiment,1,odd,6436,NA,NA,132957,NA,NA,134528,133461,5403,NA,NA,134525,134632,5394,134633,134888,KS - Flanker Task,58,26489,79,yes,1024
73.75,Incongruent,SSHSS,73.75,335.8,335.8,black,legacy,legacy,legacy,0,uniform,1,undefined,1,h,0,0,0,79,79,0,79,79,0,0,0,79,79,0,79,79,Fri Sep 17 19:38:57 2021,1500,The main experiment item,yes,KS - FlankerTask (2).osexp,/Users/kaylinsilva/Downloads,no,mono,no,18,no,white,no,yes,768,legacy,79,79,/Users/kaylinsilva/Downloads/KS-subject-1.csv,legacy,Lentiform Loewenfeld,3.3.9,0,h,NA,h,NA,NA,h,375,NA,1011,NA,NA,375,2,legacy,1024,2,48000,-16,experiment,1,odd,6436,NA,NA,134891,NA,NA,136440,135393,5403,NA,NA,136437,136544,5394,136544,136920,KS - Flanker Task,59,26864,80,yes,1024
74.07407407,Congruent,SSSSS,74.07407407,336.7407407,336.7407407,black,legacy,legacy,legacy,0,uniform,1,undefined,1,s,0,0,0,80,80,0,80,80,0,0,0,80,80,0,80,80,Fri Sep 17 19:38:57 2021,600,The main experiment item,yes,KS - FlankerTask (2).osexp,/Users/kaylinsilva/Downloads,no,mono,no,18,no,white,no,yes,768,legacy,0,79,/Users/kaylinsilva/Downloads/KS-subject-1.csv,legacy,Lentiform Loewenfeld,3.3.9,0,s,NA,h,h,NA,s,412,NA,1011,7302,NA,412,2,legacy,1024,2,48000,-16,experiment,1,odd,6436,145257,NA,134891,NA,NA,145285,136923,5403,137954,NA,145283,145391,5394,145391,145804,KS - Flanker Task,60,27276,81,yes,1024
73.17073171,Congruent,HHHHH,73.17073171,335.8170732,335.8170732,black,legacy,legacy,legacy,0,uniform,0,undefined,0,h,0,0,0,81,81,0,81,81,0,0,0,81,81,0,81,81,Fri Sep 17 19:38:57 2021,600,The main experiment item,yes,KS - FlankerTask (2).osexp,/Users/kaylinsilva/Downloads,no,mono,no,18,no,white,no,yes,768,legacy,1,79,/Users/kaylinsilva/Downloads/KS-subject-1.csv,legacy,Lentiform Loewenfeld,3.3.9,0,s,NA,h,h,NA,s,261,NA,1011,7302,NA,261,2,legacy,1024,2,48000,-16,experiment,1,odd,6436,145257,NA,134891,NA,NA,146874,145807,5403,137954,NA,146871,146978,5394,146978,147240,KS - Flanker Task,60,27537,82,yes,1024
73.4939759,Congruent,SSSSS,73.4939759,335.7951807,335.7951807,black,legacy,legacy,legacy,0,uniform,1,undefined,1,s,0,0,0,82,82,0,82,82,0,0,0,82,82,0,82,82,Fri Sep 17 19:38:57 2021,600,The main experiment item,yes,KS - FlankerTask (2).osexp,/Users/kaylinsilva/Downloads,no,mono,no,18,no,white,no,yes,768,legacy,2,79,/Users/kaylinsilva/Downloads/KS-subject-1.csv,legacy,Lentiform Loewenfeld,3.3.9,0,s,NA,h,h,NA,s,334,NA,1011,7302,NA,334,2,legacy,1024,2,48000,-16,experiment,1,odd,6436,145257,NA,147242,NA,NA,148814,147747,5403,137954,NA,148811,148918,5394,148918,149253,KS - Flanker Task,61,27871,83,yes,1024
72.61904762,Incongruent,SSHSS,72.61904762,349.6547619,349.6547619,black,legacy,legacy,legacy,0,uniform,0,undefined,0,h,0,0,0,83,83,0,83,83,0,0,0,83,83,0,83,83,Fri Sep 17 19:38:57 2021,600,The main experiment item,yes,KS - FlankerTask (2).osexp,/Users/kaylinsilva/Downloads,no,mono,no,18,no,white,no,yes,768,legacy,3,79,/Users/kaylinsilva/Downloads/KS-subject-1.csv,legacy,Lentiform Loewenfeld,3.3.9,0,None,NA,h,h,NA,None,1500,NA,1011,7302,NA,1500,2,legacy,1024,2,48000,-16,experiment,1,odd,6436,145257,NA,147242,NA,NA,150323,149256,5403,137954,NA,150319,150427,5394,150427,151927,KS - Flanker Task,61,29371,84,yes,1024
71.76470588,Incongruent,HHSHH,71.76470588,350.5058824,350.5058824,black,legacy,legacy,legacy,0,uniform,0,undefined,0,s,0,0,0,84,84,0,84,84,0,0,0,84,84,0,84,84,Fri Sep 17 19:38:57 2021,600,The main experiment item,yes,KS - FlankerTask (2).osexp,/Users/kaylinsilva/Downloads,no,mono,no,18,no,white,no,yes,768,legacy,4,79,/Users/kaylinsilva/Downloads/KS-subject-1.csv,legacy,Lentiform Loewenfeld,3.3.9,0,h,NA,h,h,NA,h,422,NA,1011,7302,NA,422,2,legacy,1024,2,48000,-16,experiment,1,odd,6436,145257,NA,151930,152434,NA,154004,152938,5403,137954,NA,154001,154108,5394,154108,154531,KS - Flanker Task,61,29793,85,yes,1024
72.09302326,Incongruent,HHSHH,72.09302326,349.6627907,349.6627907,black,legacy,legacy,legacy,0,uniform,1,undefined,1,s,0,0,0,85,85,0,85,85,0,0,0,85,85,0,85,85,Fri Sep 17 19:38:57 2021,600,The main experiment item,yes,KS - FlankerTask (2).osexp,/Users/kaylinsilva/Downloads,no,mono,no,18,no,white,no,yes,768,legacy,5,79,/Users/kaylinsilva/Downloads/KS-subject-1.csv,legacy,Lentiform Loewenfeld,3.3.9,0,s,NA,h,h,NA,s,278,NA,1011,7302,NA,278,2,legacy,1024,2,48000,-16,experiment,1,odd,6436,145257,NA,154534,152434,NA,156107,155040,5403,137954,NA,156104,156211,5394,156211,156489,KS - Flanker Task,62,30071,86,yes,1024
71.26436782,Incongruent,SSHSS,71.26436782,348.8275862,348.8275862,black,legacy,legacy,legacy,0,uniform,0,undefined,0,h,0,0,0,86,86,0,86,86,0,0,0,86,86,0,86,86,Fri Sep 17 19:38:57 2021,600,The main experiment item,yes,KS - FlankerTask (2).osexp,/Users/kaylinsilva/Downloads,no,mono,no,18,no,white,no,yes,768,legacy,6,79,/Users/kaylinsilva/Downloads/KS-subject-1.csv,legacy,Lentiform Loewenfeld,3.3.9,0,s,NA,h,h,NA,s,277,NA,1011,7302,NA,277,2,legacy,1024,2,48000,-16,experiment,1,odd,6436,145257,NA,154534,152434,NA,157559,156492,5403,137954,NA,157556,157663,5394,157663,157941,KS - Flanker Task,62,30348,87,yes,1024
71.59090909,Incongruent,SSHSS,71.59090909,348.3636364,348.3636364,black,legacy,legacy,legacy,0,uniform,1,undefined,1,h,0,0,0,87,87,0,87,87,0,0,0,87,87,0,87,87,Fri Sep 17 19:38:57 2021,600,The main experiment item,yes,KS - FlankerTask (2).osexp,/Users/kaylinsilva/Downloads,no,mono,no,18,no,white,no,yes,768,legacy,7,79,/Users/kaylinsilva/Downloads/KS-subject-1.csv,legacy,Lentiform Loewenfeld,3.3.9,0,h,NA,h,h,NA,h,308,NA,1011,7302,NA,308,2,legacy,1024,2,48000,-16,experiment,1,odd,6436,145257,NA,157944,152434,NA,159516,158448,5403,137954,NA,159513,159620,5394,159620,159929,KS - Flanker Task,63,30656,88,yes,1024
71.91011236,Congruent,HHHHH,71.91011236,348.0337079,348.0337079,black,legacy,legacy,legacy,0,uniform,1,undefined,1,h,0,0,0,88,88,0,88,88,0,0,0,88,88,0,88,88,Fri Sep 17 19:38:57 2021,600,The main experiment item,yes,KS - FlankerTask (2).osexp,/Users/kaylinsilva/Downloads,no,mono,no,18,no,white,no,yes,768,legacy,8,79,/Users/kaylinsilva/Downloads/KS-subject-1.csv,legacy,Lentiform Loewenfeld,3.3.9,0,h,NA,h,h,NA,h,319,NA,1011,7302,NA,319,2,legacy,1024,2,48000,-16,experiment,1,odd,6436,145257,NA,157944,152434,NA,161000,159933,5403,137954,NA,160997,161104,5394,161104,161424,KS - Flanker Task,64,30975,89,yes,1024
72.22222222,Congruent,HHHHH,72.22222222,347.6555556,347.6555556,black,legacy,legacy,legacy,0,uniform,1,undefined,1,h,0,0,0,89,89,0,89,89,0,0,0,89,89,0,89,89,Fri Sep 17 19:38:57 2021,600,The main experiment item,yes,KS - FlankerTask (2).osexp,/Users/kaylinsilva/Downloads,no,mono,no,18,no,white,no,yes,768,legacy,9,79,/Users/kaylinsilva/Downloads/KS-subject-1.csv,legacy,Lentiform Loewenfeld,3.3.9,0,h,NA,h,h,NA,h,314,NA,1011,7302,NA,314,2,legacy,1024,2,48000,-16,experiment,1,odd,6436,145257,NA,157944,152434,NA,162493,161427,5403,137954,NA,162490,162597,5394,162597,162912,KS - Flanker Task,65,31289,90,yes,1024
72.52747253,Congruent,HHHHH,72.52747253,347.0769231,347.0769231,black,legacy,legacy,legacy,0,uniform,1,undefined,1,h,0,0,0,90,90,0,90,90,0,0,0,90,90,0,90,90,Fri Sep 17 19:38:57 2021,600,The main experiment item,yes,KS - FlankerTask (2).osexp,/Users/kaylinsilva/Downloads,no,mono,no,18,no,white,no,yes,768,legacy,10,79,/Users/kaylinsilva/Downloads/KS-subject-1.csv,legacy,Lentiform Loewenfeld,3.3.9,0,h,NA,h,h,NA,h,295,NA,1011,7302,NA,295,2,legacy,1024,2,48000,-16,experiment,1,odd,6436,145257,NA,157944,152434,NA,163981,162915,5403,137954,NA,163978,164086,5394,164086,164382,KS - Flanker Task,66,31584,91,yes,1024
71.73913043,Incongruent,HHSHH,71.73913043,346.423913,346.423913,black,legacy,legacy,legacy,0,uniform,0,undefined,0,s,0,0,0,91,91,0,91,91,0,0,0,91,91,0,91,91,Fri Sep 17 19:38:57 2021,600,The main experiment item,yes,KS - FlankerTask (2).osexp,/Users/kaylinsilva/Downloads,no,mono,no,18,no,white,no,yes,768,legacy,11,79,/Users/kaylinsilva/Downloads/KS-subject-1.csv,legacy,Lentiform Loewenfeld,3.3.9,0,h,NA,h,h,NA,h,287,NA,1011,7302,NA,287,2,legacy,1024,2,48000,-16,experiment,1,odd,6436,145257,NA,157944,152434,NA,165449,164386,5403,137954,NA,165446,165553,5394,165553,165841,KS - Flanker Task,66,31871,92,yes,1024
72.04301075,Congruent,HHHHH,72.04301075,346.1935484,346.1935484,black,legacy,legacy,legacy,0,uniform,1,undefined,1,h,0,0,0,92,92,0,92,92,0,0,0,92,92,0,92,92,Fri Sep 17 19:38:57 2021,600,The main experiment item,yes,KS - FlankerTask (2).osexp,/Users/kaylinsilva/Downloads,no,mono,no,18,no,white,no,yes,768,legacy,12,79,/Users/kaylinsilva/Downloads/KS-subject-1.csv,legacy,Lentiform Loewenfeld,3.3.9,0,h,NA,h,h,NA,h,325,NA,1011,7302,NA,325,2,legacy,1024,2,48000,-16,experiment,1,odd,6436,145257,NA,165844,152434,NA,167415,166349,5403,137954,NA,167412,167519,5394,167519,167845,KS - Flanker Task,67,32196,93,yes,1024
72.34042553,Congruent,SSSSS,72.34042553,346.5851064,346.5851064,black,legacy,legacy,legacy,0,uniform,1,undefined,1,s,0,0,0,93,93,0,93,93,0,0,0,93,93,0,93,93,Fri Sep 17 19:38:57 2021,600,The main experiment item,yes,KS - FlankerTask (2).osexp,/Users/kaylinsilva/Downloads,no,mono,no,18,no,white,no,yes,768,legacy,13,79,/Users/kaylinsilva/Downloads/KS-subject-1.csv,legacy,Lentiform Loewenfeld,3.3.9,0,s,NA,h,h,NA,s,383,NA,1011,7302,NA,383,2,legacy,1024,2,48000,-16,experiment,1,odd,6436,145257,NA,165844,152434,NA,168914,167848,5403,137954,NA,168911,169018,5394,169019,169403,KS - Flanker Task,68,32579,94,yes,1024
72.63157895,Congruent,HHHHH,72.63157895,346.9368421,346.9368421,black,legacy,legacy,legacy,0,uniform,1,undefined,1,h,0,0,0,94,94,0,94,94,0,0,0,94,94,0,94,94,Fri Sep 17 19:38:57 2021,600,The main experiment item,yes,KS - FlankerTask (2).osexp,/Users/kaylinsilva/Downloads,no,mono,no,18,no,white,no,yes,768,legacy,14,79,/Users/kaylinsilva/Downloads/KS-subject-1.csv,legacy,Lentiform Loewenfeld,3.3.9,0,h,NA,h,h,NA,h,380,NA,1011,7302,NA,380,2,legacy,1024,2,48000,-16,experiment,1,odd,6436,145257,NA,165844,152434,NA,170473,169407,5403,137954,NA,170470,170577,5394,170577,170958,KS - Flanker Task,69,32959,95,yes,1024
72.91666667,Incongruent,HHSHH,72.91666667,347.0520833,347.0520833,black,legacy,legacy,legacy,0,uniform,1,undefined,1,s,0,0,0,95,95,0,95,95,0,0,0,95,95,0,95,95,Fri Sep 17 19:38:57 2021,600,The main experiment item,yes,KS - FlankerTask (2).osexp,/Users/kaylinsilva/Downloads,no,mono,no,18,no,white,no,yes,768,legacy,15,79,/Users/kaylinsilva/Downloads/KS-subject-1.csv,legacy,Lentiform Loewenfeld,3.3.9,0,s,NA,h,h,NA,s,358,NA,1011,7302,NA,358,2,legacy,1024,2,48000,-16,experiment,1,odd,6436,145257,NA,165844,152434,NA,172028,170961,5403,137954,NA,172025,172132,5394,172132,172491,KS - Flanker Task,70,33317,96,yes,1024
73.19587629,Congruent,SSSSS,73.19587629,346.8247423,346.8247423,black,legacy,legacy,legacy,0,uniform,1,undefined,1,s,0,0,0,96,96,0,96,96,0,0,0,96,96,0,96,96,Fri Sep 17 19:38:57 2021,600,The main experiment item,yes,KS - FlankerTask (2).osexp,/Users/kaylinsilva/Downloads,no,mono,no,18,no,white,no,yes,768,legacy,16,79,/Users/kaylinsilva/Downloads/KS-subject-1.csv,legacy,Lentiform Loewenfeld,3.3.9,0,s,NA,h,h,NA,s,325,NA,1011,7302,NA,325,2,legacy,1024,2,48000,-16,experiment,1,odd,6436,145257,NA,165844,152434,NA,173560,172494,5403,137954,NA,173557,173664,5394,173664,173990,KS - Flanker Task,71,33642,97,yes,1024
73.46938776,Incongruent,HHSHH,73.46938776,348.2040816,348.2040816,black,legacy,legacy,legacy,0,uniform,1,undefined,1,s,0,0,0,97,97,0,97,97,0,0,0,97,97,0,97,97,Fri Sep 17 19:38:57 2021,600,The main experiment item,yes,KS - FlankerTask (2).osexp,/Users/kaylinsilva/Downloads,no,mono,no,18,no,white,no,yes,768,legacy,17,79,/Users/kaylinsilva/Downloads/KS-subject-1.csv,legacy,Lentiform Loewenfeld,3.3.9,0,s,NA,h,h,NA,s,482,NA,1011,7302,NA,482,2,legacy,1024,2,48000,-16,experiment,1,odd,6436,145257,NA,165844,152434,NA,175060,173993,5403,137954,NA,175056,175164,5394,175164,175647,KS - Flanker Task,72,34124,98,yes,1024
73.73737374,Incongruent,HHSHH,73.73737374,347.7676768,347.7676768,black,legacy,legacy,legacy,0,uniform,1,undefined,1,s,0,0,0,98,98,0,98,98,0,0,0,98,98,0,98,98,Fri Sep 17 19:38:57 2021,600,The main experiment item,yes,KS - FlankerTask (2).osexp,/Users/kaylinsilva/Downloads,no,mono,no,18,no,white,no,yes,768,legacy,18,79,/Users/kaylinsilva/Downloads/KS-subject-1.csv,legacy,Lentiform Loewenfeld,3.3.9,0,s,NA,h,h,NA,s,305,NA,1011,7302,NA,305,2,legacy,1024,2,48000,-16,experiment,1,odd,6436,145257,NA,165844,152434,NA,176716,175650,5403,137954,NA,176713,176820,5394,176820,177126,KS - Flanker Task,73,34429,99,yes,1024
73,Incongruent,SSHSS,73,347.27,347.27,black,legacy,legacy,legacy,0,uniform,0,undefined,0,h,0,0,0,99,99,0,99,99,0,0,0,99,99,0,99,99,Fri Sep 17 19:38:57 2021,600,The main experiment item,yes,KS - FlankerTask (2).osexp,/Users/kaylinsilva/Downloads,no,mono,no,18,no,white,no,yes,768,legacy,19,79,/Users/kaylinsilva/Downloads/KS-subject-1.csv,legacy,Lentiform Loewenfeld,3.3.9,0,s,NA,h,h,NA,s,298,NA,1011,7302,NA,298,2,legacy,1024,2,48000,-16,experiment,1,odd,6436,145257,NA,165844,152434,NA,178196,177129,5403,137954,NA,178193,178299,5394,178300,178598,KS - Flanker Task,73,34727,100,yes,1024
73.26732673,Congruent,HHHHH,73.26732673,346.9207921,346.9207921,black,legacy,legacy,legacy,0,uniform,1,undefined,1,h,0,0,0,100,100,0,100,100,0,0,0,100,100,0,100,100,Fri Sep 17 19:38:57 2021,600,The main experiment item,yes,KS - FlankerTask (2).osexp,/Users/kaylinsilva/Downloads,no,mono,no,18,no,white,no,yes,768,legacy,20,79,/Users/kaylinsilva/Downloads/KS-subject-1.csv,legacy,Lentiform Loewenfeld,3.3.9,0,h,NA,h,h,NA,h,312,NA,1011,7302,NA,312,2,legacy,1024,2,48000,-16,experiment,1,odd,6436,145257,NA,178602,152434,NA,180172,179106,5403,137954,NA,180169,180276,5394,180276,180589,KS - Flanker Task,74,35039,101,yes,1024
73.52941176,Congruent,SSSSS,73.52941176,347.1764706,347.1764706,black,legacy,legacy,legacy,0,uniform,1,undefined,1,s,0,0,0,101,101,0,101,101,0,0,0,101,101,0,101,101,Fri Sep 17 19:38:57 2021,600,The main experiment item,yes,KS - FlankerTask (2).osexp,/Users/kaylinsilva/Downloads,no,mono,no,18,no,white,no,yes,768,legacy,21,79,/Users/kaylinsilva/Downloads/KS-subject-1.csv,legacy,Lentiform Loewenfeld,3.3.9,0,s,NA,h,h,NA,s,373,NA,1011,7302,NA,373,2,legacy,1024,2,48000,-16,experiment,1,odd,6436,145257,NA,178602,152434,NA,181658,180592,5403,137954,NA,181655,181763,5394,181763,182138,KS - Flanker Task,75,35412,102,yes,1024
73.78640777,Incongruent,HHSHH,73.78640777,347.4563107,347.4563107,black,legacy,legacy,legacy,0,uniform,1,undefined,1,s,0,0,0,102,102,0,102,102,0,0,0,102,102,0,102,102,Fri Sep 17 19:38:57 2021,600,The main experiment item,yes,KS - FlankerTask (2).osexp,/Users/kaylinsilva/Downloads,no,mono,no,18,no,white,no,yes,768,legacy,22,79,/Users/kaylinsilva/Downloads/KS-subject-1.csv,legacy,Lentiform Loewenfeld,3.3.9,0,s,NA,h,h,NA,s,376,NA,1011,7302,NA,376,2,legacy,1024,2,48000,-16,experiment,1,odd,6436,145257,NA,178602,152434,NA,183208,182141,5403,137954,NA,183205,183312,5394,183312,183689,KS - Flanker Task,76,35788,103,yes,1024
74.03846154,Incongruent,SSHSS,74.03846154,347.8365385,347.8365385,black,legacy,legacy,legacy,0,uniform,1,undefined,1,h,0,0,0,103,103,0,103,103,0,0,0,103,103,0,103,103,Fri Sep 17 19:38:57 2021,600,The main experiment item,yes,KS - FlankerTask (2).osexp,/Users/kaylinsilva/Downloads,no,mono,no,18,no,white,no,yes,768,legacy,23,79,/Users/kaylinsilva/Downloads/KS-subject-1.csv,legacy,Lentiform Loewenfeld,3.3.9,0,h,NA,h,h,NA,h,387,NA,1011,7302,NA,387,2,legacy,1024,2,48000,-16,experiment,1,odd,6436,145257,NA,178602,152434,NA,184765,183691,5403,137954,NA,184763,184869,5394,184869,185257,KS - Flanker Task,77,36175,104,yes,1024
74.28571429,Incongruent,HHSHH,74.28571429,347.952381,347.952381,black,legacy,legacy,legacy,0,uniform,1,undefined,1,s,0,0,0,104,104,0,104,104,0,0,0,104,104,0,104,104,Fri Sep 17 19:38:57 2021,600,The main experiment item,yes,KS - FlankerTask (2).osexp,/Users/kaylinsilva/Downloads,no,mono,no,18,no,white,no,yes,768,legacy,24,79,/Users/kaylinsilva/Downloads/KS-subject-1.csv,legacy,Lentiform Loewenfeld,3.3.9,0,s,NA,h,h,NA,s,360,NA,1011,7302,NA,360,2,legacy,1024,2,48000,-16,experiment,1,odd,6436,145257,NA,178602,152434,NA,186327,185260,5403,137954,NA,186323,186431,5394,186431,186792,KS - Flanker Task,78,36535,105,yes,1024
74.52830189,Incongruent,HHSHH,74.52830189,347.254717,347.254717,black,legacy,legacy,legacy,0,uniform,1,undefined,1,s,0,0,0,105,105,0,105,105,0,0,0,105,105,0,105,105,Fri Sep 17 19:38:57 2021,600,The main experiment item,yes,KS - FlankerTask (2).osexp,/Users/kaylinsilva/Downloads,no,mono,no,18,no,white,no,yes,768,legacy,25,79,/Users/kaylinsilva/Downloads/KS-subject-1.csv,legacy,Lentiform Loewenfeld,3.3.9,0,s,NA,h,h,NA,s,274,NA,1011,7302,NA,274,2,legacy,1024,2,48000,-16,experiment,1,odd,6436,145257,NA,178602,152434,NA,187863,186796,5403,137954,NA,187860,187967,5394,187967,188242,KS - Flanker Task,79,36809,106,yes,1024
73.8317757,Incongruent,SSHSS,73.8317757,346.4485981,346.4485981,black,legacy,legacy,legacy,0,uniform,0,undefined,0,h,0,0,0,106,106,0,106,106,0,0,0,106,106,0,106,106,Fri Sep 17 19:38:57 2021,600,The main experiment item,yes,KS - FlankerTask (2).osexp,/Users/kaylinsilva/Downloads,no,mono,no,18,no,white,no,yes,768,legacy,26,79,/Users/kaylinsilva/Downloads/KS-subject-1.csv,legacy,Lentiform Loewenfeld,3.3.9,0,s,NA,h,h,NA,s,261,NA,1011,7302,NA,261,2,legacy,1024,2,48000,-16,experiment,1,odd,6436,145257,NA,178602,152434,NA,189311,188245,5403,137954,NA,189308,189415,5394,189416,189678,KS - Flanker Task,79,37070,107,yes,1024
74.07407407,Congruent,HHHHH,74.07407407,346.8981481,346.8981481,black,legacy,legacy,legacy,0,uniform,1,undefined,1,h,0,0,0,107,107,0,107,107,0,0,0,107,107,0,107,107,Fri Sep 17 19:38:57 2021,600,The main experiment item,yes,KS - FlankerTask (2).osexp,/Users/kaylinsilva/Downloads,no,mono,no,18,no,white,no,yes,768,legacy,27,79,/Users/kaylinsilva/Downloads/KS-subject-1.csv,legacy,Lentiform Loewenfeld,3.3.9,0,h,NA,h,h,NA,h,395,NA,1011,7302,NA,395,2,legacy,1024,2,48000,-16,experiment,1,odd,6436,145257,NA,189682,152434,NA,191253,190186,5403,137954,NA,191250,191357,5394,191357,191754,KS - Flanker Task,80,37465,108,yes,1024
74.31192661,Incongruent,SSHSS,74.31192661,346.8348624,346.8348624,black,legacy,legacy,legacy,0,uniform,1,undefined,1,h,0,0,0,108,108,0,108,108,0,0,0,108,108,0,108,108,Fri Sep 17 19:38:57 2021,600,The main experiment item,yes,KS - FlankerTask (2).osexp,/Users/kaylinsilva/Downloads,no,mono,no,18,no,white,no,yes,768,legacy,28,79,/Users/kaylinsilva/Downloads/KS-subject-1.csv,legacy,Lentiform Loewenfeld,3.3.9,0,h,NA,h,h,NA,h,340,NA,1011,7302,NA,340,2,legacy,1024,2,48000,-16,experiment,1,odd,6436,145257,NA,189682,152434,NA,192824,191757,5403,137954,NA,192821,192928,5394,192928,193269,KS - Flanker Task,81,37805,109,yes,1024
74.54545455,Congruent,HHHHH,74.54545455,346.5363636,346.5363636,black,legacy,legacy,legacy,0,uniform,1,undefined,1,h,0,0,0,109,109,0,109,109,0,0,0,109,109,0,109,109,Fri Sep 17 19:38:57 2021,600,The main experiment item,yes,KS - FlankerTask (2).osexp,/Users/kaylinsilva/Downloads,no,mono,no,18,no,white,no,yes,768,legacy,29,79,/Users/kaylinsilva/Downloads/KS-subject-1.csv,legacy,Lentiform Loewenfeld,3.3.9,0,h,NA,h,h,NA,h,314,NA,1011,7302,NA,314,2,legacy,1024,2,48000,-16,experiment,1,odd,6436,145257,NA,189682,152434,NA,194340,193272,5403,137954,NA,194337,194444,5394,194444,194759,KS - Flanker Task,82,38119,110,yes,1024
74.77477477,Congruent,SSSSS,74.77477477,346.8108108,346.8108108,black,legacy,legacy,legacy,0,uniform,1,undefined,1,s,0,0,0,110,110,0,110,110,0,0,0,110,110,0,110,110,Fri Sep 17 19:38:57 2021,600,The main experiment item,yes,KS - FlankerTask (2).osexp,/Users/kaylinsilva/Downloads,no,mono,no,18,no,white,no,yes,768,legacy,30,79,/Users/kaylinsilva/Downloads/KS-subject-1.csv,legacy,Lentiform Loewenfeld,3.3.9,0,s,NA,h,h,NA,s,377,NA,1011,7302,NA,377,2,legacy,1024,2,48000,-16,experiment,1,odd,6436,145257,NA,189682,152434,NA,195829,194762,5403,137954,NA,195826,195933,5394,195933,196311,KS - Flanker Task,83,38496,111,yes,1024
75,Congruent,HHHHH,75,346.6339286,346.6339286,black,legacy,legacy,legacy,0,uniform,1,undefined,1,h,0,0,0,111,111,0,111,111,0,0,0,111,111,0,111,111,Fri Sep 17 19:38:57 2021,600,The main experiment item,yes,KS - FlankerTask (2).osexp,/Users/kaylinsilva/Downloads,no,mono,no,18,no,white,no,yes,768,legacy,31,79,/Users/kaylinsilva/Downloads/KS-subject-1.csv,legacy,Lentiform Loewenfeld,3.3.9,0,h,NA,h,h,NA,h,327,NA,1011,7302,NA,327,2,legacy,1024,2,48000,-16,experiment,1,odd,6436,145257,NA,189682,152434,NA,197381,196314,5403,137954,NA,197377,197485,5394,197485,197813,KS - Flanker Task,84,38823,112,yes,1024
75.22123894,Congruent,SSSSS,75.22123894,346.5575221,346.5575221,black,legacy,legacy,legacy,0,uniform,1,undefined,1,s,0,0,0,112,112,0,112,112,0,0,0,112,112,0,112,112,Fri Sep 17 19:38:57 2021,600,The main experiment item,yes,KS - FlankerTask (2).osexp,/Users/kaylinsilva/Downloads,no,mono,no,18,no,white,no,yes,768,legacy,32,79,/Users/kaylinsilva/Downloads/KS-subject-1.csv,legacy,Lentiform Loewenfeld,3.3.9,0,s,NA,h,h,NA,s,338,NA,1011,7302,NA,338,2,legacy,1024,2,48000,-16,experiment,1,odd,6436,145257,NA,189682,152434,NA,198884,197816,5403,137954,NA,198881,198988,5394,198988,199327,KS - Flanker Task,85,39161,113,yes,1024
74.56140351,Incongruent,HHSHH,74.56140351,346.8245614,346.8245614,black,legacy,legacy,legacy,0,uniform,0,undefined,0,s,0,0,0,113,113,0,113,113,0,0,0,113,113,0,113,113,Fri Sep 17 19:38:57 2021,600,The main experiment item,yes,KS - FlankerTask (2).osexp,/Users/kaylinsilva/Downloads,no,mono,no,18,no,white,no,yes,768,legacy,33,79,/Users/kaylinsilva/Downloads/KS-subject-1.csv,legacy,Lentiform Loewenfeld,3.3.9,0,h,NA,h,h,NA,h,377,NA,1011,7302,NA,377,2,legacy,1024,2,48000,-16,experiment,1,odd,6436,145257,NA,189682,152434,NA,200397,199330,5403,137954,NA,200394,200501,5394,200501,200879,KS - Flanker Task,85,39538,114,yes,1024
74.7826087,Incongruent,SSHSS,74.7826087,347.3043478,347.3043478,black,legacy,legacy,legacy,0,uniform,1,undefined,1,h,0,0,0,114,114,0,114,114,0,0,0,114,114,0,114,114,Fri Sep 17 19:38:57 2021,600,The main experiment item,yes,KS - FlankerTask (2).osexp,/Users/kaylinsilva/Downloads,no,mono,no,18,no,white,no,yes,768,legacy,34,79,/Users/kaylinsilva/Downloads/KS-subject-1.csv,legacy,Lentiform Loewenfeld,3.3.9,0,h,NA,h,h,NA,h,402,NA,1011,7302,NA,402,2,legacy,1024,2,48000,-16,experiment,1,odd,6436,145257,NA,200882,152434,NA,202453,201387,5403,137954,NA,202451,202558,5394,202558,202961,KS - Flanker Task,86,39940,115,yes,1024
75,Congruent,HHHHH,75,347.6034483,347.6034483,black,legacy,legacy,legacy,0,uniform,1,undefined,1,h,0,0,0,115,115,0,115,115,0,0,0,115,115,0,115,115,Fri Sep 17 19:38:57 2021,600,The main experiment item,yes,KS - FlankerTask (2).osexp,/Users/kaylinsilva/Downloads,no,mono,no,18,no,white,no,yes,768,legacy,35,79,/Users/kaylinsilva/Downloads/KS-subject-1.csv,legacy,Lentiform Loewenfeld,3.3.9,0,h,NA,h,h,NA,h,382,NA,1011,7302,NA,382,2,legacy,1024,2,48000,-16,experiment,1,odd,6436,145257,NA,200882,152434,NA,204032,202964,5403,137954,NA,204028,204137,5394,204137,204520,KS - Flanker Task,87,40322,116,yes,1024
74.35897436,Incongruent,HHSHH,74.35897436,347.6239316,347.6239316,black,legacy,legacy,legacy,0,uniform,0,undefined,0,s,0,0,0,116,116,0,116,116,0,0,0,116,116,0,116,116,Fri Sep 17 19:38:57 2021,600,The main experiment item,yes,KS - FlankerTask (2).osexp,/Users/kaylinsilva/Downloads,no,mono,no,18,no,white,no,yes,768,legacy,36,79,/Users/kaylinsilva/Downloads/KS-subject-1.csv,legacy,Lentiform Loewenfeld,3.3.9,0,h,NA,h,h,NA,h,350,NA,1011,7302,NA,350,2,legacy,1024,2,48000,-16,experiment,1,odd,6436,145257,NA,200882,152434,NA,205590,204523,5403,137954,NA,205587,205695,5394,205695,206046,KS - Flanker Task,87,40672,117,yes,1024
74.57627119,Congruent,SSSSS,74.57627119,347.4491525,347.4491525,black,legacy,legacy,legacy,0,uniform,1,undefined,1,s,0,0,0,117,117,0,117,117,0,0,0,117,117,0,117,117,Fri Sep 17 19:38:57 2021,600,The main experiment item,yes,KS - FlankerTask (2).osexp,/Users/kaylinsilva/Downloads,no,mono,no,18,no,white,no,yes,768,legacy,37,79,/Users/kaylinsilva/Downloads/KS-subject-1.csv,legacy,Lentiform Loewenfeld,3.3.9,0,s,NA,h,h,NA,s,327,NA,1011,7302,NA,327,2,legacy,1024,2,48000,-16,experiment,1,odd,6436,145257,NA,206049,152434,NA,207621,206554,5403,137954,NA,207617,207725,5394,207725,208053,KS - Flanker Task,88,40999,118,yes,1024
74.78991597,Congruent,SSSSS,74.78991597,347.2352941,347.2352941,black,legacy,legacy,legacy,0,uniform,1,undefined,1,s,0,0,0,118,118,0,118,118,0,0,0,118,118,0,118,118,Fri Sep 17 19:38:57 2021,600,The main experiment item,yes,KS - FlankerTask (2).osexp,/Users/kaylinsilva/Downloads,no,mono,no,18,no,white,no,yes,768,legacy,38,79,/Users/kaylinsilva/Downloads/KS-subject-1.csv,legacy,Lentiform Loewenfeld,3.3.9,0,s,NA,h,h,NA,s,322,NA,1011,7302,NA,322,2,legacy,1024,2,48000,-16,experiment,1,odd,6436,145257,NA,206049,152434,NA,209123,208056,5403,137954,NA,209120,209227,5394,209227,209550,KS - Flanker Task,89,41321,119,yes,1024
74.16666667,Incongruent,HHSHH,74.16666667,346.9333333,346.9333333,black,legacy,legacy,legacy,0,uniform,0,undefined,0,s,0,0,0,119,119,0,119,119,0,0,0,119,119,0,119,119,Fri Sep 17 19:38:57 2021,600,The main experiment item,yes,KS - FlankerTask (2).osexp,/Users/kaylinsilva/Downloads,no,mono,no,18,no,white,no,yes,768,legacy,39,79,/Users/kaylinsilva/Downloads/KS-subject-1.csv,legacy,Lentiform Loewenfeld,3.3.9,0,h,NA,h,h,NA,h,311,NA,1011,7302,NA,311,2,legacy,1024,2,48000,-16,experiment,1,odd,6436,145257,NA,206049,152434,NA,210621,209554,5403,137954,NA,210618,210725,5394,210725,211037,KS - Flanker Task,89,41632,120,yes,1024
74.38016529,Congruent,SSSSS,74.38016529,346.3636364,346.3636364,black,legacy,legacy,legacy,0,uniform,1,undefined,1,s,0,0,0,120,120,0,120,120,0,0,0,120,120,0,120,120,Fri Sep 17 19:38:57 2021,600,The main experiment item,yes,KS - FlankerTask (2).osexp,/Users/kaylinsilva/Downloads,no,mono,no,18,no,white,no,yes,768,legacy,40,79,/Users/kaylinsilva/Downloads/KS-subject-1.csv,legacy,Lentiform Loewenfeld,3.3.9,0,s,NA,h,h,NA,s,278,NA,1011,7302,NA,278,2,legacy,1024,2,48000,-16,experiment,1,odd,6436,145257,NA,211040,152434,NA,212611,211545,5403,137954,NA,212608,212715,5394,212715,212994,KS - Flanker Task,90,41910,121,yes,1024
74.59016393,Congruent,SSSSS,74.59016393,346.0491803,346.0491803,black,legacy,legacy,legacy,0,uniform,1,undefined,1,s,0,0,0,121,121,0,121,121,0,0,0,121,121,0,121,121,Fri Sep 17 19:38:57 2021,600,The main experiment item,yes,KS - FlankerTask (2).osexp,/Users/kaylinsilva/Downloads,no,mono,no,18,no,white,no,yes,768,legacy,41,79,/Users/kaylinsilva/Downloads/KS-subject-1.csv,legacy,Lentiform Loewenfeld,3.3.9,0,s,NA,h,h,NA,s,308,NA,1011,7302,NA,308,2,legacy,1024,2,48000,-16,experiment,1,odd,6436,145257,NA,211040,152434,NA,214063,212997,5403,137954,NA,214060,214167,5394,214167,214476,KS - Flanker Task,91,42218,122,yes,1024
73.98373984,Incongruent,SSHSS,73.98373984,345.6260163,345.6260163,black,legacy,legacy,legacy,0,uniform,0,undefined,0,h,0,0,0,122,122,0,122,122,0,0,0,122,122,0,122,122,Fri Sep 17 19:38:57 2021,600,The main experiment item,yes,KS - FlankerTask (2).osexp,/Users/kaylinsilva/Downloads,no,mono,no,18,no,white,no,yes,768,legacy,42,79,/Users/kaylinsilva/Downloads/KS-subject-1.csv,legacy,Lentiform Loewenfeld,3.3.9,0,s,NA,h,h,NA,s,294,NA,1011,7302,NA,294,2,legacy,1024,2,48000,-16,experiment,1,odd,6436,145257,NA,211040,152434,NA,215546,214479,5403,137954,NA,215543,215650,5394,215650,215945,KS - Flanker Task,91,42512,123,yes,1024
74.19354839,Incongruent,SSHSS,74.19354839,345.6532258,345.6532258,black,legacy,legacy,legacy,0,uniform,1,undefined,1,h,0,0,0,123,123,0,123,123,0,0,0,123,123,0,123,123,Fri Sep 17 19:38:57 2021,600,The main experiment item,yes,KS - FlankerTask (2).osexp,/Users/kaylinsilva/Downloads,no,mono,no,18,no,white,no,yes,768,legacy,43,79,/Users/kaylinsilva/Downloads/KS-subject-1.csv,legacy,Lentiform Loewenfeld,3.3.9,0,h,NA,h,h,NA,h,349,NA,1011,7302,NA,349,2,legacy,1024,2,48000,-16,experiment,1,odd,6436,145257,NA,215948,152434,NA,217520,216452,5403,137954,NA,217516,217624,5394,217624,217974,KS - Flanker Task,92,42861,124,yes,1024
74.4,Incongruent,SSHSS,74.4,345.304,345.304,black,legacy,legacy,legacy,0,uniform,1,undefined,1,h,0,0,0,124,124,0,124,124,0,0,0,124,124,0,124,124,Fri Sep 17 19:38:57 2021,600,The main experiment item,yes,KS - FlankerTask (2).osexp,/Users/kaylinsilva/Downloads,no,mono,no,18,no,white,no,yes,768,legacy,44,79,/Users/kaylinsilva/Downloads/KS-subject-1.csv,legacy,Lentiform Loewenfeld,3.3.9,0,h,NA,h,h,NA,h,302,NA,1011,7302,NA,302,2,legacy,1024,2,48000,-16,experiment,1,odd,6436,145257,NA,215948,152434,NA,219043,217977,5403,137954,NA,219040,219147,5394,219147,219450,KS - Flanker Task,93,43163,125,yes,1024
74.6031746,Congruent,SSSSS,74.6031746,345.3492063,345.3492063,black,legacy,legacy,legacy,0,uniform,1,undefined,1,s,0,0,0,125,125,0,125,125,0,0,0,125,125,0,125,125,Fri Sep 17 19:38:57 2021,600,The main experiment item,yes,KS - FlankerTask (2).osexp,/Users/kaylinsilva/Downloads,no,mono,no,18,no,white,no,yes,768,legacy,45,79,/Users/kaylinsilva/Downloads/KS-subject-1.csv,legacy,Lentiform Loewenfeld,3.3.9,0,s,NA,h,h,NA,s,351,NA,1011,7302,NA,351,2,legacy,1024,2,48000,-16,experiment,1,odd,6436,145257,NA,215948,152434,NA,220522,219454,5403,137954,NA,220519,220625,5394,220625,220977,KS - Flanker Task,94,43514,126,yes,1024
74.01574803,Congruent,HHHHH,74.01574803,344.6614173,344.6614173,black,legacy,legacy,legacy,0,uniform,0,undefined,0,h,0,0,0,126,126,0,126,126,0,0,0,126,126,0,126,126,Fri Sep 17 19:38:57 2021,600,The main experiment item,yes,KS - FlankerTask (2).osexp,/Users/kaylinsilva/Downloads,no,mono,no,18,no,white,no,yes,768,legacy,46,79,/Users/kaylinsilva/Downloads/KS-subject-1.csv,legacy,Lentiform Loewenfeld,3.3.9,0,s,NA,h,h,NA,s,258,NA,1011,7302,NA,258,2,legacy,1024,2,48000,-16,experiment,1,odd,6436,145257,NA,215948,152434,NA,222046,220980,5403,137954,NA,222043,222151,5394,222151,222410,KS - Flanker Task,94,43772,127,yes,1024
74.21875,Incongruent,SSHSS,74.21875,343.3671875,343.3671875,black,legacy,legacy,legacy,0,uniform,1,undefined,1,h,0,0,0,127,127,0,127,127,0,0,0,127,127,0,127,127,Fri Sep 17 19:38:57 2021,600,The main experiment item,yes,KS - FlankerTask (2).osexp,/Users/kaylinsilva/Downloads,no,mono,no,18,no,white,no,yes,768,legacy,47,79,/Users/kaylinsilva/Downloads/KS-subject-1.csv,legacy,Lentiform Loewenfeld,3.3.9,0,h,NA,h,h,NA,h,179,NA,1011,7302,NA,179,2,legacy,1024,2,48000,-16,experiment,1,odd,6436,145257,NA,222413,152434,NA,223984,222917,5403,137954,NA,223981,224088,5394,224088,224268,KS - Flanker Task,95,43951,128,yes,1024
74.41860465,Congruent,SSSSS,74.41860465,343.4418605,343.4418605,black,legacy,legacy,legacy,0,uniform,1,undefined,1,s,0,0,0,128,128,0,128,128,0,0,0,128,128,0,128,128,Fri Sep 17 19:38:57 2021,600,The main experiment item,yes,KS - FlankerTask (2).osexp,/Users/kaylinsilva/Downloads,no,mono,no,18,no,white,no,yes,768,legacy,48,79,/Users/kaylinsilva/Downloads/KS-subject-1.csv,legacy,Lentiform Loewenfeld,3.3.9,0,s,NA,h,h,NA,s,353,NA,1011,7302,NA,353,2,legacy,1024,2,48000,-16,experiment,1,odd,6436,145257,NA,222413,152434,NA,225339,224271,5403,137954,NA,225336,225443,5394,225444,225798,KS - Flanker Task,96,44304,129,yes,1024
74.61538462,Congruent,HHHHH,74.61538462,343.1307692,343.1307692,black,legacy,legacy,legacy,0,uniform,1,undefined,1,h,0,0,0,129,129,0,129,129,0,0,0,129,129,0,129,129,Fri Sep 17 19:38:57 2021,600,The main experiment item,yes,KS - FlankerTask (2).osexp,/Users/kaylinsilva/Downloads,no,mono,no,18,no,white,no,yes,768,legacy,49,79,/Users/kaylinsilva/Downloads/KS-subject-1.csv,legacy,Lentiform Loewenfeld,3.3.9,0,h,NA,h,h,NA,h,303,NA,1011,7302,NA,303,2,legacy,1024,2,48000,-16,experiment,1,odd,6436,145257,NA,222413,152434,NA,226867,225801,5403,137954,NA,226864,226971,5394,226971,227275,KS - Flanker Task,97,44607,130,yes,1024
74.80916031,Congruent,SSSSS,74.80916031,342.8167939,342.8167939,black,legacy,legacy,legacy,0,uniform,1,undefined,1,s,0,0,0,130,130,0,130,130,0,0,0,130,130,0,130,130,Fri Sep 17 19:38:57 2021,600,The main experiment item,yes,KS - FlankerTask (2).osexp,/Users/kaylinsilva/Downloads,no,mono,no,18,no,white,no,yes,768,legacy,50,79,/Users/kaylinsilva/Downloads/KS-subject-1.csv,legacy,Lentiform Loewenfeld,3.3.9,0,s,NA,h,h,NA,s,302,NA,1011,7302,NA,302,2,legacy,1024,2,48000,-16,experiment,1,odd,6436,145257,NA,222413,152434,NA,228345,227278,5403,137954,NA,228342,228449,5394,228449,228752,KS - Flanker Task,98,44909,131,yes,1024
75,Congruent,SSSSS,75,342.5227273,342.5227273,black,legacy,legacy,legacy,0,uniform,1,undefined,1,s,0,0,0,131,131,0,131,131,0,0,0,131,131,0,131,131,Fri Sep 17 19:38:57 2021,600,The main experiment item,yes,KS - FlankerTask (2).osexp,/Users/kaylinsilva/Downloads,no,mono,no,18,no,white,no,yes,768,legacy,51,79,/Users/kaylinsilva/Downloads/KS-subject-1.csv,legacy,Lentiform Loewenfeld,3.3.9,0,s,NA,h,h,NA,s,304,NA,1011,7302,NA,304,2,legacy,1024,2,48000,-16,experiment,1,odd,6436,145257,NA,222413,152434,NA,229822,228756,5403,137954,NA,229819,229926,5394,229926,230231,KS - Flanker Task,99,45213,132,yes,1024
74.43609023,Incongruent,SSHSS,74.43609023,341.9548872,341.9548872,black,legacy,legacy,legacy,0,uniform,0,undefined,0,h,0,0,0,132,132,0,132,132,0,0,0,132,132,0,132,132,Fri Sep 17 19:38:57 2021,600,The main experiment item,yes,KS - FlankerTask (2).osexp,/Users/kaylinsilva/Downloads,no,mono,no,18,no,white,no,yes,768,legacy,52,79,/Users/kaylinsilva/Downloads/KS-subject-1.csv,legacy,Lentiform Loewenfeld,3.3.9,0,s,NA,h,h,NA,s,267,NA,1011,7302,NA,267,2,legacy,1024,2,48000,-16,experiment,1,odd,6436,145257,NA,222413,152434,NA,231301,230234,5403,137954,NA,231297,231405,5394,231405,231673,KS - Flanker Task,99,45480,133,yes,1024
73.88059701,Incongruent,HHSHH,73.88059701,341.2238806,341.2238806,black,legacy,legacy,legacy,0,uniform,0,undefined,0,s,0,0,0,133,133,0,133,133,0,0,0,133,133,0,133,133,Fri Sep 17 19:38:57 2021,600,The main experiment item,yes,KS - FlankerTask (2).osexp,/Users/kaylinsilva/Downloads,no,mono,no,18,no,white,no,yes,768,legacy,53,79,/Users/kaylinsilva/Downloads/KS-subject-1.csv,legacy,Lentiform Loewenfeld,3.3.9,0,h,NA,h,h,NA,h,244,NA,1011,7302,NA,244,2,legacy,1024,2,48000,-16,experiment,1,odd,6436,145257,NA,231677,152434,NA,233249,232182,5403,137954,NA,233246,233353,5394,233354,233599,KS - Flanker Task,99,45724,134,yes,1024
73.33333333,Incongruent,HHSHH,73.33333333,341.7851852,341.7851852,black,legacy,legacy,legacy,0,uniform,0,undefined,0,s,0,0,0,134,134,0,134,134,0,0,0,134,134,0,134,134,Fri Sep 17 19:38:57 2021,600,The main experiment item,yes,KS - FlankerTask (2).osexp,/Users/kaylinsilva/Downloads,no,mono,no,18,no,white,no,yes,768,legacy,54,79,/Users/kaylinsilva/Downloads/KS-subject-1.csv,legacy,Lentiform Loewenfeld,3.3.9,0,h,NA,h,h,NA,h,417,NA,1011,7302,NA,417,2,legacy,1024,2,48000,-16,experiment,1,odd,6436,145257,NA,233603,152434,NA,235175,234108,5403,137954,NA,235172,235279,5394,235279,235697,KS - Flanker Task,99,46141,135,yes,1024
73.52941176,Congruent,HHHHH,73.52941176,341.7941176,341.7941176,black,legacy,legacy,legacy,0,uniform,1,undefined,1,h,0,0,0,135,135,0,135,135,0,0,0,135,135,0,135,135,Fri Sep 17 19:38:57 2021,600,The main experiment item,yes,KS - FlankerTask (2).osexp,/Users/kaylinsilva/Downloads,no,mono,no,18,no,white,no,yes,768,legacy,55,79,/Users/kaylinsilva/Downloads/KS-subject-1.csv,legacy,Lentiform Loewenfeld,3.3.9,0,h,NA,h,h,NA,h,343,NA,1011,7302,NA,343,2,legacy,1024,2,48000,-16,experiment,1,odd,6436,145257,NA,235701,152434,NA,237272,236205,5403,137954,NA,237269,237376,5394,237376,237720,KS - Flanker Task,100,46484,136,yes,1024
73.72262774,Congruent,SSSSS,73.72262774,341.5182482,341.5182482,black,legacy,legacy,legacy,0,uniform,1,undefined,1,s,0,0,0,136,136,0,136,136,0,0,0,136,136,0,136,136,Fri Sep 17 19:38:57 2021,600,The main experiment item,yes,KS - FlankerTask (2).osexp,/Users/kaylinsilva/Downloads,no,mono,no,18,no,white,no,yes,768,legacy,56,79,/Users/kaylinsilva/Downloads/KS-subject-1.csv,legacy,Lentiform Loewenfeld,3.3.9,0,s,NA,h,h,NA,s,304,NA,1011,7302,NA,304,2,legacy,1024,2,48000,-16,experiment,1,odd,6436,145257,NA,235701,152434,NA,238791,237723,5403,137954,NA,238787,238895,5394,238895,239200,KS - Flanker Task,101,46788,137,yes,1024
73.1884058,Incongruent,SSHSS,73.1884058,341.2318841,341.2318841,black,legacy,legacy,legacy,0,uniform,0,undefined,0,h,0,0,0,137,137,0,137,137,0,0,0,137,137,0,137,137,Fri Sep 17 19:38:57 2021,600,The main experiment item,yes,KS - FlankerTask (2).osexp,/Users/kaylinsilva/Downloads,no,mono,no,18,no,white,no,yes,768,legacy,57,79,/Users/kaylinsilva/Downloads/KS-subject-1.csv,legacy,Lentiform Loewenfeld,3.3.9,0,s,NA,h,h,NA,s,302,NA,1011,7302,NA,302,2,legacy,1024,2,48000,-16,experiment,1,odd,6436,145257,NA,235701,152434,NA,240270,239203,5403,137954,NA,240267,240374,5394,240374,240677,KS - Flanker Task,101,47090,138,yes,1024
73.38129496,Congruent,HHHHH,73.38129496,340.8489209,340.8489209,black,legacy,legacy,legacy,0,uniform,1,undefined,1,h,0,0,0,138,138,0,138,138,0,0,0,138,138,0,138,138,Fri Sep 17 19:38:57 2021,600,The main experiment item,yes,KS - FlankerTask (2).osexp,/Users/kaylinsilva/Downloads,no,mono,no,18,no,white,no,yes,768,legacy,58,79,/Users/kaylinsilva/Downloads/KS-subject-1.csv,legacy,Lentiform Loewenfeld,3.3.9,0,h,NA,h,h,NA,h,288,NA,1011,7302,NA,288,2,legacy,1024,2,48000,-16,experiment,1,odd,6436,145257,NA,240680,152434,NA,242251,241184,5403,137954,NA,242248,242356,5394,242356,242645,KS - Flanker Task,102,47378,139,yes,1024
73.57142857,Incongruent,SSHSS,73.57142857,340.6571429,340.6571429,black,legacy,legacy,legacy,0,uniform,1,undefined,1,h,0,0,0,139,139,0,139,139,0,0,0,139,139,0,139,139,Fri Sep 17 19:38:57 2021,600,The main experiment item,yes,KS - FlankerTask (2).osexp,/Users/kaylinsilva/Downloads,no,mono,no,18,no,white,no,yes,768,legacy,59,79,/Users/kaylinsilva/Downloads/KS-subject-1.csv,legacy,Lentiform Loewenfeld,3.3.9,0,h,NA,h,h,NA,h,314,NA,1011,7302,NA,314,2,legacy,1024,2,48000,-16,experiment,1,odd,6436,145257,NA,240680,152434,NA,243716,242648,5403,137954,NA,243712,243820,5394,243820,244135,KS - Flanker Task,103,47692,140,yes,1024
73.75886525,Congruent,SSSSS,73.75886525,341.1702128,341.1702128,black,legacy,legacy,legacy,0,uniform,1,undefined,1,s,0,0,0,140,140,0,140,140,0,0,0,140,140,0,140,140,Fri Sep 17 19:38:57 2021,600,The main experiment item,yes,KS - FlankerTask (2).osexp,/Users/kaylinsilva/Downloads,no,mono,no,18,no,white,no,yes,768,legacy,60,79,/Users/kaylinsilva/Downloads/KS-subject-1.csv,legacy,Lentiform Loewenfeld,3.3.9,0,s,NA,h,h,NA,s,413,NA,1011,7302,NA,413,2,legacy,1024,2,48000,-16,experiment,1,odd,6436,145257,NA,240680,152434,NA,245205,244138,5403,137954,NA,245202,245309,5394,245310,245724,KS - Flanker Task,104,48105,141,yes,1024
73.94366197,Incongruent,HHSHH,73.94366197,341.028169,341.028169,black,legacy,legacy,legacy,0,uniform,1,undefined,1,s,0,0,0,141,141,0,141,141,0,0,0,141,141,0,141,141,Fri Sep 17 19:38:57 2021,600,The main experiment item,yes,KS - FlankerTask (2).osexp,/Users/kaylinsilva/Downloads,no,mono,no,18,no,white,no,yes,768,legacy,61,79,/Users/kaylinsilva/Downloads/KS-subject-1.csv,legacy,Lentiform Loewenfeld,3.3.9,0,s,NA,h,h,NA,s,321,NA,1011,7302,NA,321,2,legacy,1024,2,48000,-16,experiment,1,odd,6436,145257,NA,240680,152434,NA,246794,245727,5403,137954,NA,246791,246898,5394,246898,247221,KS - Flanker Task,105,48426,142,yes,1024
74.12587413,Incongruent,SSHSS,74.12587413,341.5314685,341.5314685,black,legacy,legacy,legacy,0,uniform,1,undefined,1,h,0,0,0,142,142,0,142,142,0,0,0,142,142,0,142,142,Fri Sep 17 19:38:57 2021,600,The main experiment item,yes,KS - FlankerTask (2).osexp,/Users/kaylinsilva/Downloads,no,mono,no,18,no,white,no,yes,768,legacy,62,79,/Users/kaylinsilva/Downloads/KS-subject-1.csv,legacy,Lentiform Loewenfeld,3.3.9,0,h,NA,h,h,NA,h,413,NA,1011,7302,NA,413,2,legacy,1024,2,48000,-16,experiment,1,odd,6436,145257,NA,240680,152434,NA,248290,247224,5403,137954,NA,248287,248394,5394,248394,248808,KS - Flanker Task,106,48839,143,yes,1024
74.30555556,Congruent,HHHHH,74.30555556,341.4166667,341.4166667,black,legacy,legacy,legacy,0,uniform,1,undefined,1,h,0,0,0,143,143,0,143,143,0,0,0,143,143,0,143,143,Fri Sep 17 19:38:57 2021,600,The main experiment item,yes,KS - FlankerTask (2).osexp,/Users/kaylinsilva/Downloads,no,mono,no,18,no,white,no,yes,768,legacy,63,79,/Users/kaylinsilva/Downloads/KS-subject-1.csv,legacy,Lentiform Loewenfeld,3.3.9,0,h,NA,h,h,NA,h,325,NA,1011,7302,NA,325,2,legacy,1024,2,48000,-16,experiment,1,odd,6436,145257,NA,240680,152434,NA,249879,248811,5403,137954,NA,249875,249983,5394,249983,250309,KS - Flanker Task,107,49164,144,yes,1024
74.48275862,Incongruent,HHSHH,74.48275862,340.7034483,340.7034483,black,legacy,legacy,legacy,0,uniform,1,undefined,1,s,0,0,0,144,144,0,144,144,0,0,0,144,144,0,144,144,Fri Sep 17 19:38:57 2021,600,The main experiment item,yes,KS - FlankerTask (2).osexp,/Users/kaylinsilva/Downloads,no,mono,no,18,no,white,no,yes,768,legacy,64,79,/Users/kaylinsilva/Downloads/KS-subject-1.csv,legacy,Lentiform Loewenfeld,3.3.9,0,s,NA,h,h,NA,s,238,NA,1011,7302,NA,238,2,legacy,1024,2,48000,-16,experiment,1,odd,6436,145257,NA,240680,152434,NA,251382,250313,5403,137954,NA,251378,251486,5394,251487,251726,KS - Flanker Task,108,49402,145,yes,1024
73.97260274,Incongruent,SSHSS,73.97260274,340.4246575,340.4246575,black,legacy,legacy,legacy,0,uniform,0,undefined,0,h,0,0,0,145,145,0,145,145,0,0,0,145,145,0,145,145,Fri Sep 17 19:38:57 2021,600,The main experiment item,yes,KS - FlankerTask (2).osexp,/Users/kaylinsilva/Downloads,no,mono,no,18,no,white,no,yes,768,legacy,65,79,/Users/kaylinsilva/Downloads/KS-subject-1.csv,legacy,Lentiform Loewenfeld,3.3.9,0,s,NA,h,h,NA,s,300,NA,1011,7302,NA,300,2,legacy,1024,2,48000,-16,experiment,1,odd,6436,145257,NA,240680,152434,NA,252796,251730,5403,137954,NA,252793,252900,5394,252900,253201,KS - Flanker Task,108,49702,146,yes,1024
74.14965986,Congruent,HHHHH,74.14965986,340.4489796,340.4489796,black,legacy,legacy,legacy,0,uniform,1,undefined,1,h,0,0,0,146,146,0,146,146,0,0,0,146,146,0,146,146,Fri Sep 17 19:38:57 2021,600,The main experiment item,yes,KS - FlankerTask (2).osexp,/Users/kaylinsilva/Downloads,no,mono,no,18,no,white,no,yes,768,legacy,66,79,/Users/kaylinsilva/Downloads/KS-subject-1.csv,legacy,Lentiform Loewenfeld,3.3.9,0,h,NA,h,h,NA,h,344,NA,1011,7302,NA,344,2,legacy,1024,2,48000,-16,experiment,1,odd,6436,145257,NA,253205,152434,NA,254776,253710,5403,137954,NA,254773,254880,5394,254880,255225,KS - Flanker Task,109,50046,147,yes,1024
73.64864865,Incongruent,SSHSS,73.64864865,340.4864865,340.4864865,black,legacy,legacy,legacy,0,uniform,0,undefined,0,h,0,0,0,147,147,0,147,147,0,0,0,147,147,0,147,147,Fri Sep 17 19:38:57 2021,600,The main experiment item,yes,KS - FlankerTask (2).osexp,/Users/kaylinsilva/Downloads,no,mono,no,18,no,white,no,yes,768,legacy,67,79,/Users/kaylinsilva/Downloads/KS-subject-1.csv,legacy,Lentiform Loewenfeld,3.3.9,0,s,NA,h,h,NA,s,346,NA,1011,7302,NA,346,2,legacy,1024,2,48000,-16,experiment,1,odd,6436,145257,NA,253205,152434,NA,256295,255228,5403,137954,NA,256291,256399,5394,256399,256746,KS - Flanker Task,109,50392,148,yes,1024
73.82550336,Incongruent,SSHSS,73.82550336,339.9932886,339.9932886,black,legacy,legacy,legacy,0,uniform,1,undefined,1,h,0,0,0,148,148,0,148,148,0,0,0,148,148,0,148,148,Fri Sep 17 19:38:57 2021,600,The main experiment item,yes,KS - FlankerTask (2).osexp,/Users/kaylinsilva/Downloads,no,mono,no,18,no,white,no,yes,768,legacy,68,79,/Users/kaylinsilva/Downloads/KS-subject-1.csv,legacy,Lentiform Loewenfeld,3.3.9,0,h,NA,h,h,NA,h,267,NA,1011,7302,NA,267,2,legacy,1024,2,48000,-16,experiment,1,odd,6436,145257,NA,256749,152434,NA,258321,257254,5403,137954,NA,258318,258425,5394,258425,258693,KS - Flanker Task,110,50659,149,yes,1024
74,Incongruent,SSHSS,74,340.2333333,340.2333333,black,legacy,legacy,legacy,0,uniform,1,undefined,1,h,0,0,0,149,149,0,149,149,0,0,0,149,149,0,149,149,Fri Sep 17 19:38:57 2021,600,The main experiment item,yes,KS - FlankerTask (2).osexp,/Users/kaylinsilva/Downloads,no,mono,no,18,no,white,no,yes,768,legacy,69,79,/Users/kaylinsilva/Downloads/KS-subject-1.csv,legacy,Lentiform Loewenfeld,3.3.9,0,h,NA,h,h,NA,h,376,NA,1011,7302,NA,376,2,legacy,1024,2,48000,-16,experiment,1,odd,6436,145257,NA,256749,152434,NA,259763,258696,5403,137954,NA,259759,259867,5394,259868,260245,KS - Flanker Task,111,51035,150,yes,1024
74.17218543,Congruent,HHHHH,74.17218543,340.0596026,340.0596026,black,legacy,legacy,legacy,0,uniform,1,undefined,1,h,0,0,0,150,150,0,150,150,0,0,0,150,150,0,150,150,Fri Sep 17 19:38:57 2021,600,The main experiment item,yes,KS - FlankerTask (2).osexp,/Users/kaylinsilva/Downloads,no,mono,no,18,no,white,no,yes,768,legacy,70,79,/Users/kaylinsilva/Downloads/KS-subject-1.csv,legacy,Lentiform Loewenfeld,3.3.9,0,h,NA,h,h,NA,h,314,NA,1011,7302,NA,314,2,legacy,1024,2,48000,-16,experiment,1,odd,6436,145257,NA,256749,152434,NA,261315,260248,5403,137954,NA,261312,261419,5394,261419,261734,KS - Flanker Task,112,51349,151,yes,1024
74.34210526,Incongruent,HHSHH,74.34210526,340.5460526,340.5460526,black,legacy,legacy,legacy,0,uniform,1,undefined,1,s,0,0,0,151,151,0,151,151,0,0,0,151,151,0,151,151,Fri Sep 17 19:38:57 2021,600,The main experiment item,yes,KS - FlankerTask (2).osexp,/Users/kaylinsilva/Downloads,no,mono,no,18,no,white,no,yes,768,legacy,71,79,/Users/kaylinsilva/Downloads/KS-subject-1.csv,legacy,Lentiform Loewenfeld,3.3.9,0,s,NA,h,h,NA,s,414,NA,1011,7302,NA,414,2,legacy,1024,2,48000,-16,experiment,1,odd,6436,145257,NA,256749,152434,NA,262805,261737,5403,137954,NA,262801,262909,5394,262909,263324,KS - Flanker Task,113,51763,152,yes,1024
74.50980392,Incongruent,HHSHH,74.50980392,340.6405229,340.6405229,black,legacy,legacy,legacy,0,uniform,1,undefined,1,s,0,0,0,152,152,0,152,152,0,0,0,152,152,0,152,152,Fri Sep 17 19:38:57 2021,600,The main experiment item,yes,KS - FlankerTask (2).osexp,/Users/kaylinsilva/Downloads,no,mono,no,18,no,white,no,yes,768,legacy,72,79,/Users/kaylinsilva/Downloads/KS-subject-1.csv,legacy,Lentiform Loewenfeld,3.3.9,0,s,NA,h,h,NA,s,355,NA,1011,7302,NA,355,2,legacy,1024,2,48000,-16,experiment,1,odd,6436,145257,NA,256749,152434,NA,264394,263327,5403,137954,NA,264391,264498,5394,264498,264854,KS - Flanker Task,114,52118,153,yes,1024
74.67532468,Incongruent,HHSHH,74.67532468,340.6298701,340.6298701,black,legacy,legacy,legacy,0,uniform,1,undefined,1,s,0,0,0,153,153,0,153,153,0,0,0,153,153,0,153,153,Fri Sep 17 19:38:57 2021,600,The main experiment item,yes,KS - FlankerTask (2).osexp,/Users/kaylinsilva/Downloads,no,mono,no,18,no,white,no,yes,768,legacy,73,79,/Users/kaylinsilva/Downloads/KS-subject-1.csv,legacy,Lentiform Loewenfeld,3.3.9,0,s,NA,h,h,NA,s,339,NA,1011,7302,NA,339,2,legacy,1024,2,48000,-16,experiment,1,odd,6436,145257,NA,256749,152434,NA,265923,264857,5403,137954,NA,265920,266027,5394,266027,266367,KS - Flanker Task,115,52457,154,yes,1024
74.83870968,Incongruent,HHSHH,74.83870968,340.483871,340.483871,black,legacy,legacy,legacy,0,uniform,1,undefined,1,s,0,0,0,154,154,0,154,154,0,0,0,154,154,0,154,154,Fri Sep 17 19:38:57 2021,600,The main experiment item,yes,KS - FlankerTask (2).osexp,/Users/kaylinsilva/Downloads,no,mono,no,18,no,white,no,yes,768,legacy,74,79,/Users/kaylinsilva/Downloads/KS-subject-1.csv,legacy,Lentiform Loewenfeld,3.3.9,0,s,NA,h,h,NA,s,318,NA,1011,7302,NA,318,2,legacy,1024,2,48000,-16,experiment,1,odd,6436,145257,NA,256749,152434,NA,267437,266370,5403,137954,NA,267434,267541,5394,267541,267860,KS - Flanker Task,116,52775,155,yes,1024
75,Congruent,SSSSS,75,340.0384615,340.0384615,black,legacy,legacy,legacy,0,uniform,1,undefined,1,s,0,0,0,155,155,0,155,155,0,0,0,155,155,0,155,155,Fri Sep 17 19:38:57 2021,600,The main experiment item,yes,KS - FlankerTask (2).osexp,/Users/kaylinsilva/Downloads,no,mono,no,18,no,white,no,yes,768,legacy,75,79,/Users/kaylinsilva/Downloads/KS-subject-1.csv,legacy,Lentiform Loewenfeld,3.3.9,0,s,NA,h,h,NA,s,271,NA,1011,7302,NA,271,2,legacy,1024,2,48000,-16,experiment,1,odd,6436,145257,NA,256749,152434,NA,268929,267863,5403,137954,NA,268926,269033,5394,269033,269306,KS - Flanker Task,117,53046,156,yes,1024
75.15923567,Congruent,SSSSS,75.15923567,339.4585987,339.4585987,black,legacy,legacy,legacy,0,uniform,1,undefined,1,s,0,0,0,156,156,0,156,156,0,0,0,156,156,0,156,156,Fri Sep 17 19:38:57 2021,600,The main experiment item,yes,KS - FlankerTask (2).osexp,/Users/kaylinsilva/Downloads,no,mono,no,18,no,white,no,yes,768,legacy,76,79,/Users/kaylinsilva/Downloads/KS-subject-1.csv,legacy,Lentiform Loewenfeld,3.3.9,0,s,NA,h,h,NA,s,249,NA,1011,7302,NA,249,2,legacy,1024,2,48000,-16,experiment,1,odd,6436,145257,NA,256749,152434,NA,270375,269309,5403,137954,NA,270372,270479,5394,270479,270729,KS - Flanker Task,118,53295,157,yes,1024
74.6835443,Congruent,HHHHH,74.6835443,338.7974684,338.7974684,black,legacy,legacy,legacy,0,uniform,0,undefined,0,h,0,0,0,157,157,0,157,157,0,0,0,157,157,0,157,157,Fri Sep 17 19:38:57 2021,600,The main experiment item,yes,KS - FlankerTask (2).osexp,/Users/kaylinsilva/Downloads,no,mono,no,18,no,white,no,yes,768,legacy,77,79,/Users/kaylinsilva/Downloads/KS-subject-1.csv,legacy,Lentiform Loewenfeld,3.3.9,0,s,NA,h,h,NA,s,235,NA,1011,7302,NA,235,2,legacy,1024,2,48000,-16,experiment,1,odd,6436,145257,NA,256749,152434,NA,271798,270732,5403,137954,NA,271795,271902,5394,271902,272138,KS - Flanker Task,118,53530,158,yes,1024
74.8427673,Congruent,SSSSS,74.8427673,338.7987421,338.7987421,black,legacy,legacy,legacy,0,uniform,1,undefined,1,s,0,0,0,158,158,0,158,158,0,0,0,158,158,0,158,158,Fri Sep 17 19:38:57 2021,600,The main experiment item,yes,KS - FlankerTask (2).osexp,/Users/kaylinsilva/Downloads,no,mono,no,18,no,white,no,yes,768,legacy,78,79,/Users/kaylinsilva/Downloads/KS-subject-1.csv,legacy,Lentiform Loewenfeld,3.3.9,0,s,NA,h,h,NA,s,339,NA,1011,7302,NA,339,2,legacy,1024,2,48000,-16,experiment,1,odd,6436,145257,NA,272141,152434,NA,273714,272647,5403,137954,NA,273711,273818,5394,273819,274159,KS - Flanker Task,119,53869,159,yes,1024
75,Congruent,HHHHH,75,338.04375,338.04375,black,legacy,legacy,legacy,0,uniform,1,undefined,1,h,0,0,0,159,159,0,159,159,0,0,0,159,159,0,159,159,Fri Sep 17 19:38:57 2021,600,The main experiment item,yes,KS - FlankerTask (2).osexp,/Users/kaylinsilva/Downloads,no,mono,no,18,no,white,no,yes,768,legacy,79,79,/Users/kaylinsilva/Downloads/KS-subject-1.csv,legacy,Lentiform Loewenfeld,3.3.9,0,h,NA,h,h,NA,h,218,NA,1011,7302,NA,218,2,legacy,1024,2,48000,-16,experiment,1,odd,6436,145257,NA,272141,152434,NA,275228,274161,5403,137954,NA,275225,275333,5394,275333,275552,KS - Flanker Task,120,54087,160,yes,1024
75.1552795,Incongruent,SSHSS,75.1552795,338.6335404,338.6335404,black,legacy,legacy,legacy,0,uniform,1,undefined,1,h,0,0,0,160,160,0,160,160,0,0,0,160,160,0,160,160,Fri Sep 17 19:38:57 2021,300,The main experiment item,yes,KS - FlankerTask (2).osexp,/Users/kaylinsilva/Downloads,no,mono,no,18,no,white,no,yes,768,legacy,0,79,/Users/kaylinsilva/Downloads/KS-subject-1.csv,legacy,Lentiform Loewenfeld,3.3.9,0,h,NA,h,h,h,h,433,NA,1011,7302,7193,433,2,legacy,1024,2,48000,-16,experiment,1,odd,6436,145257,283782,272141,152434,NA,283809,275555,5403,137954,276587,283807,283914,5394,283914,284348,KS - Flanker Task,121,54520,161,yes,1024
74.69135802,Incongruent,SSHSS,74.69135802,337.9814815,337.9814815,black,legacy,legacy,legacy,0,uniform,0,undefined,0,h,0,0,0,161,161,0,161,161,0,0,0,161,161,0,161,161,Fri Sep 17 19:38:57 2021,300,The main experiment item,yes,KS - FlankerTask (2).osexp,/Users/kaylinsilva/Downloads,no,mono,no,18,no,white,no,yes,768,legacy,1,79,/Users/kaylinsilva/Downloads/KS-subject-1.csv,legacy,Lentiform Loewenfeld,3.3.9,0,s,NA,h,h,h,s,233,NA,1011,7302,7193,233,2,legacy,1024,2,48000,-16,experiment,1,odd,6436,145257,283782,272141,284352,NA,285925,284857,5403,137954,276587,285922,286029,5394,286029,286264,KS - Flanker Task,121,54753,162,yes,1024
