condition,Stimulus,acc,accuracy,average_response_time,avg_rt,background,canvas_backend,clock_backend,color_backend,compensation,coordinates,correct,correct_Instruction1,correct_keyboard_response,correct_response,count_Block1,count_Block2,count_Block3,count_ErrorFeedback,count_Faster,count_Finish,count_Fixation,count_ISI,count_Instruction1,count_Instructions2,count_Instructions3,count_Sequence,count_Stimulus,count_experiment,count_keyboard_response,count_logger,datetime,deadline,description,disable_garbage_collection,experiment_file,experiment_path,font_bold,font_family,font_italic,font_size,font_underline,foreground,form_clicks,fullscreen,height,keyboard_backend,live_row,live_row_Block1,logfile,mouse_backend,opensesame_codename,opensesame_version,repeat_cycle,response,response_Finish,response_Instruction1,response_Instructions2,response_Instructions3,response_keyboard_response,response_time,response_time_Finish,response_time_Instruction1,response_time_Instructions2,response_time_Instructions3,response_time_keyboard_response,round_decimals,sampler_backend,sound_buf_size,sound_channels,sound_freq,sound_sample_size,start,subject_nr,subject_parity,time_Block1,time_Block2,time_Block3,time_ErrorFeedback,time_Faster,time_Finish,time_Fixation,time_ISI,time_Instruction1,time_Instructions2,time_Instructions3,time_Sequence,time_Stimulus,time_experiment,time_keyboard_response,time_logger,title,total_correct,total_response_time,total_responses,uniform_coordinates,width
Congruent,SSSSS,100,100,782,782,black,legacy,legacy,legacy,0,uniform,1,undefined,1,s,0,0,0,0,0,0,0,0,0,0,0,0,0,0,0,0,Sat Sep 25 19:36:06 2021,1500,The main experiment item,yes,KS - Flanker Task.osexp,/Users/kaylinsilva/Desktop/Life/Tarleton/Adv Stats,no,mono,no,18,no,white,no,yes,768,legacy,0,0,/Users/kaylinsilva/Desktop/Life/Tarleton/Adv Stats/KS-subject-3.csv,legacy,Lentiform Loewenfeld,3.3.9,0,s,NA,s,NA,NA,s,782,NA,44127,NA,NA,782,2,legacy,1024,2,48000,-16,experiment,3,odd,48044,NA,NA,NA,NA,NA,48118,NA,3907,NA,NA,48111,48225,3901,48226,49012,KS - Flanker Task,1,782,1,yes,1024
Congruent,SSSSS,100,100,582.5,582.5,black,legacy,legacy,legacy,0,uniform,1,undefined,1,s,0,0,0,1,1,0,1,1,0,0,0,1,1,0,1,1,Sat Sep 25 19:36:06 2021,1500,The main experiment item,yes,KS - Flanker Task.osexp,/Users/kaylinsilva/Desktop/Life/Tarleton/Adv Stats,no,mono,no,18,no,white,no,yes,768,legacy,1,1,/Users/kaylinsilva/Desktop/Life/Tarleton/Adv Stats/KS-subject-3.csv,legacy,Lentiform Loewenfeld,3.3.9,0,s,NA,s,NA,NA,s,383,NA,44127,NA,NA,383,2,legacy,1024,2,48000,-16,experiment,3,odd,48044,NA,NA,NA,NA,NA,50095,49018,3907,NA,NA,50093,50202,3901,50202,50586,KS - Flanker Task,2,1165,2,yes,1024
Congruent,HHHHH,100,100,541.6666667,541.6666667,black,legacy,legacy,legacy,0,uniform,1,undefined,1,h,0,0,0,2,2,0,2,2,0,0,0,2,2,0,2,2,Sat Sep 25 19:36:06 2021,1500,The main experiment item,yes,KS - Flanker Task.osexp,/Users/kaylinsilva/Desktop/Life/Tarleton/Adv Stats,no,mono,no,18,no,white,no,yes,768,legacy,2,2,/Users/kaylinsilva/Desktop/Life/Tarleton/Adv Stats/KS-subject-3.csv,legacy,Lentiform Loewenfeld,3.3.9,0,h,NA,s,NA,NA,h,460,NA,44127,NA,NA,460,2,legacy,1024,2,48000,-16,experiment,3,odd,48044,NA,NA,NA,NA,NA,51657,50589,3907,NA,NA,51654,51761,3901,51761,52222,KS - Flanker Task,3,1625,3,yes,1024
Congruent,SSSSS,100,100,512,512,black,legacy,legacy,legacy,0,uniform,1,undefined,1,s,0,0,0,3,3,0,3,3,0,0,0,3,3,0,3,3,Sat Sep 25 19:36:06 2021,1500,The main experiment item,yes,KS - Flanker Task.osexp,/Users/kaylinsilva/Desktop/Life/Tarleton/Adv Stats,no,mono,no,18,no,white,no,yes,768,legacy,3,3,/Users/kaylinsilva/Desktop/Life/Tarleton/Adv Stats/KS-subject-3.csv,legacy,Lentiform Loewenfeld,3.3.9,0,s,NA,s,NA,NA,s,423,NA,44127,NA,NA,423,2,legacy,1024,2,48000,-16,experiment,3,odd,48044,NA,NA,NA,NA,NA,53292,52225,3907,NA,NA,53289,53396,3901,53397,53821,KS - Flanker Task,4,2048,4,yes,1024
Incongruent,HHSHH,80,80,495.8,495.8,black,legacy,legacy,legacy,0,uniform,0,undefined,0,s,0,0,0,4,4,0,4,4,0,0,0,4,4,0,4,4,Sat Sep 25 19:36:06 2021,1500,The main experiment item,yes,KS - Flanker Task.osexp,/Users/kaylinsilva/Desktop/Life/Tarleton/Adv Stats,no,mono,no,18,no,white,no,yes,768,legacy,4,4,/Users/kaylinsilva/Desktop/Life/Tarleton/Adv Stats/KS-subject-3.csv,legacy,Lentiform Loewenfeld,3.3.9,0,h,NA,s,NA,NA,h,431,NA,44127,NA,NA,431,2,legacy,1024,2,48000,-16,experiment,3,odd,48044,NA,NA,NA,NA,NA,54891,53823,3907,NA,NA,54887,54995,3901,54995,55427,KS - Flanker Task,4,2479,5,yes,1024
Incongruent,HHSHH,83.33333333,83.33333333,535.8333333,535.8333333,black,legacy,legacy,legacy,0,uniform,1,undefined,1,s,0,0,0,5,5,0,5,5,0,0,0,5,5,0,5,5,Sat Sep 25 19:36:06 2021,1500,The main experiment item,yes,KS - Flanker Task.osexp,/Users/kaylinsilva/Desktop/Life/Tarleton/Adv Stats,no,mono,no,18,no,white,no,yes,768,legacy,5,5,/Users/kaylinsilva/Desktop/Life/Tarleton/Adv Stats/KS-subject-3.csv,legacy,Lentiform Loewenfeld,3.3.9,0,s,NA,s,NA,NA,s,736,NA,44127,NA,NA,736,2,legacy,1024,2,48000,-16,experiment,3,odd,48044,NA,NA,55430,NA,NA,57001,55934,3907,NA,NA,56998,57105,3901,57105,57842,KS - Flanker Task,5,3215,6,yes,1024
Congruent,HHHHH,85.71428571,85.71428571,530,530,black,legacy,legacy,legacy,0,uniform,1,undefined,1,h,0,0,0,6,6,0,6,6,0,0,0,6,6,0,6,6,Sat Sep 25 19:36:06 2021,1500,The main experiment item,yes,KS - Flanker Task.osexp,/Users/kaylinsilva/Desktop/Life/Tarleton/Adv Stats,no,mono,no,18,no,white,no,yes,768,legacy,6,6,/Users/kaylinsilva/Desktop/Life/Tarleton/Adv Stats/KS-subject-3.csv,legacy,Lentiform Loewenfeld,3.3.9,0,h,NA,s,NA,NA,h,495,NA,44127,NA,NA,495,2,legacy,1024,2,48000,-16,experiment,3,odd,48044,NA,NA,55430,NA,NA,58912,57845,3907,NA,NA,58909,59016,3901,59017,59513,KS - Flanker Task,6,3710,7,yes,1024
Incongruent,HHSHH,87.5,87.5,535.875,535.875,black,legacy,legacy,legacy,0,uniform,1,undefined,1,s,0,0,0,7,7,0,7,7,0,0,0,7,7,0,7,7,Sat Sep 25 19:36:06 2021,1500,The main experiment item,yes,KS - Flanker Task.osexp,/Users/kaylinsilva/Desktop/Life/Tarleton/Adv Stats,no,mono,no,18,no,white,no,yes,768,legacy,7,7,/Users/kaylinsilva/Desktop/Life/Tarleton/Adv Stats/KS-subject-3.csv,legacy,Lentiform Loewenfeld,3.3.9,0,s,NA,s,NA,NA,s,577,NA,44127,NA,NA,577,2,legacy,1024,2,48000,-16,experiment,3,odd,48044,NA,NA,55430,NA,NA,60584,59516,3907,NA,NA,60580,60688,3901,60688,61266,KS - Flanker Task,7,4287,8,yes,1024
Congruent,SSSSS,88.88888889,88.88888889,523.1111111,523.1111111,black,legacy,legacy,legacy,0,uniform,1,undefined,1,s,0,0,0,8,8,0,8,8,0,0,0,8,8,0,8,8,Sat Sep 25 19:36:06 2021,1500,The main experiment item,yes,KS - Flanker Task.osexp,/Users/kaylinsilva/Desktop/Life/Tarleton/Adv Stats,no,mono,no,18,no,white,no,yes,768,legacy,8,8,/Users/kaylinsilva/Desktop/Life/Tarleton/Adv Stats/KS-subject-3.csv,legacy,Lentiform Loewenfeld,3.3.9,0,s,NA,s,NA,NA,s,421,NA,44127,NA,NA,421,2,legacy,1024,2,48000,-16,experiment,3,odd,48044,NA,NA,55430,NA,NA,62335,61269,3907,NA,NA,62332,62440,3901,62440,62861,KS - Flanker Task,8,4708,9,yes,1024
Incongruent,SSHSS,90,90,521.4,521.4,black,legacy,legacy,legacy,0,uniform,1,undefined,1,h,0,0,0,9,9,0,9,9,0,0,0,9,9,0,9,9,Sat Sep 25 19:36:06 2021,1500,The main experiment item,yes,KS - Flanker Task.osexp,/Users/kaylinsilva/Desktop/Life/Tarleton/Adv Stats,no,mono,no,18,no,white,no,yes,768,legacy,9,9,/Users/kaylinsilva/Desktop/Life/Tarleton/Adv Stats/KS-subject-3.csv,legacy,Lentiform Loewenfeld,3.3.9,0,h,NA,s,NA,NA,h,506,NA,44127,NA,NA,506,2,legacy,1024,2,48000,-16,experiment,3,odd,48044,NA,NA,55430,NA,NA,63932,62864,3907,NA,NA,63929,64035,3901,64036,64543,KS - Flanker Task,9,5214,10,yes,1024
Incongruent,HHSHH,81.81818182,81.81818182,517.1818182,517.1818182,black,legacy,legacy,legacy,0,uniform,0,undefined,0,s,0,0,0,10,10,0,10,10,0,0,0,10,10,0,10,10,Sat Sep 25 19:36:06 2021,1500,The main experiment item,yes,KS - Flanker Task.osexp,/Users/kaylinsilva/Desktop/Life/Tarleton/Adv Stats,no,mono,no,18,no,white,no,yes,768,legacy,10,10,/Users/kaylinsilva/Desktop/Life/Tarleton/Adv Stats/KS-subject-3.csv,legacy,Lentiform Loewenfeld,3.3.9,0,h,NA,s,NA,NA,h,475,NA,44127,NA,NA,475,2,legacy,1024,2,48000,-16,experiment,3,odd,48044,NA,NA,55430,NA,NA,65613,64546,3907,NA,NA,65610,65717,3901,65718,66194,KS - Flanker Task,9,5689,11,yes,1024
Incongruent,HHSHH,83.33333333,83.33333333,497.6666667,497.6666667,black,legacy,legacy,legacy,0,uniform,1,undefined,1,s,0,0,0,11,11,0,11,11,0,0,0,11,11,0,11,11,Sat Sep 25 19:36:06 2021,1500,The main experiment item,yes,KS - Flanker Task.osexp,/Users/kaylinsilva/Desktop/Life/Tarleton/Adv Stats,no,mono,no,18,no,white,no,yes,768,legacy,11,11,/Users/kaylinsilva/Desktop/Life/Tarleton/Adv Stats/KS-subject-3.csv,legacy,Lentiform Loewenfeld,3.3.9,0,s,NA,s,NA,NA,s,283,NA,44127,NA,NA,283,2,legacy,1024,2,48000,-16,experiment,3,odd,48044,NA,NA,66198,NA,NA,67770,66703,3907,NA,NA,67767,67874,3901,67874,68157,KS - Flanker Task,10,5972,12,yes,1024
Incongruent,HHSHH,84.61538462,84.61538462,498.6153846,498.6153846,black,legacy,legacy,legacy,0,uniform,1,undefined,1,s,0,0,0,12,12,0,12,12,0,0,0,12,12,0,12,12,Sat Sep 25 19:36:06 2021,1500,The main experiment item,yes,KS - Flanker Task.osexp,/Users/kaylinsilva/Desktop/Life/Tarleton/Adv Stats,no,mono,no,18,no,white,no,yes,768,legacy,12,12,/Users/kaylinsilva/Desktop/Life/Tarleton/Adv Stats/KS-subject-3.csv,legacy,Lentiform Loewenfeld,3.3.9,0,s,NA,s,NA,NA,s,510,NA,44127,NA,NA,510,2,legacy,1024,2,48000,-16,experiment,3,odd,48044,NA,NA,66198,NA,NA,69228,68160,3907,NA,NA,69224,69332,3901,69332,69843,KS - Flanker Task,11,6482,13,yes,1024
Congruent,SSSSS,85.71428571,85.71428571,490.9285714,490.9285714,black,legacy,legacy,legacy,0,uniform,1,undefined,1,s,0,0,0,13,13,0,13,13,0,0,0,13,13,0,13,13,Sat Sep 25 19:36:06 2021,1500,The main experiment item,yes,KS - Flanker Task.osexp,/Users/kaylinsilva/Desktop/Life/Tarleton/Adv Stats,no,mono,no,18,no,white,no,yes,768,legacy,13,13,/Users/kaylinsilva/Desktop/Life/Tarleton/Adv Stats/KS-subject-3.csv,legacy,Lentiform Loewenfeld,3.3.9,0,s,NA,s,NA,NA,s,391,NA,44127,NA,NA,391,2,legacy,1024,2,48000,-16,experiment,3,odd,48044,NA,NA,66198,NA,NA,70911,69845,3907,NA,NA,70908,71015,3901,71015,71407,KS - Flanker Task,12,6873,14,yes,1024
Incongruent,HHSHH,86.66666667,86.66666667,482.8666667,482.8666667,black,legacy,legacy,legacy,0,uniform,1,undefined,1,s,0,0,0,14,14,0,14,14,0,0,0,14,14,0,14,14,Sat Sep 25 19:36:06 2021,1500,The main experiment item,yes,KS - Flanker Task.osexp,/Users/kaylinsilva/Desktop/Life/Tarleton/Adv Stats,no,mono,no,18,no,white,no,yes,768,legacy,14,14,/Users/kaylinsilva/Desktop/Life/Tarleton/Adv Stats/KS-subject-3.csv,legacy,Lentiform Loewenfeld,3.3.9,0,s,NA,s,NA,NA,s,370,NA,44127,NA,NA,370,2,legacy,1024,2,48000,-16,experiment,3,odd,48044,NA,NA,66198,NA,NA,72477,71410,3907,NA,NA,72474,72581,3901,72582,72952,KS - Flanker Task,13,7243,15,yes,1024
Incongruent,SSHSS,87.5,87.5,485.1875,485.1875,black,legacy,legacy,legacy,0,uniform,1,undefined,1,h,0,0,0,15,15,0,15,15,0,0,0,15,15,0,15,15,Sat Sep 25 19:36:06 2021,1500,The main experiment item,yes,KS - Flanker Task.osexp,/Users/kaylinsilva/Desktop/Life/Tarleton/Adv Stats,no,mono,no,18,no,white,no,yes,768,legacy,15,15,/Users/kaylinsilva/Desktop/Life/Tarleton/Adv Stats/KS-subject-3.csv,legacy,Lentiform Loewenfeld,3.3.9,0,h,NA,s,NA,NA,h,520,NA,44127,NA,NA,520,2,legacy,1024,2,48000,-16,experiment,3,odd,48044,NA,NA,66198,NA,NA,74022,72955,3907,NA,NA,74019,74126,3901,74126,74647,KS - Flanker Task,14,7763,16,yes,1024
Incongruent,SSHSS,88.23529412,88.23529412,482.6470588,482.6470588,black,legacy,legacy,legacy,0,uniform,1,undefined,1,h,0,0,0,16,16,0,16,16,0,0,0,16,16,0,16,16,Sat Sep 25 19:36:06 2021,1500,The main experiment item,yes,KS - Flanker Task.osexp,/Users/kaylinsilva/Desktop/Life/Tarleton/Adv Stats,no,mono,no,18,no,white,no,yes,768,legacy,16,16,/Users/kaylinsilva/Desktop/Life/Tarleton/Adv Stats/KS-subject-3.csv,legacy,Lentiform Loewenfeld,3.3.9,0,h,NA,s,NA,NA,h,442,NA,44127,NA,NA,442,2,legacy,1024,2,48000,-16,experiment,3,odd,48044,NA,NA,66198,NA,NA,75718,74650,3907,NA,NA,75714,75822,3901,75822,76264,KS - Flanker Task,15,8205,17,yes,1024
Incongruent,SSHSS,88.88888889,88.88888889,480.0555556,480.0555556,black,legacy,legacy,legacy,0,uniform,1,undefined,1,h,0,0,0,17,17,0,17,17,0,0,0,17,17,0,17,17,Sat Sep 25 19:36:06 2021,1500,The main experiment item,yes,KS - Flanker Task.osexp,/Users/kaylinsilva/Desktop/Life/Tarleton/Adv Stats,no,mono,no,18,no,white,no,yes,768,legacy,17,17,/Users/kaylinsilva/Desktop/Life/Tarleton/Adv Stats/KS-subject-3.csv,legacy,Lentiform Loewenfeld,3.3.9,0,h,NA,s,NA,NA,h,436,NA,44127,NA,NA,436,2,legacy,1024,2,48000,-16,experiment,3,odd,48044,NA,NA,66198,NA,NA,77335,76268,3907,NA,NA,77331,77439,3901,77440,77877,KS - Flanker Task,16,8641,18,yes,1024
Congruent,HHHHH,89.47368421,89.47368421,481.5789474,481.5789474,black,legacy,legacy,legacy,0,uniform,1,undefined,1,h,0,0,0,18,18,0,18,18,0,0,0,18,18,0,18,18,Sat Sep 25 19:36:06 2021,1500,The main experiment item,yes,KS - Flanker Task.osexp,/Users/kaylinsilva/Desktop/Life/Tarleton/Adv Stats,no,mono,no,18,no,white,no,yes,768,legacy,18,18,/Users/kaylinsilva/Desktop/Life/Tarleton/Adv Stats/KS-subject-3.csv,legacy,Lentiform Loewenfeld,3.3.9,0,h,NA,s,NA,NA,h,509,NA,44127,NA,NA,509,2,legacy,1024,2,48000,-16,experiment,3,odd,48044,NA,NA,66198,NA,NA,78948,77880,3907,NA,NA,78944,79052,3901,79053,79563,KS - Flanker Task,17,9150,19,yes,1024
Congruent,SSSSS,90,90,481.3,481.3,black,legacy,legacy,legacy,0,uniform,1,undefined,1,s,0,0,0,19,19,0,19,19,0,0,0,19,19,0,19,19,Sat Sep 25 19:36:06 2021,1500,The main experiment item,yes,KS - Flanker Task.osexp,/Users/kaylinsilva/Desktop/Life/Tarleton/Adv Stats,no,mono,no,18,no,white,no,yes,768,legacy,19,19,/Users/kaylinsilva/Desktop/Life/Tarleton/Adv Stats/KS-subject-3.csv,legacy,Lentiform Loewenfeld,3.3.9,0,s,NA,s,NA,NA,s,476,NA,44127,NA,NA,476,2,legacy,1024,2,48000,-16,experiment,3,odd,48044,NA,NA,66198,NA,NA,80632,79566,3907,NA,NA,80629,80737,3901,80738,81214,KS - Flanker Task,18,9626,20,yes,1024
Incongruent,HHSHH,85.71428571,85.71428571,483.5714286,483.5714286,black,legacy,legacy,legacy,0,uniform,0,undefined,0,s,0,0,0,20,20,0,20,20,0,0,0,20,20,0,20,20,Sat Sep 25 19:36:06 2021,1500,The main experiment item,yes,KS - Flanker Task.osexp,/Users/kaylinsilva/Desktop/Life/Tarleton/Adv Stats,no,mono,no,18,no,white,no,yes,768,legacy,20,20,/Users/kaylinsilva/Desktop/Life/Tarleton/Adv Stats/KS-subject-3.csv,legacy,Lentiform Loewenfeld,3.3.9,0,h,NA,s,NA,NA,h,529,NA,44127,NA,NA,529,2,legacy,1024,2,48000,-16,experiment,3,odd,48044,NA,NA,66198,NA,NA,82286,81218,3907,NA,NA,82283,82391,3901,82391,82921,KS - Flanker Task,18,10155,21,yes,1024
Congruent,HHHHH,86.36363636,86.36363636,484.4545455,484.4545455,black,legacy,legacy,legacy,0,uniform,1,undefined,1,h,0,0,0,21,21,0,21,21,0,0,0,21,21,0,21,21,Sat Sep 25 19:36:06 2021,1500,The main experiment item,yes,KS - Flanker Task.osexp,/Users/kaylinsilva/Desktop/Life/Tarleton/Adv Stats,no,mono,no,18,no,white,no,yes,768,legacy,21,21,/Users/kaylinsilva/Desktop/Life/Tarleton/Adv Stats/KS-subject-3.csv,legacy,Lentiform Loewenfeld,3.3.9,0,h,NA,s,NA,NA,h,503,NA,44127,NA,NA,503,2,legacy,1024,2,48000,-16,experiment,3,odd,48044,NA,NA,82924,NA,NA,84497,83429,3907,NA,NA,84493,84602,3901,84602,85106,KS - Flanker Task,19,10658,22,yes,1024
Congruent,HHHHH,86.95652174,86.95652174,485.0434783,485.0434783,black,legacy,legacy,legacy,0,uniform,1,undefined,1,h,0,0,0,22,22,0,22,22,0,0,0,22,22,0,22,22,Sat Sep 25 19:36:06 2021,1500,The main experiment item,yes,KS - Flanker Task.osexp,/Users/kaylinsilva/Desktop/Life/Tarleton/Adv Stats,no,mono,no,18,no,white,no,yes,768,legacy,22,22,/Users/kaylinsilva/Desktop/Life/Tarleton/Adv Stats/KS-subject-3.csv,legacy,Lentiform Loewenfeld,3.3.9,0,h,NA,s,NA,NA,h,498,NA,44127,NA,NA,498,2,legacy,1024,2,48000,-16,experiment,3,odd,48044,NA,NA,82924,NA,NA,86178,85109,3907,NA,NA,86174,86282,3901,86283,86781,KS - Flanker Task,20,11156,23,yes,1024
Incongruent,SSHSS,83.33333333,83.33333333,487.0833333,487.0833333,black,legacy,legacy,legacy,0,uniform,0,undefined,0,h,0,0,0,23,23,0,23,23,0,0,0,23,23,0,23,23,Sat Sep 25 19:36:06 2021,1500,The main experiment item,yes,KS - Flanker Task.osexp,/Users/kaylinsilva/Desktop/Life/Tarleton/Adv Stats,no,mono,no,18,no,white,no,yes,768,legacy,23,23,/Users/kaylinsilva/Desktop/Life/Tarleton/Adv Stats/KS-subject-3.csv,legacy,Lentiform Loewenfeld,3.3.9,0,s,NA,s,NA,NA,s,534,NA,44127,NA,NA,534,2,legacy,1024,2,48000,-16,experiment,3,odd,48044,NA,NA,82924,NA,NA,87852,86785,3907,NA,NA,87848,87956,3901,87956,88491,KS - Flanker Task,20,11690,24,yes,1024
Incongruent,HHSHH,84,84,494.68,494.68,black,legacy,legacy,legacy,0,uniform,1,undefined,1,s,0,0,0,24,24,0,24,24,0,0,0,24,24,0,24,24,Sat Sep 25 19:36:06 2021,1500,The main experiment item,yes,KS - Flanker Task.osexp,/Users/kaylinsilva/Desktop/Life/Tarleton/Adv Stats,no,mono,no,18,no,white,no,yes,768,legacy,24,24,/Users/kaylinsilva/Desktop/Life/Tarleton/Adv Stats/KS-subject-3.csv,legacy,Lentiform Loewenfeld,3.3.9,0,s,NA,s,NA,NA,s,677,NA,44127,NA,NA,677,2,legacy,1024,2,48000,-16,experiment,3,odd,48044,NA,NA,88494,NA,NA,90070,89000,3907,NA,NA,90066,90175,3901,90175,90853,KS - Flanker Task,21,12367,25,yes,1024
Incongruent,HHSHH,84.61538462,84.61538462,489.5,489.5,black,legacy,legacy,legacy,0,uniform,1,undefined,1,s,0,0,0,25,25,0,25,25,0,0,0,25,25,0,25,25,Sat Sep 25 19:36:06 2021,1500,The main experiment item,yes,KS - Flanker Task.osexp,/Users/kaylinsilva/Desktop/Life/Tarleton/Adv Stats,no,mono,no,18,no,white,no,yes,768,legacy,25,25,/Users/kaylinsilva/Desktop/Life/Tarleton/Adv Stats/KS-subject-3.csv,legacy,Lentiform Loewenfeld,3.3.9,0,s,NA,s,NA,NA,s,360,NA,44127,NA,NA,360,2,legacy,1024,2,48000,-16,experiment,3,odd,48044,NA,NA,88494,NA,NA,91924,90856,3907,NA,NA,91920,92028,3901,92028,92389,KS - Flanker Task,22,12727,26,yes,1024
Incongruent,SSHSS,85.18518519,85.18518519,490.2222222,490.2222222,black,legacy,legacy,legacy,0,uniform,1,undefined,1,h,0,0,0,26,26,0,26,26,0,0,0,26,26,0,26,26,Sat Sep 25 19:36:06 2021,1500,The main experiment item,yes,KS - Flanker Task.osexp,/Users/kaylinsilva/Desktop/Life/Tarleton/Adv Stats,no,mono,no,18,no,white,no,yes,768,legacy,26,26,/Users/kaylinsilva/Desktop/Life/Tarleton/Adv Stats/KS-subject-3.csv,legacy,Lentiform Loewenfeld,3.3.9,0,h,NA,s,NA,NA,h,509,NA,44127,NA,NA,509,2,legacy,1024,2,48000,-16,experiment,3,odd,48044,NA,NA,88494,NA,NA,93460,92392,3907,NA,NA,93457,93564,3901,93565,94075,KS - Flanker Task,23,13236,27,yes,1024
Incongruent,HHSHH,85.71428571,85.71428571,490.7142857,490.7142857,black,legacy,legacy,legacy,0,uniform,1,undefined,1,s,0,0,0,27,27,0,27,27,0,0,0,27,27,0,27,27,Sat Sep 25 19:36:06 2021,1500,The main experiment item,yes,KS - Flanker Task.osexp,/Users/kaylinsilva/Desktop/Life/Tarleton/Adv Stats,no,mono,no,18,no,white,no,yes,768,legacy,27,27,/Users/kaylinsilva/Desktop/Life/Tarleton/Adv Stats/KS-subject-3.csv,legacy,Lentiform Loewenfeld,3.3.9,0,s,NA,s,NA,NA,s,504,NA,44127,NA,NA,504,2,legacy,1024,2,48000,-16,experiment,3,odd,48044,NA,NA,88494,NA,NA,95146,94078,3907,NA,NA,95142,95251,3901,95251,95755,KS - Flanker Task,24,13740,28,yes,1024
Incongruent,HHSHH,86.20689655,86.20689655,491.3793103,491.3793103,black,legacy,legacy,legacy,0,uniform,1,undefined,1,s,0,0,0,28,28,0,28,28,0,0,0,28,28,0,28,28,Sat Sep 25 19:36:06 2021,1500,The main experiment item,yes,KS - Flanker Task.osexp,/Users/kaylinsilva/Desktop/Life/Tarleton/Adv Stats,no,mono,no,18,no,white,no,yes,768,legacy,28,28,/Users/kaylinsilva/Desktop/Life/Tarleton/Adv Stats/KS-subject-3.csv,legacy,Lentiform Loewenfeld,3.3.9,0,s,NA,s,NA,NA,s,510,NA,44127,NA,NA,510,2,legacy,1024,2,48000,-16,experiment,3,odd,48044,NA,NA,88494,NA,NA,96820,95758,3907,NA,NA,96816,96924,3901,96924,97435,KS - Flanker Task,25,14250,29,yes,1024
Congruent,SSSSS,86.66666667,86.66666667,487.7,487.7,black,legacy,legacy,legacy,0,uniform,1,undefined,1,s,0,0,0,29,29,0,29,29,0,0,0,29,29,0,29,29,Sat Sep 25 19:36:06 2021,1500,The main experiment item,yes,KS - Flanker Task.osexp,/Users/kaylinsilva/Desktop/Life/Tarleton/Adv Stats,no,mono,no,18,no,white,no,yes,768,legacy,29,29,/Users/kaylinsilva/Desktop/Life/Tarleton/Adv Stats/KS-subject-3.csv,legacy,Lentiform Loewenfeld,3.3.9,0,s,NA,s,NA,NA,s,381,NA,44127,NA,NA,381,2,legacy,1024,2,48000,-16,experiment,3,odd,48044,NA,NA,88494,NA,NA,98505,97437,3907,NA,NA,98501,98609,3901,98609,98991,KS - Flanker Task,26,14631,30,yes,1024
Incongruent,SSHSS,83.87096774,83.87096774,484.3870968,484.3870968,black,legacy,legacy,legacy,0,uniform,0,undefined,0,h,0,0,0,30,30,0,30,30,0,0,0,30,30,0,30,30,Sat Sep 25 19:36:06 2021,1500,The main experiment item,yes,KS - Flanker Task.osexp,/Users/kaylinsilva/Desktop/Life/Tarleton/Adv Stats,no,mono,no,18,no,white,no,yes,768,legacy,30,30,/Users/kaylinsilva/Desktop/Life/Tarleton/Adv Stats/KS-subject-3.csv,legacy,Lentiform Loewenfeld,3.3.9,0,s,NA,s,NA,NA,s,385,NA,44127,NA,NA,385,2,legacy,1024,2,48000,-16,experiment,3,odd,48044,NA,NA,88494,NA,NA,100062,98994,3907,NA,NA,100059,100166,3901,100166,100552,KS - Flanker Task,26,15016,31,yes,1024
Congruent,SSSSS,84.375,84.375,483.53125,483.53125,black,legacy,legacy,legacy,0,uniform,1,undefined,1,s,0,0,0,31,31,0,31,31,0,0,0,31,31,0,31,31,Sat Sep 25 19:36:06 2021,1500,The main experiment item,yes,KS - Flanker Task.osexp,/Users/kaylinsilva/Desktop/Life/Tarleton/Adv Stats,no,mono,no,18,no,white,no,yes,768,legacy,31,31,/Users/kaylinsilva/Desktop/Life/Tarleton/Adv Stats/KS-subject-3.csv,legacy,Lentiform Loewenfeld,3.3.9,0,s,NA,s,NA,NA,s,457,NA,44127,NA,NA,457,2,legacy,1024,2,48000,-16,experiment,3,odd,48044,NA,NA,100555,NA,NA,102127,101060,3907,NA,NA,102124,102231,3901,102232,102690,KS - Flanker Task,27,15473,32,yes,1024
Incongruent,HHSHH,84.84848485,84.84848485,478.8181818,478.8181818,black,legacy,legacy,legacy,0,uniform,1,undefined,1,s,0,0,0,32,32,0,32,32,0,0,0,32,32,0,32,32,Sat Sep 25 19:36:06 2021,1500,The main experiment item,yes,KS - Flanker Task.osexp,/Users/kaylinsilva/Desktop/Life/Tarleton/Adv Stats,no,mono,no,18,no,white,no,yes,768,legacy,32,32,/Users/kaylinsilva/Desktop/Life/Tarleton/Adv Stats/KS-subject-3.csv,legacy,Lentiform Loewenfeld,3.3.9,0,s,NA,s,NA,NA,s,328,NA,44127,NA,NA,328,2,legacy,1024,2,48000,-16,experiment,3,odd,48044,NA,NA,100555,NA,NA,103760,102693,3907,NA,NA,103757,103864,3901,103864,104192,KS - Flanker Task,28,15801,33,yes,1024
Incongruent,SSHSS,85.29411765,85.29411765,480,480,black,legacy,legacy,legacy,0,uniform,1,undefined,1,h,0,0,0,33,33,0,33,33,0,0,0,33,33,0,33,33,Sat Sep 25 19:36:06 2021,1500,The main experiment item,yes,KS - Flanker Task.osexp,/Users/kaylinsilva/Desktop/Life/Tarleton/Adv Stats,no,mono,no,18,no,white,no,yes,768,legacy,33,33,/Users/kaylinsilva/Desktop/Life/Tarleton/Adv Stats/KS-subject-3.csv,legacy,Lentiform Loewenfeld,3.3.9,0,h,NA,s,NA,NA,h,519,NA,44127,NA,NA,519,2,legacy,1024,2,48000,-16,experiment,3,odd,48044,NA,NA,100555,NA,NA,105262,104195,3907,NA,NA,105259,105366,3901,105366,105886,KS - Flanker Task,29,16320,34,yes,1024
Congruent,SSSSS,85.71428571,85.71428571,479.6285714,479.6285714,black,legacy,legacy,legacy,0,uniform,1,undefined,1,s,0,0,0,34,34,0,34,34,0,0,0,34,34,0,34,34,Sat Sep 25 19:36:06 2021,1500,The main experiment item,yes,KS - Flanker Task.osexp,/Users/kaylinsilva/Desktop/Life/Tarleton/Adv Stats,no,mono,no,18,no,white,no,yes,768,legacy,34,34,/Users/kaylinsilva/Desktop/Life/Tarleton/Adv Stats/KS-subject-3.csv,legacy,Lentiform Loewenfeld,3.3.9,0,s,NA,s,NA,NA,s,467,NA,44127,NA,NA,467,2,legacy,1024,2,48000,-16,experiment,3,odd,48044,NA,NA,100555,NA,NA,106958,105890,3907,NA,NA,106954,107062,3901,107062,107529,KS - Flanker Task,30,16787,35,yes,1024
Incongruent,SSHSS,86.11111111,86.11111111,478.6944444,478.6944444,black,legacy,legacy,legacy,0,uniform,1,undefined,1,h,0,0,0,35,35,0,35,35,0,0,0,35,35,0,35,35,Sat Sep 25 19:36:06 2021,1500,The main experiment item,yes,KS - Flanker Task.osexp,/Users/kaylinsilva/Desktop/Life/Tarleton/Adv Stats,no,mono,no,18,no,white,no,yes,768,legacy,35,35,/Users/kaylinsilva/Desktop/Life/Tarleton/Adv Stats/KS-subject-3.csv,legacy,Lentiform Loewenfeld,3.3.9,0,h,NA,s,NA,NA,h,446,NA,44127,NA,NA,446,2,legacy,1024,2,48000,-16,experiment,3,odd,48044,NA,NA,100555,NA,NA,108601,107533,3907,NA,NA,108597,108705,3901,108706,109153,KS - Flanker Task,31,17233,36,yes,1024
Congruent,HHHHH,86.48648649,86.48648649,477.2432432,477.2432432,black,legacy,legacy,legacy,0,uniform,1,undefined,1,h,0,0,0,36,36,0,36,36,0,0,0,36,36,0,36,36,Sat Sep 25 19:36:06 2021,1500,The main experiment item,yes,KS - Flanker Task.osexp,/Users/kaylinsilva/Desktop/Life/Tarleton/Adv Stats,no,mono,no,18,no,white,no,yes,768,legacy,36,36,/Users/kaylinsilva/Desktop/Life/Tarleton/Adv Stats/KS-subject-3.csv,legacy,Lentiform Loewenfeld,3.3.9,0,h,NA,s,NA,NA,h,425,NA,44127,NA,NA,425,2,legacy,1024,2,48000,-16,experiment,3,odd,48044,NA,NA,100555,NA,NA,110224,109156,3907,NA,NA,110220,110329,3901,110329,110755,KS - Flanker Task,32,17658,37,yes,1024
Incongruent,HHSHH,86.84210526,86.84210526,479.8421053,479.8421053,black,legacy,legacy,legacy,0,uniform,1,undefined,1,s,0,0,0,37,37,0,37,37,0,0,0,37,37,0,37,37,Sat Sep 25 19:36:06 2021,1500,The main experiment item,yes,KS - Flanker Task.osexp,/Users/kaylinsilva/Desktop/Life/Tarleton/Adv Stats,no,mono,no,18,no,white,no,yes,768,legacy,37,37,/Users/kaylinsilva/Desktop/Life/Tarleton/Adv Stats/KS-subject-3.csv,legacy,Lentiform Loewenfeld,3.3.9,0,s,NA,s,NA,NA,s,576,NA,44127,NA,NA,576,2,legacy,1024,2,48000,-16,experiment,3,odd,48044,NA,NA,100555,NA,NA,111826,110758,3907,NA,NA,111822,111930,3901,111930,112506,KS - Flanker Task,33,18234,38,yes,1024
Incongruent,SSHSS,87.17948718,87.17948718,481.0512821,481.0512821,black,legacy,legacy,legacy,0,uniform,1,undefined,1,h,0,0,0,38,38,0,38,38,0,0,0,38,38,0,38,38,Sat Sep 25 19:36:06 2021,1500,The main experiment item,yes,KS - Flanker Task.osexp,/Users/kaylinsilva/Desktop/Life/Tarleton/Adv Stats,no,mono,no,18,no,white,no,yes,768,legacy,38,38,/Users/kaylinsilva/Desktop/Life/Tarleton/Adv Stats/KS-subject-3.csv,legacy,Lentiform Loewenfeld,3.3.9,0,h,NA,s,NA,NA,h,527,NA,44127,NA,NA,527,2,legacy,1024,2,48000,-16,experiment,3,odd,48044,NA,NA,100555,NA,NA,113578,112510,3907,NA,NA,113574,113682,3901,113682,114209,KS - Flanker Task,34,18761,39,yes,1024
Congruent,HHHHH,87.5,87.5,479.575,479.575,black,legacy,legacy,legacy,0,uniform,1,undefined,1,h,0,0,0,39,39,0,39,39,0,0,0,39,39,0,39,39,Sat Sep 25 19:36:06 2021,1500,The main experiment item,yes,KS - Flanker Task.osexp,/Users/kaylinsilva/Desktop/Life/Tarleton/Adv Stats,no,mono,no,18,no,white,no,yes,768,legacy,39,39,/Users/kaylinsilva/Desktop/Life/Tarleton/Adv Stats/KS-subject-3.csv,legacy,Lentiform Loewenfeld,3.3.9,0,h,NA,s,NA,NA,h,422,NA,44127,NA,NA,422,2,legacy,1024,2,48000,-16,experiment,3,odd,48044,NA,NA,100555,NA,NA,115281,114212,3907,NA,NA,115276,115386,3901,115386,115809,KS - Flanker Task,35,19183,40,yes,1024
Congruent,HHHHH,87.80487805,87.80487805,478.5365854,478.5365854,black,legacy,legacy,legacy,0,uniform,1,undefined,1,h,0,0,0,40,40,0,40,40,0,0,0,40,40,0,40,40,Sat Sep 25 19:36:06 2021,1500,The main experiment item,yes,KS - Flanker Task.osexp,/Users/kaylinsilva/Desktop/Life/Tarleton/Adv Stats,no,mono,no,18,no,white,no,yes,768,legacy,40,40,/Users/kaylinsilva/Desktop/Life/Tarleton/Adv Stats/KS-subject-3.csv,legacy,Lentiform Loewenfeld,3.3.9,0,h,NA,s,NA,NA,h,437,NA,44127,NA,NA,437,2,legacy,1024,2,48000,-16,experiment,3,odd,48044,NA,NA,100555,NA,NA,116880,115812,3907,NA,NA,116876,116984,3901,116985,117423,KS - Flanker Task,36,19620,41,yes,1024
Congruent,HHHHH,88.0952381,88.0952381,477.6904762,477.6904762,black,legacy,legacy,legacy,0,uniform,1,undefined,1,h,0,0,0,41,41,0,41,41,0,0,0,41,41,0,41,41,Sat Sep 25 19:36:06 2021,1500,The main experiment item,yes,KS - Flanker Task.osexp,/Users/kaylinsilva/Desktop/Life/Tarleton/Adv Stats,no,mono,no,18,no,white,no,yes,768,legacy,41,41,/Users/kaylinsilva/Desktop/Life/Tarleton/Adv Stats/KS-subject-3.csv,legacy,Lentiform Loewenfeld,3.3.9,0,h,NA,s,NA,NA,h,443,NA,44127,NA,NA,443,2,legacy,1024,2,48000,-16,experiment,3,odd,48044,NA,NA,100555,NA,NA,118494,117426,3907,NA,NA,118490,118599,3901,118600,119043,KS - Flanker Task,37,20063,42,yes,1024
Incongruent,HHSHH,88.37209302,88.37209302,475,475,black,legacy,legacy,legacy,0,uniform,1,undefined,1,s,0,0,0,42,42,0,42,42,0,0,0,42,42,0,42,42,Sat Sep 25 19:36:06 2021,1500,The main experiment item,yes,KS - Flanker Task.osexp,/Users/kaylinsilva/Desktop/Life/Tarleton/Adv Stats,no,mono,no,18,no,white,no,yes,768,legacy,42,42,/Users/kaylinsilva/Desktop/Life/Tarleton/Adv Stats/KS-subject-3.csv,legacy,Lentiform Loewenfeld,3.3.9,0,s,NA,s,NA,NA,s,362,NA,44127,NA,NA,362,2,legacy,1024,2,48000,-16,experiment,3,odd,48044,NA,NA,100555,NA,NA,120115,119047,3907,NA,NA,120112,120219,3901,120219,120581,KS - Flanker Task,38,20425,43,yes,1024
Incongruent,HHSHH,88.63636364,88.63636364,476.0909091,476.0909091,black,legacy,legacy,legacy,0,uniform,1,undefined,1,s,0,0,0,43,43,0,43,43,0,0,0,43,43,0,43,43,Sat Sep 25 19:36:06 2021,1500,The main experiment item,yes,KS - Flanker Task.osexp,/Users/kaylinsilva/Desktop/Life/Tarleton/Adv Stats,no,mono,no,18,no,white,no,yes,768,legacy,43,43,/Users/kaylinsilva/Desktop/Life/Tarleton/Adv Stats/KS-subject-3.csv,legacy,Lentiform Loewenfeld,3.3.9,0,s,NA,s,NA,NA,s,523,NA,44127,NA,NA,523,2,legacy,1024,2,48000,-16,experiment,3,odd,48044,NA,NA,100555,NA,NA,121651,120584,3907,NA,NA,121648,121756,3901,121756,122280,KS - Flanker Task,39,20948,44,yes,1024
Congruent,HHHHH,88.88888889,88.88888889,475.5111111,475.5111111,black,legacy,legacy,legacy,0,uniform,1,undefined,1,h,0,0,0,44,44,0,44,44,0,0,0,44,44,0,44,44,Sat Sep 25 19:36:06 2021,1500,The main experiment item,yes,KS - Flanker Task.osexp,/Users/kaylinsilva/Desktop/Life/Tarleton/Adv Stats,no,mono,no,18,no,white,no,yes,768,legacy,44,44,/Users/kaylinsilva/Desktop/Life/Tarleton/Adv Stats/KS-subject-3.csv,legacy,Lentiform Loewenfeld,3.3.9,0,h,NA,s,NA,NA,h,450,NA,44127,NA,NA,450,2,legacy,1024,2,48000,-16,experiment,3,odd,48044,NA,NA,100555,NA,NA,123351,122283,3907,NA,NA,123347,123455,3901,123455,123906,KS - Flanker Task,40,21398,45,yes,1024
Congruent,SSSSS,89.13043478,89.13043478,474.5,474.5,black,legacy,legacy,legacy,0,uniform,1,undefined,1,s,0,0,0,45,45,0,45,45,0,0,0,45,45,0,45,45,Sat Sep 25 19:36:06 2021,1500,The main experiment item,yes,KS - Flanker Task.osexp,/Users/kaylinsilva/Desktop/Life/Tarleton/Adv Stats,no,mono,no,18,no,white,no,yes,768,legacy,45,45,/Users/kaylinsilva/Desktop/Life/Tarleton/Adv Stats/KS-subject-3.csv,legacy,Lentiform Loewenfeld,3.3.9,0,s,NA,s,NA,NA,s,429,NA,44127,NA,NA,429,2,legacy,1024,2,48000,-16,experiment,3,odd,48044,NA,NA,100555,NA,NA,124976,123909,3907,NA,NA,124972,125081,3901,125081,125511,KS - Flanker Task,41,21827,46,yes,1024
Congruent,HHHHH,89.36170213,89.36170213,477.106383,477.106383,black,legacy,legacy,legacy,0,uniform,1,undefined,1,h,0,0,0,46,46,0,46,46,0,0,0,46,46,0,46,46,Sat Sep 25 19:36:06 2021,1500,The main experiment item,yes,KS - Flanker Task.osexp,/Users/kaylinsilva/Desktop/Life/Tarleton/Adv Stats,no,mono,no,18,no,white,no,yes,768,legacy,46,46,/Users/kaylinsilva/Desktop/Life/Tarleton/Adv Stats/KS-subject-3.csv,legacy,Lentiform Loewenfeld,3.3.9,0,h,NA,s,NA,NA,h,597,NA,44127,NA,NA,597,2,legacy,1024,2,48000,-16,experiment,3,odd,48044,NA,NA,100555,NA,NA,126582,125514,3907,NA,NA,126579,126687,3901,126687,127285,KS - Flanker Task,42,22424,47,yes,1024
Incongruent,HHSHH,89.58333333,89.58333333,477.4375,477.4375,black,legacy,legacy,legacy,0,uniform,1,undefined,1,s,0,0,0,47,47,0,47,47,0,0,0,47,47,0,47,47,Sat Sep 25 19:36:06 2021,1500,The main experiment item,yes,KS - Flanker Task.osexp,/Users/kaylinsilva/Desktop/Life/Tarleton/Adv Stats,no,mono,no,18,no,white,no,yes,768,legacy,47,47,/Users/kaylinsilva/Desktop/Life/Tarleton/Adv Stats/KS-subject-3.csv,legacy,Lentiform Loewenfeld,3.3.9,0,s,NA,s,NA,NA,s,493,NA,44127,NA,NA,493,2,legacy,1024,2,48000,-16,experiment,3,odd,48044,NA,NA,100555,NA,NA,128357,127288,3907,NA,NA,128352,128461,3901,128461,128955,KS - Flanker Task,43,22917,48,yes,1024
Incongruent,SSHSS,89.79591837,89.79591837,481.4489796,481.4489796,black,legacy,legacy,legacy,0,uniform,1,undefined,1,h,0,0,0,48,48,0,48,48,0,0,0,48,48,0,48,48,Sat Sep 25 19:36:06 2021,1500,The main experiment item,yes,KS - Flanker Task.osexp,/Users/kaylinsilva/Desktop/Life/Tarleton/Adv Stats,no,mono,no,18,no,white,no,yes,768,legacy,48,48,/Users/kaylinsilva/Desktop/Life/Tarleton/Adv Stats/KS-subject-3.csv,legacy,Lentiform Loewenfeld,3.3.9,0,h,NA,s,NA,NA,h,674,NA,44127,NA,NA,674,2,legacy,1024,2,48000,-16,experiment,3,odd,48044,NA,NA,100555,NA,NA,130026,128958,3907,NA,NA,130023,130130,3901,130130,130805,KS - Flanker Task,44,23591,49,yes,1024
Incongruent,SSHSS,90,90,482.22,482.22,black,legacy,legacy,legacy,0,uniform,1,undefined,1,h,0,0,0,49,49,0,49,49,0,0,0,49,49,0,49,49,Sat Sep 25 19:36:06 2021,1500,The main experiment item,yes,KS - Flanker Task.osexp,/Users/kaylinsilva/Desktop/Life/Tarleton/Adv Stats,no,mono,no,18,no,white,no,yes,768,legacy,49,49,/Users/kaylinsilva/Desktop/Life/Tarleton/Adv Stats/KS-subject-3.csv,legacy,Lentiform Loewenfeld,3.3.9,0,h,NA,s,NA,NA,h,520,NA,44127,NA,NA,520,2,legacy,1024,2,48000,-16,experiment,3,odd,48044,NA,NA,100555,NA,NA,131877,130808,3907,NA,NA,131873,131981,3901,131981,132502,KS - Flanker Task,45,24111,50,yes,1024
Congruent,HHHHH,90.19607843,90.19607843,480.745098,480.745098,black,legacy,legacy,legacy,0,uniform,1,undefined,1,h,0,0,0,50,50,0,50,50,0,0,0,50,50,0,50,50,Sat Sep 25 19:36:06 2021,1500,The main experiment item,yes,KS - Flanker Task.osexp,/Users/kaylinsilva/Desktop/Life/Tarleton/Adv Stats,no,mono,no,18,no,white,no,yes,768,legacy,50,50,/Users/kaylinsilva/Desktop/Life/Tarleton/Adv Stats/KS-subject-3.csv,legacy,Lentiform Loewenfeld,3.3.9,0,h,NA,s,NA,NA,h,407,NA,44127,NA,NA,407,2,legacy,1024,2,48000,-16,experiment,3,odd,48044,NA,NA,100555,NA,NA,133572,132505,3907,NA,NA,133568,133677,3901,133677,134085,KS - Flanker Task,46,24518,51,yes,1024
Congruent,SSSSS,90.38461538,90.38461538,483.0769231,483.0769231,black,legacy,legacy,legacy,0,uniform,1,undefined,1,s,0,0,0,51,51,0,51,51,0,0,0,51,51,0,51,51,Sat Sep 25 19:36:06 2021,1500,The main experiment item,yes,KS - Flanker Task.osexp,/Users/kaylinsilva/Desktop/Life/Tarleton/Adv Stats,no,mono,no,18,no,white,no,yes,768,legacy,51,51,/Users/kaylinsilva/Desktop/Life/Tarleton/Adv Stats/KS-subject-3.csv,legacy,Lentiform Loewenfeld,3.3.9,0,s,NA,s,NA,NA,s,602,NA,44127,NA,NA,602,2,legacy,1024,2,48000,-16,experiment,3,odd,48044,NA,NA,100555,NA,NA,135155,134088,3907,NA,NA,135151,135259,3901,135259,135862,KS - Flanker Task,47,25120,52,yes,1024
Incongruent,SSHSS,90.56603774,90.56603774,483.2641509,483.2641509,black,legacy,legacy,legacy,0,uniform,1,undefined,1,h,0,0,0,52,52,0,52,52,0,0,0,52,52,0,52,52,Sat Sep 25 19:36:06 2021,1500,The main experiment item,yes,KS - Flanker Task.osexp,/Users/kaylinsilva/Desktop/Life/Tarleton/Adv Stats,no,mono,no,18,no,white,no,yes,768,legacy,52,52,/Users/kaylinsilva/Desktop/Life/Tarleton/Adv Stats/KS-subject-3.csv,legacy,Lentiform Loewenfeld,3.3.9,0,h,NA,s,NA,NA,h,493,NA,44127,NA,NA,493,2,legacy,1024,2,48000,-16,experiment,3,odd,48044,NA,NA,100555,NA,NA,136934,135866,3907,NA,NA,136930,137038,3901,137039,137533,KS - Flanker Task,48,25613,53,yes,1024
Incongruent,SSHSS,90.74074074,90.74074074,482.5555556,482.5555556,black,legacy,legacy,legacy,0,uniform,1,undefined,1,h,0,0,0,53,53,0,53,53,0,0,0,53,53,0,53,53,Sat Sep 25 19:36:06 2021,1500,The main experiment item,yes,KS - Flanker Task.osexp,/Users/kaylinsilva/Desktop/Life/Tarleton/Adv Stats,no,mono,no,18,no,white,no,yes,768,legacy,53,53,/Users/kaylinsilva/Desktop/Life/Tarleton/Adv Stats/KS-subject-3.csv,legacy,Lentiform Loewenfeld,3.3.9,0,h,NA,s,NA,NA,h,445,NA,44127,NA,NA,445,2,legacy,1024,2,48000,-16,experiment,3,odd,48044,NA,NA,100555,NA,NA,138603,137536,3907,NA,NA,138599,138708,3901,138708,139154,KS - Flanker Task,49,26058,54,yes,1024
Incongruent,SSHSS,90.90909091,90.90909091,481.8727273,481.8727273,black,legacy,legacy,legacy,0,uniform,1,undefined,1,h,0,0,0,54,54,0,54,54,0,0,0,54,54,0,54,54,Sat Sep 25 19:36:06 2021,1500,The main experiment item,yes,KS - Flanker Task.osexp,/Users/kaylinsilva/Desktop/Life/Tarleton/Adv Stats,no,mono,no,18,no,white,no,yes,768,legacy,54,54,/Users/kaylinsilva/Desktop/Life/Tarleton/Adv Stats/KS-subject-3.csv,legacy,Lentiform Loewenfeld,3.3.9,0,h,NA,s,NA,NA,h,445,NA,44127,NA,NA,445,2,legacy,1024,2,48000,-16,experiment,3,odd,48044,NA,NA,100555,NA,NA,140226,139157,3907,NA,NA,140222,140330,3901,140330,140776,KS - Flanker Task,50,26503,55,yes,1024
Congruent,HHHHH,91.07142857,91.07142857,480.25,480.25,black,legacy,legacy,legacy,0,uniform,1,undefined,1,h,0,0,0,55,55,0,55,55,0,0,0,55,55,0,55,55,Sat Sep 25 19:36:06 2021,1500,The main experiment item,yes,KS - Flanker Task.osexp,/Users/kaylinsilva/Desktop/Life/Tarleton/Adv Stats,no,mono,no,18,no,white,no,yes,768,legacy,55,55,/Users/kaylinsilva/Desktop/Life/Tarleton/Adv Stats/KS-subject-3.csv,legacy,Lentiform Loewenfeld,3.3.9,0,h,NA,s,NA,NA,h,391,NA,44127,NA,NA,391,2,legacy,1024,2,48000,-16,experiment,3,odd,48044,NA,NA,100555,NA,NA,141848,140779,3907,NA,NA,141843,141953,3901,141953,142345,KS - Flanker Task,51,26894,56,yes,1024
Congruent,HHHHH,91.22807018,91.22807018,478.9473684,478.9473684,black,legacy,legacy,legacy,0,uniform,1,undefined,1,h,0,0,0,56,56,0,56,56,0,0,0,56,56,0,56,56,Sat Sep 25 19:36:06 2021,1500,The main experiment item,yes,KS - Flanker Task.osexp,/Users/kaylinsilva/Desktop/Life/Tarleton/Adv Stats,no,mono,no,18,no,white,no,yes,768,legacy,56,56,/Users/kaylinsilva/Desktop/Life/Tarleton/Adv Stats/KS-subject-3.csv,legacy,Lentiform Loewenfeld,3.3.9,0,h,NA,s,NA,NA,h,406,NA,44127,NA,NA,406,2,legacy,1024,2,48000,-16,experiment,3,odd,48044,NA,NA,100555,NA,NA,143417,142348,3907,NA,NA,143412,143522,3901,143522,143929,KS - Flanker Task,52,27300,57,yes,1024
Congruent,SSSSS,91.37931034,91.37931034,479.3793103,479.3793103,black,legacy,legacy,legacy,0,uniform,1,undefined,1,s,0,0,0,57,57,0,57,57,0,0,0,57,57,0,57,57,Sat Sep 25 19:36:06 2021,1500,The main experiment item,yes,KS - Flanker Task.osexp,/Users/kaylinsilva/Desktop/Life/Tarleton/Adv Stats,no,mono,no,18,no,white,no,yes,768,legacy,57,57,/Users/kaylinsilva/Desktop/Life/Tarleton/Adv Stats/KS-subject-3.csv,legacy,Lentiform Loewenfeld,3.3.9,0,s,NA,s,NA,NA,s,504,NA,44127,NA,NA,504,2,legacy,1024,2,48000,-16,experiment,3,odd,48044,NA,NA,100555,NA,NA,144999,143932,3907,NA,NA,144995,145106,3901,145106,145610,KS - Flanker Task,53,27804,58,yes,1024
Congruent,SSSSS,91.52542373,91.52542373,478.8474576,478.8474576,black,legacy,legacy,legacy,0,uniform,1,undefined,1,s,0,0,0,58,58,0,58,58,0,0,0,58,58,0,58,58,Sat Sep 25 19:36:06 2021,1500,The main experiment item,yes,KS - Flanker Task.osexp,/Users/kaylinsilva/Desktop/Life/Tarleton/Adv Stats,no,mono,no,18,no,white,no,yes,768,legacy,58,58,/Users/kaylinsilva/Desktop/Life/Tarleton/Adv Stats/KS-subject-3.csv,legacy,Lentiform Loewenfeld,3.3.9,0,s,NA,s,NA,NA,s,448,NA,44127,NA,NA,448,2,legacy,1024,2,48000,-16,experiment,3,odd,48044,NA,NA,100555,NA,NA,146681,145614,3907,NA,NA,146678,146785,3901,146785,147234,KS - Flanker Task,54,28252,59,yes,1024
Congruent,SSSSS,91.66666667,91.66666667,477.25,477.25,black,legacy,legacy,legacy,0,uniform,1,undefined,1,s,0,0,0,59,59,0,59,59,0,0,0,59,59,0,59,59,Sat Sep 25 19:36:06 2021,1500,The main experiment item,yes,KS - Flanker Task.osexp,/Users/kaylinsilva/Desktop/Life/Tarleton/Adv Stats,no,mono,no,18,no,white,no,yes,768,legacy,59,59,/Users/kaylinsilva/Desktop/Life/Tarleton/Adv Stats/KS-subject-3.csv,legacy,Lentiform Loewenfeld,3.3.9,0,s,NA,s,NA,NA,s,383,NA,44127,NA,NA,383,2,legacy,1024,2,48000,-16,experiment,3,odd,48044,NA,NA,100555,NA,NA,148305,147237,3907,NA,NA,148301,148409,3901,148410,148794,KS - Flanker Task,55,28635,60,yes,1024
Congruent,HHHHH,91.80327869,91.80327869,477.6557377,477.6557377,black,legacy,legacy,legacy,0,uniform,1,undefined,1,h,0,0,0,60,60,0,60,60,0,0,0,60,60,0,60,60,Sat Sep 25 19:36:06 2021,1500,The main experiment item,yes,KS - Flanker Task.osexp,/Users/kaylinsilva/Desktop/Life/Tarleton/Adv Stats,no,mono,no,18,no,white,no,yes,768,legacy,60,60,/Users/kaylinsilva/Desktop/Life/Tarleton/Adv Stats/KS-subject-3.csv,legacy,Lentiform Loewenfeld,3.3.9,0,h,NA,s,NA,NA,h,502,NA,44127,NA,NA,502,2,legacy,1024,2,48000,-16,experiment,3,odd,48044,NA,NA,100555,NA,NA,149866,148797,3907,NA,NA,149862,149971,3901,149971,150474,KS - Flanker Task,56,29137,61,yes,1024
Incongruent,HHSHH,91.93548387,91.93548387,477.7741935,477.7741935,black,legacy,legacy,legacy,0,uniform,1,undefined,1,s,0,0,0,61,61,0,61,61,0,0,0,61,61,0,61,61,Sat Sep 25 19:36:06 2021,1500,The main experiment item,yes,KS - Flanker Task.osexp,/Users/kaylinsilva/Desktop/Life/Tarleton/Adv Stats,no,mono,no,18,no,white,no,yes,768,legacy,61,61,/Users/kaylinsilva/Desktop/Life/Tarleton/Adv Stats/KS-subject-3.csv,legacy,Lentiform Loewenfeld,3.3.9,0,s,NA,s,NA,NA,s,485,NA,44127,NA,NA,485,2,legacy,1024,2,48000,-16,experiment,3,odd,48044,NA,NA,100555,NA,NA,151547,150478,3907,NA,NA,151543,151651,3901,151652,152138,KS - Flanker Task,57,29622,62,yes,1024
Congruent,SSSSS,92.06349206,92.06349206,477.1904762,477.1904762,black,legacy,legacy,legacy,0,uniform,1,undefined,1,s,0,0,0,62,62,0,62,62,0,0,0,62,62,0,62,62,Sat Sep 25 19:36:06 2021,1500,The main experiment item,yes,KS - Flanker Task.osexp,/Users/kaylinsilva/Desktop/Life/Tarleton/Adv Stats,no,mono,no,18,no,white,no,yes,768,legacy,62,62,/Users/kaylinsilva/Desktop/Life/Tarleton/Adv Stats/KS-subject-3.csv,legacy,Lentiform Loewenfeld,3.3.9,0,s,NA,s,NA,NA,s,441,NA,44127,NA,NA,441,2,legacy,1024,2,48000,-16,experiment,3,odd,48044,NA,NA,100555,NA,NA,153209,152141,3907,NA,NA,153205,153314,3901,153314,153755,KS - Flanker Task,58,30063,63,yes,1024
Incongruent,SSHSS,92.1875,92.1875,478.125,478.125,black,legacy,legacy,legacy,0,uniform,1,undefined,1,h,0,0,0,63,63,0,63,63,0,0,0,63,63,0,63,63,Sat Sep 25 19:36:06 2021,1500,The main experiment item,yes,KS - Flanker Task.osexp,/Users/kaylinsilva/Desktop/Life/Tarleton/Adv Stats,no,mono,no,18,no,white,no,yes,768,legacy,63,63,/Users/kaylinsilva/Desktop/Life/Tarleton/Adv Stats/KS-subject-3.csv,legacy,Lentiform Loewenfeld,3.3.9,0,h,NA,s,NA,NA,h,537,NA,44127,NA,NA,537,2,legacy,1024,2,48000,-16,experiment,3,odd,48044,NA,NA,100555,NA,NA,154825,153758,3907,NA,NA,154822,154930,3901,154930,155468,KS - Flanker Task,59,30600,64,yes,1024
Congruent,HHHHH,92.30769231,92.30769231,477.7384615,477.7384615,black,legacy,legacy,legacy,0,uniform,1,undefined,1,h,0,0,0,64,64,0,64,64,0,0,0,64,64,0,64,64,Sat Sep 25 19:36:06 2021,1500,The main experiment item,yes,KS - Flanker Task.osexp,/Users/kaylinsilva/Desktop/Life/Tarleton/Adv Stats,no,mono,no,18,no,white,no,yes,768,legacy,64,64,/Users/kaylinsilva/Desktop/Life/Tarleton/Adv Stats/KS-subject-3.csv,legacy,Lentiform Loewenfeld,3.3.9,0,h,NA,s,NA,NA,h,453,NA,44127,NA,NA,453,2,legacy,1024,2,48000,-16,experiment,3,odd,48044,NA,NA,100555,NA,NA,156540,155471,3907,NA,NA,156536,156644,3901,156645,157099,KS - Flanker Task,60,31053,65,yes,1024
Congruent,SSSSS,92.42424242,92.42424242,479.3939394,479.3939394,black,legacy,legacy,legacy,0,uniform,1,undefined,1,s,0,0,0,65,65,0,65,65,0,0,0,65,65,0,65,65,Sat Sep 25 19:36:06 2021,1500,The main experiment item,yes,KS - Flanker Task.osexp,/Users/kaylinsilva/Desktop/Life/Tarleton/Adv Stats,no,mono,no,18,no,white,no,yes,768,legacy,65,65,/Users/kaylinsilva/Desktop/Life/Tarleton/Adv Stats/KS-subject-3.csv,legacy,Lentiform Loewenfeld,3.3.9,0,s,NA,s,NA,NA,s,587,NA,44127,NA,NA,587,2,legacy,1024,2,48000,-16,experiment,3,odd,48044,NA,NA,100555,NA,NA,158170,157102,3907,NA,NA,158166,158275,3901,158276,158864,KS - Flanker Task,61,31640,66,yes,1024
Congruent,HHHHH,92.53731343,92.53731343,479,479,black,legacy,legacy,legacy,0,uniform,1,undefined,1,h,0,0,0,66,66,0,66,66,0,0,0,66,66,0,66,66,Sat Sep 25 19:36:06 2021,1500,The main experiment item,yes,KS - Flanker Task.osexp,/Users/kaylinsilva/Desktop/Life/Tarleton/Adv Stats,no,mono,no,18,no,white,no,yes,768,legacy,66,66,/Users/kaylinsilva/Desktop/Life/Tarleton/Adv Stats/KS-subject-3.csv,legacy,Lentiform Loewenfeld,3.3.9,0,h,NA,s,NA,NA,h,453,NA,44127,NA,NA,453,2,legacy,1024,2,48000,-16,experiment,3,odd,48044,NA,NA,100555,NA,NA,159936,158868,3907,NA,NA,159932,160040,3901,160041,160495,KS - Flanker Task,62,32093,67,yes,1024
Incongruent,SSHSS,92.64705882,92.64705882,481.3970588,481.3970588,black,legacy,legacy,legacy,0,uniform,1,undefined,1,h,0,0,0,67,67,0,67,67,0,0,0,67,67,0,67,67,Sat Sep 25 19:36:06 2021,1500,The main experiment item,yes,KS - Flanker Task.osexp,/Users/kaylinsilva/Desktop/Life/Tarleton/Adv Stats,no,mono,no,18,no,white,no,yes,768,legacy,67,67,/Users/kaylinsilva/Desktop/Life/Tarleton/Adv Stats/KS-subject-3.csv,legacy,Lentiform Loewenfeld,3.3.9,0,h,NA,s,NA,NA,h,642,NA,44127,NA,NA,642,2,legacy,1024,2,48000,-16,experiment,3,odd,48044,NA,NA,100555,NA,NA,161566,160498,3907,NA,NA,161562,161670,3901,161671,162314,KS - Flanker Task,63,32735,68,yes,1024
Incongruent,HHSHH,92.75362319,92.75362319,483.173913,483.173913,black,legacy,legacy,legacy,0,uniform,1,undefined,1,s,0,0,0,68,68,0,68,68,0,0,0,68,68,0,68,68,Sat Sep 25 19:36:06 2021,1500,The main experiment item,yes,KS - Flanker Task.osexp,/Users/kaylinsilva/Desktop/Life/Tarleton/Adv Stats,no,mono,no,18,no,white,no,yes,768,legacy,68,68,/Users/kaylinsilva/Desktop/Life/Tarleton/Adv Stats/KS-subject-3.csv,legacy,Lentiform Loewenfeld,3.3.9,0,s,NA,s,NA,NA,s,604,NA,44127,NA,NA,604,2,legacy,1024,2,48000,-16,experiment,3,odd,48044,NA,NA,100555,NA,NA,163386,162318,3907,NA,NA,163382,163491,3901,163492,164097,KS - Flanker Task,64,33339,69,yes,1024
Incongruent,SSHSS,92.85714286,92.85714286,484.1571429,484.1571429,black,legacy,legacy,legacy,0,uniform,1,undefined,1,h,0,0,0,69,69,0,69,69,0,0,0,69,69,0,69,69,Sat Sep 25 19:36:06 2021,1500,The main experiment item,yes,KS - Flanker Task.osexp,/Users/kaylinsilva/Desktop/Life/Tarleton/Adv Stats,no,mono,no,18,no,white,no,yes,768,legacy,69,69,/Users/kaylinsilva/Desktop/Life/Tarleton/Adv Stats/KS-subject-3.csv,legacy,Lentiform Loewenfeld,3.3.9,0,h,NA,s,NA,NA,h,552,NA,44127,NA,NA,552,2,legacy,1024,2,48000,-16,experiment,3,odd,48044,NA,NA,100555,NA,NA,165167,164100,3907,NA,NA,165164,165271,3901,165272,165825,KS - Flanker Task,65,33891,70,yes,1024
Incongruent,SSHSS,92.95774648,92.95774648,483.1126761,483.1126761,black,legacy,legacy,legacy,0,uniform,1,undefined,1,h,0,0,0,70,70,0,70,70,0,0,0,70,70,0,70,70,Sat Sep 25 19:36:06 2021,1500,The main experiment item,yes,KS - Flanker Task.osexp,/Users/kaylinsilva/Desktop/Life/Tarleton/Adv Stats,no,mono,no,18,no,white,no,yes,768,legacy,70,70,/Users/kaylinsilva/Desktop/Life/Tarleton/Adv Stats/KS-subject-3.csv,legacy,Lentiform Loewenfeld,3.3.9,0,h,NA,s,NA,NA,h,410,NA,44127,NA,NA,410,2,legacy,1024,2,48000,-16,experiment,3,odd,48044,NA,NA,100555,NA,NA,166896,165828,3907,NA,NA,166892,167000,3901,167000,167410,KS - Flanker Task,66,34301,71,yes,1024
Congruent,SSSSS,93.05555556,93.05555556,483.4305556,483.4305556,black,legacy,legacy,legacy,0,uniform,1,undefined,1,s,0,0,0,71,71,0,71,71,0,0,0,71,71,0,71,71,Sat Sep 25 19:36:06 2021,1500,The main experiment item,yes,KS - Flanker Task.osexp,/Users/kaylinsilva/Desktop/Life/Tarleton/Adv Stats,no,mono,no,18,no,white,no,yes,768,legacy,71,71,/Users/kaylinsilva/Desktop/Life/Tarleton/Adv Stats/KS-subject-3.csv,legacy,Lentiform Loewenfeld,3.3.9,0,s,NA,s,NA,NA,s,506,NA,44127,NA,NA,506,2,legacy,1024,2,48000,-16,experiment,3,odd,48044,NA,NA,100555,NA,NA,168482,167413,3907,NA,NA,168478,168586,3901,168586,169093,KS - Flanker Task,67,34807,72,yes,1024
Congruent,HHHHH,93.15068493,93.15068493,483.8493151,483.8493151,black,legacy,legacy,legacy,0,uniform,1,undefined,1,h,0,0,0,72,72,0,72,72,0,0,0,72,72,0,72,72,Sat Sep 25 19:36:06 2021,1500,The main experiment item,yes,KS - Flanker Task.osexp,/Users/kaylinsilva/Desktop/Life/Tarleton/Adv Stats,no,mono,no,18,no,white,no,yes,768,legacy,72,72,/Users/kaylinsilva/Desktop/Life/Tarleton/Adv Stats/KS-subject-3.csv,legacy,Lentiform Loewenfeld,3.3.9,0,h,NA,s,NA,NA,h,514,NA,44127,NA,NA,514,2,legacy,1024,2,48000,-16,experiment,3,odd,48044,NA,NA,100555,NA,NA,170163,169096,3907,NA,NA,170160,170267,3901,170268,170783,KS - Flanker Task,68,35321,73,yes,1024
Congruent,SSSSS,93.24324324,93.24324324,483.3783784,483.3783784,black,legacy,legacy,legacy,0,uniform,1,undefined,1,s,0,0,0,73,73,0,73,73,0,0,0,73,73,0,73,73,Sat Sep 25 19:36:06 2021,1500,The main experiment item,yes,KS - Flanker Task.osexp,/Users/kaylinsilva/Desktop/Life/Tarleton/Adv Stats,no,mono,no,18,no,white,no,yes,768,legacy,73,73,/Users/kaylinsilva/Desktop/Life/Tarleton/Adv Stats/KS-subject-3.csv,legacy,Lentiform Loewenfeld,3.3.9,0,s,NA,s,NA,NA,s,449,NA,44127,NA,NA,449,2,legacy,1024,2,48000,-16,experiment,3,odd,48044,NA,NA,100555,NA,NA,171855,170786,3907,NA,NA,171851,171959,3901,171960,172410,KS - Flanker Task,69,35770,74,yes,1024
Congruent,SSSSS,93.33333333,93.33333333,482.7733333,482.7733333,black,legacy,legacy,legacy,0,uniform,1,undefined,1,s,0,0,0,74,74,0,74,74,0,0,0,74,74,0,74,74,Sat Sep 25 19:36:06 2021,1500,The main experiment item,yes,KS - Flanker Task.osexp,/Users/kaylinsilva/Desktop/Life/Tarleton/Adv Stats,no,mono,no,18,no,white,no,yes,768,legacy,74,74,/Users/kaylinsilva/Desktop/Life/Tarleton/Adv Stats/KS-subject-3.csv,legacy,Lentiform Loewenfeld,3.3.9,0,s,NA,s,NA,NA,s,438,NA,44127,NA,NA,438,2,legacy,1024,2,48000,-16,experiment,3,odd,48044,NA,NA,100555,NA,NA,173480,172414,3907,NA,NA,173477,173585,3901,173585,174024,KS - Flanker Task,70,36208,75,yes,1024
Incongruent,HHSHH,93.42105263,93.42105263,484.6315789,484.6315789,black,legacy,legacy,legacy,0,uniform,1,undefined,1,s,0,0,0,75,75,0,75,75,0,0,0,75,75,0,75,75,Sat Sep 25 19:36:06 2021,1500,The main experiment item,yes,KS - Flanker Task.osexp,/Users/kaylinsilva/Desktop/Life/Tarleton/Adv Stats,no,mono,no,18,no,white,no,yes,768,legacy,75,75,/Users/kaylinsilva/Desktop/Life/Tarleton/Adv Stats/KS-subject-3.csv,legacy,Lentiform Loewenfeld,3.3.9,0,s,NA,s,NA,NA,s,624,NA,44127,NA,NA,624,2,legacy,1024,2,48000,-16,experiment,3,odd,48044,NA,NA,100555,NA,NA,175094,174027,3907,NA,NA,175091,175198,3901,175199,175824,KS - Flanker Task,71,36832,76,yes,1024
Congruent,HHHHH,93.50649351,93.50649351,483.5844156,483.5844156,black,legacy,legacy,legacy,0,uniform,1,undefined,1,h,0,0,0,76,76,0,76,76,0,0,0,76,76,0,76,76,Sat Sep 25 19:36:06 2021,1500,The main experiment item,yes,KS - Flanker Task.osexp,/Users/kaylinsilva/Desktop/Life/Tarleton/Adv Stats,no,mono,no,18,no,white,no,yes,768,legacy,76,76,/Users/kaylinsilva/Desktop/Life/Tarleton/Adv Stats/KS-subject-3.csv,legacy,Lentiform Loewenfeld,3.3.9,0,h,NA,s,NA,NA,h,404,NA,44127,NA,NA,404,2,legacy,1024,2,48000,-16,experiment,3,odd,48044,NA,NA,100555,NA,NA,176895,175827,3907,NA,NA,176892,177000,3901,177000,177405,KS - Flanker Task,72,37236,77,yes,1024
Incongruent,SSHSS,93.58974359,93.58974359,483.4615385,483.4615385,black,legacy,legacy,legacy,0,uniform,1,undefined,1,h,0,0,0,77,77,0,77,77,0,0,0,77,77,0,77,77,Sat Sep 25 19:36:06 2021,1500,The main experiment item,yes,KS - Flanker Task.osexp,/Users/kaylinsilva/Desktop/Life/Tarleton/Adv Stats,no,mono,no,18,no,white,no,yes,768,legacy,77,77,/Users/kaylinsilva/Desktop/Life/Tarleton/Adv Stats/KS-subject-3.csv,legacy,Lentiform Loewenfeld,3.3.9,0,h,NA,s,NA,NA,h,474,NA,44127,NA,NA,474,2,legacy,1024,2,48000,-16,experiment,3,odd,48044,NA,NA,100555,NA,NA,178476,177408,3907,NA,NA,178472,178580,3901,178580,179055,KS - Flanker Task,73,37710,78,yes,1024
Congruent,HHHHH,93.67088608,93.67088608,482.8481013,482.8481013,black,legacy,legacy,legacy,0,uniform,1,undefined,1,h,0,0,0,78,78,0,78,78,0,0,0,78,78,0,78,78,Sat Sep 25 19:36:06 2021,1500,The main experiment item,yes,KS - Flanker Task.osexp,/Users/kaylinsilva/Desktop/Life/Tarleton/Adv Stats,no,mono,no,18,no,white,no,yes,768,legacy,78,78,/Users/kaylinsilva/Desktop/Life/Tarleton/Adv Stats/KS-subject-3.csv,legacy,Lentiform Loewenfeld,3.3.9,0,h,NA,s,NA,NA,h,435,NA,44127,NA,NA,435,2,legacy,1024,2,48000,-16,experiment,3,odd,48044,NA,NA,100555,NA,NA,180126,179058,3907,NA,NA,180122,180230,3901,180230,180665,KS - Flanker Task,74,38145,79,yes,1024
Congruent,SSSSS,92.5,92.5,481.3875,481.3875,black,legacy,legacy,legacy,0,uniform,0,undefined,0,s,0,0,0,79,79,0,79,79,0,0,0,79,79,0,79,79,Sat Sep 25 19:36:06 2021,1500,The main experiment item,yes,KS - Flanker Task.osexp,/Users/kaylinsilva/Desktop/Life/Tarleton/Adv Stats,no,mono,no,18,no,white,no,yes,768,legacy,79,79,/Users/kaylinsilva/Desktop/Life/Tarleton/Adv Stats/KS-subject-3.csv,legacy,Lentiform Loewenfeld,3.3.9,0,h,NA,s,NA,NA,h,366,NA,44127,NA,NA,366,2,legacy,1024,2,48000,-16,experiment,3,odd,48044,NA,NA,100555,NA,NA,181738,180669,3907,NA,NA,181733,181842,3901,181842,182209,KS - Flanker Task,74,38511,80,yes,1024
Congruent,HHHHH,92.59259259,92.59259259,482.6666667,482.6666667,black,legacy,legacy,legacy,0,uniform,1,undefined,1,h,0,0,0,80,80,0,80,80,0,0,0,80,80,0,80,80,Sat Sep 25 19:36:06 2021,600,The main experiment item,yes,KS - Flanker Task.osexp,/Users/kaylinsilva/Desktop/Life/Tarleton/Adv Stats,no,mono,no,18,no,white,no,yes,768,legacy,0,79,/Users/kaylinsilva/Desktop/Life/Tarleton/Adv Stats/KS-subject-3.csv,legacy,Lentiform Loewenfeld,3.3.9,0,h,NA,s,s,NA,h,585,NA,44127,19465,NA,585,2,legacy,1024,2,48000,-16,experiment,3,odd,48044,203217,NA,182212,NA,NA,203244,182718,3907,183751,NA,203242,203348,3901,203348,203934,KS - Flanker Task,75,39096,81,yes,1024
Incongruent,SSHSS,92.68292683,92.68292683,483.3292683,483.3292683,black,legacy,legacy,legacy,0,uniform,1,undefined,1,h,0,0,0,81,81,0,81,81,0,0,0,81,81,0,81,81,Sat Sep 25 19:36:06 2021,600,The main experiment item,yes,KS - Flanker Task.osexp,/Users/kaylinsilva/Desktop/Life/Tarleton/Adv Stats,no,mono,no,18,no,white,no,yes,768,legacy,1,79,/Users/kaylinsilva/Desktop/Life/Tarleton/Adv Stats/KS-subject-3.csv,legacy,Lentiform Loewenfeld,3.3.9,0,h,NA,s,s,NA,h,537,NA,44127,19465,NA,537,2,legacy,1024,2,48000,-16,experiment,3,odd,48044,203217,NA,182212,NA,NA,205004,203936,3907,183751,NA,205001,205110,3901,205111,205649,KS - Flanker Task,76,39633,82,yes,1024
Congruent,HHHHH,92.77108434,92.77108434,482.2168675,482.2168675,black,legacy,legacy,legacy,0,uniform,1,undefined,1,h,0,0,0,82,82,0,82,82,0,0,0,82,82,0,82,82,Sat Sep 25 19:36:06 2021,600,The main experiment item,yes,KS - Flanker Task.osexp,/Users/kaylinsilva/Desktop/Life/Tarleton/Adv Stats,no,mono,no,18,no,white,no,yes,768,legacy,2,79,/Users/kaylinsilva/Desktop/Life/Tarleton/Adv Stats/KS-subject-3.csv,legacy,Lentiform Loewenfeld,3.3.9,0,h,NA,s,s,NA,h,391,NA,44127,19465,NA,391,2,legacy,1024,2,48000,-16,experiment,3,odd,48044,203217,NA,182212,NA,NA,206721,205653,3907,183751,NA,206717,206826,3901,206826,207217,KS - Flanker Task,77,40024,83,yes,1024
Incongruent,HHSHH,92.85714286,92.85714286,482.8452381,482.8452381,black,legacy,legacy,legacy,0,uniform,1,undefined,1,s,0,0,0,83,83,0,83,83,0,0,0,83,83,0,83,83,Sat Sep 25 19:36:06 2021,600,The main experiment item,yes,KS - Flanker Task.osexp,/Users/kaylinsilva/Desktop/Life/Tarleton/Adv Stats,no,mono,no,18,no,white,no,yes,768,legacy,3,79,/Users/kaylinsilva/Desktop/Life/Tarleton/Adv Stats/KS-subject-3.csv,legacy,Lentiform Loewenfeld,3.3.9,0,s,NA,s,s,NA,s,535,NA,44127,19465,NA,535,2,legacy,1024,2,48000,-16,experiment,3,odd,48044,203217,NA,182212,NA,NA,208289,207220,3907,183751,NA,208286,208394,3901,208394,208930,KS - Flanker Task,78,40559,84,yes,1024
Congruent,HHHHH,92.94117647,92.94117647,482.0235294,482.0235294,black,legacy,legacy,legacy,0,uniform,1,undefined,1,h,0,0,0,84,84,0,84,84,0,0,0,84,84,0,84,84,Sat Sep 25 19:36:06 2021,600,The main experiment item,yes,KS - Flanker Task.osexp,/Users/kaylinsilva/Desktop/Life/Tarleton/Adv Stats,no,mono,no,18,no,white,no,yes,768,legacy,4,79,/Users/kaylinsilva/Desktop/Life/Tarleton/Adv Stats/KS-subject-3.csv,legacy,Lentiform Loewenfeld,3.3.9,0,h,NA,s,s,NA,h,413,NA,44127,19465,NA,413,2,legacy,1024,2,48000,-16,experiment,3,odd,48044,203217,NA,182212,NA,NA,210000,208932,3907,183751,NA,209997,210104,3901,210104,210518,KS - Flanker Task,79,40972,85,yes,1024
Incongruent,SSHSS,93.02325581,93.02325581,482.7790698,482.7790698,black,legacy,legacy,legacy,0,uniform,1,undefined,1,h,0,0,0,85,85,0,85,85,0,0,0,85,85,0,85,85,Sat Sep 25 19:36:06 2021,600,The main experiment item,yes,KS - Flanker Task.osexp,/Users/kaylinsilva/Desktop/Life/Tarleton/Adv Stats,no,mono,no,18,no,white,no,yes,768,legacy,5,79,/Users/kaylinsilva/Desktop/Life/Tarleton/Adv Stats/KS-subject-3.csv,legacy,Lentiform Loewenfeld,3.3.9,0,h,NA,s,s,NA,h,547,NA,44127,19465,NA,547,2,legacy,1024,2,48000,-16,experiment,3,odd,48044,203217,NA,182212,NA,NA,211588,210521,3907,183751,NA,211585,211692,3901,211692,212239,KS - Flanker Task,80,41519,86,yes,1024
Incongruent,HHSHH,91.95402299,91.95402299,481.5287356,481.5287356,black,legacy,legacy,legacy,0,uniform,0,undefined,0,s,0,0,0,86,86,0,86,86,0,0,0,86,86,0,86,86,Sat Sep 25 19:36:06 2021,600,The main experiment item,yes,KS - Flanker Task.osexp,/Users/kaylinsilva/Desktop/Life/Tarleton/Adv Stats,no,mono,no,18,no,white,no,yes,768,legacy,6,79,/Users/kaylinsilva/Desktop/Life/Tarleton/Adv Stats/KS-subject-3.csv,legacy,Lentiform Loewenfeld,3.3.9,0,h,NA,s,s,NA,h,374,NA,44127,19465,NA,374,2,legacy,1024,2,48000,-16,experiment,3,odd,48044,203217,NA,182212,NA,NA,213310,212243,3907,183751,NA,213307,213414,3901,213414,213789,KS - Flanker Task,80,41893,87,yes,1024
Congruent,SSSSS,92.04545455,92.04545455,480.3409091,480.3409091,black,legacy,legacy,legacy,0,uniform,1,undefined,1,s,0,0,0,87,87,0,87,87,0,0,0,87,87,0,87,87,Sat Sep 25 19:36:06 2021,600,The main experiment item,yes,KS - Flanker Task.osexp,/Users/kaylinsilva/Desktop/Life/Tarleton/Adv Stats,no,mono,no,18,no,white,no,yes,768,legacy,7,79,/Users/kaylinsilva/Desktop/Life/Tarleton/Adv Stats/KS-subject-3.csv,legacy,Lentiform Loewenfeld,3.3.9,0,s,NA,s,s,NA,s,377,NA,44127,19465,NA,377,2,legacy,1024,2,48000,-16,experiment,3,odd,48044,203217,NA,213792,NA,NA,215364,214297,3907,183751,NA,215361,215468,3901,215468,215846,KS - Flanker Task,81,42270,88,yes,1024
Congruent,HHHHH,92.13483146,92.13483146,479.7977528,479.7977528,black,legacy,legacy,legacy,0,uniform,1,undefined,1,h,0,0,0,88,88,0,88,88,0,0,0,88,88,0,88,88,Sat Sep 25 19:36:06 2021,600,The main experiment item,yes,KS - Flanker Task.osexp,/Users/kaylinsilva/Desktop/Life/Tarleton/Adv Stats,no,mono,no,18,no,white,no,yes,768,legacy,8,79,/Users/kaylinsilva/Desktop/Life/Tarleton/Adv Stats/KS-subject-3.csv,legacy,Lentiform Loewenfeld,3.3.9,0,h,NA,s,s,NA,h,432,NA,44127,19465,NA,432,2,legacy,1024,2,48000,-16,experiment,3,odd,48044,203217,NA,213792,NA,NA,216917,215849,3907,183751,NA,216914,217021,3901,217021,217454,KS - Flanker Task,82,42702,89,yes,1024
Incongruent,SSHSS,92.22222222,92.22222222,480.2111111,480.2111111,black,legacy,legacy,legacy,0,uniform,1,undefined,1,h,0,0,0,89,89,0,89,89,0,0,0,89,89,0,89,89,Sat Sep 25 19:36:06 2021,600,The main experiment item,yes,KS - Flanker Task.osexp,/Users/kaylinsilva/Desktop/Life/Tarleton/Adv Stats,no,mono,no,18,no,white,no,yes,768,legacy,9,79,/Users/kaylinsilva/Desktop/Life/Tarleton/Adv Stats/KS-subject-3.csv,legacy,Lentiform Loewenfeld,3.3.9,0,h,NA,s,s,NA,h,517,NA,44127,19465,NA,517,2,legacy,1024,2,48000,-16,experiment,3,odd,48044,203217,NA,213792,NA,NA,218525,217457,3907,183751,NA,218521,218629,3901,218629,219147,KS - Flanker Task,83,43219,90,yes,1024
Incongruent,SSHSS,92.30769231,92.30769231,479.7142857,479.7142857,black,legacy,legacy,legacy,0,uniform,1,undefined,1,h,0,0,0,90,90,0,90,90,0,0,0,90,90,0,90,90,Sat Sep 25 19:36:06 2021,600,The main experiment item,yes,KS - Flanker Task.osexp,/Users/kaylinsilva/Desktop/Life/Tarleton/Adv Stats,no,mono,no,18,no,white,no,yes,768,legacy,10,79,/Users/kaylinsilva/Desktop/Life/Tarleton/Adv Stats/KS-subject-3.csv,legacy,Lentiform Loewenfeld,3.3.9,0,h,NA,s,s,NA,h,435,NA,44127,19465,NA,435,2,legacy,1024,2,48000,-16,experiment,3,odd,48044,203217,NA,213792,NA,NA,220217,219149,3907,183751,NA,220214,220321,3901,220321,220757,KS - Flanker Task,84,43654,91,yes,1024
Congruent,SSSSS,92.39130435,92.39130435,479.2608696,479.2608696,black,legacy,legacy,legacy,0,uniform,1,undefined,1,s,0,0,0,91,91,0,91,91,0,0,0,91,91,0,91,91,Sat Sep 25 19:36:06 2021,600,The main experiment item,yes,KS - Flanker Task.osexp,/Users/kaylinsilva/Desktop/Life/Tarleton/Adv Stats,no,mono,no,18,no,white,no,yes,768,legacy,11,79,/Users/kaylinsilva/Desktop/Life/Tarleton/Adv Stats/KS-subject-3.csv,legacy,Lentiform Loewenfeld,3.3.9,0,s,NA,s,s,NA,s,438,NA,44127,19465,NA,438,2,legacy,1024,2,48000,-16,experiment,3,odd,48044,203217,NA,213792,NA,NA,221827,220760,3907,183751,NA,221824,221931,3901,221931,222370,KS - Flanker Task,85,44092,92,yes,1024
Incongruent,SSHSS,91.39784946,91.39784946,480,480,black,legacy,legacy,legacy,0,uniform,0,undefined,0,h,0,0,0,92,92,0,92,92,0,0,0,92,92,0,92,92,Sat Sep 25 19:36:06 2021,600,The main experiment item,yes,KS - Flanker Task.osexp,/Users/kaylinsilva/Desktop/Life/Tarleton/Adv Stats,no,mono,no,18,no,white,no,yes,768,legacy,12,79,/Users/kaylinsilva/Desktop/Life/Tarleton/Adv Stats/KS-subject-3.csv,legacy,Lentiform Loewenfeld,3.3.9,0,s,NA,s,s,NA,s,548,NA,44127,19465,NA,548,2,legacy,1024,2,48000,-16,experiment,3,odd,48044,203217,NA,213792,NA,NA,223440,222373,3907,183751,NA,223437,223544,3901,223544,224093,KS - Flanker Task,85,44640,93,yes,1024
Incongruent,HHSHH,91.4893617,91.4893617,480.1595745,480.1595745,black,legacy,legacy,legacy,0,uniform,1,undefined,1,s,0,0,0,93,93,0,93,93,0,0,0,93,93,0,93,93,Sat Sep 25 19:36:06 2021,600,The main experiment item,yes,KS - Flanker Task.osexp,/Users/kaylinsilva/Desktop/Life/Tarleton/Adv Stats,no,mono,no,18,no,white,no,yes,768,legacy,13,79,/Users/kaylinsilva/Desktop/Life/Tarleton/Adv Stats/KS-subject-3.csv,legacy,Lentiform Loewenfeld,3.3.9,0,s,NA,s,s,NA,s,495,NA,44127,19465,NA,495,2,legacy,1024,2,48000,-16,experiment,3,odd,48044,203217,NA,224096,NA,NA,225667,224600,3907,183751,NA,225664,225771,3901,225771,226267,KS - Flanker Task,86,45135,94,yes,1024
Congruent,HHHHH,91.57894737,91.57894737,480.0631579,480.0631579,black,legacy,legacy,legacy,0,uniform,1,undefined,1,h,0,0,0,94,94,0,94,94,0,0,0,94,94,0,94,94,Sat Sep 25 19:36:06 2021,600,The main experiment item,yes,KS - Flanker Task.osexp,/Users/kaylinsilva/Desktop/Life/Tarleton/Adv Stats,no,mono,no,18,no,white,no,yes,768,legacy,14,79,/Users/kaylinsilva/Desktop/Life/Tarleton/Adv Stats/KS-subject-3.csv,legacy,Lentiform Loewenfeld,3.3.9,0,h,NA,s,s,NA,h,471,NA,44127,19465,NA,471,2,legacy,1024,2,48000,-16,experiment,3,odd,48044,203217,NA,224096,NA,NA,227337,226270,3907,183751,NA,227334,227441,3901,227441,227913,KS - Flanker Task,87,45606,95,yes,1024
Incongruent,SSHSS,91.66666667,91.66666667,479.8333333,479.8333333,black,legacy,legacy,legacy,0,uniform,1,undefined,1,h,0,0,0,95,95,0,95,95,0,0,0,95,95,0,95,95,Sat Sep 25 19:36:06 2021,600,The main experiment item,yes,KS - Flanker Task.osexp,/Users/kaylinsilva/Desktop/Life/Tarleton/Adv Stats,no,mono,no,18,no,white,no,yes,768,legacy,15,79,/Users/kaylinsilva/Desktop/Life/Tarleton/Adv Stats/KS-subject-3.csv,legacy,Lentiform Loewenfeld,3.3.9,0,h,NA,s,s,NA,h,458,NA,44127,19465,NA,458,2,legacy,1024,2,48000,-16,experiment,3,odd,48044,203217,NA,224096,NA,NA,228983,227916,3907,183751,NA,228980,229088,3901,229088,229547,KS - Flanker Task,88,46064,96,yes,1024
Congruent,HHHHH,91.75257732,91.75257732,478.9381443,478.9381443,black,legacy,legacy,legacy,0,uniform,1,undefined,1,h,0,0,0,96,96,0,96,96,0,0,0,96,96,0,96,96,Sat Sep 25 19:36:06 2021,600,The main experiment item,yes,KS - Flanker Task.osexp,/Users/kaylinsilva/Desktop/Life/Tarleton/Adv Stats,no,mono,no,18,no,white,no,yes,768,legacy,16,79,/Users/kaylinsilva/Desktop/Life/Tarleton/Adv Stats/KS-subject-3.csv,legacy,Lentiform Loewenfeld,3.3.9,0,h,NA,s,s,NA,h,393,NA,44127,19465,NA,393,2,legacy,1024,2,48000,-16,experiment,3,odd,48044,203217,NA,224096,NA,NA,230617,229550,3907,183751,NA,230614,230721,3901,230721,231115,KS - Flanker Task,89,46457,97,yes,1024
Incongruent,SSHSS,91.83673469,91.83673469,479.4693878,479.4693878,black,legacy,legacy,legacy,0,uniform,1,undefined,1,h,0,0,0,97,97,0,97,97,0,0,0,97,97,0,97,97,Sat Sep 25 19:36:06 2021,600,The main experiment item,yes,KS - Flanker Task.osexp,/Users/kaylinsilva/Desktop/Life/Tarleton/Adv Stats,no,mono,no,18,no,white,no,yes,768,legacy,17,79,/Users/kaylinsilva/Desktop/Life/Tarleton/Adv Stats/KS-subject-3.csv,legacy,Lentiform Loewenfeld,3.3.9,0,h,NA,s,s,NA,h,531,NA,44127,19465,NA,531,2,legacy,1024,2,48000,-16,experiment,3,odd,48044,203217,NA,224096,NA,NA,232185,231118,3907,183751,NA,232182,232289,3901,232289,232821,KS - Flanker Task,90,46988,98,yes,1024
Incongruent,HHSHH,91.91919192,91.91919192,480.030303,480.030303,black,legacy,legacy,legacy,0,uniform,1,undefined,1,s,0,0,0,98,98,0,98,98,0,0,0,98,98,0,98,98,Sat Sep 25 19:36:06 2021,600,The main experiment item,yes,KS - Flanker Task.osexp,/Users/kaylinsilva/Desktop/Life/Tarleton/Adv Stats,no,mono,no,18,no,white,no,yes,768,legacy,18,79,/Users/kaylinsilva/Desktop/Life/Tarleton/Adv Stats/KS-subject-3.csv,legacy,Lentiform Loewenfeld,3.3.9,0,s,NA,s,s,NA,s,535,NA,44127,19465,NA,535,2,legacy,1024,2,48000,-16,experiment,3,odd,48044,203217,NA,224096,NA,NA,233892,232824,3907,183751,NA,233889,233996,3901,233996,234532,KS - Flanker Task,91,47523,99,yes,1024
Incongruent,SSHSS,92,92,482.02,482.02,black,legacy,legacy,legacy,0,uniform,1,undefined,1,h,0,0,0,99,99,0,99,99,0,0,0,99,99,0,99,99,Sat Sep 25 19:36:06 2021,600,The main experiment item,yes,KS - Flanker Task.osexp,/Users/kaylinsilva/Desktop/Life/Tarleton/Adv Stats,no,mono,no,18,no,white,no,yes,768,legacy,19,79,/Users/kaylinsilva/Desktop/Life/Tarleton/Adv Stats/KS-subject-3.csv,legacy,Lentiform Loewenfeld,3.3.9,0,h,NA,s,s,NA,h,679,NA,44127,19465,NA,679,2,legacy,1024,2,48000,-16,experiment,3,odd,48044,203217,NA,224096,NA,NA,235602,234535,3907,183751,NA,235599,235706,3901,235707,236387,KS - Flanker Task,92,48202,100,yes,1024
Incongruent,HHSHH,92.07920792,92.07920792,482.8118812,482.8118812,black,legacy,legacy,legacy,0,uniform,1,undefined,1,s,0,0,0,100,100,0,100,100,0,0,0,100,100,0,100,100,Sat Sep 25 19:36:06 2021,600,The main experiment item,yes,KS - Flanker Task.osexp,/Users/kaylinsilva/Desktop/Life/Tarleton/Adv Stats,no,mono,no,18,no,white,no,yes,768,legacy,20,79,/Users/kaylinsilva/Desktop/Life/Tarleton/Adv Stats/KS-subject-3.csv,legacy,Lentiform Loewenfeld,3.3.9,0,s,NA,s,s,NA,s,562,NA,44127,19465,NA,562,2,legacy,1024,2,48000,-16,experiment,3,odd,48044,203217,NA,224096,236390,NA,237962,236894,3907,183751,NA,237959,238066,3901,238067,238630,KS - Flanker Task,93,48764,101,yes,1024
Incongruent,HHSHH,92.15686275,92.15686275,482.1176471,482.1176471,black,legacy,legacy,legacy,0,uniform,1,undefined,1,s,0,0,0,101,101,0,101,101,0,0,0,101,101,0,101,101,Sat Sep 25 19:36:06 2021,600,The main experiment item,yes,KS - Flanker Task.osexp,/Users/kaylinsilva/Desktop/Life/Tarleton/Adv Stats,no,mono,no,18,no,white,no,yes,768,legacy,21,79,/Users/kaylinsilva/Desktop/Life/Tarleton/Adv Stats/KS-subject-3.csv,legacy,Lentiform Loewenfeld,3.3.9,0,s,NA,s,s,NA,s,412,NA,44127,19465,NA,412,2,legacy,1024,2,48000,-16,experiment,3,odd,48044,203217,NA,224096,236390,NA,239700,238633,3907,183751,NA,239697,239804,3901,239804,240217,KS - Flanker Task,94,49176,102,yes,1024
Congruent,HHHHH,92.23300971,92.23300971,481.7864078,481.7864078,black,legacy,legacy,legacy,0,uniform,1,undefined,1,h,0,0,0,102,102,0,102,102,0,0,0,102,102,0,102,102,Sat Sep 25 19:36:06 2021,600,The main experiment item,yes,KS - Flanker Task.osexp,/Users/kaylinsilva/Desktop/Life/Tarleton/Adv Stats,no,mono,no,18,no,white,no,yes,768,legacy,22,79,/Users/kaylinsilva/Desktop/Life/Tarleton/Adv Stats/KS-subject-3.csv,legacy,Lentiform Loewenfeld,3.3.9,0,h,NA,s,s,NA,h,448,NA,44127,19465,NA,448,2,legacy,1024,2,48000,-16,experiment,3,odd,48044,203217,NA,224096,236390,NA,241287,240220,3907,183751,NA,241284,241391,3901,241391,241840,KS - Flanker Task,95,49624,103,yes,1024
Congruent,HHHHH,92.30769231,92.30769231,480.4423077,480.4423077,black,legacy,legacy,legacy,0,uniform,1,undefined,1,h,0,0,0,103,103,0,103,103,0,0,0,103,103,0,103,103,Sat Sep 25 19:36:06 2021,600,The main experiment item,yes,KS - Flanker Task.osexp,/Users/kaylinsilva/Desktop/Life/Tarleton/Adv Stats,no,mono,no,18,no,white,no,yes,768,legacy,23,79,/Users/kaylinsilva/Desktop/Life/Tarleton/Adv Stats/KS-subject-3.csv,legacy,Lentiform Loewenfeld,3.3.9,0,h,NA,s,s,NA,h,342,NA,44127,19465,NA,342,2,legacy,1024,2,48000,-16,experiment,3,odd,48044,203217,NA,224096,236390,NA,242910,241844,3907,183751,NA,242907,243015,3901,243015,243358,KS - Flanker Task,96,49966,104,yes,1024
Congruent,HHHHH,92.38095238,92.38095238,478.9428571,478.9428571,black,legacy,legacy,legacy,0,uniform,1,undefined,1,h,0,0,0,104,104,0,104,104,0,0,0,104,104,0,104,104,Sat Sep 25 19:36:06 2021,600,The main experiment item,yes,KS - Flanker Task.osexp,/Users/kaylinsilva/Desktop/Life/Tarleton/Adv Stats,no,mono,no,18,no,white,no,yes,768,legacy,24,79,/Users/kaylinsilva/Desktop/Life/Tarleton/Adv Stats/KS-subject-3.csv,legacy,Lentiform Loewenfeld,3.3.9,0,h,NA,s,s,NA,h,323,NA,44127,19465,NA,323,2,legacy,1024,2,48000,-16,experiment,3,odd,48044,203217,NA,224096,236390,NA,244429,243361,3907,183751,NA,244426,244533,3901,244534,244858,KS - Flanker Task,97,50289,105,yes,1024
Congruent,SSSSS,92.45283019,92.45283019,477.7358491,477.7358491,black,legacy,legacy,legacy,0,uniform,1,undefined,1,s,0,0,0,105,105,0,105,105,0,0,0,105,105,0,105,105,Sat Sep 25 19:36:06 2021,600,The main experiment item,yes,KS - Flanker Task.osexp,/Users/kaylinsilva/Desktop/Life/Tarleton/Adv Stats,no,mono,no,18,no,white,no,yes,768,legacy,25,79,/Users/kaylinsilva/Desktop/Life/Tarleton/Adv Stats/KS-subject-3.csv,legacy,Lentiform Loewenfeld,3.3.9,0,s,NA,s,s,NA,s,351,NA,44127,19465,NA,351,2,legacy,1024,2,48000,-16,experiment,3,odd,48044,203217,NA,224096,236390,NA,245928,244861,3907,183751,NA,245924,246032,3901,246032,246384,KS - Flanker Task,98,50640,106,yes,1024
Incongruent,SSHSS,92.52336449,92.52336449,477.8878505,477.8878505,black,legacy,legacy,legacy,0,uniform,1,undefined,1,h,0,0,0,106,106,0,106,106,0,0,0,106,106,0,106,106,Sat Sep 25 19:36:06 2021,600,The main experiment item,yes,KS - Flanker Task.osexp,/Users/kaylinsilva/Desktop/Life/Tarleton/Adv Stats,no,mono,no,18,no,white,no,yes,768,legacy,26,79,/Users/kaylinsilva/Desktop/Life/Tarleton/Adv Stats/KS-subject-3.csv,legacy,Lentiform Loewenfeld,3.3.9,0,h,NA,s,s,NA,h,494,NA,44127,19465,NA,494,2,legacy,1024,2,48000,-16,experiment,3,odd,48044,203217,NA,224096,236390,NA,247455,246387,3907,183751,NA,247452,247560,3901,247560,248055,KS - Flanker Task,99,51134,107,yes,1024
Congruent,SSSSS,92.59259259,92.59259259,477.5925926,477.5925926,black,legacy,legacy,legacy,0,uniform,1,undefined,1,s,0,0,0,107,107,0,107,107,0,0,0,107,107,0,107,107,Sat Sep 25 19:36:06 2021,600,The main experiment item,yes,KS - Flanker Task.osexp,/Users/kaylinsilva/Desktop/Life/Tarleton/Adv Stats,no,mono,no,18,no,white,no,yes,768,legacy,27,79,/Users/kaylinsilva/Desktop/Life/Tarleton/Adv Stats/KS-subject-3.csv,legacy,Lentiform Loewenfeld,3.3.9,0,s,NA,s,s,NA,s,446,NA,44127,19465,NA,446,2,legacy,1024,2,48000,-16,experiment,3,odd,48044,203217,NA,224096,236390,NA,249125,248058,3907,183751,NA,249121,249229,3901,249230,249677,KS - Flanker Task,100,51580,108,yes,1024
Incongruent,HHSHH,92.66055046,92.66055046,477.5412844,477.5412844,black,legacy,legacy,legacy,0,uniform,1,undefined,1,s,0,0,0,108,108,0,108,108,0,0,0,108,108,0,108,108,Sat Sep 25 19:36:06 2021,600,The main experiment item,yes,KS - Flanker Task.osexp,/Users/kaylinsilva/Desktop/Life/Tarleton/Adv Stats,no,mono,no,18,no,white,no,yes,768,legacy,28,79,/Users/kaylinsilva/Desktop/Life/Tarleton/Adv Stats/KS-subject-3.csv,legacy,Lentiform Loewenfeld,3.3.9,0,s,NA,s,s,NA,s,472,NA,44127,19465,NA,472,2,legacy,1024,2,48000,-16,experiment,3,odd,48044,203217,NA,224096,236390,NA,250748,249680,3907,183751,NA,250745,250852,3901,250852,251325,KS - Flanker Task,101,52052,109,yes,1024
Congruent,SSSSS,92.72727273,92.72727273,476.4090909,476.4090909,black,legacy,legacy,legacy,0,uniform,1,undefined,1,s,0,0,0,109,109,0,109,109,0,0,0,109,109,0,109,109,Sat Sep 25 19:36:06 2021,600,The main experiment item,yes,KS - Flanker Task.osexp,/Users/kaylinsilva/Desktop/Life/Tarleton/Adv Stats,no,mono,no,18,no,white,no,yes,768,legacy,29,79,/Users/kaylinsilva/Desktop/Life/Tarleton/Adv Stats/KS-subject-3.csv,legacy,Lentiform Loewenfeld,3.3.9,0,s,NA,s,s,NA,s,353,NA,44127,19465,NA,353,2,legacy,1024,2,48000,-16,experiment,3,odd,48044,203217,NA,224096,236390,NA,252395,251328,3907,183751,NA,252392,252499,3901,252499,252853,KS - Flanker Task,102,52405,110,yes,1024
Congruent,SSSSS,92.79279279,92.79279279,475.3063063,475.3063063,black,legacy,legacy,legacy,0,uniform,1,undefined,1,s,0,0,0,110,110,0,110,110,0,0,0,110,110,0,110,110,Sat Sep 25 19:36:06 2021,600,The main experiment item,yes,KS - Flanker Task.osexp,/Users/kaylinsilva/Desktop/Life/Tarleton/Adv Stats,no,mono,no,18,no,white,no,yes,768,legacy,30,79,/Users/kaylinsilva/Desktop/Life/Tarleton/Adv Stats/KS-subject-3.csv,legacy,Lentiform Loewenfeld,3.3.9,0,s,NA,s,s,NA,s,354,NA,44127,19465,NA,354,2,legacy,1024,2,48000,-16,experiment,3,odd,48044,203217,NA,224096,236390,NA,253923,252856,3907,183751,NA,253920,254027,3901,254027,254382,KS - Flanker Task,103,52759,111,yes,1024
Incongruent,SSHSS,92.85714286,92.85714286,474.7232143,474.7232143,black,legacy,legacy,legacy,0,uniform,1,undefined,1,h,0,0,0,111,111,0,111,111,0,0,0,111,111,0,111,111,Sat Sep 25 19:36:06 2021,600,The main experiment item,yes,KS - Flanker Task.osexp,/Users/kaylinsilva/Desktop/Life/Tarleton/Adv Stats,no,mono,no,18,no,white,no,yes,768,legacy,31,79,/Users/kaylinsilva/Desktop/Life/Tarleton/Adv Stats/KS-subject-3.csv,legacy,Lentiform Loewenfeld,3.3.9,0,h,NA,s,s,NA,h,410,NA,44127,19465,NA,410,2,legacy,1024,2,48000,-16,experiment,3,odd,48044,203217,NA,224096,236390,NA,255453,254384,3907,183751,NA,255450,255557,3901,255558,255968,KS - Flanker Task,104,53169,112,yes,1024
Congruent,HHHHH,92.92035398,92.92035398,474.5663717,474.5663717,black,legacy,legacy,legacy,0,uniform,1,undefined,1,h,0,0,0,112,112,0,112,112,0,0,0,112,112,0,112,112,Sat Sep 25 19:36:06 2021,600,The main experiment item,yes,KS - Flanker Task.osexp,/Users/kaylinsilva/Desktop/Life/Tarleton/Adv Stats,no,mono,no,18,no,white,no,yes,768,legacy,32,79,/Users/kaylinsilva/Desktop/Life/Tarleton/Adv Stats/KS-subject-3.csv,legacy,Lentiform Loewenfeld,3.3.9,0,h,NA,s,s,NA,h,457,NA,44127,19465,NA,457,2,legacy,1024,2,48000,-16,experiment,3,odd,48044,203217,NA,224096,236390,NA,257040,255972,3907,183751,NA,257036,257144,3901,257144,257602,KS - Flanker Task,105,53626,113,yes,1024
Congruent,HHHHH,92.98245614,92.98245614,474.0964912,474.0964912,black,legacy,legacy,legacy,0,uniform,1,undefined,1,h,0,0,0,113,113,0,113,113,0,0,0,113,113,0,113,113,Sat Sep 25 19:36:06 2021,600,The main experiment item,yes,KS - Flanker Task.osexp,/Users/kaylinsilva/Desktop/Life/Tarleton/Adv Stats,no,mono,no,18,no,white,no,yes,768,legacy,33,79,/Users/kaylinsilva/Desktop/Life/Tarleton/Adv Stats/KS-subject-3.csv,legacy,Lentiform Loewenfeld,3.3.9,0,h,NA,s,s,NA,h,421,NA,44127,19465,NA,421,2,legacy,1024,2,48000,-16,experiment,3,odd,48044,203217,NA,224096,236390,NA,258672,257605,3907,183751,NA,258668,258776,3901,258777,259199,KS - Flanker Task,106,54047,114,yes,1024
Congruent,SSSSS,93.04347826,93.04347826,473.973913,473.973913,black,legacy,legacy,legacy,0,uniform,1,undefined,1,s,0,0,0,114,114,0,114,114,0,0,0,114,114,0,114,114,Sat Sep 25 19:36:06 2021,600,The main experiment item,yes,KS - Flanker Task.osexp,/Users/kaylinsilva/Desktop/Life/Tarleton/Adv Stats,no,mono,no,18,no,white,no,yes,768,legacy,34,79,/Users/kaylinsilva/Desktop/Life/Tarleton/Adv Stats/KS-subject-3.csv,legacy,Lentiform Loewenfeld,3.3.9,0,s,NA,s,s,NA,s,460,NA,44127,19465,NA,460,2,legacy,1024,2,48000,-16,experiment,3,odd,48044,203217,NA,224096,236390,NA,260270,259203,3907,183751,NA,260267,260375,3901,260375,260837,KS - Flanker Task,107,54507,115,yes,1024
Congruent,HHHHH,93.10344828,93.10344828,473.9482759,473.9482759,black,legacy,legacy,legacy,0,uniform,1,undefined,1,h,0,0,0,115,115,0,115,115,0,0,0,115,115,0,115,115,Sat Sep 25 19:36:06 2021,600,The main experiment item,yes,KS - Flanker Task.osexp,/Users/kaylinsilva/Desktop/Life/Tarleton/Adv Stats,no,mono,no,18,no,white,no,yes,768,legacy,35,79,/Users/kaylinsilva/Desktop/Life/Tarleton/Adv Stats/KS-subject-3.csv,legacy,Lentiform Loewenfeld,3.3.9,0,h,NA,s,s,NA,h,471,NA,44127,19465,NA,471,2,legacy,1024,2,48000,-16,experiment,3,odd,48044,203217,NA,224096,236390,NA,261907,260840,3907,183751,NA,261904,262012,3901,262012,262484,KS - Flanker Task,108,54978,116,yes,1024
Congruent,SSSSS,93.16239316,93.16239316,473.8205128,473.8205128,black,legacy,legacy,legacy,0,uniform,1,undefined,1,s,0,0,0,116,116,0,116,116,0,0,0,116,116,0,116,116,Sat Sep 25 19:36:06 2021,600,The main experiment item,yes,KS - Flanker Task.osexp,/Users/kaylinsilva/Desktop/Life/Tarleton/Adv Stats,no,mono,no,18,no,white,no,yes,768,legacy,36,79,/Users/kaylinsilva/Desktop/Life/Tarleton/Adv Stats/KS-subject-3.csv,legacy,Lentiform Loewenfeld,3.3.9,0,s,NA,s,s,NA,s,459,NA,44127,19465,NA,459,2,legacy,1024,2,48000,-16,experiment,3,odd,48044,203217,NA,224096,236390,NA,263555,262487,3907,183751,NA,263552,263659,3901,263659,264119,KS - Flanker Task,109,55437,117,yes,1024
Incongruent,SSHSS,93.22033898,93.22033898,474.6864407,474.6864407,black,legacy,legacy,legacy,0,uniform,1,undefined,1,h,0,0,0,117,117,0,117,117,0,0,0,117,117,0,117,117,Sat Sep 25 19:36:06 2021,600,The main experiment item,yes,KS - Flanker Task.osexp,/Users/kaylinsilva/Desktop/Life/Tarleton/Adv Stats,no,mono,no,18,no,white,no,yes,768,legacy,37,79,/Users/kaylinsilva/Desktop/Life/Tarleton/Adv Stats/KS-subject-3.csv,legacy,Lentiform Loewenfeld,3.3.9,0,h,NA,s,s,NA,h,576,NA,44127,19465,NA,576,2,legacy,1024,2,48000,-16,experiment,3,odd,48044,203217,NA,224096,236390,NA,265190,264123,3907,183751,NA,265186,265294,3901,265294,265871,KS - Flanker Task,110,56013,118,yes,1024
Incongruent,HHSHH,93.27731092,93.27731092,474.9915966,474.9915966,black,legacy,legacy,legacy,0,uniform,1,undefined,1,s,0,0,0,118,118,0,118,118,0,0,0,118,118,0,118,118,Sat Sep 25 19:36:06 2021,600,The main experiment item,yes,KS - Flanker Task.osexp,/Users/kaylinsilva/Desktop/Life/Tarleton/Adv Stats,no,mono,no,18,no,white,no,yes,768,legacy,38,79,/Users/kaylinsilva/Desktop/Life/Tarleton/Adv Stats/KS-subject-3.csv,legacy,Lentiform Loewenfeld,3.3.9,0,s,NA,s,s,NA,s,511,NA,44127,19465,NA,511,2,legacy,1024,2,48000,-16,experiment,3,odd,48044,203217,NA,224096,236390,NA,266943,265875,3907,183751,NA,266940,267047,3901,267047,267559,KS - Flanker Task,111,56524,119,yes,1024
Incongruent,HHSHH,93.33333333,93.33333333,474.0416667,474.0416667,black,legacy,legacy,legacy,0,uniform,1,undefined,1,s,0,0,0,119,119,0,119,119,0,0,0,119,119,0,119,119,Sat Sep 25 19:36:06 2021,600,The main experiment item,yes,KS - Flanker Task.osexp,/Users/kaylinsilva/Desktop/Life/Tarleton/Adv Stats,no,mono,no,18,no,white,no,yes,768,legacy,39,79,/Users/kaylinsilva/Desktop/Life/Tarleton/Adv Stats/KS-subject-3.csv,legacy,Lentiform Loewenfeld,3.3.9,0,s,NA,s,s,NA,s,361,NA,44127,19465,NA,361,2,legacy,1024,2,48000,-16,experiment,3,odd,48044,203217,NA,224096,236390,NA,268630,267562,3907,183751,NA,268626,268734,3901,268734,269096,KS - Flanker Task,112,56885,120,yes,1024
Congruent,SSSSS,93.38842975,93.38842975,473.5950413,473.5950413,black,legacy,legacy,legacy,0,uniform,1,undefined,1,s,0,0,0,120,120,0,120,120,0,0,0,120,120,0,120,120,Sat Sep 25 19:36:06 2021,600,The main experiment item,yes,KS - Flanker Task.osexp,/Users/kaylinsilva/Desktop/Life/Tarleton/Adv Stats,no,mono,no,18,no,white,no,yes,768,legacy,40,79,/Users/kaylinsilva/Desktop/Life/Tarleton/Adv Stats/KS-subject-3.csv,legacy,Lentiform Loewenfeld,3.3.9,0,s,NA,s,s,NA,s,420,NA,44127,19465,NA,420,2,legacy,1024,2,48000,-16,experiment,3,odd,48044,203217,NA,224096,236390,NA,270166,269099,3907,183751,NA,270163,270270,3901,270270,270691,KS - Flanker Task,113,57305,121,yes,1024
Incongruent,HHSHH,93.44262295,93.44262295,473.4672131,473.4672131,black,legacy,legacy,legacy,0,uniform,1,undefined,1,s,0,0,0,121,121,0,121,121,0,0,0,121,121,0,121,121,Sat Sep 25 19:36:06 2021,600,The main experiment item,yes,KS - Flanker Task.osexp,/Users/kaylinsilva/Desktop/Life/Tarleton/Adv Stats,no,mono,no,18,no,white,no,yes,768,legacy,41,79,/Users/kaylinsilva/Desktop/Life/Tarleton/Adv Stats/KS-subject-3.csv,legacy,Lentiform Loewenfeld,3.3.9,0,s,NA,s,s,NA,s,458,NA,44127,19465,NA,458,2,legacy,1024,2,48000,-16,experiment,3,odd,48044,203217,NA,224096,236390,NA,271763,270695,3907,183751,NA,271759,271867,3901,271867,272327,KS - Flanker Task,114,57763,122,yes,1024
Incongruent,SSHSS,93.49593496,93.49593496,473.7235772,473.7235772,black,legacy,legacy,legacy,0,uniform,1,undefined,1,h,0,0,0,122,122,0,122,122,0,0,0,122,122,0,122,122,Sat Sep 25 19:36:06 2021,600,The main experiment item,yes,KS - Flanker Task.osexp,/Users/kaylinsilva/Desktop/Life/Tarleton/Adv Stats,no,mono,no,18,no,white,no,yes,768,legacy,42,79,/Users/kaylinsilva/Desktop/Life/Tarleton/Adv Stats/KS-subject-3.csv,legacy,Lentiform Loewenfeld,3.3.9,0,h,NA,s,s,NA,h,505,NA,44127,19465,NA,505,2,legacy,1024,2,48000,-16,experiment,3,odd,48044,203217,NA,224096,236390,NA,273397,272330,3907,183751,NA,273394,273501,3901,273501,274007,KS - Flanker Task,115,58268,123,yes,1024
Congruent,HHHHH,93.5483871,93.5483871,474.1532258,474.1532258,black,legacy,legacy,legacy,0,uniform,1,undefined,1,h,0,0,0,123,123,0,123,123,0,0,0,123,123,0,123,123,Sat Sep 25 19:36:06 2021,600,The main experiment item,yes,KS - Flanker Task.osexp,/Users/kaylinsilva/Desktop/Life/Tarleton/Adv Stats,no,mono,no,18,no,white,no,yes,768,legacy,43,79,/Users/kaylinsilva/Desktop/Life/Tarleton/Adv Stats/KS-subject-3.csv,legacy,Lentiform Loewenfeld,3.3.9,0,h,NA,s,s,NA,h,527,NA,44127,19465,NA,527,2,legacy,1024,2,48000,-16,experiment,3,odd,48044,203217,NA,224096,236390,NA,275078,274010,3907,183751,NA,275074,275182,3901,275182,275710,KS - Flanker Task,116,58795,124,yes,1024
Congruent,HHHHH,93.6,93.6,473.104,473.104,black,legacy,legacy,legacy,0,uniform,1,undefined,1,h,0,0,0,124,124,0,124,124,0,0,0,124,124,0,124,124,Sat Sep 25 19:36:06 2021,600,The main experiment item,yes,KS - Flanker Task.osexp,/Users/kaylinsilva/Desktop/Life/Tarleton/Adv Stats,no,mono,no,18,no,white,no,yes,768,legacy,44,79,/Users/kaylinsilva/Desktop/Life/Tarleton/Adv Stats/KS-subject-3.csv,legacy,Lentiform Loewenfeld,3.3.9,0,h,NA,s,s,NA,h,343,NA,44127,19465,NA,343,2,legacy,1024,2,48000,-16,experiment,3,odd,48044,203217,NA,224096,236390,NA,276781,275713,3907,183751,NA,276778,276887,3901,276887,277231,KS - Flanker Task,117,59138,125,yes,1024
Congruent,SSSSS,93.65079365,93.65079365,473.5873016,473.5873016,black,legacy,legacy,legacy,0,uniform,1,undefined,1,s,0,0,0,125,125,0,125,125,0,0,0,125,125,0,125,125,Sat Sep 25 19:36:06 2021,600,The main experiment item,yes,KS - Flanker Task.osexp,/Users/kaylinsilva/Desktop/Life/Tarleton/Adv Stats,no,mono,no,18,no,white,no,yes,768,legacy,45,79,/Users/kaylinsilva/Desktop/Life/Tarleton/Adv Stats/KS-subject-3.csv,legacy,Lentiform Loewenfeld,3.3.9,0,s,NA,s,s,NA,s,534,NA,44127,19465,NA,534,2,legacy,1024,2,48000,-16,experiment,3,odd,48044,203217,NA,224096,236390,NA,278302,277234,3907,183751,NA,278298,278406,3901,278407,278942,KS - Flanker Task,118,59672,126,yes,1024
Congruent,SSSSS,93.7007874,93.7007874,473.1181102,473.1181102,black,legacy,legacy,legacy,0,uniform,1,undefined,1,s,0,0,0,126,126,0,126,126,0,0,0,126,126,0,126,126,Sat Sep 25 19:36:06 2021,600,The main experiment item,yes,KS - Flanker Task.osexp,/Users/kaylinsilva/Desktop/Life/Tarleton/Adv Stats,no,mono,no,18,no,white,no,yes,768,legacy,46,79,/Users/kaylinsilva/Desktop/Life/Tarleton/Adv Stats/KS-subject-3.csv,legacy,Lentiform Loewenfeld,3.3.9,0,s,NA,s,s,NA,s,414,NA,44127,19465,NA,414,2,legacy,1024,2,48000,-16,experiment,3,odd,48044,203217,NA,224096,236390,NA,280013,278945,3907,183751,NA,280010,280117,3901,280118,280533,KS - Flanker Task,119,60086,127,yes,1024
Incongruent,HHSHH,93.75,93.75,473.1875,473.1875,black,legacy,legacy,legacy,0,uniform,1,undefined,1,s,0,0,0,127,127,0,127,127,0,0,0,127,127,0,127,127,Sat Sep 25 19:36:06 2021,600,The main experiment item,yes,KS - Flanker Task.osexp,/Users/kaylinsilva/Desktop/Life/Tarleton/Adv Stats,no,mono,no,18,no,white,no,yes,768,legacy,47,79,/Users/kaylinsilva/Desktop/Life/Tarleton/Adv Stats/KS-subject-3.csv,legacy,Lentiform Loewenfeld,3.3.9,0,s,NA,s,s,NA,s,482,NA,44127,19465,NA,482,2,legacy,1024,2,48000,-16,experiment,3,odd,48044,203217,NA,224096,236390,NA,281603,280536,3907,183751,NA,281600,281707,3901,281707,282190,KS - Flanker Task,120,60568,128,yes,1024
Incongruent,SSHSS,93.79844961,93.79844961,473.2325581,473.2325581,black,legacy,legacy,legacy,0,uniform,1,undefined,1,h,0,0,0,128,128,0,128,128,0,0,0,128,128,0,128,128,Sat Sep 25 19:36:06 2021,600,The main experiment item,yes,KS - Flanker Task.osexp,/Users/kaylinsilva/Desktop/Life/Tarleton/Adv Stats,no,mono,no,18,no,white,no,yes,768,legacy,48,79,/Users/kaylinsilva/Desktop/Life/Tarleton/Adv Stats/KS-subject-3.csv,legacy,Lentiform Loewenfeld,3.3.9,0,h,NA,s,s,NA,h,479,NA,44127,19465,NA,479,2,legacy,1024,2,48000,-16,experiment,3,odd,48044,203217,NA,224096,236390,NA,283261,282193,3907,183751,NA,283257,283365,3901,283365,283845,KS - Flanker Task,121,61047,129,yes,1024
Incongruent,HHSHH,93.84615385,93.84615385,473.6076923,473.6076923,black,legacy,legacy,legacy,0,uniform,1,undefined,1,s,0,0,0,129,129,0,129,129,0,0,0,129,129,0,129,129,Sat Sep 25 19:36:06 2021,600,The main experiment item,yes,KS - Flanker Task.osexp,/Users/kaylinsilva/Desktop/Life/Tarleton/Adv Stats,no,mono,no,18,no,white,no,yes,768,legacy,49,79,/Users/kaylinsilva/Desktop/Life/Tarleton/Adv Stats/KS-subject-3.csv,legacy,Lentiform Loewenfeld,3.3.9,0,s,NA,s,s,NA,s,522,NA,44127,19465,NA,522,2,legacy,1024,2,48000,-16,experiment,3,odd,48044,203217,NA,224096,236390,NA,284916,283848,3907,183751,NA,284912,285020,3901,285020,285543,KS - Flanker Task,122,61569,130,yes,1024
Congruent,SSSSS,93.89312977,93.89312977,472.9618321,472.9618321,black,legacy,legacy,legacy,0,uniform,1,undefined,1,s,0,0,0,130,130,0,130,130,0,0,0,130,130,0,130,130,Sat Sep 25 19:36:06 2021,600,The main experiment item,yes,KS - Flanker Task.osexp,/Users/kaylinsilva/Desktop/Life/Tarleton/Adv Stats,no,mono,no,18,no,white,no,yes,768,legacy,50,79,/Users/kaylinsilva/Desktop/Life/Tarleton/Adv Stats/KS-subject-3.csv,legacy,Lentiform Loewenfeld,3.3.9,0,s,NA,s,s,NA,s,389,NA,44127,19465,NA,389,2,legacy,1024,2,48000,-16,experiment,3,odd,48044,203217,NA,224096,236390,NA,286615,285546,3907,183751,NA,286612,286719,3901,286720,287110,KS - Flanker Task,123,61958,131,yes,1024
Congruent,HHHHH,93.93939394,93.93939394,472.9469697,472.9469697,black,legacy,legacy,legacy,0,uniform,1,undefined,1,h,0,0,0,131,131,0,131,131,0,0,0,131,131,0,131,131,Sat Sep 25 19:36:06 2021,600,The main experiment item,yes,KS - Flanker Task.osexp,/Users/kaylinsilva/Desktop/Life/Tarleton/Adv Stats,no,mono,no,18,no,white,no,yes,768,legacy,51,79,/Users/kaylinsilva/Desktop/Life/Tarleton/Adv Stats/KS-subject-3.csv,legacy,Lentiform Loewenfeld,3.3.9,0,h,NA,s,s,NA,h,471,NA,44127,19465,NA,471,2,legacy,1024,2,48000,-16,experiment,3,odd,48044,203217,NA,224096,236390,NA,288180,287113,3907,183751,NA,288177,288284,3901,288284,288756,KS - Flanker Task,124,62429,132,yes,1024
Congruent,SSSSS,93.98496241,93.98496241,472.8120301,472.8120301,black,legacy,legacy,legacy,0,uniform,1,undefined,1,s,0,0,0,132,132,0,132,132,0,0,0,132,132,0,132,132,Sat Sep 25 19:36:06 2021,600,The main experiment item,yes,KS - Flanker Task.osexp,/Users/kaylinsilva/Desktop/Life/Tarleton/Adv Stats,no,mono,no,18,no,white,no,yes,768,legacy,52,79,/Users/kaylinsilva/Desktop/Life/Tarleton/Adv Stats/KS-subject-3.csv,legacy,Lentiform Loewenfeld,3.3.9,0,s,NA,s,s,NA,s,455,NA,44127,19465,NA,455,2,legacy,1024,2,48000,-16,experiment,3,odd,48044,203217,NA,224096,236390,NA,289827,288759,3907,183751,NA,289824,289932,3901,289932,290388,KS - Flanker Task,125,62884,133,yes,1024
Incongruent,HHSHH,94.02985075,94.02985075,472.7537313,472.7537313,black,legacy,legacy,legacy,0,uniform,1,undefined,1,s,0,0,0,133,133,0,133,133,0,0,0,133,133,0,133,133,Sat Sep 25 19:36:06 2021,600,The main experiment item,yes,KS - Flanker Task.osexp,/Users/kaylinsilva/Desktop/Life/Tarleton/Adv Stats,no,mono,no,18,no,white,no,yes,768,legacy,53,79,/Users/kaylinsilva/Desktop/Life/Tarleton/Adv Stats/KS-subject-3.csv,legacy,Lentiform Loewenfeld,3.3.9,0,s,NA,s,s,NA,s,465,NA,44127,19465,NA,465,2,legacy,1024,2,48000,-16,experiment,3,odd,48044,203217,NA,224096,236390,NA,291458,290391,3907,183751,NA,291455,291563,3901,291563,292029,KS - Flanker Task,126,63349,134,yes,1024
Incongruent,SSHSS,94.07407407,94.07407407,473.0518519,473.0518519,black,legacy,legacy,legacy,0,uniform,1,undefined,1,h,0,0,0,134,134,0,134,134,0,0,0,134,134,0,134,134,Sat Sep 25 19:36:06 2021,600,The main experiment item,yes,KS - Flanker Task.osexp,/Users/kaylinsilva/Desktop/Life/Tarleton/Adv Stats,no,mono,no,18,no,white,no,yes,768,legacy,54,79,/Users/kaylinsilva/Desktop/Life/Tarleton/Adv Stats/KS-subject-3.csv,legacy,Lentiform Loewenfeld,3.3.9,0,h,NA,s,s,NA,h,513,NA,44127,19465,NA,513,2,legacy,1024,2,48000,-16,experiment,3,odd,48044,203217,NA,224096,236390,NA,293100,292032,3907,183751,NA,293097,293204,3901,293205,293719,KS - Flanker Task,127,63862,135,yes,1024
Congruent,HHHHH,94.11764706,94.11764706,472.9705882,472.9705882,black,legacy,legacy,legacy,0,uniform,1,undefined,1,h,0,0,0,135,135,0,135,135,0,0,0,135,135,0,135,135,Sat Sep 25 19:36:06 2021,600,The main experiment item,yes,KS - Flanker Task.osexp,/Users/kaylinsilva/Desktop/Life/Tarleton/Adv Stats,no,mono,no,18,no,white,no,yes,768,legacy,55,79,/Users/kaylinsilva/Desktop/Life/Tarleton/Adv Stats/KS-subject-3.csv,legacy,Lentiform Loewenfeld,3.3.9,0,h,NA,s,s,NA,h,462,NA,44127,19465,NA,462,2,legacy,1024,2,48000,-16,experiment,3,odd,48044,203217,NA,224096,236390,NA,294789,293722,3907,183751,NA,294786,294893,3901,294894,295357,KS - Flanker Task,128,64324,136,yes,1024
Incongruent,SSHSS,94.16058394,94.16058394,473.3430657,473.3430657,black,legacy,legacy,legacy,0,uniform,1,undefined,1,h,0,0,0,136,136,0,136,136,0,0,0,136,136,0,136,136,Sat Sep 25 19:36:06 2021,600,The main experiment item,yes,KS - Flanker Task.osexp,/Users/kaylinsilva/Desktop/Life/Tarleton/Adv Stats,no,mono,no,18,no,white,no,yes,768,legacy,56,79,/Users/kaylinsilva/Desktop/Life/Tarleton/Adv Stats/KS-subject-3.csv,legacy,Lentiform Loewenfeld,3.3.9,0,h,NA,s,s,NA,h,524,NA,44127,19465,NA,524,2,legacy,1024,2,48000,-16,experiment,3,odd,48044,203217,NA,224096,236390,NA,296429,295360,3907,183751,NA,296425,296533,3901,296533,297058,KS - Flanker Task,129,64848,137,yes,1024
Congruent,HHHHH,94.20289855,94.20289855,473.115942,473.115942,black,legacy,legacy,legacy,0,uniform,1,undefined,1,h,0,0,0,137,137,0,137,137,0,0,0,137,137,0,137,137,Sat Sep 25 19:36:06 2021,600,The main experiment item,yes,KS - Flanker Task.osexp,/Users/kaylinsilva/Desktop/Life/Tarleton/Adv Stats,no,mono,no,18,no,white,no,yes,768,legacy,57,79,/Users/kaylinsilva/Desktop/Life/Tarleton/Adv Stats/KS-subject-3.csv,legacy,Lentiform Loewenfeld,3.3.9,0,h,NA,s,s,NA,h,442,NA,44127,19465,NA,442,2,legacy,1024,2,48000,-16,experiment,3,odd,48044,203217,NA,224096,236390,NA,298129,297061,3907,183751,NA,298125,298234,3901,298234,298677,KS - Flanker Task,130,65290,138,yes,1024
Congruent,HHHHH,94.24460432,94.24460432,472.4172662,472.4172662,black,legacy,legacy,legacy,0,uniform,1,undefined,1,h,0,0,0,138,138,0,138,138,0,0,0,138,138,0,138,138,Sat Sep 25 19:36:06 2021,600,The main experiment item,yes,KS - Flanker Task.osexp,/Users/kaylinsilva/Desktop/Life/Tarleton/Adv Stats,no,mono,no,18,no,white,no,yes,768,legacy,58,79,/Users/kaylinsilva/Desktop/Life/Tarleton/Adv Stats/KS-subject-3.csv,legacy,Lentiform Loewenfeld,3.3.9,0,h,NA,s,s,NA,h,376,NA,44127,19465,NA,376,2,legacy,1024,2,48000,-16,experiment,3,odd,48044,203217,NA,224096,236390,NA,299748,298680,3907,183751,NA,299744,299852,3901,299852,300229,KS - Flanker Task,131,65666,139,yes,1024
Incongruent,SSHSS,94.28571429,94.28571429,472.7,472.7,black,legacy,legacy,legacy,0,uniform,1,undefined,1,h,0,0,0,139,139,0,139,139,0,0,0,139,139,0,139,139,Sat Sep 25 19:36:06 2021,600,The main experiment item,yes,KS - Flanker Task.osexp,/Users/kaylinsilva/Desktop/Life/Tarleton/Adv Stats,no,mono,no,18,no,white,no,yes,768,legacy,59,79,/Users/kaylinsilva/Desktop/Life/Tarleton/Adv Stats/KS-subject-3.csv,legacy,Lentiform Loewenfeld,3.3.9,0,h,NA,s,s,NA,h,512,NA,44127,19465,NA,512,2,legacy,1024,2,48000,-16,experiment,3,odd,48044,203217,NA,224096,236390,NA,301301,300233,3907,183751,NA,301298,301404,3901,301404,301917,KS - Flanker Task,132,66178,140,yes,1024
Incongruent,HHSHH,94.32624113,94.32624113,472.6950355,472.6950355,black,legacy,legacy,legacy,0,uniform,1,undefined,1,s,0,0,0,140,140,0,140,140,0,0,0,140,140,0,140,140,Sat Sep 25 19:36:06 2021,600,The main experiment item,yes,KS - Flanker Task.osexp,/Users/kaylinsilva/Desktop/Life/Tarleton/Adv Stats,no,mono,no,18,no,white,no,yes,768,legacy,60,79,/Users/kaylinsilva/Desktop/Life/Tarleton/Adv Stats/KS-subject-3.csv,legacy,Lentiform Loewenfeld,3.3.9,0,s,NA,s,s,NA,s,472,NA,44127,19465,NA,472,2,legacy,1024,2,48000,-16,experiment,3,odd,48044,203217,NA,224096,236390,NA,302988,301920,3907,183751,NA,302984,303092,3901,303092,303565,KS - Flanker Task,133,66650,141,yes,1024
Incongruent,HHSHH,94.36619718,94.36619718,472.5422535,472.5422535,black,legacy,legacy,legacy,0,uniform,1,undefined,1,s,0,0,0,141,141,0,141,141,0,0,0,141,141,0,141,141,Sat Sep 25 19:36:06 2021,600,The main experiment item,yes,KS - Flanker Task.osexp,/Users/kaylinsilva/Desktop/Life/Tarleton/Adv Stats,no,mono,no,18,no,white,no,yes,768,legacy,61,79,/Users/kaylinsilva/Desktop/Life/Tarleton/Adv Stats/KS-subject-3.csv,legacy,Lentiform Loewenfeld,3.3.9,0,s,NA,s,s,NA,s,451,NA,44127,19465,NA,451,2,legacy,1024,2,48000,-16,experiment,3,odd,48044,203217,NA,224096,236390,NA,304635,303568,3907,183751,NA,304632,304740,3901,304740,305192,KS - Flanker Task,134,67101,142,yes,1024
Incongruent,SSHSS,94.40559441,94.40559441,472.5524476,472.5524476,black,legacy,legacy,legacy,0,uniform,1,undefined,1,h,0,0,0,142,142,0,142,142,0,0,0,142,142,0,142,142,Sat Sep 25 19:36:06 2021,600,The main experiment item,yes,KS - Flanker Task.osexp,/Users/kaylinsilva/Desktop/Life/Tarleton/Adv Stats,no,mono,no,18,no,white,no,yes,768,legacy,62,79,/Users/kaylinsilva/Desktop/Life/Tarleton/Adv Stats/KS-subject-3.csv,legacy,Lentiform Loewenfeld,3.3.9,0,h,NA,s,s,NA,h,474,NA,44127,19465,NA,474,2,legacy,1024,2,48000,-16,experiment,3,odd,48044,203217,NA,224096,236390,NA,306263,305196,3907,183751,NA,306260,306368,3901,306369,306844,KS - Flanker Task,135,67575,143,yes,1024
Congruent,SSSSS,94.44444444,94.44444444,472.4583333,472.4583333,black,legacy,legacy,legacy,0,uniform,1,undefined,1,s,0,0,0,143,143,0,143,143,0,0,0,143,143,0,143,143,Sat Sep 25 19:36:06 2021,600,The main experiment item,yes,KS - Flanker Task.osexp,/Users/kaylinsilva/Desktop/Life/Tarleton/Adv Stats,no,mono,no,18,no,white,no,yes,768,legacy,63,79,/Users/kaylinsilva/Desktop/Life/Tarleton/Adv Stats/KS-subject-3.csv,legacy,Lentiform Loewenfeld,3.3.9,0,s,NA,s,s,NA,s,459,NA,44127,19465,NA,459,2,legacy,1024,2,48000,-16,experiment,3,odd,48044,203217,NA,224096,236390,NA,307915,306847,3907,183751,NA,307911,308019,3901,308019,308479,KS - Flanker Task,136,68034,144,yes,1024
Congruent,SSSSS,94.48275862,94.48275862,471.737931,471.737931,black,legacy,legacy,legacy,0,uniform,1,undefined,1,s,0,0,0,144,144,0,144,144,0,0,0,144,144,0,144,144,Sat Sep 25 19:36:06 2021,600,The main experiment item,yes,KS - Flanker Task.osexp,/Users/kaylinsilva/Desktop/Life/Tarleton/Adv Stats,no,mono,no,18,no,white,no,yes,768,legacy,64,79,/Users/kaylinsilva/Desktop/Life/Tarleton/Adv Stats/KS-subject-3.csv,legacy,Lentiform Loewenfeld,3.3.9,0,s,NA,s,s,NA,s,368,NA,44127,19465,NA,368,2,legacy,1024,2,48000,-16,experiment,3,odd,48044,203217,NA,224096,236390,NA,309549,308482,3907,183751,NA,309546,309654,3901,309654,310024,KS - Flanker Task,137,68402,145,yes,1024
Incongruent,HHSHH,94.52054795,94.52054795,473.0958904,473.0958904,black,legacy,legacy,legacy,0,uniform,1,undefined,1,s,0,0,0,145,145,0,145,145,0,0,0,145,145,0,145,145,Sat Sep 25 19:36:06 2021,600,The main experiment item,yes,KS - Flanker Task.osexp,/Users/kaylinsilva/Desktop/Life/Tarleton/Adv Stats,no,mono,no,18,no,white,no,yes,768,legacy,65,79,/Users/kaylinsilva/Desktop/Life/Tarleton/Adv Stats/KS-subject-3.csv,legacy,Lentiform Loewenfeld,3.3.9,0,s,NA,s,s,NA,s,670,NA,44127,19465,NA,670,2,legacy,1024,2,48000,-16,experiment,3,odd,48044,203217,NA,224096,236390,NA,311095,310027,3907,183751,NA,311091,311199,3901,311200,311871,KS - Flanker Task,138,69072,146,yes,1024
Congruent,SSSSS,94.55782313,94.55782313,472.2857143,472.2857143,black,legacy,legacy,legacy,0,uniform,1,undefined,1,s,0,0,0,146,146,0,146,146,0,0,0,146,146,0,146,146,Sat Sep 25 19:36:06 2021,600,The main experiment item,yes,KS - Flanker Task.osexp,/Users/kaylinsilva/Desktop/Life/Tarleton/Adv Stats,no,mono,no,18,no,white,no,yes,768,legacy,66,79,/Users/kaylinsilva/Desktop/Life/Tarleton/Adv Stats/KS-subject-3.csv,legacy,Lentiform Loewenfeld,3.3.9,0,s,NA,s,s,NA,s,354,NA,44127,19465,NA,354,2,legacy,1024,2,48000,-16,experiment,3,odd,48044,203217,NA,224096,311874,NA,313444,312378,3907,183751,NA,313441,313548,3901,313548,313903,KS - Flanker Task,139,69426,147,yes,1024
Congruent,SSSSS,94.59459459,94.59459459,471.2027027,471.2027027,black,legacy,legacy,legacy,0,uniform,1,undefined,1,s,0,0,0,147,147,0,147,147,0,0,0,147,147,0,147,147,Sat Sep 25 19:36:06 2021,600,The main experiment item,yes,KS - Flanker Task.osexp,/Users/kaylinsilva/Desktop/Life/Tarleton/Adv Stats,no,mono,no,18,no,white,no,yes,768,legacy,67,79,/Users/kaylinsilva/Desktop/Life/Tarleton/Adv Stats/KS-subject-3.csv,legacy,Lentiform Loewenfeld,3.3.9,0,s,NA,s,s,NA,s,312,NA,44127,19465,NA,312,2,legacy,1024,2,48000,-16,experiment,3,odd,48044,203217,NA,224096,311874,NA,314973,313907,3907,183751,NA,314970,315077,3901,315077,315390,KS - Flanker Task,140,69738,148,yes,1024
Incongruent,HHSHH,94.63087248,94.63087248,470.2684564,470.2684564,black,legacy,legacy,legacy,0,uniform,1,undefined,1,s,0,0,0,148,148,0,148,148,0,0,0,148,148,0,148,148,Sat Sep 25 19:36:06 2021,600,The main experiment item,yes,KS - Flanker Task.osexp,/Users/kaylinsilva/Desktop/Life/Tarleton/Adv Stats,no,mono,no,18,no,white,no,yes,768,legacy,68,79,/Users/kaylinsilva/Desktop/Life/Tarleton/Adv Stats/KS-subject-3.csv,legacy,Lentiform Loewenfeld,3.3.9,0,s,NA,s,s,NA,s,332,NA,44127,19465,NA,332,2,legacy,1024,2,48000,-16,experiment,3,odd,48044,203217,NA,224096,311874,NA,316461,315394,3907,183751,NA,316458,316565,3901,316565,316898,KS - Flanker Task,141,70070,149,yes,1024
Incongruent,HHSHH,94.66666667,94.66666667,469.6266667,469.6266667,black,legacy,legacy,legacy,0,uniform,1,undefined,1,s,0,0,0,149,149,0,149,149,0,0,0,149,149,0,149,149,Sat Sep 25 19:36:06 2021,600,The main experiment item,yes,KS - Flanker Task.osexp,/Users/kaylinsilva/Desktop/Life/Tarleton/Adv Stats,no,mono,no,18,no,white,no,yes,768,legacy,69,79,/Users/kaylinsilva/Desktop/Life/Tarleton/Adv Stats/KS-subject-3.csv,legacy,Lentiform Loewenfeld,3.3.9,0,s,NA,s,s,NA,s,374,NA,44127,19465,NA,374,2,legacy,1024,2,48000,-16,experiment,3,odd,48044,203217,NA,224096,311874,NA,317969,316901,3907,183751,NA,317966,318073,3901,318073,318448,KS - Flanker Task,142,70444,150,yes,1024
Congruent,HHHHH,94.70198675,94.70198675,469.7019868,469.7019868,black,legacy,legacy,legacy,0,uniform,1,undefined,1,h,0,0,0,150,150,0,150,150,0,0,0,150,150,0,150,150,Sat Sep 25 19:36:06 2021,600,The main experiment item,yes,KS - Flanker Task.osexp,/Users/kaylinsilva/Desktop/Life/Tarleton/Adv Stats,no,mono,no,18,no,white,no,yes,768,legacy,70,79,/Users/kaylinsilva/Desktop/Life/Tarleton/Adv Stats/KS-subject-3.csv,legacy,Lentiform Loewenfeld,3.3.9,0,h,NA,s,s,NA,h,481,NA,44127,19465,NA,481,2,legacy,1024,2,48000,-16,experiment,3,odd,48044,203217,NA,224096,311874,NA,319519,318451,3907,183751,NA,319515,319623,3901,319623,320105,KS - Flanker Task,143,70925,151,yes,1024
