acc,accuracy,average_response_time,avg_rt,background,canvas_backend,clock_backend,color_backend,condition,correct,correct_instructions1,correct_keyboard_response,correct_response,count_Block1,count_Block2,count_Block3,count_ErrorFeedback,count_Fixation,count_ISI,count_Logger,count_Sequence,count_Stimulus,count_experiment,count_faster,count_instructions1,count_instructions2,count_instructions3,count_keyboard_response,count_new_sketchpad,datetime,deadline,description,disable_garbage_collection,experiment_file,experiment_path,font_bold,font_family,font_italic,font_size,font_underline,foreground,form_clicks,fullscreen,height,keyboard_backend,live_row,live_row_Block1,logfile,mouse_backend,opensesame_codename,opensesame_version,repeat_cycle,response,response_instructions1,response_instructions2,response_instructions3,response_keyboard_response,response_new_sketchpad,response_time,response_time_instructions1,response_time_instructions2,response_time_instructions3,response_time_keyboard_response,response_time_new_sketchpad,round_decimals,sampler_backend,sound_buf_size,sound_channels,sound_freq,sound_sample_size,start,stimulus,subject_nr,subject_parity,time_Block1,time_Block2,time_Block3,time_ErrorFeedback,time_Fixation,time_ISI,time_Logger,time_Sequence,time_Stimulus,time_experiment,time_faster,time_instructions1,time_instructions2,time_instructions3,time_keyboard_response,time_new_sketchpad,title,total_correct,total_response_time,total_responses,width
100,100,798,798,#000000,legacy,legacy,legacy,Incongruent,1,undefined,1,s,0,0,0,0,0,0,0,0,0,0,0,0,0,0,0,0,Sun Sep 24 19:13:54 2023,1500,The main experiment item,FALSE,Edward Banda Flanker Task.osexp,C:\Users\Edward Banda\Desktop\Avd Quant Methods 5316,FALSE,mono,FALSE,18,no,white,no,yes,768,legacy,0,0,C:/Users/Edward Banda/Desktop/subject-2.csv,legacy,Melodramatic Milgram,4.0.5,0,s,return,NA,NA,s,NA,798,8642,NA,NA,798,NA,2,legacy,1024,2,48000,-16,experiment,HHSHH,1,odd,10831,NA,NA,NA,10925,NA,11825,10923,11026,2184,NA,2188,NA,NA,11027,NA,Flanker Task,1,798,1,1024
100,100,655,655,#000000,legacy,legacy,legacy,Congruent,1,undefined,1,h,0,0,0,1,1,1,1,1,1,0,1,0,0,0,1,0,Sun Sep 24 19:13:54 2023,1500,The main experiment item,FALSE,Edward Banda Flanker Task.osexp,C:\Users\Edward Banda\Desktop\Avd Quant Methods 5316,FALSE,mono,FALSE,18,no,white,no,yes,768,legacy,1,1,C:/Users/Edward Banda/Desktop/subject-2.csv,legacy,Melodramatic Milgram,4.0.5,0,h,return,NA,NA,h,NA,512,8642,NA,NA,512,NA,2,legacy,1024,2,48000,-16,experiment,HHHHH,1,odd,10831,NA,NA,NA,12869,11830,13482,12867,12970,2184,NA,2188,NA,NA,12970,NA,Flanker Task,2,1310,2,1024
100,100,586,586,#000000,legacy,legacy,legacy,Congruent,1,undefined,1,h,0,0,0,2,2,2,2,2,2,0,2,0,0,0,2,0,Sun Sep 24 19:13:54 2023,1500,The main experiment item,FALSE,Edward Banda Flanker Task.osexp,C:\Users\Edward Banda\Desktop\Avd Quant Methods 5316,FALSE,mono,FALSE,18,no,white,no,yes,768,legacy,2,2,C:/Users/Edward Banda/Desktop/subject-2.csv,legacy,Melodramatic Milgram,4.0.5,0,h,return,NA,NA,h,NA,448,8642,NA,NA,448,NA,2,legacy,1024,2,48000,-16,experiment,HHHHH,1,odd,10831,NA,NA,NA,14541,13505,15090,14539,14642,2184,NA,2188,NA,NA,14642,NA,Flanker Task,3,1758,3,1024
75,75,533,533,#000000,legacy,legacy,legacy,Incongruent,0,undefined,0,h,0,0,0,3,3,3,3,3,3,0,3,0,0,0,3,0,Sun Sep 24 19:13:54 2023,1500,The main experiment item,FALSE,Edward Banda Flanker Task.osexp,C:\Users\Edward Banda\Desktop\Avd Quant Methods 5316,FALSE,mono,FALSE,18,no,white,no,yes,768,legacy,3,3,C:/Users/Edward Banda/Desktop/subject-2.csv,legacy,Melodramatic Milgram,4.0.5,0,s,return,NA,NA,s,NA,374,8642,NA,NA,374,NA,2,legacy,1024,2,48000,-16,experiment,SSHSS,1,odd,10831,NA,NA,NA,16138,15103,16613,16136,16239,2184,NA,2188,NA,NA,16239,NA,Flanker Task,3,2132,4,1024
60,60,495,495,#000000,legacy,legacy,legacy,Incongruent,0,undefined,0,h,0,0,0,4,4,4,4,4,4,0,4,0,0,0,4,0,Sun Sep 24 19:13:54 2023,1500,The main experiment item,FALSE,Edward Banda Flanker Task.osexp,C:\Users\Edward Banda\Desktop\Avd Quant Methods 5316,FALSE,mono,FALSE,18,no,white,no,yes,768,legacy,4,4,C:/Users/Edward Banda/Desktop/subject-2.csv,legacy,Melodramatic Milgram,4.0.5,0,s,return,NA,NA,s,NA,344,8642,NA,NA,344,NA,2,legacy,1024,2,48000,-16,experiment,SSHSS,1,odd,10831,NA,NA,16626,18165,17128,18611,18163,18266,2184,NA,2188,NA,NA,18266,NA,Flanker Task,3,2476,5,1024
66,66,486,486,#000000,legacy,legacy,legacy,Congruent,1,undefined,1,h,0,0,0,5,5,5,5,5,5,0,5,0,0,0,5,0,Sun Sep 24 19:13:54 2023,1500,The main experiment item,FALSE,Edward Banda Flanker Task.osexp,C:\Users\Edward Banda\Desktop\Avd Quant Methods 5316,FALSE,mono,FALSE,18,no,white,no,yes,768,legacy,5,5,C:/Users/Edward Banda/Desktop/subject-2.csv,legacy,Melodramatic Milgram,4.0.5,0,h,return,NA,NA,h,NA,442,8642,NA,NA,442,NA,2,legacy,1024,2,48000,-16,experiment,HHHHH,1,odd,10831,NA,NA,18623,20155,19124,20699,20153,20256,2184,NA,2188,NA,NA,20256,NA,Flanker Task,4,2918,6,1024
71,71,491,491,#000000,legacy,legacy,legacy,Incongruent,1,undefined,1,h,0,0,0,6,6,6,6,6,6,0,6,0,0,0,6,0,Sun Sep 24 19:13:54 2023,1500,The main experiment item,FALSE,Edward Banda Flanker Task.osexp,C:\Users\Edward Banda\Desktop\Avd Quant Methods 5316,FALSE,mono,FALSE,18,no,white,no,yes,768,legacy,6,6,C:/Users/Edward Banda/Desktop/subject-2.csv,legacy,Melodramatic Milgram,4.0.5,0,h,return,NA,NA,h,NA,524,8642,NA,NA,524,NA,2,legacy,1024,2,48000,-16,experiment,SSHSS,1,odd,10831,NA,NA,18623,21755,20711,22380,21753,21856,2184,NA,2188,NA,NA,21856,NA,Flanker Task,5,3442,7,1024
75,75,497,497,#000000,legacy,legacy,legacy,Incongruent,1,undefined,1,h,0,0,0,7,7,7,7,7,7,0,7,0,0,0,7,0,Sun Sep 24 19:13:54 2023,1500,The main experiment item,FALSE,Edward Banda Flanker Task.osexp,C:\Users\Edward Banda\Desktop\Avd Quant Methods 5316,FALSE,mono,FALSE,18,no,white,no,yes,768,legacy,7,7,C:/Users/Edward Banda/Desktop/subject-2.csv,legacy,Melodramatic Milgram,4.0.5,0,h,return,NA,NA,h,NA,534,8642,NA,NA,534,NA,2,legacy,1024,2,48000,-16,experiment,SSHSS,1,odd,10831,NA,NA,18623,23428,22393,24063,23426,23529,2184,NA,2188,NA,NA,23529,NA,Flanker Task,6,3976,8,1024
77,77,492,492,#000000,legacy,legacy,legacy,Congruent,1,undefined,1,h,0,0,0,8,8,8,8,8,8,0,8,0,0,0,8,0,Sun Sep 24 19:13:54 2023,1500,The main experiment item,FALSE,Edward Banda Flanker Task.osexp,C:\Users\Edward Banda\Desktop\Avd Quant Methods 5316,FALSE,mono,FALSE,18,no,white,no,yes,768,legacy,8,8,C:/Users/Edward Banda/Desktop/subject-2.csv,legacy,Melodramatic Milgram,4.0.5,0,h,return,NA,NA,h,NA,459,8642,NA,NA,459,NA,2,legacy,1024,2,48000,-16,experiment,HHHHH,1,odd,10831,NA,NA,18623,25126,24076,25686,25125,25227,2184,NA,2188,NA,NA,25227,NA,Flanker Task,7,4435,9,1024
80,80,488,488,#000000,legacy,legacy,legacy,Congruent,1,undefined,1,h,0,0,0,9,9,9,9,9,9,0,9,0,0,0,9,0,Sun Sep 24 19:13:54 2023,1500,The main experiment item,FALSE,Edward Banda Flanker Task.osexp,C:\Users\Edward Banda\Desktop\Avd Quant Methods 5316,FALSE,mono,FALSE,18,no,white,no,yes,768,legacy,9,9,C:/Users/Edward Banda/Desktop/subject-2.csv,legacy,Melodramatic Milgram,4.0.5,0,h,return,NA,NA,h,NA,446,8642,NA,NA,446,NA,2,legacy,1024,2,48000,-16,experiment,HHHHH,1,odd,10831,NA,NA,18623,26742,25698,27289,26741,26843,2184,NA,2188,NA,NA,26843,NA,Flanker Task,8,4881,10,1024
81,81,484,484,#000000,legacy,legacy,legacy,Incongruent,1,undefined,1,h,0,0,0,10,10,10,10,10,10,0,10,0,0,0,10,0,Sun Sep 24 19:13:54 2023,1500,The main experiment item,FALSE,Edward Banda Flanker Task.osexp,C:\Users\Edward Banda\Desktop\Avd Quant Methods 5316,FALSE,mono,FALSE,18,no,white,no,yes,768,legacy,10,10,C:/Users/Edward Banda/Desktop/subject-2.csv,legacy,Melodramatic Milgram,4.0.5,0,h,return,NA,NA,h,NA,450,8642,NA,NA,450,NA,2,legacy,1024,2,48000,-16,experiment,SSHSS,1,odd,10831,NA,NA,18623,28341,27301,28893,28339,28442,2184,NA,2188,NA,NA,28442,NA,Flanker Task,9,5331,11,1024
83,83,480,480,#000000,legacy,legacy,legacy,Incongruent,1,undefined,1,h,0,0,0,11,11,11,11,11,11,0,11,0,0,0,11,0,Sun Sep 24 19:13:54 2023,1500,The main experiment item,FALSE,Edward Banda Flanker Task.osexp,C:\Users\Edward Banda\Desktop\Avd Quant Methods 5316,FALSE,mono,FALSE,18,no,white,no,yes,768,legacy,11,11,C:/Users/Edward Banda/Desktop/subject-2.csv,legacy,Melodramatic Milgram,4.0.5,0,h,return,NA,NA,h,NA,436,8642,NA,NA,436,NA,2,legacy,1024,2,48000,-16,experiment,SSHSS,1,odd,10831,NA,NA,18623,29943,28905,30480,29940,30044,2184,NA,2188,NA,NA,30044,NA,Flanker Task,10,5767,12,1024
84,84,479,479,#000000,legacy,legacy,legacy,Incongruent,1,undefined,1,s,0,0,0,12,12,12,12,12,12,0,12,0,0,0,12,0,Sun Sep 24 19:13:54 2023,1500,The main experiment item,FALSE,Edward Banda Flanker Task.osexp,C:\Users\Edward Banda\Desktop\Avd Quant Methods 5316,FALSE,mono,FALSE,18,no,white,no,yes,768,legacy,12,12,C:/Users/Edward Banda/Desktop/subject-2.csv,legacy,Melodramatic Milgram,4.0.5,0,s,return,NA,NA,s,NA,461,8642,NA,NA,461,NA,2,legacy,1024,2,48000,-16,experiment,HHSHH,1,odd,10831,NA,NA,18623,31530,30493,32093,31527,31631,2184,NA,2188,NA,NA,31631,NA,Flanker Task,11,6228,13,1024
85,85,477,477,#000000,legacy,legacy,legacy,Congruent,1,undefined,1,s,0,0,0,13,13,13,13,13,13,0,13,0,0,0,13,0,Sun Sep 24 19:13:54 2023,1500,The main experiment item,FALSE,Edward Banda Flanker Task.osexp,C:\Users\Edward Banda\Desktop\Avd Quant Methods 5316,FALSE,mono,FALSE,18,no,white,no,yes,768,legacy,13,13,C:/Users/Edward Banda/Desktop/subject-2.csv,legacy,Melodramatic Milgram,4.0.5,0,s,return,NA,NA,s,NA,457,8642,NA,NA,457,NA,2,legacy,1024,2,48000,-16,experiment,SSSSS,1,odd,10831,NA,NA,18623,33142,32105,33700,33140,33243,2184,NA,2188,NA,NA,33243,NA,Flanker Task,12,6685,14,1024
86,86,474,474,#000000,legacy,legacy,legacy,Congruent,1,undefined,1,s,0,0,0,14,14,14,14,14,14,0,14,0,0,0,14,0,Sun Sep 24 19:13:54 2023,1500,The main experiment item,FALSE,Edward Banda Flanker Task.osexp,C:\Users\Edward Banda\Desktop\Avd Quant Methods 5316,FALSE,mono,FALSE,18,no,white,no,yes,768,legacy,14,14,C:/Users/Edward Banda/Desktop/subject-2.csv,legacy,Melodramatic Milgram,4.0.5,0,s,return,NA,NA,s,NA,433,8642,NA,NA,433,NA,2,legacy,1024,2,48000,-16,experiment,SSSSS,1,odd,10831,NA,NA,18623,34749,33713,35284,34747,34850,2184,NA,2188,NA,NA,34850,NA,Flanker Task,13,7118,15,1024
81,81,469,469,#000000,legacy,legacy,legacy,Incongruent,0,undefined,0,s,0,0,0,15,15,15,15,15,15,0,15,0,0,0,15,0,Sun Sep 24 19:13:54 2023,1500,The main experiment item,FALSE,Edward Banda Flanker Task.osexp,C:\Users\Edward Banda\Desktop\Avd Quant Methods 5316,FALSE,mono,FALSE,18,no,white,no,yes,768,legacy,15,15,C:/Users/Edward Banda/Desktop/subject-2.csv,legacy,Melodramatic Milgram,4.0.5,0,h,return,NA,NA,h,NA,396,8642,NA,NA,396,NA,2,legacy,1024,2,48000,-16,experiment,HHSHH,1,odd,10831,NA,NA,18623,36334,35296,36831,36332,36435,2184,NA,2188,NA,NA,36435,NA,Flanker Task,13,7514,16,1024
82,82,467,467,#000000,legacy,legacy,legacy,Incongruent,1,undefined,1,h,0,0,0,16,16,16,16,16,16,0,16,0,0,0,16,0,Sun Sep 24 19:13:54 2023,1500,The main experiment item,FALSE,Edward Banda Flanker Task.osexp,C:\Users\Edward Banda\Desktop\Avd Quant Methods 5316,FALSE,mono,FALSE,18,no,white,no,yes,768,legacy,16,16,C:/Users/Edward Banda/Desktop/subject-2.csv,legacy,Melodramatic Milgram,4.0.5,0,h,return,NA,NA,h,NA,436,8642,NA,NA,436,NA,2,legacy,1024,2,48000,-16,experiment,SSHSS,1,odd,10831,NA,NA,36834,38370,37335,38909,38368,38472,2184,NA,2188,NA,NA,38472,NA,Flanker Task,14,7950,17,1024
77,77,465,465,#000000,legacy,legacy,legacy,Incongruent,0,undefined,0,s,0,0,0,17,17,17,17,17,17,0,17,0,0,0,17,0,Sun Sep 24 19:13:54 2023,1500,The main experiment item,FALSE,Edward Banda Flanker Task.osexp,C:\Users\Edward Banda\Desktop\Avd Quant Methods 5316,FALSE,mono,FALSE,18,no,white,no,yes,768,legacy,17,17,C:/Users/Edward Banda/Desktop/subject-2.csv,legacy,Melodramatic Milgram,4.0.5,0,h,return,NA,NA,h,NA,432,8642,NA,NA,432,NA,2,legacy,1024,2,48000,-16,experiment,HHSHH,1,odd,10831,NA,NA,36834,39968,38921,40502,39967,40069,2184,NA,2188,NA,NA,40069,NA,Flanker Task,14,8382,18,1024
78,78,465,465,#000000,legacy,legacy,legacy,Incongruent,1,undefined,1,s,0,0,0,18,18,18,18,18,18,0,18,0,0,0,18,0,Sun Sep 24 19:13:54 2023,1500,The main experiment item,FALSE,Edward Banda Flanker Task.osexp,C:\Users\Edward Banda\Desktop\Avd Quant Methods 5316,FALSE,mono,FALSE,18,no,white,no,yes,768,legacy,18,18,C:/Users/Edward Banda/Desktop/subject-2.csv,legacy,Melodramatic Milgram,4.0.5,0,s,return,NA,NA,s,NA,457,8642,NA,NA,457,NA,2,legacy,1024,2,48000,-16,experiment,HHSHH,1,odd,10831,NA,NA,40515,42050,41016,42609,42048,42151,2184,NA,2188,NA,NA,42151,NA,Flanker Task,15,8839,19,1024
80,80,459,459,#000000,legacy,legacy,legacy,Congruent,1,undefined,1,s,0,0,0,19,19,19,19,19,19,0,19,0,0,0,19,0,Sun Sep 24 19:13:54 2023,1500,The main experiment item,FALSE,Edward Banda Flanker Task.osexp,C:\Users\Edward Banda\Desktop\Avd Quant Methods 5316,FALSE,mono,FALSE,18,no,white,no,yes,768,legacy,19,19,C:/Users/Edward Banda/Desktop/subject-2.csv,legacy,Melodramatic Milgram,4.0.5,0,s,return,NA,NA,s,NA,358,8642,NA,NA,358,NA,2,legacy,1024,2,48000,-16,experiment,SSSSS,1,odd,10831,NA,NA,40515,43658,42621,44117,43656,43759,2184,NA,2188,NA,NA,43759,NA,Flanker Task,16,9197,20,1024
76,76,455,455,#000000,legacy,legacy,legacy,Incongruent,0,undefined,0,h,0,0,0,20,20,20,20,20,20,0,20,0,0,0,20,0,Sun Sep 24 19:13:54 2023,1500,The main experiment item,FALSE,Edward Banda Flanker Task.osexp,C:\Users\Edward Banda\Desktop\Avd Quant Methods 5316,FALSE,mono,FALSE,18,no,white,no,yes,768,legacy,20,20,C:/Users/Edward Banda/Desktop/subject-2.csv,legacy,Melodramatic Milgram,4.0.5,0,s,return,NA,NA,s,NA,359,8642,NA,NA,359,NA,2,legacy,1024,2,48000,-16,experiment,SSHSS,1,odd,10831,NA,NA,40515,45159,44130,45620,45157,45260,2184,NA,2188,NA,NA,45260,NA,Flanker Task,16,9556,21,1024
77,77,451,451,#000000,legacy,legacy,legacy,Congruent,1,undefined,1,h,0,0,0,21,21,21,21,21,21,0,21,0,0,0,21,0,Sun Sep 24 19:13:54 2023,1500,The main experiment item,FALSE,Edward Banda Flanker Task.osexp,C:\Users\Edward Banda\Desktop\Avd Quant Methods 5316,FALSE,mono,FALSE,18,no,white,no,yes,768,legacy,21,21,C:/Users/Edward Banda/Desktop/subject-2.csv,legacy,Melodramatic Milgram,4.0.5,0,h,return,NA,NA,h,NA,384,8642,NA,NA,384,NA,2,legacy,1024,2,48000,-16,experiment,HHHHH,1,odd,10831,NA,NA,45632,47167,46133,47652,47164,47268,2184,NA,2188,NA,NA,47268,NA,Flanker Task,17,9940,22,1024
78,78,449,449,#000000,legacy,legacy,legacy,Congruent,1,undefined,1,h,0,0,0,22,22,22,22,22,22,0,22,0,0,0,22,0,Sun Sep 24 19:13:54 2023,1500,The main experiment item,FALSE,Edward Banda Flanker Task.osexp,C:\Users\Edward Banda\Desktop\Avd Quant Methods 5316,FALSE,mono,FALSE,18,no,white,no,yes,768,legacy,22,22,C:/Users/Edward Banda/Desktop/subject-2.csv,legacy,Melodramatic Milgram,4.0.5,0,h,return,NA,NA,h,NA,402,8642,NA,NA,402,NA,2,legacy,1024,2,48000,-16,experiment,HHHHH,1,odd,10831,NA,NA,45632,48701,47664,49205,48699,48802,2184,NA,2188,NA,NA,48802,NA,Flanker Task,18,10342,23,1024
75,75,446,446,#000000,legacy,legacy,legacy,Incongruent,0,undefined,0,s,0,0,0,23,23,23,23,23,23,0,23,0,0,0,23,0,Sun Sep 24 19:13:54 2023,1500,The main experiment item,FALSE,Edward Banda Flanker Task.osexp,C:\Users\Edward Banda\Desktop\Avd Quant Methods 5316,FALSE,mono,FALSE,18,no,white,no,yes,768,legacy,23,23,C:/Users/Edward Banda/Desktop/subject-2.csv,legacy,Melodramatic Milgram,4.0.5,0,h,return,NA,NA,h,NA,375,8642,NA,NA,375,NA,2,legacy,1024,2,48000,-16,experiment,HHSHH,1,odd,10831,NA,NA,45632,50246,49208,50723,50244,50347,2184,NA,2188,NA,NA,50348,NA,Flanker Task,18,10717,24,1024
76,76,445,445,#000000,legacy,legacy,legacy,Incongruent,1,undefined,1,s,0,0,0,24,24,24,24,24,24,0,24,0,0,0,24,0,Sun Sep 24 19:13:54 2023,1500,The main experiment item,FALSE,Edward Banda Flanker Task.osexp,C:\Users\Edward Banda\Desktop\Avd Quant Methods 5316,FALSE,mono,FALSE,18,no,white,no,yes,768,legacy,24,24,C:/Users/Edward Banda/Desktop/subject-2.csv,legacy,Melodramatic Milgram,4.0.5,0,s,return,NA,NA,s,NA,411,8642,NA,NA,411,NA,2,legacy,1024,2,48000,-16,experiment,HHSHH,1,odd,10831,NA,NA,50736,52263,51237,52776,52261,52364,2184,NA,2188,NA,NA,52364,NA,Flanker Task,19,11128,25,1024
76,76,445,445,#000000,legacy,legacy,legacy,Incongruent,1,undefined,1,s,0,0,0,25,25,25,25,25,25,0,25,0,0,0,25,0,Sun Sep 24 19:13:54 2023,1500,The main experiment item,FALSE,Edward Banda Flanker Task.osexp,C:\Users\Edward Banda\Desktop\Avd Quant Methods 5316,FALSE,mono,FALSE,18,no,white,no,yes,768,legacy,25,25,C:/Users/Edward Banda/Desktop/subject-2.csv,legacy,Melodramatic Milgram,4.0.5,0,s,return,NA,NA,s,NA,454,8642,NA,NA,454,NA,2,legacy,1024,2,48000,-16,experiment,HHSHH,1,odd,10831,NA,NA,50736,53823,52788,54379,53821,53924,2184,NA,2188,NA,NA,53924,NA,Flanker Task,20,11582,26,1024
77,77,446,446,#000000,legacy,legacy,legacy,Incongruent,1,undefined,1,s,0,0,0,26,26,26,26,26,26,0,26,0,0,0,26,0,Sun Sep 24 19:13:54 2023,1500,The main experiment item,FALSE,Edward Banda Flanker Task.osexp,C:\Users\Edward Banda\Desktop\Avd Quant Methods 5316,FALSE,mono,FALSE,18,no,white,no,yes,768,legacy,26,26,C:/Users/Edward Banda/Desktop/subject-2.csv,legacy,Melodramatic Milgram,4.0.5,0,s,return,NA,NA,s,NA,462,8642,NA,NA,462,NA,2,legacy,1024,2,48000,-16,experiment,HHSHH,1,odd,10831,NA,NA,50736,55433,54391,55996,55431,55534,2184,NA,2188,NA,NA,55534,NA,Flanker Task,21,12044,27,1024
78,78,445,445,#000000,legacy,legacy,legacy,Incongruent,1,undefined,1,h,0,0,0,27,27,27,27,27,27,0,27,0,0,0,27,0,Sun Sep 24 19:13:54 2023,1500,The main experiment item,FALSE,Edward Banda Flanker Task.osexp,C:\Users\Edward Banda\Desktop\Avd Quant Methods 5316,FALSE,mono,FALSE,18,no,white,no,yes,768,legacy,27,27,C:/Users/Edward Banda/Desktop/subject-2.csv,legacy,Melodramatic Milgram,4.0.5,0,h,return,NA,NA,h,NA,440,8642,NA,NA,440,NA,2,legacy,1024,2,48000,-16,experiment,SSHSS,1,odd,10831,NA,NA,50736,57043,56008,57584,57041,57144,2184,NA,2188,NA,NA,57144,NA,Flanker Task,22,12484,28,1024
79,79,445,445,#000000,legacy,legacy,legacy,Incongruent,1,undefined,1,s,0,0,0,28,28,28,28,28,28,0,28,0,0,0,28,0,Sun Sep 24 19:13:54 2023,1500,The main experiment item,FALSE,Edward Banda Flanker Task.osexp,C:\Users\Edward Banda\Desktop\Avd Quant Methods 5316,FALSE,mono,FALSE,18,no,white,no,yes,768,legacy,28,28,C:/Users/Edward Banda/Desktop/subject-2.csv,legacy,Melodramatic Milgram,4.0.5,0,s,return,NA,NA,s,NA,423,8642,NA,NA,423,NA,2,legacy,1024,2,48000,-16,experiment,HHSHH,1,odd,10831,NA,NA,50736,58633,57596,59157,58632,58734,2184,NA,2188,NA,NA,58734,NA,Flanker Task,23,12907,29,1024
80,80,442,442,#000000,legacy,legacy,legacy,Congruent,1,undefined,1,s,0,0,0,29,29,29,29,29,29,0,29,0,0,0,29,0,Sun Sep 24 19:13:54 2023,1500,The main experiment item,FALSE,Edward Banda Flanker Task.osexp,C:\Users\Edward Banda\Desktop\Avd Quant Methods 5316,FALSE,mono,FALSE,18,no,white,no,yes,768,legacy,29,29,C:/Users/Edward Banda/Desktop/subject-2.csv,legacy,Melodramatic Milgram,4.0.5,0,s,return,NA,NA,s,NA,360,8642,NA,NA,360,NA,2,legacy,1024,2,48000,-16,experiment,SSSSS,1,odd,10831,NA,NA,50736,60200,59162,60661,60198,60301,2184,NA,2188,NA,NA,60301,NA,Flanker Task,24,13267,30,1024
80,80,442,442,#000000,legacy,legacy,legacy,Congruent,1,undefined,1,s,0,0,0,30,30,30,30,30,30,0,30,0,0,0,30,0,Sun Sep 24 19:13:54 2023,1500,The main experiment item,FALSE,Edward Banda Flanker Task.osexp,C:\Users\Edward Banda\Desktop\Avd Quant Methods 5316,FALSE,mono,FALSE,18,no,white,no,yes,768,legacy,30,30,C:/Users/Edward Banda/Desktop/subject-2.csv,legacy,Melodramatic Milgram,4.0.5,0,s,return,NA,NA,s,NA,444,8642,NA,NA,444,NA,2,legacy,1024,2,48000,-16,experiment,SSSSS,1,odd,10831,NA,NA,50736,61758,60724,62304,61756,61859,2184,NA,2188,NA,NA,61859,NA,Flanker Task,25,13711,31,1024
81,81,442,442,#000000,legacy,legacy,legacy,Congruent,1,undefined,1,h,0,0,0,31,31,31,31,31,31,0,31,0,0,0,31,0,Sun Sep 24 19:13:54 2023,1500,The main experiment item,FALSE,Edward Banda Flanker Task.osexp,C:\Users\Edward Banda\Desktop\Avd Quant Methods 5316,FALSE,mono,FALSE,18,no,white,no,yes,768,legacy,31,31,C:/Users/Edward Banda/Desktop/subject-2.csv,legacy,Melodramatic Milgram,4.0.5,0,h,return,NA,NA,h,NA,451,8642,NA,NA,451,NA,2,legacy,1024,2,48000,-16,experiment,HHHHH,1,odd,10831,NA,NA,50736,63354,62316,63906,63351,63455,2184,NA,2188,NA,NA,63455,NA,Flanker Task,26,14162,32,1024
81,81,443,443,#000000,legacy,legacy,legacy,Incongruent,1,undefined,1,s,0,0,0,32,32,32,32,32,32,0,32,0,0,0,32,0,Sun Sep 24 19:13:54 2023,1500,The main experiment item,FALSE,Edward Banda Flanker Task.osexp,C:\Users\Edward Banda\Desktop\Avd Quant Methods 5316,FALSE,mono,FALSE,18,no,white,no,yes,768,legacy,32,32,C:/Users/Edward Banda/Desktop/subject-2.csv,legacy,Melodramatic Milgram,4.0.5,0,s,return,NA,NA,s,NA,472,8642,NA,NA,472,NA,2,legacy,1024,2,48000,-16,experiment,HHSHH,1,odd,10831,NA,NA,50736,64945,63909,65519,64943,65046,2184,NA,2188,NA,NA,65047,NA,Flanker Task,27,14634,33,1024
82,82,442,442,#000000,legacy,legacy,legacy,Incongruent,1,undefined,1,h,0,0,0,33,33,33,33,33,33,0,33,0,0,0,33,0,Sun Sep 24 19:13:54 2023,1500,The main experiment item,FALSE,Edward Banda Flanker Task.osexp,C:\Users\Edward Banda\Desktop\Avd Quant Methods 5316,FALSE,mono,FALSE,18,no,white,no,yes,768,legacy,33,33,C:/Users/Edward Banda/Desktop/subject-2.csv,legacy,Melodramatic Milgram,4.0.5,0,h,return,NA,NA,h,NA,407,8642,NA,NA,407,NA,2,legacy,1024,2,48000,-16,experiment,SSHSS,1,odd,10831,NA,NA,50736,66568,65532,67077,66566,66669,2184,NA,2188,NA,NA,66669,NA,Flanker Task,28,15041,34,1024
82,82,441,441,#000000,legacy,legacy,legacy,Incongruent,1,undefined,1,s,0,0,0,34,34,34,34,34,34,0,34,0,0,0,34,0,Sun Sep 24 19:13:54 2023,1500,The main experiment item,FALSE,Edward Banda Flanker Task.osexp,C:\Users\Edward Banda\Desktop\Avd Quant Methods 5316,FALSE,mono,FALSE,18,no,white,no,yes,768,legacy,34,34,C:/Users/Edward Banda/Desktop/subject-2.csv,legacy,Melodramatic Milgram,4.0.5,0,s,return,NA,NA,s,NA,412,8642,NA,NA,412,NA,2,legacy,1024,2,48000,-16,experiment,HHSHH,1,odd,10831,NA,NA,50736,68137,67090,68651,68135,68238,2184,NA,2188,NA,NA,68238,NA,Flanker Task,29,15453,35,1024
83,83,439,439,#000000,legacy,legacy,legacy,Congruent,1,undefined,1,s,0,0,0,35,35,35,35,35,35,0,35,0,0,0,35,0,Sun Sep 24 19:13:54 2023,1500,The main experiment item,FALSE,Edward Banda Flanker Task.osexp,C:\Users\Edward Banda\Desktop\Avd Quant Methods 5316,FALSE,mono,FALSE,18,no,white,no,yes,768,legacy,35,35,C:/Users/Edward Banda/Desktop/subject-2.csv,legacy,Melodramatic Milgram,4.0.5,0,s,return,NA,NA,s,NA,381,8642,NA,NA,381,NA,2,legacy,1024,2,48000,-16,experiment,SSSSS,1,odd,10831,NA,NA,50736,69710,68663,70193,69708,69811,2184,NA,2188,NA,NA,69811,NA,Flanker Task,30,15834,36,1024
83,83,439,439,#000000,legacy,legacy,legacy,Congruent,1,undefined,1,h,0,0,0,36,36,36,36,36,36,0,36,0,0,0,36,0,Sun Sep 24 19:13:54 2023,1500,The main experiment item,FALSE,Edward Banda Flanker Task.osexp,C:\Users\Edward Banda\Desktop\Avd Quant Methods 5316,FALSE,mono,FALSE,18,no,white,no,yes,768,legacy,36,36,C:/Users/Edward Banda/Desktop/subject-2.csv,legacy,Melodramatic Milgram,4.0.5,0,h,return,NA,NA,h,NA,417,8642,NA,NA,417,NA,2,legacy,1024,2,48000,-16,experiment,HHHHH,1,odd,10831,NA,NA,50736,71242,70205,71761,71240,71343,2184,NA,2188,NA,NA,71343,NA,Flanker Task,31,16251,37,1024
84,84,441,441,#000000,legacy,legacy,legacy,Incongruent,1,undefined,1,h,0,0,0,37,37,37,37,37,37,0,37,0,0,0,37,0,Sun Sep 24 19:13:54 2023,1500,The main experiment item,FALSE,Edward Banda Flanker Task.osexp,C:\Users\Edward Banda\Desktop\Avd Quant Methods 5316,FALSE,mono,FALSE,18,no,white,no,yes,768,legacy,37,37,C:/Users/Edward Banda/Desktop/subject-2.csv,legacy,Melodramatic Milgram,4.0.5,0,h,return,NA,NA,h,NA,520,8642,NA,NA,520,NA,2,legacy,1024,2,48000,-16,experiment,SSHSS,1,odd,10831,NA,NA,50736,72807,71774,73429,72805,72908,2184,NA,2188,NA,NA,72908,NA,Flanker Task,32,16771,38,1024
84,84,440,440,#000000,legacy,legacy,legacy,Congruent,1,undefined,1,s,0,0,0,38,38,38,38,38,38,0,38,0,0,0,38,0,Sun Sep 24 19:13:54 2023,1500,The main experiment item,FALSE,Edward Banda Flanker Task.osexp,C:\Users\Edward Banda\Desktop\Avd Quant Methods 5316,FALSE,mono,FALSE,18,no,white,no,yes,768,legacy,38,38,C:/Users/Edward Banda/Desktop/subject-2.csv,legacy,Melodramatic Milgram,4.0.5,0,s,return,NA,NA,s,NA,400,8642,NA,NA,400,NA,2,legacy,1024,2,48000,-16,experiment,SSSSS,1,odd,10831,NA,NA,50736,74474,73431,74977,74472,74576,2184,NA,2188,NA,NA,74576,NA,Flanker Task,33,17171,39,1024
85,85,439,439,#000000,legacy,legacy,legacy,Congruent,1,undefined,1,h,0,0,0,39,39,39,39,39,39,0,39,0,0,0,39,0,Sun Sep 24 19:13:54 2023,1500,The main experiment item,FALSE,Edward Banda Flanker Task.osexp,C:\Users\Edward Banda\Desktop\Avd Quant Methods 5316,FALSE,mono,FALSE,18,no,white,no,yes,768,legacy,39,39,C:/Users/Edward Banda/Desktop/subject-2.csv,legacy,Melodramatic Milgram,4.0.5,0,h,return,NA,NA,h,NA,410,8642,NA,NA,410,NA,2,legacy,1024,2,48000,-16,experiment,HHHHH,1,odd,10831,NA,NA,50736,76029,74990,76540,76027,76130,2184,NA,2188,NA,NA,76130,NA,Flanker Task,34,17581,40,1024
85,85,438,438,#000000,legacy,legacy,legacy,Congruent,1,undefined,1,s,0,0,0,40,40,40,40,40,40,0,40,0,0,0,40,0,Sun Sep 24 19:13:54 2023,1500,The main experiment item,FALSE,Edward Banda Flanker Task.osexp,C:\Users\Edward Banda\Desktop\Avd Quant Methods 5316,FALSE,mono,FALSE,18,no,white,no,yes,768,legacy,40,40,C:/Users/Edward Banda/Desktop/subject-2.csv,legacy,Melodramatic Milgram,4.0.5,0,s,return,NA,NA,s,NA,384,8642,NA,NA,384,NA,2,legacy,1024,2,48000,-16,experiment,SSSSS,1,odd,10831,NA,NA,50736,77581,76543,78068,77579,77682,2184,NA,2188,NA,NA,77683,NA,Flanker Task,35,17965,41,1024
85,85,436,436,#000000,legacy,legacy,legacy,Congruent,1,undefined,1,s,0,0,0,41,41,41,41,41,41,0,41,0,0,0,41,0,Sun Sep 24 19:13:54 2023,1500,The main experiment item,FALSE,Edward Banda Flanker Task.osexp,C:\Users\Edward Banda\Desktop\Avd Quant Methods 5316,FALSE,mono,FALSE,18,no,white,no,yes,768,legacy,41,41,C:/Users/Edward Banda/Desktop/subject-2.csv,legacy,Melodramatic Milgram,4.0.5,0,s,return,NA,NA,s,NA,385,8642,NA,NA,385,NA,2,legacy,1024,2,48000,-16,experiment,SSSSS,1,odd,10831,NA,NA,50736,79114,78080,79601,79112,79215,2184,NA,2188,NA,NA,79215,NA,Flanker Task,36,18350,42,1024
86,86,435,435,#000000,legacy,legacy,legacy,Incongruent,1,undefined,1,h,0,0,0,42,42,42,42,42,42,0,42,0,0,0,42,0,Sun Sep 24 19:13:54 2023,1500,The main experiment item,FALSE,Edward Banda Flanker Task.osexp,C:\Users\Edward Banda\Desktop\Avd Quant Methods 5316,FALSE,mono,FALSE,18,no,white,no,yes,768,legacy,42,42,C:/Users/Edward Banda/Desktop/subject-2.csv,legacy,Melodramatic Milgram,4.0.5,0,h,return,NA,NA,h,NA,364,8642,NA,NA,364,NA,2,legacy,1024,2,48000,-16,experiment,SSHSS,1,odd,10831,NA,NA,50736,80647,79613,81114,80646,80749,2184,NA,2188,NA,NA,80749,NA,Flanker Task,37,18714,43,1024
86,86,433,433,#000000,legacy,legacy,legacy,Incongruent,1,undefined,1,s,0,0,0,43,43,43,43,43,43,0,43,0,0,0,43,0,Sun Sep 24 19:13:54 2023,1500,The main experiment item,FALSE,Edward Banda Flanker Task.osexp,C:\Users\Edward Banda\Desktop\Avd Quant Methods 5316,FALSE,mono,FALSE,18,no,white,no,yes,768,legacy,43,43,C:/Users/Edward Banda/Desktop/subject-2.csv,legacy,Melodramatic Milgram,4.0.5,0,s,return,NA,NA,s,NA,372,8642,NA,NA,372,NA,2,legacy,1024,2,48000,-16,experiment,HHSHH,1,odd,10831,NA,NA,50736,82153,81126,82627,82151,82254,2184,NA,2188,NA,NA,82254,NA,Flanker Task,38,19086,44,1024
86,86,432,432,#000000,legacy,legacy,legacy,Congruent,1,undefined,1,h,0,0,0,44,44,44,44,44,44,0,44,0,0,0,44,0,Sun Sep 24 19:13:54 2023,1500,The main experiment item,FALSE,Edward Banda Flanker Task.osexp,C:\Users\Edward Banda\Desktop\Avd Quant Methods 5316,FALSE,mono,FALSE,18,no,white,no,yes,768,legacy,44,44,C:/Users/Edward Banda/Desktop/subject-2.csv,legacy,Melodramatic Milgram,4.0.5,0,h,return,NA,NA,h,NA,382,8642,NA,NA,382,NA,2,legacy,1024,2,48000,-16,experiment,HHHHH,1,odd,10831,NA,NA,50736,83688,82639,84172,83686,83789,2184,NA,2188,NA,NA,83789,NA,Flanker Task,39,19468,45,1024
86,86,434,434,#000000,legacy,legacy,legacy,Incongruent,1,undefined,1,h,0,0,0,45,45,45,45,45,45,0,45,0,0,0,45,0,Sun Sep 24 19:13:54 2023,1500,The main experiment item,FALSE,Edward Banda Flanker Task.osexp,C:\Users\Edward Banda\Desktop\Avd Quant Methods 5316,FALSE,mono,FALSE,18,no,white,no,yes,768,legacy,45,45,C:/Users/Edward Banda/Desktop/subject-2.csv,legacy,Melodramatic Milgram,4.0.5,0,h,return,NA,NA,h,NA,535,8642,NA,NA,535,NA,2,legacy,1024,2,48000,-16,experiment,SSHSS,1,odd,10831,NA,NA,50736,85220,84184,85857,85219,85321,2184,NA,2188,NA,NA,85321,NA,Flanker Task,40,20003,46,1024
85,85,428,428,#000000,legacy,legacy,legacy,Congruent,0,undefined,0,h,0,0,0,46,46,46,46,46,46,0,46,0,0,0,46,0,Sun Sep 24 19:13:54 2023,1500,The main experiment item,FALSE,Edward Banda Flanker Task.osexp,C:\Users\Edward Banda\Desktop\Avd Quant Methods 5316,FALSE,mono,FALSE,18,no,white,no,yes,768,legacy,46,46,C:/Users/Edward Banda/Desktop/subject-2.csv,legacy,Melodramatic Milgram,4.0.5,0,s,return,NA,NA,s,NA,128,8642,NA,NA,128,NA,2,legacy,1024,2,48000,-16,experiment,HHHHH,1,odd,10831,NA,NA,50736,86906,85869,87136,86904,87007,2184,NA,2188,NA,NA,87007,NA,Flanker Task,40,20131,47,1024
85,85,428,428,#000000,legacy,legacy,legacy,Incongruent,1,undefined,1,s,0,0,0,47,47,47,47,47,47,0,47,0,0,0,47,0,Sun Sep 24 19:13:54 2023,1500,The main experiment item,FALSE,Edward Banda Flanker Task.osexp,C:\Users\Edward Banda\Desktop\Avd Quant Methods 5316,FALSE,mono,FALSE,18,no,white,no,yes,768,legacy,47,47,C:/Users/Edward Banda/Desktop/subject-2.csv,legacy,Melodramatic Milgram,4.0.5,0,s,return,NA,NA,s,NA,438,8642,NA,NA,438,NA,2,legacy,1024,2,48000,-16,experiment,HHSHH,1,odd,10831,NA,NA,87148,88678,87649,89218,88676,88779,2184,NA,2188,NA,NA,88779,NA,Flanker Task,41,20569,48,1024
83,83,427,427,#000000,legacy,legacy,legacy,Incongruent,0,undefined,0,s,0,0,0,48,48,48,48,48,48,0,48,0,0,0,48,0,Sun Sep 24 19:13:54 2023,1500,The main experiment item,FALSE,Edward Banda Flanker Task.osexp,C:\Users\Edward Banda\Desktop\Avd Quant Methods 5316,FALSE,mono,FALSE,18,no,white,no,yes,768,legacy,48,48,C:/Users/Edward Banda/Desktop/subject-2.csv,legacy,Melodramatic Milgram,4.0.5,0,h,return,NA,NA,h,NA,376,8642,NA,NA,376,NA,2,legacy,1024,2,48000,-16,experiment,HHSHH,1,odd,10831,NA,NA,87148,90263,89230,90741,90260,90364,2184,NA,2188,NA,NA,90364,NA,Flanker Task,41,20945,49,1024
84,84,429,429,#000000,legacy,legacy,legacy,Incongruent,1,undefined,1,h,0,0,0,49,49,49,49,49,49,0,49,0,0,0,49,0,Sun Sep 24 19:13:54 2023,1500,The main experiment item,FALSE,Edward Banda Flanker Task.osexp,C:\Users\Edward Banda\Desktop\Avd Quant Methods 5316,FALSE,mono,FALSE,18,no,white,no,yes,768,legacy,49,49,C:/Users/Edward Banda/Desktop/subject-2.csv,legacy,Melodramatic Milgram,4.0.5,0,h,return,NA,NA,h,NA,543,8642,NA,NA,543,NA,2,legacy,1024,2,48000,-16,experiment,SSHSS,1,odd,10831,NA,NA,90754,92284,91255,92928,92282,92385,2184,NA,2188,NA,NA,92385,NA,Flanker Task,42,21488,50,1024
84,84,428,428,#000000,legacy,legacy,legacy,Congruent,1,undefined,1,s,0,0,0,50,50,50,50,50,50,0,50,0,0,0,50,0,Sun Sep 24 19:13:54 2023,1500,The main experiment item,FALSE,Edward Banda Flanker Task.osexp,C:\Users\Edward Banda\Desktop\Avd Quant Methods 5316,FALSE,mono,FALSE,18,no,white,no,yes,768,legacy,50,50,C:/Users/Edward Banda/Desktop/subject-2.csv,legacy,Melodramatic Milgram,4.0.5,0,s,return,NA,NA,s,NA,376,8642,NA,NA,376,NA,2,legacy,1024,2,48000,-16,experiment,SSSSS,1,odd,10831,NA,NA,90754,93979,92941,94456,93977,94080,2184,NA,2188,NA,NA,94080,NA,Flanker Task,43,21864,51,1024
84,84,427,427,#000000,legacy,legacy,legacy,Congruent,1,undefined,1,s,0,0,0,51,51,51,51,51,51,0,51,0,0,0,51,0,Sun Sep 24 19:13:54 2023,1500,The main experiment item,FALSE,Edward Banda Flanker Task.osexp,C:\Users\Edward Banda\Desktop\Avd Quant Methods 5316,FALSE,mono,FALSE,18,no,white,no,yes,768,legacy,51,51,C:/Users/Edward Banda/Desktop/subject-2.csv,legacy,Melodramatic Milgram,4.0.5,0,s,return,NA,NA,s,NA,385,8642,NA,NA,385,NA,2,legacy,1024,2,48000,-16,experiment,SSSSS,1,odd,10831,NA,NA,90754,95488,94459,95975,95486,95589,2184,NA,2188,NA,NA,95589,NA,Flanker Task,44,22249,52,1024
84,84,426,426,#000000,legacy,legacy,legacy,Congruent,1,undefined,1,h,0,0,0,52,52,52,52,52,52,0,52,0,0,0,52,0,Sun Sep 24 19:13:54 2023,1500,The main experiment item,FALSE,Edward Banda Flanker Task.osexp,C:\Users\Edward Banda\Desktop\Avd Quant Methods 5316,FALSE,mono,FALSE,18,no,white,no,yes,768,legacy,52,52,C:/Users/Edward Banda/Desktop/subject-2.csv,legacy,Melodramatic Milgram,4.0.5,0,h,return,NA,NA,h,NA,360,8642,NA,NA,360,NA,2,legacy,1024,2,48000,-16,experiment,HHHHH,1,odd,10831,NA,NA,90754,97022,95988,97484,97020,97123,2184,NA,2188,NA,NA,97123,NA,Flanker Task,45,22609,53,1024
85,85,423,423,#000000,legacy,legacy,legacy,Incongruent,1,undefined,1,s,0,0,0,53,53,53,53,53,53,0,53,0,0,0,53,0,Sun Sep 24 19:13:54 2023,1500,The main experiment item,FALSE,Edward Banda Flanker Task.osexp,C:\Users\Edward Banda\Desktop\Avd Quant Methods 5316,FALSE,mono,FALSE,18,no,white,no,yes,768,legacy,53,53,C:/Users/Edward Banda/Desktop/subject-2.csv,legacy,Melodramatic Milgram,4.0.5,0,s,return,NA,NA,s,NA,268,8642,NA,NA,268,NA,2,legacy,1024,2,48000,-16,experiment,HHSHH,1,odd,10831,NA,NA,90754,98535,97497,98906,98534,98637,2184,NA,2188,NA,NA,98637,NA,Flanker Task,46,22877,54,1024
83,83,421,421,#000000,legacy,legacy,legacy,Incongruent,0,undefined,0,s,0,0,0,54,54,54,54,54,54,0,54,0,0,0,54,0,Sun Sep 24 19:13:54 2023,1500,The main experiment item,FALSE,Edward Banda Flanker Task.osexp,C:\Users\Edward Banda\Desktop\Avd Quant Methods 5316,FALSE,mono,FALSE,18,no,white,no,yes,768,legacy,54,54,C:/Users/Edward Banda/Desktop/subject-2.csv,legacy,Melodramatic Milgram,4.0.5,0,h,return,NA,NA,h,NA,323,8642,NA,NA,323,NA,2,legacy,1024,2,48000,-16,experiment,HHSHH,1,odd,10831,NA,NA,90754,99955,98918,100380,99952,100056,2184,NA,2188,NA,NA,100056,NA,Flanker Task,46,23200,55,1024
83,83,421,421,#000000,legacy,legacy,legacy,Congruent,1,undefined,1,s,0,0,0,55,55,55,55,55,55,0,55,0,0,0,55,0,Sun Sep 24 19:13:54 2023,1500,The main experiment item,FALSE,Edward Banda Flanker Task.osexp,C:\Users\Edward Banda\Desktop\Avd Quant Methods 5316,FALSE,mono,FALSE,18,no,white,no,yes,768,legacy,55,55,C:/Users/Edward Banda/Desktop/subject-2.csv,legacy,Melodramatic Milgram,4.0.5,0,s,return,NA,NA,s,NA,384,8642,NA,NA,384,NA,2,legacy,1024,2,48000,-16,experiment,SSSSS,1,odd,10831,NA,NA,100393,101926,100894,102412,101924,102027,2184,NA,2188,NA,NA,102027,NA,Flanker Task,47,23584,56,1024
84,84,421,421,#000000,legacy,legacy,legacy,Congruent,1,undefined,1,h,0,0,0,56,56,56,56,56,56,0,56,0,0,0,56,0,Sun Sep 24 19:13:54 2023,1500,The main experiment item,FALSE,Edward Banda Flanker Task.osexp,C:\Users\Edward Banda\Desktop\Avd Quant Methods 5316,FALSE,mono,FALSE,18,no,white,no,yes,768,legacy,56,56,C:/Users/Edward Banda/Desktop/subject-2.csv,legacy,Melodramatic Milgram,4.0.5,0,h,return,NA,NA,h,NA,432,8642,NA,NA,432,NA,2,legacy,1024,2,48000,-16,experiment,HHHHH,1,odd,10831,NA,NA,100393,103461,102424,103994,103458,103562,2184,NA,2188,NA,NA,103562,NA,Flanker Task,48,24016,57,1024
82,82,420,420,#000000,legacy,legacy,legacy,Incongruent,0,undefined,0,h,0,0,0,57,57,57,57,57,57,0,57,0,0,0,57,0,Sun Sep 24 19:13:54 2023,1500,The main experiment item,FALSE,Edward Banda Flanker Task.osexp,C:\Users\Edward Banda\Desktop\Avd Quant Methods 5316,FALSE,mono,FALSE,18,no,white,no,yes,768,legacy,57,57,C:/Users/Edward Banda/Desktop/subject-2.csv,legacy,Melodramatic Milgram,4.0.5,0,s,return,NA,NA,s,NA,358,8642,NA,NA,358,NA,2,legacy,1024,2,48000,-16,experiment,SSHSS,1,odd,10831,NA,NA,100393,105033,103997,105492,105031,105134,2184,NA,2188,NA,NA,105134,NA,Flanker Task,48,24374,58,1024
83,83,422,422,#000000,legacy,legacy,legacy,Incongruent,1,undefined,1,h,0,0,0,58,58,58,58,58,58,0,58,0,0,0,58,0,Sun Sep 24 19:13:54 2023,1500,The main experiment item,FALSE,Edward Banda Flanker Task.osexp,C:\Users\Edward Banda\Desktop\Avd Quant Methods 5316,FALSE,mono,FALSE,18,no,white,no,yes,768,legacy,58,58,C:/Users/Edward Banda/Desktop/subject-2.csv,legacy,Melodramatic Milgram,4.0.5,0,h,return,NA,NA,h,NA,526,8642,NA,NA,526,NA,2,legacy,1024,2,48000,-16,experiment,SSHSS,1,odd,10831,NA,NA,105505,107032,106006,107660,107030,107133,2184,NA,2188,NA,NA,107133,NA,Flanker Task,49,24900,59,1024
83,83,423,423,#000000,legacy,legacy,legacy,Congruent,1,undefined,1,h,0,0,0,59,59,59,59,59,59,0,59,0,0,0,59,0,Sun Sep 24 19:13:54 2023,1500,The main experiment item,FALSE,Edward Banda Flanker Task.osexp,C:\Users\Edward Banda\Desktop\Avd Quant Methods 5316,FALSE,mono,FALSE,18,no,white,no,yes,768,legacy,59,59,C:/Users/Edward Banda/Desktop/subject-2.csv,legacy,Melodramatic Milgram,4.0.5,0,h,return,NA,NA,h,NA,528,8642,NA,NA,528,NA,2,legacy,1024,2,48000,-16,experiment,HHHHH,1,odd,10831,NA,NA,105505,108708,107672,109338,108706,108809,2184,NA,2188,NA,NA,108809,NA,Flanker Task,50,25428,60,1024
83,83,423,423,#000000,legacy,legacy,legacy,Congruent,1,undefined,1,h,0,0,0,60,60,60,60,60,60,0,60,0,0,0,60,0,Sun Sep 24 19:13:54 2023,1500,The main experiment item,FALSE,Edward Banda Flanker Task.osexp,C:\Users\Edward Banda\Desktop\Avd Quant Methods 5316,FALSE,mono,FALSE,18,no,white,no,yes,768,legacy,60,60,C:/Users/Edward Banda/Desktop/subject-2.csv,legacy,Melodramatic Milgram,4.0.5,0,h,return,NA,NA,h,NA,429,8642,NA,NA,429,NA,2,legacy,1024,2,48000,-16,experiment,HHHHH,1,odd,10831,NA,NA,105505,110385,109350,110916,110383,110486,2184,NA,2188,NA,NA,110486,NA,Flanker Task,51,25857,61,1024
83,83,423,423,#000000,legacy,legacy,legacy,Congruent,1,undefined,1,h,0,0,0,61,61,61,61,61,61,0,61,0,0,0,61,0,Sun Sep 24 19:13:54 2023,1500,The main experiment item,FALSE,Edward Banda Flanker Task.osexp,C:\Users\Edward Banda\Desktop\Avd Quant Methods 5316,FALSE,mono,FALSE,18,no,white,no,yes,768,legacy,61,61,C:/Users/Edward Banda/Desktop/subject-2.csv,legacy,Melodramatic Milgram,4.0.5,0,h,return,NA,NA,h,NA,407,8642,NA,NA,407,NA,2,legacy,1024,2,48000,-16,experiment,HHHHH,1,odd,10831,NA,NA,105505,111965,110927,112474,111963,112066,2184,NA,2188,NA,NA,112066,NA,Flanker Task,52,26264,62,1024
82,82,422,422,#000000,legacy,legacy,legacy,Incongruent,0,undefined,0,h,0,0,0,62,62,62,62,62,62,0,62,0,0,0,62,0,Sun Sep 24 19:13:54 2023,1500,The main experiment item,FALSE,Edward Banda Flanker Task.osexp,C:\Users\Edward Banda\Desktop\Avd Quant Methods 5316,FALSE,mono,FALSE,18,no,white,no,yes,768,legacy,62,62,C:/Users/Edward Banda/Desktop/subject-2.csv,legacy,Melodramatic Milgram,4.0.5,0,s,return,NA,NA,s,NA,361,8642,NA,NA,361,NA,2,legacy,1024,2,48000,-16,experiment,SSHSS,1,odd,10831,NA,NA,105505,113534,112486,113997,113532,113635,2184,NA,2188,NA,NA,113635,NA,Flanker Task,52,26625,63,1024
82,82,422,422,#000000,legacy,legacy,legacy,Congruent,1,undefined,1,s,0,0,0,63,63,63,63,63,63,0,63,0,0,0,63,0,Sun Sep 24 19:13:54 2023,1500,The main experiment item,FALSE,Edward Banda Flanker Task.osexp,C:\Users\Edward Banda\Desktop\Avd Quant Methods 5316,FALSE,mono,FALSE,18,no,white,no,yes,768,legacy,63,63,C:/Users/Edward Banda/Desktop/subject-2.csv,legacy,Melodramatic Milgram,4.0.5,0,s,return,NA,NA,s,NA,404,8642,NA,NA,404,NA,2,legacy,1024,2,48000,-16,experiment,SSSSS,1,odd,10831,NA,NA,114009,115543,114510,116049,115540,115644,2184,NA,2188,NA,NA,115644,NA,Flanker Task,53,27029,64,1024
83,83,422,422,#000000,legacy,legacy,legacy,Congruent,1,undefined,1,s,0,0,0,64,64,64,64,64,64,0,64,0,0,0,64,0,Sun Sep 24 19:13:54 2023,1500,The main experiment item,FALSE,Edward Banda Flanker Task.osexp,C:\Users\Edward Banda\Desktop\Avd Quant Methods 5316,FALSE,mono,FALSE,18,no,white,no,yes,768,legacy,64,64,C:/Users/Edward Banda/Desktop/subject-2.csv,legacy,Melodramatic Milgram,4.0.5,0,s,return,NA,NA,s,NA,435,8642,NA,NA,435,NA,2,legacy,1024,2,48000,-16,experiment,SSSSS,1,odd,10831,NA,NA,114009,117093,116061,117630,117091,117194,2184,NA,2188,NA,NA,117194,NA,Flanker Task,54,27464,65,1024
83,83,424,424,#000000,legacy,legacy,legacy,Incongruent,1,undefined,1,h,0,0,0,65,65,65,65,65,65,0,65,0,0,0,65,0,Sun Sep 24 19:13:54 2023,1500,The main experiment item,FALSE,Edward Banda Flanker Task.osexp,C:\Users\Edward Banda\Desktop\Avd Quant Methods 5316,FALSE,mono,FALSE,18,no,white,no,yes,768,legacy,65,65,C:/Users/Edward Banda/Desktop/subject-2.csv,legacy,Melodramatic Milgram,4.0.5,0,h,return,NA,NA,h,NA,564,8642,NA,NA,564,NA,2,legacy,1024,2,48000,-16,experiment,SSHSS,1,odd,10831,NA,NA,114009,118683,117642,119350,118682,118785,2184,NA,2188,NA,NA,118785,NA,Flanker Task,55,28028,66,1024
83,83,424,424,#000000,legacy,legacy,legacy,Incongruent,1,undefined,1,s,0,0,0,66,66,66,66,66,66,0,66,0,0,0,66,0,Sun Sep 24 19:13:54 2023,1500,The main experiment item,FALSE,Edward Banda Flanker Task.osexp,C:\Users\Edward Banda\Desktop\Avd Quant Methods 5316,FALSE,mono,FALSE,18,no,white,no,yes,768,legacy,66,66,C:/Users/Edward Banda/Desktop/subject-2.csv,legacy,Melodramatic Milgram,4.0.5,0,s,return,NA,NA,s,NA,439,8642,NA,NA,439,NA,2,legacy,1024,2,48000,-16,experiment,HHSHH,1,odd,10831,NA,NA,114009,120387,119352,120928,120385,120488,2184,NA,2188,NA,NA,120488,NA,Flanker Task,56,28467,67,1024
83,83,426,426,#000000,legacy,legacy,legacy,Incongruent,1,undefined,1,h,0,0,0,67,67,67,67,67,67,0,67,0,0,0,67,0,Sun Sep 24 19:13:54 2023,1500,The main experiment item,FALSE,Edward Banda Flanker Task.osexp,C:\Users\Edward Banda\Desktop\Avd Quant Methods 5316,FALSE,mono,FALSE,18,no,white,no,yes,768,legacy,67,67,C:/Users/Edward Banda/Desktop/subject-2.csv,legacy,Melodramatic Milgram,4.0.5,0,h,return,NA,NA,h,NA,545,8642,NA,NA,545,NA,2,legacy,1024,2,48000,-16,experiment,SSHSS,1,odd,10831,NA,NA,114009,121975,120940,122623,121973,122077,2184,NA,2188,NA,NA,122077,NA,Flanker Task,57,29012,68,1024
84,84,426,426,#000000,legacy,legacy,legacy,Congruent,1,undefined,1,s,0,0,0,68,68,68,68,68,68,0,68,0,0,0,68,0,Sun Sep 24 19:13:54 2023,1500,The main experiment item,FALSE,Edward Banda Flanker Task.osexp,C:\Users\Edward Banda\Desktop\Avd Quant Methods 5316,FALSE,mono,FALSE,18,no,white,no,yes,768,legacy,68,68,C:/Users/Edward Banda/Desktop/subject-2.csv,legacy,Melodramatic Milgram,4.0.5,0,s,return,NA,NA,s,NA,394,8642,NA,NA,394,NA,2,legacy,1024,2,48000,-16,experiment,SSSSS,1,odd,10831,NA,NA,114009,123671,122635,124169,123669,123774,2184,NA,2188,NA,NA,123774,NA,Flanker Task,58,29406,69,1024
84,84,426,426,#000000,legacy,legacy,legacy,Congruent,1,undefined,1,h,0,0,0,69,69,69,69,69,69,0,69,0,0,0,69,0,Sun Sep 24 19:13:54 2023,1500,The main experiment item,FALSE,Edward Banda Flanker Task.osexp,C:\Users\Edward Banda\Desktop\Avd Quant Methods 5316,FALSE,mono,FALSE,18,no,white,no,yes,768,legacy,69,69,C:/Users/Edward Banda/Desktop/subject-2.csv,legacy,Melodramatic Milgram,4.0.5,0,h,return,NA,NA,h,NA,449,8642,NA,NA,449,NA,2,legacy,1024,2,48000,-16,experiment,HHHHH,1,odd,10831,NA,NA,114009,125220,124181,125772,125218,125322,2184,NA,2188,NA,NA,125322,NA,Flanker Task,59,29855,70,1024
84,84,426,426,#000000,legacy,legacy,legacy,Congruent,1,undefined,1,s,0,0,0,70,70,70,70,70,70,0,70,0,0,0,70,0,Sun Sep 24 19:13:54 2023,1500,The main experiment item,FALSE,Edward Banda Flanker Task.osexp,C:\Users\Edward Banda\Desktop\Avd Quant Methods 5316,FALSE,mono,FALSE,18,no,white,no,yes,768,legacy,70,70,C:/Users/Edward Banda/Desktop/subject-2.csv,legacy,Melodramatic Milgram,4.0.5,0,s,return,NA,NA,s,NA,410,8642,NA,NA,410,NA,2,legacy,1024,2,48000,-16,experiment,SSSSS,1,odd,10831,NA,NA,114009,126823,125784,127335,126821,126924,2184,NA,2188,NA,NA,126924,NA,Flanker Task,60,30265,71,1024
84,84,426,426,#000000,legacy,legacy,legacy,Congruent,1,undefined,1,h,0,0,0,71,71,71,71,71,71,0,71,0,0,0,71,0,Sun Sep 24 19:13:54 2023,1500,The main experiment item,FALSE,Edward Banda Flanker Task.osexp,C:\Users\Edward Banda\Desktop\Avd Quant Methods 5316,FALSE,mono,FALSE,18,no,white,no,yes,768,legacy,71,71,C:/Users/Edward Banda/Desktop/subject-2.csv,legacy,Melodramatic Milgram,4.0.5,0,h,return,NA,NA,h,NA,416,8642,NA,NA,416,NA,2,legacy,1024,2,48000,-16,experiment,HHHHH,1,odd,10831,NA,NA,114009,128395,127347,128913,128393,128496,2184,NA,2188,NA,NA,128496,NA,Flanker Task,61,30681,72,1024
83,83,426,426,#000000,legacy,legacy,legacy,Incongruent,0,undefined,0,h,0,0,0,72,72,72,72,72,72,0,72,0,0,0,72,0,Sun Sep 24 19:13:54 2023,1500,The main experiment item,FALSE,Edward Banda Flanker Task.osexp,C:\Users\Edward Banda\Desktop\Avd Quant Methods 5316,FALSE,mono,FALSE,18,no,white,no,yes,768,legacy,72,72,C:/Users/Edward Banda/Desktop/subject-2.csv,legacy,Melodramatic Milgram,4.0.5,0,s,return,NA,NA,s,NA,450,8642,NA,NA,450,NA,2,legacy,1024,2,48000,-16,experiment,SSHSS,1,odd,10831,NA,NA,114009,129958,128926,130511,129956,130060,2184,NA,2188,NA,NA,130060,NA,Flanker Task,61,31131,73,1024
83,83,426,426,#000000,legacy,legacy,legacy,Incongruent,1,undefined,1,s,0,0,0,73,73,73,73,73,73,0,73,0,0,0,73,0,Sun Sep 24 19:13:54 2023,1500,The main experiment item,FALSE,Edward Banda Flanker Task.osexp,C:\Users\Edward Banda\Desktop\Avd Quant Methods 5316,FALSE,mono,FALSE,18,no,white,no,yes,768,legacy,73,73,C:/Users/Edward Banda/Desktop/subject-2.csv,legacy,Melodramatic Milgram,4.0.5,0,s,return,NA,NA,s,NA,454,8642,NA,NA,454,NA,2,legacy,1024,2,48000,-16,experiment,HHSHH,1,odd,10831,NA,NA,130524,132062,131025,132618,132060,132163,2184,NA,2188,NA,NA,132163,NA,Flanker Task,62,31585,74,1024
84,84,427,427,#000000,legacy,legacy,legacy,Congruent,1,undefined,1,s,0,0,0,74,74,74,74,74,74,0,74,0,0,0,74,0,Sun Sep 24 19:13:54 2023,1500,The main experiment item,FALSE,Edward Banda Flanker Task.osexp,C:\Users\Edward Banda\Desktop\Avd Quant Methods 5316,FALSE,mono,FALSE,18,no,white,no,yes,768,legacy,74,74,C:/Users/Edward Banda/Desktop/subject-2.csv,legacy,Melodramatic Milgram,4.0.5,0,s,return,NA,NA,s,NA,443,8642,NA,NA,443,NA,2,legacy,1024,2,48000,-16,experiment,SSSSS,1,odd,10831,NA,NA,130524,133666,132630,134211,133664,133767,2184,NA,2188,NA,NA,133767,NA,Flanker Task,63,32028,75,1024
84,84,426,426,#000000,legacy,legacy,legacy,Congruent,1,undefined,1,s,0,0,0,75,75,75,75,75,75,0,75,0,0,0,75,0,Sun Sep 24 19:13:54 2023,1500,The main experiment item,FALSE,Edward Banda Flanker Task.osexp,C:\Users\Edward Banda\Desktop\Avd Quant Methods 5316,FALSE,mono,FALSE,18,no,white,no,yes,768,legacy,75,75,C:/Users/Edward Banda/Desktop/subject-2.csv,legacy,Melodramatic Milgram,4.0.5,0,s,return,NA,NA,s,NA,388,8642,NA,NA,388,NA,2,legacy,1024,2,48000,-16,experiment,SSSSS,1,odd,10831,NA,NA,130524,135259,134223,135749,135257,135360,2184,NA,2188,NA,NA,135360,NA,Flanker Task,64,32416,76,1024
84,84,426,426,#000000,legacy,legacy,legacy,Congruent,1,undefined,1,s,0,0,0,76,76,76,76,76,76,0,76,0,0,0,76,0,Sun Sep 24 19:13:54 2023,1500,The main experiment item,FALSE,Edward Banda Flanker Task.osexp,C:\Users\Edward Banda\Desktop\Avd Quant Methods 5316,FALSE,mono,FALSE,18,no,white,no,yes,768,legacy,76,76,C:/Users/Edward Banda/Desktop/subject-2.csv,legacy,Melodramatic Milgram,4.0.5,0,s,return,NA,NA,s,NA,400,8642,NA,NA,400,NA,2,legacy,1024,2,48000,-16,experiment,SSSSS,1,odd,10831,NA,NA,130524,136800,135762,137302,136798,136901,2184,NA,2188,NA,NA,136901,NA,Flanker Task,65,32816,77,1024
84,84,426,426,#000000,legacy,legacy,legacy,Congruent,1,undefined,1,h,0,0,0,77,77,77,77,77,77,0,77,0,0,0,77,0,Sun Sep 24 19:13:54 2023,1500,The main experiment item,FALSE,Edward Banda Flanker Task.osexp,C:\Users\Edward Banda\Desktop\Avd Quant Methods 5316,FALSE,mono,FALSE,18,no,white,no,yes,768,legacy,77,77,C:/Users/Edward Banda/Desktop/subject-2.csv,legacy,Melodramatic Milgram,4.0.5,0,h,return,NA,NA,h,NA,464,8642,NA,NA,464,NA,2,legacy,1024,2,48000,-16,experiment,HHHHH,1,odd,10831,NA,NA,130524,138359,137315,138926,138356,138460,2184,NA,2188,NA,NA,138460,NA,Flanker Task,66,33280,78,1024
84,84,427,427,#000000,legacy,legacy,legacy,Incongruent,1,undefined,1,s,0,0,0,78,78,78,78,78,78,0,78,0,0,0,78,0,Sun Sep 24 19:13:54 2023,1500,The main experiment item,FALSE,Edward Banda Flanker Task.osexp,C:\Users\Edward Banda\Desktop\Avd Quant Methods 5316,FALSE,mono,FALSE,18,no,white,no,yes,768,legacy,78,78,C:/Users/Edward Banda/Desktop/subject-2.csv,legacy,Melodramatic Milgram,4.0.5,0,s,return,NA,NA,s,NA,510,8642,NA,NA,510,NA,2,legacy,1024,2,48000,-16,experiment,HHSHH,1,odd,10831,NA,NA,130524,139971,138938,140583,139969,140072,2184,NA,2188,NA,NA,140072,NA,Flanker Task,67,33790,79,1024
85,85,427,427,#000000,legacy,legacy,legacy,Congruent,1,undefined,1,s,0,0,0,79,79,79,79,79,79,0,79,0,0,0,79,0,Sun Sep 24 19:13:54 2023,1500,The main experiment item,FALSE,Edward Banda Flanker Task.osexp,C:\Users\Edward Banda\Desktop\Avd Quant Methods 5316,FALSE,mono,FALSE,18,no,white,no,yes,768,legacy,79,79,C:/Users/Edward Banda/Desktop/subject-2.csv,legacy,Melodramatic Milgram,4.0.5,0,s,return,NA,NA,s,NA,447,8642,NA,NA,447,NA,2,legacy,1024,2,48000,-16,experiment,SSSSS,1,odd,10831,NA,NA,130524,141632,140595,142181,141630,141733,2184,NA,2188,NA,NA,141733,NA,Flanker Task,68,34237,80,1024
83,83,432,432,#000000,legacy,legacy,legacy,Incongruent,0,undefined,0,h,0,0,0,80,80,80,80,80,80,0,80,0,0,0,80,0,Sun Sep 24 19:13:54 2023,600,The main experiment item,FALSE,Edward Banda Flanker Task.osexp,C:\Users\Edward Banda\Desktop\Avd Quant Methods 5316,FALSE,mono,FALSE,18,no,white,no,yes,768,legacy,0,79,C:/Users/Edward Banda/Desktop/subject-2.csv,legacy,Melodramatic Milgram,4.0.5,0,s,return,return,NA,s,NA,790,8642,111499,NA,790,NA,2,legacy,1024,2,48000,-16,experiment,SSHSS,1,odd,10831,254695,NA,130524,254741,142193,255633,254740,254842,2184,NA,2188,143195,NA,254842,NA,Flanker Task,68,35027,81,1024
84,84,433,433,#000000,legacy,legacy,legacy,Incongruent,1,undefined,1,s,0,0,0,81,81,81,81,81,81,0,81,0,0,0,81,0,Sun Sep 24 19:13:54 2023,600,The main experiment item,FALSE,Edward Banda Flanker Task.osexp,C:\Users\Edward Banda\Desktop\Avd Quant Methods 5316,FALSE,mono,FALSE,18,no,white,no,yes,768,legacy,1,79,C:/Users/Edward Banda/Desktop/subject-2.csv,legacy,Melodramatic Milgram,4.0.5,0,s,return,return,NA,s,NA,511,8642,111499,NA,511,NA,2,legacy,1024,2,48000,-16,experiment,HHSHH,1,odd,10831,254695,NA,255645,257672,256646,258285,257670,257773,2184,256146,2188,143195,NA,257773,NA,Flanker Task,69,35538,82,1024
84,84,432,432,#000000,legacy,legacy,legacy,Congruent,1,undefined,1,s,0,0,0,82,82,82,82,82,82,0,82,0,0,0,82,0,Sun Sep 24 19:13:54 2023,600,The main experiment item,FALSE,Edward Banda Flanker Task.osexp,C:\Users\Edward Banda\Desktop\Avd Quant Methods 5316,FALSE,mono,FALSE,18,no,white,no,yes,768,legacy,2,79,C:/Users/Edward Banda/Desktop/subject-2.csv,legacy,Melodramatic Milgram,4.0.5,0,s,return,return,NA,s,NA,355,8642,111499,NA,355,NA,2,legacy,1024,2,48000,-16,experiment,SSSSS,1,odd,10831,254695,NA,255645,259331,258297,259788,259329,259432,2184,256146,2188,143195,NA,259432,NA,Flanker Task,70,35893,83,1024
84,84,432,432,#000000,legacy,legacy,legacy,Incongruent,1,undefined,1,s,0,0,0,83,83,83,83,83,83,0,83,0,0,0,83,0,Sun Sep 24 19:13:54 2023,600,The main experiment item,FALSE,Edward Banda Flanker Task.osexp,C:\Users\Edward Banda\Desktop\Avd Quant Methods 5316,FALSE,mono,FALSE,18,no,white,no,yes,768,legacy,3,79,C:/Users/Edward Banda/Desktop/subject-2.csv,legacy,Melodramatic Milgram,4.0.5,0,s,return,return,NA,s,NA,432,8642,111499,NA,432,NA,2,legacy,1024,2,48000,-16,experiment,HHSHH,1,odd,10831,254695,NA,255645,260832,259799,261366,260830,260933,2184,256146,2188,143195,NA,260933,NA,Flanker Task,71,36325,84,1024
84,84,431,431,#000000,legacy,legacy,legacy,Congruent,1,undefined,1,s,0,0,0,84,84,84,84,84,84,0,84,0,0,0,84,0,Sun Sep 24 19:13:54 2023,600,The main experiment item,FALSE,Edward Banda Flanker Task.osexp,C:\Users\Edward Banda\Desktop\Avd Quant Methods 5316,FALSE,mono,FALSE,18,no,white,no,yes,768,legacy,4,79,C:/Users/Edward Banda/Desktop/subject-2.csv,legacy,Melodramatic Milgram,4.0.5,0,s,return,return,NA,s,NA,370,8642,111499,NA,370,NA,2,legacy,1024,2,48000,-16,experiment,SSSSS,1,odd,10831,254695,NA,255645,262412,261378,262883,262410,262513,2184,256146,2188,143195,NA,262513,NA,Flanker Task,72,36695,85,1024
83,83,430,430,#000000,legacy,legacy,legacy,Incongruent,0,undefined,0,s,0,0,0,85,85,85,85,85,85,0,85,0,0,0,85,0,Sun Sep 24 19:13:54 2023,600,The main experiment item,FALSE,Edward Banda Flanker Task.osexp,C:\Users\Edward Banda\Desktop\Avd Quant Methods 5316,FALSE,mono,FALSE,18,no,white,no,yes,768,legacy,5,79,C:/Users/Edward Banda/Desktop/subject-2.csv,legacy,Melodramatic Milgram,4.0.5,0,h,return,return,NA,h,NA,331,8642,111499,NA,331,NA,2,legacy,1024,2,48000,-16,experiment,HHSHH,1,odd,10831,254695,NA,255645,263922,262886,264357,263920,264025,2184,256146,2188,143195,NA,264025,NA,Flanker Task,72,37026,86,1024
83,83,430,430,#000000,legacy,legacy,legacy,Congruent,1,undefined,1,h,0,0,0,86,86,86,86,86,86,0,86,0,0,0,86,0,Sun Sep 24 19:13:54 2023,600,The main experiment item,FALSE,Edward Banda Flanker Task.osexp,C:\Users\Edward Banda\Desktop\Avd Quant Methods 5316,FALSE,mono,FALSE,18,no,white,no,yes,768,legacy,6,79,C:/Users/Edward Banda/Desktop/subject-2.csv,legacy,Melodramatic Milgram,4.0.5,0,h,return,return,NA,h,NA,434,8642,111499,NA,434,NA,2,legacy,1024,2,48000,-16,experiment,HHHHH,1,odd,10831,254695,NA,264370,265903,264871,266440,265901,266004,2184,256146,2188,143195,NA,266004,NA,Flanker Task,73,37460,87,1024
82,82,430,430,#000000,legacy,legacy,legacy,Incongruent,0,undefined,0,h,0,0,0,87,87,87,87,87,87,0,87,0,0,0,87,0,Sun Sep 24 19:13:54 2023,600,The main experiment item,FALSE,Edward Banda Flanker Task.osexp,C:\Users\Edward Banda\Desktop\Avd Quant Methods 5316,FALSE,mono,FALSE,18,no,white,no,yes,768,legacy,7,79,C:/Users/Edward Banda/Desktop/subject-2.csv,legacy,Melodramatic Milgram,4.0.5,0,s,return,return,NA,s,NA,389,8642,111499,NA,389,NA,2,legacy,1024,2,48000,-16,experiment,SSHSS,1,odd,10831,254695,NA,264370,267496,266452,267988,267493,267597,2184,256146,2188,143195,NA,267597,NA,Flanker Task,73,37849,88,1024
83,83,429,429,#000000,legacy,legacy,legacy,Incongruent,1,undefined,1,s,0,0,0,88,88,88,88,88,88,0,88,0,0,0,88,0,Sun Sep 24 19:13:54 2023,600,The main experiment item,FALSE,Edward Banda Flanker Task.osexp,C:\Users\Edward Banda\Desktop\Avd Quant Methods 5316,FALSE,mono,FALSE,18,no,white,no,yes,768,legacy,8,79,C:/Users/Edward Banda/Desktop/subject-2.csv,legacy,Melodramatic Milgram,4.0.5,0,s,return,return,NA,s,NA,390,8642,111499,NA,390,NA,2,legacy,1024,2,48000,-16,experiment,HHSHH,1,odd,10831,254695,NA,268000,269527,268501,270020,269526,269629,2184,256146,2188,143195,NA,269629,NA,Flanker Task,74,38239,89,1024
83,83,429,429,#000000,legacy,legacy,legacy,Incongruent,1,undefined,1,h,0,0,0,89,89,89,89,89,89,0,89,0,0,0,89,0,Sun Sep 24 19:13:54 2023,600,The main experiment item,FALSE,Edward Banda Flanker Task.osexp,C:\Users\Edward Banda\Desktop\Avd Quant Methods 5316,FALSE,mono,FALSE,18,no,white,no,yes,768,legacy,9,79,C:/Users/Edward Banda/Desktop/subject-2.csv,legacy,Melodramatic Milgram,4.0.5,0,h,return,return,NA,h,NA,437,8642,111499,NA,437,NA,2,legacy,1024,2,48000,-16,experiment,SSHSS,1,odd,10831,254695,NA,268000,271064,270033,271603,271063,271165,2184,256146,2188,143195,NA,271165,NA,Flanker Task,75,38676,90,1024
83,83,428,428,#000000,legacy,legacy,legacy,Congruent,1,undefined,1,s,0,0,0,90,90,90,90,90,90,0,90,0,0,0,90,0,Sun Sep 24 19:13:54 2023,600,The main experiment item,FALSE,Edward Banda Flanker Task.osexp,C:\Users\Edward Banda\Desktop\Avd Quant Methods 5316,FALSE,mono,FALSE,18,no,white,no,yes,768,legacy,10,79,C:/Users/Edward Banda/Desktop/subject-2.csv,legacy,Melodramatic Milgram,4.0.5,0,s,return,return,NA,s,NA,360,8642,111499,NA,360,NA,2,legacy,1024,2,48000,-16,experiment,SSSSS,1,odd,10831,254695,NA,268000,272644,271606,273106,272642,272745,2184,256146,2188,143195,NA,272745,NA,Flanker Task,76,39036,91,1024
83,83,429,429,#000000,legacy,legacy,legacy,Incongruent,1,undefined,1,h,0,0,0,91,91,91,91,91,91,0,91,0,0,0,91,0,Sun Sep 24 19:13:54 2023,600,The main experiment item,FALSE,Edward Banda Flanker Task.osexp,C:\Users\Edward Banda\Desktop\Avd Quant Methods 5316,FALSE,mono,FALSE,18,no,white,no,yes,768,legacy,11,79,C:/Users/Edward Banda/Desktop/subject-2.csv,legacy,Melodramatic Milgram,4.0.5,0,h,return,return,NA,h,NA,439,8642,111499,NA,439,NA,2,legacy,1024,2,48000,-16,experiment,SSHSS,1,odd,10831,254695,NA,268000,274148,273118,274690,274146,274249,2184,256146,2188,143195,NA,274249,NA,Flanker Task,77,39475,92,1024
83,83,428,428,#000000,legacy,legacy,legacy,Congruent,1,undefined,1,s,0,0,0,92,92,92,92,92,92,0,92,0,0,0,92,0,Sun Sep 24 19:13:54 2023,600,The main experiment item,FALSE,Edward Banda Flanker Task.osexp,C:\Users\Edward Banda\Desktop\Avd Quant Methods 5316,FALSE,mono,FALSE,18,no,white,no,yes,768,legacy,12,79,C:/Users/Edward Banda/Desktop/subject-2.csv,legacy,Melodramatic Milgram,4.0.5,0,s,return,return,NA,s,NA,374,8642,111499,NA,374,NA,2,legacy,1024,2,48000,-16,experiment,SSSSS,1,odd,10831,254695,NA,268000,275745,274703,276222,275743,275847,2184,256146,2188,143195,NA,275847,NA,Flanker Task,78,39849,93,1024
84,84,428,428,#000000,legacy,legacy,legacy,Incongruent,1,undefined,1,s,0,0,0,93,93,93,93,93,93,0,93,0,0,0,93,0,Sun Sep 24 19:13:54 2023,600,The main experiment item,FALSE,Edward Banda Flanker Task.osexp,C:\Users\Edward Banda\Desktop\Avd Quant Methods 5316,FALSE,mono,FALSE,18,no,white,no,yes,768,legacy,13,79,C:/Users/Edward Banda/Desktop/subject-2.csv,legacy,Melodramatic Milgram,4.0.5,0,s,return,return,NA,s,NA,452,8642,111499,NA,452,NA,2,legacy,1024,2,48000,-16,experiment,HHSHH,1,odd,10831,254695,NA,268000,277271,276234,277825,277269,277372,2184,256146,2188,143195,NA,277372,NA,Flanker Task,79,40301,94,1024
84,84,428,428,#000000,legacy,legacy,legacy,Incongruent,1,undefined,1,s,0,0,0,94,94,94,94,94,94,0,94,0,0,0,94,0,Sun Sep 24 19:13:54 2023,600,The main experiment item,FALSE,Edward Banda Flanker Task.osexp,C:\Users\Edward Banda\Desktop\Avd Quant Methods 5316,FALSE,mono,FALSE,18,no,white,no,yes,768,legacy,14,79,C:/Users/Edward Banda/Desktop/subject-2.csv,legacy,Melodramatic Milgram,4.0.5,0,s,return,return,NA,s,NA,401,8642,111499,NA,401,NA,2,legacy,1024,2,48000,-16,experiment,HHSHH,1,odd,10831,254695,NA,268000,278875,277837,279378,278873,278976,2184,256146,2188,143195,NA,278976,NA,Flanker Task,80,40702,95,1024
84,84,428,428,#000000,legacy,legacy,legacy,Incongruent,1,undefined,1,s,0,0,0,95,95,95,95,95,95,0,95,0,0,0,95,0,Sun Sep 24 19:13:54 2023,600,The main experiment item,FALSE,Edward Banda Flanker Task.osexp,C:\Users\Edward Banda\Desktop\Avd Quant Methods 5316,FALSE,mono,FALSE,18,no,white,no,yes,768,legacy,15,79,C:/Users/Edward Banda/Desktop/subject-2.csv,legacy,Melodramatic Milgram,4.0.5,0,s,return,return,NA,s,NA,389,8642,111499,NA,389,NA,2,legacy,1024,2,48000,-16,experiment,HHSHH,1,odd,10831,254695,NA,268000,280424,279390,280917,280422,280525,2184,256146,2188,143195,NA,280526,NA,Flanker Task,81,41091,96,1024
84,84,427,427,#000000,legacy,legacy,legacy,Congruent,1,undefined,1,h,0,0,0,96,96,96,96,96,96,0,96,0,0,0,96,0,Sun Sep 24 19:13:54 2023,600,The main experiment item,FALSE,Edward Banda Flanker Task.osexp,C:\Users\Edward Banda\Desktop\Avd Quant Methods 5316,FALSE,mono,FALSE,18,no,white,no,yes,768,legacy,16,79,C:/Users/Edward Banda/Desktop/subject-2.csv,legacy,Melodramatic Milgram,4.0.5,0,h,return,return,NA,h,NA,384,8642,111499,NA,384,NA,2,legacy,1024,2,48000,-16,experiment,HHHHH,1,odd,10831,254695,NA,268000,281973,280929,282460,281971,282074,2184,256146,2188,143195,NA,282074,NA,Flanker Task,82,41475,97,1024
84,84,426,426,#000000,legacy,legacy,legacy,Incongruent,1,undefined,1,s,0,0,0,97,97,97,97,97,97,0,97,0,0,0,97,0,Sun Sep 24 19:13:54 2023,600,The main experiment item,FALSE,Edward Banda Flanker Task.osexp,C:\Users\Edward Banda\Desktop\Avd Quant Methods 5316,FALSE,mono,FALSE,18,no,white,no,yes,768,legacy,17,79,C:/Users/Edward Banda/Desktop/subject-2.csv,legacy,Melodramatic Milgram,4.0.5,0,s,return,return,NA,s,NA,364,8642,111499,NA,364,NA,2,legacy,1024,2,48000,-16,experiment,HHSHH,1,odd,10831,254695,NA,268000,283507,282472,283973,283506,283608,2184,256146,2188,143195,NA,283608,NA,Flanker Task,83,41839,98,1024
84,84,426,426,#000000,legacy,legacy,legacy,Congruent,1,undefined,1,h,0,0,0,98,98,98,98,98,98,0,98,0,0,0,98,0,Sun Sep 24 19:13:54 2023,600,The main experiment item,FALSE,Edward Banda Flanker Task.osexp,C:\Users\Edward Banda\Desktop\Avd Quant Methods 5316,FALSE,mono,FALSE,18,no,white,no,yes,768,legacy,18,79,C:/Users/Edward Banda/Desktop/subject-2.csv,legacy,Melodramatic Milgram,4.0.5,0,h,return,return,NA,h,NA,342,8642,111499,NA,342,NA,2,legacy,1024,2,48000,-16,experiment,HHHHH,1,odd,10831,254695,NA,268000,285022,283985,285466,285020,285123,2184,256146,2188,143195,NA,285123,NA,Flanker Task,84,42181,99,1024
85,85,425,425,#000000,legacy,legacy,legacy,Congruent,1,undefined,1,s,0,0,0,99,99,99,99,99,99,0,99,0,0,0,99,0,Sun Sep 24 19:13:54 2023,600,The main experiment item,FALSE,Edward Banda Flanker Task.osexp,C:\Users\Edward Banda\Desktop\Avd Quant Methods 5316,FALSE,mono,FALSE,18,no,white,no,yes,768,legacy,19,79,C:/Users/Edward Banda/Desktop/subject-2.csv,legacy,Melodramatic Milgram,4.0.5,0,s,return,return,NA,s,NA,370,8642,111499,NA,370,NA,2,legacy,1024,2,48000,-16,experiment,SSSSS,1,odd,10831,254695,NA,268000,286517,285478,286989,286515,286618,2184,256146,2188,143195,NA,286618,NA,Flanker Task,85,42551,100,1024
85,85,425,425,#000000,legacy,legacy,legacy,Congruent,1,undefined,1,h,0,0,0,100,100,100,100,100,100,0,100,0,0,0,100,0,Sun Sep 24 19:13:54 2023,600,The main experiment item,FALSE,Edward Banda Flanker Task.osexp,C:\Users\Edward Banda\Desktop\Avd Quant Methods 5316,FALSE,mono,FALSE,18,no,white,no,yes,768,legacy,20,79,C:/Users/Edward Banda/Desktop/subject-2.csv,legacy,Melodramatic Milgram,4.0.5,0,h,return,return,NA,h,NA,464,8642,111499,NA,464,NA,2,legacy,1024,2,48000,-16,experiment,HHHHH,1,odd,10831,254695,NA,268000,288041,287001,288607,288039,288142,2184,256146,2188,143195,NA,288142,NA,Flanker Task,86,43015,101,1024
85,85,425,425,#000000,legacy,legacy,legacy,Incongruent,1,undefined,1,s,0,0,0,101,101,101,101,101,101,0,101,0,0,0,101,0,Sun Sep 24 19:13:54 2023,600,The main experiment item,FALSE,Edward Banda Flanker Task.osexp,C:\Users\Edward Banda\Desktop\Avd Quant Methods 5316,FALSE,mono,FALSE,18,no,white,no,yes,768,legacy,21,79,C:/Users/Edward Banda/Desktop/subject-2.csv,legacy,Melodramatic Milgram,4.0.5,0,s,return,return,NA,s,NA,401,8642,111499,NA,401,NA,2,legacy,1024,2,48000,-16,experiment,HHSHH,1,odd,10831,254695,NA,268000,289662,288619,290165,289660,289763,2184,256146,2188,143195,NA,289763,NA,Flanker Task,87,43416,102,1024
85,85,424,424,#000000,legacy,legacy,legacy,Congruent,1,undefined,1,s,0,0,0,102,102,102,102,102,102,0,102,0,0,0,102,0,Sun Sep 24 19:13:54 2023,600,The main experiment item,FALSE,Edward Banda Flanker Task.osexp,C:\Users\Edward Banda\Desktop\Avd Quant Methods 5316,FALSE,mono,FALSE,18,no,white,no,yes,768,legacy,22,79,C:/Users/Edward Banda/Desktop/subject-2.csv,legacy,Melodramatic Milgram,4.0.5,0,s,return,return,NA,s,NA,352,8642,111499,NA,352,NA,2,legacy,1024,2,48000,-16,experiment,SSSSS,1,odd,10831,254695,NA,268000,291219,290177,291673,291217,291320,2184,256146,2188,143195,NA,291320,NA,Flanker Task,88,43768,103,1024
85,85,425,425,#000000,legacy,legacy,legacy,Congruent,1,undefined,1,h,0,0,0,103,103,103,103,103,103,0,103,0,0,0,103,0,Sun Sep 24 19:13:54 2023,600,The main experiment item,FALSE,Edward Banda Flanker Task.osexp,C:\Users\Edward Banda\Desktop\Avd Quant Methods 5316,FALSE,mono,FALSE,18,no,white,no,yes,768,legacy,23,79,C:/Users/Edward Banda/Desktop/subject-2.csv,legacy,Melodramatic Milgram,4.0.5,0,h,return,return,NA,h,NA,434,8642,111499,NA,434,NA,2,legacy,1024,2,48000,-16,experiment,HHHHH,1,odd,10831,254695,NA,268000,292721,291685,293256,292720,292822,2184,256146,2188,143195,NA,292822,NA,Flanker Task,89,44202,104,1024
84,84,424,424,#000000,legacy,legacy,legacy,Incongruent,0,undefined,0,h,0,0,0,104,104,104,104,104,104,0,104,0,0,0,104,0,Sun Sep 24 19:13:54 2023,600,The main experiment item,FALSE,Edward Banda Flanker Task.osexp,C:\Users\Edward Banda\Desktop\Avd Quant Methods 5316,FALSE,mono,FALSE,18,no,white,no,yes,768,legacy,24,79,C:/Users/Edward Banda/Desktop/subject-2.csv,legacy,Melodramatic Milgram,4.0.5,0,s,return,return,NA,s,NA,321,8642,111499,NA,321,NA,2,legacy,1024,2,48000,-16,experiment,SSHSS,1,odd,10831,254695,NA,268000,294302,293268,294725,294300,294403,2184,256146,2188,143195,NA,294403,NA,Flanker Task,89,44523,105,1024
84,84,424,424,#000000,legacy,legacy,legacy,Congruent,1,undefined,1,s,0,0,0,105,105,105,105,105,105,0,105,0,0,0,105,0,Sun Sep 24 19:13:54 2023,600,The main experiment item,FALSE,Edward Banda Flanker Task.osexp,C:\Users\Edward Banda\Desktop\Avd Quant Methods 5316,FALSE,mono,FALSE,18,no,white,no,yes,768,legacy,25,79,C:/Users/Edward Banda/Desktop/subject-2.csv,legacy,Melodramatic Milgram,4.0.5,0,s,return,return,NA,s,NA,481,8642,111499,NA,481,NA,2,legacy,1024,2,48000,-16,experiment,SSSSS,1,odd,10831,254695,NA,294737,296288,295238,296873,296286,296390,2184,256146,2188,143195,NA,296390,NA,Flanker Task,90,45004,106,1024
85,85,425,425,#000000,legacy,legacy,legacy,Incongruent,1,undefined,1,h,0,0,0,106,106,106,106,106,106,0,106,0,0,0,106,0,Sun Sep 24 19:13:54 2023,600,The main experiment item,FALSE,Edward Banda Flanker Task.osexp,C:\Users\Edward Banda\Desktop\Avd Quant Methods 5316,FALSE,mono,FALSE,18,no,white,no,yes,768,legacy,26,79,C:/Users/Edward Banda/Desktop/subject-2.csv,legacy,Melodramatic Milgram,4.0.5,0,h,return,return,NA,h,NA,481,8642,111499,NA,481,NA,2,legacy,1024,2,48000,-16,experiment,SSHSS,1,odd,10831,254695,NA,294737,297922,296886,298505,297920,298023,2184,256146,2188,143195,NA,298023,NA,Flanker Task,91,45485,107,1024
85,85,424,424,#000000,legacy,legacy,legacy,Congruent,1,undefined,1,h,0,0,0,107,107,107,107,107,107,0,107,0,0,0,107,0,Sun Sep 24 19:13:54 2023,600,The main experiment item,FALSE,Edward Banda Flanker Task.osexp,C:\Users\Edward Banda\Desktop\Avd Quant Methods 5316,FALSE,mono,FALSE,18,no,white,no,yes,768,legacy,27,79,C:/Users/Edward Banda/Desktop/subject-2.csv,legacy,Melodramatic Milgram,4.0.5,0,h,return,return,NA,h,NA,396,8642,111499,NA,396,NA,2,legacy,1024,2,48000,-16,experiment,HHHHH,1,odd,10831,254695,NA,294737,299549,298508,300048,299547,299651,2184,256146,2188,143195,NA,299651,NA,Flanker Task,92,45881,108,1024
85,85,425,425,#000000,legacy,legacy,legacy,Incongruent,1,undefined,1,h,0,0,0,108,108,108,108,108,108,0,108,0,0,0,108,0,Sun Sep 24 19:13:54 2023,600,The main experiment item,FALSE,Edward Banda Flanker Task.osexp,C:\Users\Edward Banda\Desktop\Avd Quant Methods 5316,FALSE,mono,FALSE,18,no,white,no,yes,768,legacy,28,79,C:/Users/Edward Banda/Desktop/subject-2.csv,legacy,Melodramatic Milgram,4.0.5,0,h,return,return,NA,h,NA,462,8642,111499,NA,462,NA,2,legacy,1024,2,48000,-16,experiment,SSHSS,1,odd,10831,254695,NA,294737,301093,300060,301657,301091,301194,2184,256146,2188,143195,NA,301194,NA,Flanker Task,93,46343,109,1024
84,84,424,424,#000000,legacy,legacy,legacy,Congruent,0,undefined,0,h,0,0,0,109,109,109,109,109,109,0,109,0,0,0,109,0,Sun Sep 24 19:13:54 2023,600,The main experiment item,FALSE,Edward Banda Flanker Task.osexp,C:\Users\Edward Banda\Desktop\Avd Quant Methods 5316,FALSE,mono,FALSE,18,no,white,no,yes,768,legacy,29,79,C:/Users/Edward Banda/Desktop/subject-2.csv,legacy,Melodramatic Milgram,4.0.5,0,s,return,return,NA,s,NA,303,8642,111499,NA,303,NA,2,legacy,1024,2,48000,-16,experiment,HHHHH,1,odd,10831,254695,NA,294737,302704,301669,303109,302701,302805,2184,256146,2188,143195,NA,302805,NA,Flanker Task,93,46646,110,1024
84,84,423,423,#000000,legacy,legacy,legacy,Congruent,1,undefined,1,s,0,0,0,110,110,110,110,110,110,0,110,0,0,0,110,0,Sun Sep 24 19:13:54 2023,600,The main experiment item,FALSE,Edward Banda Flanker Task.osexp,C:\Users\Edward Banda\Desktop\Avd Quant Methods 5316,FALSE,mono,FALSE,18,no,white,no,yes,768,legacy,30,79,C:/Users/Edward Banda/Desktop/subject-2.csv,legacy,Melodramatic Milgram,4.0.5,0,s,return,return,NA,s,NA,368,8642,111499,NA,368,NA,2,legacy,1024,2,48000,-16,experiment,SSSSS,1,odd,10831,254695,NA,303121,304651,303622,305122,304649,304752,2184,256146,2188,143195,NA,304752,NA,Flanker Task,94,47014,111,1024
83,83,422,422,#000000,legacy,legacy,legacy,Incongruent,0,undefined,0,h,0,0,0,111,111,111,111,111,111,0,111,0,0,0,111,0,Sun Sep 24 19:13:54 2023,600,The main experiment item,FALSE,Edward Banda Flanker Task.osexp,C:\Users\Edward Banda\Desktop\Avd Quant Methods 5316,FALSE,mono,FALSE,18,no,white,no,yes,768,legacy,31,79,C:/Users/Edward Banda/Desktop/subject-2.csv,legacy,Melodramatic Milgram,4.0.5,0,s,return,return,NA,s,NA,353,8642,111499,NA,353,NA,2,legacy,1024,2,48000,-16,experiment,SSHSS,1,odd,10831,254695,NA,303121,306169,305133,306624,306167,306270,2184,256146,2188,143195,NA,306270,NA,Flanker Task,94,47367,112,1024
84,84,423,423,#000000,legacy,legacy,legacy,Congruent,1,undefined,1,s,0,0,0,112,112,112,112,112,112,0,112,0,0,0,112,0,Sun Sep 24 19:13:54 2023,600,The main experiment item,FALSE,Edward Banda Flanker Task.osexp,C:\Users\Edward Banda\Desktop\Avd Quant Methods 5316,FALSE,mono,FALSE,18,no,white,no,yes,768,legacy,32,79,C:/Users/Edward Banda/Desktop/subject-2.csv,legacy,Melodramatic Milgram,4.0.5,0,s,return,return,NA,s,NA,437,8642,111499,NA,437,NA,2,legacy,1024,2,48000,-16,experiment,SSSSS,1,odd,10831,254695,NA,306636,308173,307137,308712,308172,308274,2184,256146,2188,143195,NA,308274,NA,Flanker Task,95,47804,113,1024
84,84,423,423,#000000,legacy,legacy,legacy,Congruent,1,undefined,1,s,0,0,0,113,113,113,113,113,113,0,113,0,0,0,113,0,Sun Sep 24 19:13:54 2023,600,The main experiment item,FALSE,Edward Banda Flanker Task.osexp,C:\Users\Edward Banda\Desktop\Avd Quant Methods 5316,FALSE,mono,FALSE,18,no,white,no,yes,768,legacy,33,79,C:/Users/Edward Banda/Desktop/subject-2.csv,legacy,Melodramatic Milgram,4.0.5,0,s,return,return,NA,s,NA,446,8642,111499,NA,446,NA,2,legacy,1024,2,48000,-16,experiment,SSSSS,1,odd,10831,254695,NA,306636,309761,308724,310309,309759,309862,2184,256146,2188,143195,NA,309862,NA,Flanker Task,96,48250,114,1024
84,84,423,423,#000000,legacy,legacy,legacy,Congruent,1,undefined,1,h,0,0,0,114,114,114,114,114,114,0,114,0,0,0,114,0,Sun Sep 24 19:13:54 2023,600,The main experiment item,FALSE,Edward Banda Flanker Task.osexp,C:\Users\Edward Banda\Desktop\Avd Quant Methods 5316,FALSE,mono,FALSE,18,no,white,no,yes,768,legacy,34,79,C:/Users/Edward Banda/Desktop/subject-2.csv,legacy,Melodramatic Milgram,4.0.5,0,h,return,return,NA,h,NA,434,8642,111499,NA,434,NA,2,legacy,1024,2,48000,-16,experiment,HHHHH,1,odd,10831,254695,NA,306636,311366,310322,311903,311365,311468,2184,256146,2188,143195,NA,311468,NA,Flanker Task,97,48684,115,1024
84,84,422,422,#000000,legacy,legacy,legacy,Congruent,1,undefined,1,s,0,0,0,115,115,115,115,115,115,0,115,0,0,0,115,0,Sun Sep 24 19:13:54 2023,600,The main experiment item,FALSE,Edward Banda Flanker Task.osexp,C:\Users\Edward Banda\Desktop\Avd Quant Methods 5316,FALSE,mono,FALSE,18,no,white,no,yes,768,legacy,35,79,C:/Users/Edward Banda/Desktop/subject-2.csv,legacy,Melodramatic Milgram,4.0.5,0,s,return,return,NA,s,NA,365,8642,111499,NA,365,NA,2,legacy,1024,2,48000,-16,experiment,SSSSS,1,odd,10831,254695,NA,306636,312949,311915,313416,312947,313050,2184,256146,2188,143195,NA,313050,NA,Flanker Task,98,49049,116,1024
84,84,422,422,#000000,legacy,legacy,legacy,Congruent,1,undefined,1,h,0,0,0,116,116,116,116,116,116,0,116,0,0,0,116,0,Sun Sep 24 19:13:54 2023,600,The main experiment item,FALSE,Edward Banda Flanker Task.osexp,C:\Users\Edward Banda\Desktop\Avd Quant Methods 5316,FALSE,mono,FALSE,18,no,white,no,yes,768,legacy,36,79,C:/Users/Edward Banda/Desktop/subject-2.csv,legacy,Melodramatic Milgram,4.0.5,0,h,return,return,NA,h,NA,373,8642,111499,NA,373,NA,2,legacy,1024,2,48000,-16,experiment,HHHHH,1,odd,10831,254695,NA,306636,314454,313428,314929,314452,314555,2184,256146,2188,143195,NA,314555,NA,Flanker Task,99,49422,117,1024
84,84,421,421,#000000,legacy,legacy,legacy,Congruent,1,undefined,1,s,0,0,0,117,117,117,117,117,117,0,117,0,0,0,117,0,Sun Sep 24 19:13:54 2023,600,The main experiment item,FALSE,Edward Banda Flanker Task.osexp,C:\Users\Edward Banda\Desktop\Avd Quant Methods 5316,FALSE,mono,FALSE,18,no,white,no,yes,768,legacy,37,79,C:/Users/Edward Banda/Desktop/subject-2.csv,legacy,Melodramatic Milgram,4.0.5,0,s,return,return,NA,s,NA,350,8642,111499,NA,350,NA,2,legacy,1024,2,48000,-16,experiment,SSSSS,1,odd,10831,254695,NA,306636,315975,314942,316427,315973,316076,2184,256146,2188,143195,NA,316076,NA,Flanker Task,100,49772,118,1024
84,84,421,421,#000000,legacy,legacy,legacy,Incongruent,0,undefined,0,s,0,0,0,118,118,118,118,118,118,0,118,0,0,0,118,0,Sun Sep 24 19:13:54 2023,600,The main experiment item,FALSE,Edward Banda Flanker Task.osexp,C:\Users\Edward Banda\Desktop\Avd Quant Methods 5316,FALSE,mono,FALSE,18,no,white,no,yes,768,legacy,38,79,C:/Users/Edward Banda/Desktop/subject-2.csv,legacy,Melodramatic Milgram,4.0.5,0,h,return,return,NA,h,NA,387,8642,111499,NA,387,NA,2,legacy,1024,2,48000,-16,experiment,HHSHH,1,odd,10831,254695,NA,306636,317471,316440,317961,317469,317572,2184,256146,2188,143195,NA,317572,NA,Flanker Task,100,50159,119,1024
84,84,422,422,#000000,legacy,legacy,legacy,Incongruent,1,undefined,1,s,0,0,0,119,119,119,119,119,119,0,119,0,0,0,119,0,Sun Sep 24 19:13:54 2023,600,The main experiment item,FALSE,Edward Banda Flanker Task.osexp,C:\Users\Edward Banda\Desktop\Avd Quant Methods 5316,FALSE,mono,FALSE,18,no,white,no,yes,768,legacy,39,79,C:/Users/Edward Banda/Desktop/subject-2.csv,legacy,Melodramatic Milgram,4.0.5,0,s,return,return,NA,s,NA,483,8642,111499,NA,483,NA,2,legacy,1024,2,48000,-16,experiment,HHSHH,1,odd,10831,254695,NA,317975,319512,318476,320097,319510,319613,2184,256146,2188,143195,NA,319613,NA,Flanker Task,101,50642,120,1024
84,84,421,421,#000000,legacy,legacy,legacy,Congruent,1,undefined,1,s,0,0,0,120,120,120,120,120,120,0,120,0,0,0,120,0,Sun Sep 24 19:13:54 2023,600,The main experiment item,FALSE,Edward Banda Flanker Task.osexp,C:\Users\Edward Banda\Desktop\Avd Quant Methods 5316,FALSE,mono,FALSE,18,no,white,no,yes,768,legacy,40,79,C:/Users/Edward Banda/Desktop/subject-2.csv,legacy,Melodramatic Milgram,4.0.5,0,s,return,return,NA,s,NA,360,8642,111499,NA,360,NA,2,legacy,1024,2,48000,-16,experiment,SSSSS,1,odd,10831,254695,NA,317975,321143,320109,321606,321141,321244,2184,256146,2188,143195,NA,321244,NA,Flanker Task,102,51002,121,1024
84,84,421,421,#000000,legacy,legacy,legacy,Incongruent,1,undefined,1,s,0,0,0,121,121,121,121,121,121,0,121,0,0,0,121,0,Sun Sep 24 19:13:54 2023,600,The main experiment item,FALSE,Edward Banda Flanker Task.osexp,C:\Users\Edward Banda\Desktop\Avd Quant Methods 5316,FALSE,mono,FALSE,18,no,white,no,yes,768,legacy,41,79,C:/Users/Edward Banda/Desktop/subject-2.csv,legacy,Melodramatic Milgram,4.0.5,0,s,return,return,NA,s,NA,419,8642,111499,NA,419,NA,2,legacy,1024,2,48000,-16,experiment,HHSHH,1,odd,10831,254695,NA,317975,322652,321619,323174,322651,322754,2184,256146,2188,143195,NA,322754,NA,Flanker Task,103,51421,122,1024
84,84,422,422,#000000,legacy,legacy,legacy,Incongruent,1,undefined,1,h,0,0,0,122,122,122,122,122,122,0,122,0,0,0,122,0,Sun Sep 24 19:13:54 2023,600,The main experiment item,FALSE,Edward Banda Flanker Task.osexp,C:\Users\Edward Banda\Desktop\Avd Quant Methods 5316,FALSE,mono,FALSE,18,no,white,no,yes,768,legacy,42,79,C:/Users/Edward Banda/Desktop/subject-2.csv,legacy,Melodramatic Milgram,4.0.5,0,h,return,return,NA,h,NA,522,8642,111499,NA,522,NA,2,legacy,1024,2,48000,-16,experiment,SSHSS,1,odd,10831,254695,NA,317975,324222,323186,324846,324220,324323,2184,256146,2188,143195,NA,324323,NA,Flanker Task,104,51943,123,1024
84,84,421,421,#000000,legacy,legacy,legacy,Congruent,1,undefined,1,s,0,0,0,123,123,123,123,123,123,0,123,0,0,0,123,0,Sun Sep 24 19:13:54 2023,600,The main experiment item,FALSE,Edward Banda Flanker Task.osexp,C:\Users\Edward Banda\Desktop\Avd Quant Methods 5316,FALSE,mono,FALSE,18,no,white,no,yes,768,legacy,43,79,C:/Users/Edward Banda/Desktop/subject-2.csv,legacy,Melodramatic Milgram,4.0.5,0,s,return,return,NA,s,NA,371,8642,111499,NA,371,NA,2,legacy,1024,2,48000,-16,experiment,SSSSS,1,odd,10831,254695,NA,317975,325901,324858,326374,325899,326002,2184,256146,2188,143195,NA,326002,NA,Flanker Task,105,52314,124,1024
84,84,423,423,#000000,legacy,legacy,legacy,Incongruent,1,undefined,1,s,0,0,0,124,124,124,124,124,124,0,124,0,0,0,124,0,Sun Sep 24 19:13:54 2023,600,The main experiment item,FALSE,Edward Banda Flanker Task.osexp,C:\Users\Edward Banda\Desktop\Avd Quant Methods 5316,FALSE,mono,FALSE,18,no,white,no,yes,768,legacy,44,79,C:/Users/Edward Banda/Desktop/subject-2.csv,legacy,Melodramatic Milgram,4.0.5,0,s,return,return,NA,s,NA,647,8642,111499,NA,647,NA,2,legacy,1024,2,48000,-16,experiment,HHSHH,1,odd,10831,254695,NA,317975,327433,326386,328182,327431,327534,2184,256146,2188,143195,NA,327534,NA,Flanker Task,106,52961,125,1024
84,84,423,423,#000000,legacy,legacy,legacy,Incongruent,1,undefined,1,h,0,0,0,125,125,125,125,125,125,0,125,0,0,0,125,0,Sun Sep 24 19:13:54 2023,600,The main experiment item,FALSE,Edward Banda Flanker Task.osexp,C:\Users\Edward Banda\Desktop\Avd Quant Methods 5316,FALSE,mono,FALSE,18,no,white,no,yes,768,legacy,45,79,C:/Users/Edward Banda/Desktop/subject-2.csv,legacy,Melodramatic Milgram,4.0.5,0,h,return,return,NA,h,NA,353,8642,111499,NA,353,NA,2,legacy,1024,2,48000,-16,experiment,SSHSS,1,odd,10831,254695,NA,317975,329730,328695,330186,329728,329831,2184,328194,2188,143195,NA,329831,NA,Flanker Task,107,53314,126,1024
84,84,421,421,#000000,legacy,legacy,legacy,Incongruent,0,undefined,0,h,0,0,0,126,126,126,126,126,126,0,126,0,0,0,126,0,Sun Sep 24 19:13:54 2023,600,The main experiment item,FALSE,Edward Banda Flanker Task.osexp,C:\Users\Edward Banda\Desktop\Avd Quant Methods 5316,FALSE,mono,FALSE,18,no,white,no,yes,768,legacy,46,79,C:/Users/Edward Banda/Desktop/subject-2.csv,legacy,Melodramatic Milgram,4.0.5,0,s,return,return,NA,s,NA,218,8642,111499,NA,218,NA,2,legacy,1024,2,48000,-16,experiment,SSHSS,1,odd,10831,254695,NA,317975,331232,330198,331553,331231,331334,2184,328194,2188,143195,NA,331334,NA,Flanker Task,107,53532,127,1024
83,83,420,420,#000000,legacy,legacy,legacy,Congruent,0,undefined,0,h,0,0,0,127,127,127,127,127,127,0,127,0,0,0,127,0,Sun Sep 24 19:13:54 2023,600,The main experiment item,FALSE,Edward Banda Flanker Task.osexp,C:\Users\Edward Banda\Desktop\Avd Quant Methods 5316,FALSE,mono,FALSE,18,no,white,no,yes,768,legacy,47,79,C:/Users/Edward Banda/Desktop/subject-2.csv,legacy,Melodramatic Milgram,4.0.5,0,s,return,return,NA,s,NA,326,8642,111499,NA,326,NA,2,legacy,1024,2,48000,-16,experiment,HHHHH,1,odd,10831,254695,NA,331565,333103,332066,333531,333101,333204,2184,328194,2188,143195,NA,333204,NA,Flanker Task,107,53858,128,1024
83,83,420,420,#000000,legacy,legacy,legacy,Congruent,1,undefined,1,s,0,0,0,128,128,128,128,128,128,0,128,0,0,0,128,0,Sun Sep 24 19:13:54 2023,600,The main experiment item,FALSE,Edward Banda Flanker Task.osexp,C:\Users\Edward Banda\Desktop\Avd Quant Methods 5316,FALSE,mono,FALSE,18,no,white,no,yes,768,legacy,48,79,C:/Users/Edward Banda/Desktop/subject-2.csv,legacy,Melodramatic Milgram,4.0.5,0,s,return,return,NA,s,NA,377,8642,111499,NA,377,NA,2,legacy,1024,2,48000,-16,experiment,SSSSS,1,odd,10831,254695,NA,333543,335083,334044,335563,335080,335185,2184,328194,2188,143195,NA,335185,NA,Flanker Task,108,54235,129,1024
83,83,420,420,#000000,legacy,legacy,legacy,Congruent,1,undefined,1,h,0,0,0,129,129,129,129,129,129,0,129,0,0,0,129,0,Sun Sep 24 19:13:54 2023,600,The main experiment item,FALSE,Edward Banda Flanker Task.osexp,C:\Users\Edward Banda\Desktop\Avd Quant Methods 5316,FALSE,mono,FALSE,18,no,white,no,yes,768,legacy,49,79,C:/Users/Edward Banda/Desktop/subject-2.csv,legacy,Melodramatic Milgram,4.0.5,0,h,return,return,NA,h,NA,409,8642,111499,NA,409,NA,2,legacy,1024,2,48000,-16,experiment,HHHHH,1,odd,10831,254695,NA,333543,336615,335575,337127,336613,336716,2184,328194,2188,143195,NA,336716,NA,Flanker Task,109,54644,130,1024
83,83,420,420,#000000,legacy,legacy,legacy,Incongruent,1,undefined,1,s,0,0,0,130,130,130,130,130,130,0,130,0,0,0,130,0,Sun Sep 24 19:13:54 2023,600,The main experiment item,FALSE,Edward Banda Flanker Task.osexp,C:\Users\Edward Banda\Desktop\Avd Quant Methods 5316,FALSE,mono,FALSE,18,no,white,no,yes,768,legacy,50,79,C:/Users/Edward Banda/Desktop/subject-2.csv,legacy,Melodramatic Milgram,4.0.5,0,s,return,return,NA,s,NA,420,8642,111499,NA,420,NA,2,legacy,1024,2,48000,-16,experiment,HHSHH,1,odd,10831,254695,NA,333543,338173,337139,338695,338171,338274,2184,328194,2188,143195,NA,338274,NA,Flanker Task,110,55064,131,1024
84,84,420,420,#000000,legacy,legacy,legacy,Congruent,1,undefined,1,h,0,0,0,131,131,131,131,131,131,0,131,0,0,0,131,0,Sun Sep 24 19:13:54 2023,600,The main experiment item,FALSE,Edward Banda Flanker Task.osexp,C:\Users\Edward Banda\Desktop\Avd Quant Methods 5316,FALSE,mono,FALSE,18,no,white,no,yes,768,legacy,51,79,C:/Users/Edward Banda/Desktop/subject-2.csv,legacy,Melodramatic Milgram,4.0.5,0,h,return,return,NA,h,NA,462,8642,111499,NA,462,NA,2,legacy,1024,2,48000,-16,experiment,HHHHH,1,odd,10831,254695,NA,333543,339729,338697,340293,339727,339830,2184,328194,2188,143195,NA,339830,NA,Flanker Task,111,55526,132,1024
84,84,420,420,#000000,legacy,legacy,legacy,Congruent,1,undefined,1,h,0,0,0,132,132,132,132,132,132,0,132,0,0,0,132,0,Sun Sep 24 19:13:54 2023,600,The main experiment item,FALSE,Edward Banda Flanker Task.osexp,C:\Users\Edward Banda\Desktop\Avd Quant Methods 5316,FALSE,mono,FALSE,18,no,white,no,yes,768,legacy,52,79,C:/Users/Edward Banda/Desktop/subject-2.csv,legacy,Melodramatic Milgram,4.0.5,0,h,return,return,NA,h,NA,363,8642,111499,NA,363,NA,2,legacy,1024,2,48000,-16,experiment,HHHHH,1,odd,10831,254695,NA,333543,341351,340305,341816,341349,341452,2184,328194,2188,143195,NA,341452,NA,Flanker Task,112,55889,133,1024
84,84,419,419,#000000,legacy,legacy,legacy,Incongruent,1,undefined,1,h,0,0,0,133,133,133,133,133,133,0,133,0,0,0,133,0,Sun Sep 24 19:13:54 2023,600,The main experiment item,FALSE,Edward Banda Flanker Task.osexp,C:\Users\Edward Banda\Desktop\Avd Quant Methods 5316,FALSE,mono,FALSE,18,no,white,no,yes,768,legacy,53,79,C:/Users/Edward Banda/Desktop/subject-2.csv,legacy,Melodramatic Milgram,4.0.5,0,h,return,return,NA,h,NA,387,8642,111499,NA,387,NA,2,legacy,1024,2,48000,-16,experiment,SSHSS,1,odd,10831,254695,NA,333543,342860,341827,343349,342858,342961,2184,328194,2188,143195,NA,342961,NA,Flanker Task,113,56276,134,1024
84,84,419,419,#000000,legacy,legacy,legacy,Incongruent,1,undefined,1,s,0,0,0,134,134,134,134,134,134,0,134,0,0,0,134,0,Sun Sep 24 19:13:54 2023,600,The main experiment item,FALSE,Edward Banda Flanker Task.osexp,C:\Users\Edward Banda\Desktop\Avd Quant Methods 5316,FALSE,mono,FALSE,18,no,white,no,yes,768,legacy,54,79,C:/Users/Edward Banda/Desktop/subject-2.csv,legacy,Melodramatic Milgram,4.0.5,0,s,return,return,NA,s,NA,363,8642,111499,NA,363,NA,2,legacy,1024,2,48000,-16,experiment,HHSHH,1,odd,10831,254695,NA,333543,344387,343351,344852,344385,344488,2184,328194,2188,143195,NA,344488,NA,Flanker Task,114,56639,135,1024
84,84,419,419,#000000,legacy,legacy,legacy,Incongruent,1,undefined,1,h,0,0,0,135,135,135,135,135,135,0,135,0,0,0,135,0,Sun Sep 24 19:13:54 2023,600,The main experiment item,FALSE,Edward Banda Flanker Task.osexp,C:\Users\Edward Banda\Desktop\Avd Quant Methods 5316,FALSE,mono,FALSE,18,no,white,no,yes,768,legacy,55,79,C:/Users/Edward Banda/Desktop/subject-2.csv,legacy,Melodramatic Milgram,4.0.5,0,h,return,return,NA,h,NA,465,8642,111499,NA,465,NA,2,legacy,1024,2,48000,-16,experiment,SSHSS,1,odd,10831,254695,NA,333543,345903,344864,346470,345902,346004,2184,328194,2188,143195,NA,346004,NA,Flanker Task,115,57104,136,1024
84,84,419,419,#000000,legacy,legacy,legacy,Congruent,1,undefined,1,s,0,0,0,136,136,136,136,136,136,0,136,0,0,0,136,0,Sun Sep 24 19:13:54 2023,600,The main experiment item,FALSE,Edward Banda Flanker Task.osexp,C:\Users\Edward Banda\Desktop\Avd Quant Methods 5316,FALSE,mono,FALSE,18,no,white,no,yes,768,legacy,56,79,C:/Users/Edward Banda/Desktop/subject-2.csv,legacy,Melodramatic Milgram,4.0.5,0,s,return,return,NA,s,NA,387,8642,111499,NA,387,NA,2,legacy,1024,2,48000,-16,experiment,SSSSS,1,odd,10831,254695,NA,333543,347519,346483,348008,347517,347620,2184,328194,2188,143195,NA,347620,NA,Flanker Task,116,57491,137,1024
84,84,419,419,#000000,legacy,legacy,legacy,Incongruent,1,undefined,1,h,0,0,0,137,137,137,137,137,137,0,137,0,0,0,137,0,Sun Sep 24 19:13:54 2023,600,The main experiment item,FALSE,Edward Banda Flanker Task.osexp,C:\Users\Edward Banda\Desktop\Avd Quant Methods 5316,FALSE,mono,FALSE,18,no,white,no,yes,768,legacy,57,79,C:/Users/Edward Banda/Desktop/subject-2.csv,legacy,Melodramatic Milgram,4.0.5,0,h,return,return,NA,h,NA,447,8642,111499,NA,447,NA,2,legacy,1024,2,48000,-16,experiment,SSHSS,1,odd,10831,254695,NA,333543,349057,348021,349606,349056,349158,2184,328194,2188,143195,NA,349158,NA,Flanker Task,117,57938,138,1024
84,84,419,419,#000000,legacy,legacy,legacy,Incongruent,1,undefined,1,s,0,0,0,138,138,138,138,138,138,0,138,0,0,0,138,0,Sun Sep 24 19:13:54 2023,600,The main experiment item,FALSE,Edward Banda Flanker Task.osexp,C:\Users\Edward Banda\Desktop\Avd Quant Methods 5316,FALSE,mono,FALSE,18,no,white,no,yes,768,legacy,58,79,C:/Users/Edward Banda/Desktop/subject-2.csv,legacy,Melodramatic Milgram,4.0.5,0,s,return,return,NA,s,NA,402,8642,111499,NA,402,NA,2,legacy,1024,2,48000,-16,experiment,HHSHH,1,odd,10831,254695,NA,333543,350655,349618,351159,350653,350756,2184,328194,2188,143195,NA,350756,NA,Flanker Task,118,58340,139,1024
85,85,419,419,#000000,legacy,legacy,legacy,Congruent,1,undefined,1,h,0,0,0,139,139,139,139,139,139,0,139,0,0,0,139,0,Sun Sep 24 19:13:54 2023,600,The main experiment item,FALSE,Edward Banda Flanker Task.osexp,C:\Users\Edward Banda\Desktop\Avd Quant Methods 5316,FALSE,mono,FALSE,18,no,white,no,yes,768,legacy,59,79,C:/Users/Edward Banda/Desktop/subject-2.csv,legacy,Melodramatic Milgram,4.0.5,0,h,return,return,NA,h,NA,395,8642,111499,NA,395,NA,2,legacy,1024,2,48000,-16,experiment,HHHHH,1,odd,10831,254695,NA,333543,352206,351172,352703,352203,352307,2184,328194,2188,143195,NA,352307,NA,Flanker Task,119,58735,140,1024
85,85,419,419,#000000,legacy,legacy,legacy,Congruent,1,undefined,1,h,0,0,0,140,140,140,140,140,140,0,140,0,0,0,140,0,Sun Sep 24 19:13:54 2023,600,The main experiment item,FALSE,Edward Banda Flanker Task.osexp,C:\Users\Edward Banda\Desktop\Avd Quant Methods 5316,FALSE,mono,FALSE,18,no,white,no,yes,768,legacy,60,79,C:/Users/Edward Banda/Desktop/subject-2.csv,legacy,Melodramatic Milgram,4.0.5,0,h,return,return,NA,h,NA,447,8642,111499,NA,447,NA,2,legacy,1024,2,48000,-16,experiment,HHHHH,1,odd,10831,254695,NA,333543,353757,352716,354306,353755,353858,2184,328194,2188,143195,NA,353858,NA,Flanker Task,120,59182,141,1024
85,85,419,419,#000000,legacy,legacy,legacy,Congruent,1,undefined,1,h,0,0,0,141,141,141,141,141,141,0,141,0,0,0,141,0,Sun Sep 24 19:13:54 2023,600,The main experiment item,FALSE,Edward Banda Flanker Task.osexp,C:\Users\Edward Banda\Desktop\Avd Quant Methods 5316,FALSE,mono,FALSE,18,no,white,no,yes,768,legacy,61,79,C:/Users/Edward Banda/Desktop/subject-2.csv,legacy,Melodramatic Milgram,4.0.5,0,h,return,return,NA,h,NA,408,8642,111499,NA,408,NA,2,legacy,1024,2,48000,-16,experiment,HHHHH,1,odd,10831,254695,NA,333543,355365,354318,355875,355363,355466,2184,328194,2188,143195,NA,355466,NA,Flanker Task,121,59590,142,1024
85,85,419,419,#000000,legacy,legacy,legacy,Congruent,1,undefined,1,h,0,0,0,142,142,142,142,142,142,0,142,0,0,0,142,0,Sun Sep 24 19:13:54 2023,600,The main experiment item,FALSE,Edward Banda Flanker Task.osexp,C:\Users\Edward Banda\Desktop\Avd Quant Methods 5316,FALSE,mono,FALSE,18,no,white,no,yes,768,legacy,62,79,C:/Users/Edward Banda/Desktop/subject-2.csv,legacy,Melodramatic Milgram,4.0.5,0,h,return,return,NA,h,NA,461,8642,111499,NA,461,NA,2,legacy,1024,2,48000,-16,experiment,HHHHH,1,odd,10831,254695,NA,333543,356922,355887,357487,356920,357025,2184,328194,2188,143195,NA,357025,NA,Flanker Task,122,60051,143,1024
84,84,419,419,#000000,legacy,legacy,legacy,Incongruent,0,undefined,0,h,0,0,0,143,143,143,143,143,143,0,143,0,0,0,143,0,Sun Sep 24 19:13:54 2023,600,The main experiment item,FALSE,Edward Banda Flanker Task.osexp,C:\Users\Edward Banda\Desktop\Avd Quant Methods 5316,FALSE,mono,FALSE,18,no,white,no,yes,768,legacy,63,79,C:/Users/Edward Banda/Desktop/subject-2.csv,legacy,Melodramatic Milgram,4.0.5,0,s,return,return,NA,s,NA,378,8642,111499,NA,378,NA,2,legacy,1024,2,48000,-16,experiment,SSHSS,1,odd,10831,254695,NA,333543,358535,357500,359016,358533,358636,2184,328194,2188,143195,NA,358636,NA,Flanker Task,122,60429,144,1024
84,84,420,420,#000000,legacy,legacy,legacy,Incongruent,1,undefined,1,s,0,0,0,144,144,144,144,144,144,0,144,0,0,0,144,0,Sun Sep 24 19:13:54 2023,600,The main experiment item,FALSE,Edward Banda Flanker Task.osexp,C:\Users\Edward Banda\Desktop\Avd Quant Methods 5316,FALSE,mono,FALSE,18,no,white,no,yes,768,legacy,64,79,C:/Users/Edward Banda/Desktop/subject-2.csv,legacy,Melodramatic Milgram,4.0.5,0,s,return,return,NA,s,NA,528,8642,111499,NA,528,NA,2,legacy,1024,2,48000,-16,experiment,HHSHH,1,odd,10831,254695,NA,359029,360557,359530,361188,360555,360658,2184,328194,2188,143195,NA,360658,NA,Flanker Task,123,60957,145,1024
84,84,420,420,#000000,legacy,legacy,legacy,Congruent,1,undefined,1,h,0,0,0,145,145,145,145,145,145,0,145,0,0,0,145,0,Sun Sep 24 19:13:54 2023,600,The main experiment item,FALSE,Edward Banda Flanker Task.osexp,C:\Users\Edward Banda\Desktop\Avd Quant Methods 5316,FALSE,mono,FALSE,18,no,white,no,yes,768,legacy,65,79,C:/Users/Edward Banda/Desktop/subject-2.csv,legacy,Melodramatic Milgram,4.0.5,0,h,return,return,NA,h,NA,388,8642,111499,NA,388,NA,2,legacy,1024,2,48000,-16,experiment,HHHHH,1,odd,10831,254695,NA,359029,362241,361200,362731,362240,362342,2184,328194,2188,143195,NA,362342,NA,Flanker Task,124,61345,146,1024
85,85,420,420,#000000,legacy,legacy,legacy,Congruent,1,undefined,1,h,0,0,0,146,146,146,146,146,146,0,146,0,0,0,146,0,Sun Sep 24 19:13:54 2023,600,The main experiment item,FALSE,Edward Banda Flanker Task.osexp,C:\Users\Edward Banda\Desktop\Avd Quant Methods 5316,FALSE,mono,FALSE,18,no,white,no,yes,768,legacy,66,79,C:/Users/Edward Banda/Desktop/subject-2.csv,legacy,Melodramatic Milgram,4.0.5,0,h,return,return,NA,h,NA,401,8642,111499,NA,401,NA,2,legacy,1024,2,48000,-16,experiment,HHHHH,1,odd,10831,254695,NA,359029,363781,362743,364284,363779,363882,2184,328194,2188,143195,NA,363882,NA,Flanker Task,125,61746,147,1024
85,85,419,419,#000000,legacy,legacy,legacy,Incongruent,1,undefined,1,s,0,0,0,147,147,147,147,147,147,0,147,0,0,0,147,0,Sun Sep 24 19:13:54 2023,600,The main experiment item,FALSE,Edward Banda Flanker Task.osexp,C:\Users\Edward Banda\Desktop\Avd Quant Methods 5316,FALSE,mono,FALSE,18,no,white,no,yes,768,legacy,67,79,C:/Users/Edward Banda/Desktop/subject-2.csv,legacy,Melodramatic Milgram,4.0.5,0,s,return,return,NA,s,NA,353,8642,111499,NA,353,NA,2,legacy,1024,2,48000,-16,experiment,HHSHH,1,odd,10831,254695,NA,359029,365336,364296,365792,365333,365437,2184,328194,2188,143195,NA,365438,NA,Flanker Task,126,62099,148,1024
85,85,419,419,#000000,legacy,legacy,legacy,Congruent,1,undefined,1,h,0,0,0,148,148,148,148,148,148,0,148,0,0,0,148,0,Sun Sep 24 19:13:54 2023,600,The main experiment item,FALSE,Edward Banda Flanker Task.osexp,C:\Users\Edward Banda\Desktop\Avd Quant Methods 5316,FALSE,mono,FALSE,18,no,white,no,yes,768,legacy,68,79,C:/Users/Edward Banda/Desktop/subject-2.csv,legacy,Melodramatic Milgram,4.0.5,0,h,return,return,NA,h,NA,364,8642,111499,NA,364,NA,2,legacy,1024,2,48000,-16,experiment,HHHHH,1,odd,10831,254695,NA,359029,366844,365805,367310,366842,366945,2184,328194,2188,143195,NA,366945,NA,Flanker Task,127,62463,149,1024
85,85,419,419,#000000,legacy,legacy,legacy,Incongruent,1,undefined,1,s,0,0,0,149,149,149,149,149,149,0,149,0,0,0,149,0,Sun Sep 24 19:13:54 2023,600,The main experiment item,FALSE,Edward Banda Flanker Task.osexp,C:\Users\Edward Banda\Desktop\Avd Quant Methods 5316,FALSE,mono,FALSE,18,no,white,no,yes,768,legacy,69,79,C:/Users/Edward Banda/Desktop/subject-2.csv,legacy,Melodramatic Milgram,4.0.5,0,s,return,return,NA,s,NA,511,8642,111499,NA,511,NA,2,legacy,1024,2,48000,-16,experiment,HHSHH,1,odd,10831,254695,NA,359029,368354,367322,368968,368352,368455,2184,328194,2188,143195,NA,368456,NA,Flanker Task,128,62974,150,1024
85,85,419,419,#000000,legacy,legacy,legacy,Incongruent,1,undefined,1,h,0,0,0,150,150,150,150,150,150,0,150,0,0,0,150,0,Sun Sep 24 19:13:54 2023,600,The main experiment item,FALSE,Edward Banda Flanker Task.osexp,C:\Users\Edward Banda\Desktop\Avd Quant Methods 5316,FALSE,mono,FALSE,18,no,white,no,yes,768,legacy,70,79,C:/Users/Edward Banda/Desktop/subject-2.csv,legacy,Melodramatic Milgram,4.0.5,0,h,return,return,NA,h,NA,399,8642,111499,NA,399,NA,2,legacy,1024,2,48000,-16,experiment,SSHSS,1,odd,10831,254695,NA,359029,370025,368980,370527,370022,370126,2184,328194,2188,143195,NA,370126,NA,Flanker Task,129,63373,151,1024
84,84,419,419,#000000,legacy,legacy,legacy,Incongruent,0,undefined,0,h,0,0,0,151,151,151,151,151,151,0,151,0,0,0,151,0,Sun Sep 24 19:13:54 2023,600,The main experiment item,FALSE,Edward Banda Flanker Task.osexp,C:\Users\Edward Banda\Desktop\Avd Quant Methods 5316,FALSE,mono,FALSE,18,no,white,no,yes,768,legacy,71,79,C:/Users/Edward Banda/Desktop/subject-2.csv,legacy,Melodramatic Milgram,4.0.5,0,s,return,return,NA,s,NA,403,8642,111499,NA,403,NA,2,legacy,1024,2,48000,-16,experiment,SSHSS,1,odd,10831,254695,NA,359029,371574,370539,372080,371572,371675,2184,328194,2188,143195,NA,371676,NA,Flanker Task,129,63776,152,1024
84,84,420,420,#000000,legacy,legacy,legacy,Incongruent,1,undefined,1,h,0,0,0,152,152,152,152,152,152,0,152,0,0,0,152,0,Sun Sep 24 19:13:54 2023,600,The main experiment item,FALSE,Edward Banda Flanker Task.osexp,C:\Users\Edward Banda\Desktop\Avd Quant Methods 5316,FALSE,mono,FALSE,18,no,white,no,yes,768,legacy,72,79,C:/Users/Edward Banda/Desktop/subject-2.csv,legacy,Melodramatic Milgram,4.0.5,0,h,return,return,NA,h,NA,539,8642,111499,NA,539,NA,2,legacy,1024,2,48000,-16,experiment,SSHSS,1,odd,10831,254695,NA,372092,373620,372593,374262,373618,373722,2184,328194,2188,143195,NA,373722,NA,Flanker Task,130,64315,153,1024
85,85,420,420,#000000,legacy,legacy,legacy,Incongruent,1,undefined,1,s,0,0,0,153,153,153,153,153,153,0,153,0,0,0,153,0,Sun Sep 24 19:13:54 2023,600,The main experiment item,FALSE,Edward Banda Flanker Task.osexp,C:\Users\Edward Banda\Desktop\Avd Quant Methods 5316,FALSE,mono,FALSE,18,no,white,no,yes,768,legacy,73,79,C:/Users/Edward Banda/Desktop/subject-2.csv,legacy,Melodramatic Milgram,4.0.5,0,s,return,return,NA,s,NA,390,8642,111499,NA,390,NA,2,legacy,1024,2,48000,-16,experiment,HHSHH,1,odd,10831,254695,NA,372092,375308,374274,375801,375306,375409,2184,328194,2188,143195,NA,375409,NA,Flanker Task,131,64705,154,1024
85,85,420,420,#000000,legacy,legacy,legacy,Congruent,1,undefined,1,s,0,0,0,154,154,154,154,154,154,0,154,0,0,0,154,0,Sun Sep 24 19:13:54 2023,600,The main experiment item,FALSE,Edward Banda Flanker Task.osexp,C:\Users\Edward Banda\Desktop\Avd Quant Methods 5316,FALSE,mono,FALSE,18,no,white,no,yes,768,legacy,74,79,C:/Users/Edward Banda/Desktop/subject-2.csv,legacy,Melodramatic Milgram,4.0.5,0,s,return,return,NA,s,NA,426,8642,111499,NA,426,NA,2,legacy,1024,2,48000,-16,experiment,SSSSS,1,odd,10831,254695,NA,372092,376844,375813,377373,376843,376946,2184,328194,2188,143195,NA,376946,NA,Flanker Task,132,65131,155,1024
85,85,419,419,#000000,legacy,legacy,legacy,Congruent,1,undefined,1,s,0,0,0,155,155,155,155,155,155,0,155,0,0,0,155,0,Sun Sep 24 19:13:54 2023,600,The main experiment item,FALSE,Edward Banda Flanker Task.osexp,C:\Users\Edward Banda\Desktop\Avd Quant Methods 5316,FALSE,mono,FALSE,18,no,white,no,yes,768,legacy,75,79,C:/Users/Edward Banda/Desktop/subject-2.csv,legacy,Melodramatic Milgram,4.0.5,0,s,return,return,NA,s,NA,366,8642,111499,NA,366,NA,2,legacy,1024,2,48000,-16,experiment,SSSSS,1,odd,10831,254695,NA,372092,378427,377386,378896,378426,378529,2184,328194,2188,143195,NA,378529,NA,Flanker Task,133,65497,156,1024
85,85,419,419,#000000,legacy,legacy,legacy,Congruent,1,undefined,1,s,0,0,0,156,156,156,156,156,156,0,156,0,0,0,156,0,Sun Sep 24 19:13:54 2023,600,The main experiment item,FALSE,Edward Banda Flanker Task.osexp,C:\Users\Edward Banda\Desktop\Avd Quant Methods 5316,FALSE,mono,FALSE,18,no,white,no,yes,768,legacy,76,79,C:/Users/Edward Banda/Desktop/subject-2.csv,legacy,Melodramatic Milgram,4.0.5,0,s,return,return,NA,s,NA,343,8642,111499,NA,343,NA,2,legacy,1024,2,48000,-16,experiment,SSSSS,1,odd,10831,254695,NA,372092,379944,378908,380390,379942,380045,2184,328194,2188,143195,NA,380045,NA,Flanker Task,134,65840,157,1024
84,84,419,419,#000000,legacy,legacy,legacy,Incongruent,0,undefined,0,h,0,0,0,157,157,157,157,157,157,0,157,0,0,0,157,0,Sun Sep 24 19:13:54 2023,600,The main experiment item,FALSE,Edward Banda Flanker Task.osexp,C:\Users\Edward Banda\Desktop\Avd Quant Methods 5316,FALSE,mono,FALSE,18,no,white,no,yes,768,legacy,77,79,C:/Users/Edward Banda/Desktop/subject-2.csv,legacy,Melodramatic Milgram,4.0.5,0,s,return,return,NA,s,NA,366,8642,111499,NA,366,NA,2,legacy,1024,2,48000,-16,experiment,SSHSS,1,odd,10831,254695,NA,372092,381437,380401,381907,381436,381539,2184,328194,2188,143195,NA,381540,NA,Flanker Task,134,66206,158,1024
84,84,418,418,#000000,legacy,legacy,legacy,Congruent,1,undefined,1,s,0,0,0,158,158,158,158,158,158,0,158,0,0,0,158,0,Sun Sep 24 19:13:54 2023,600,The main experiment item,FALSE,Edward Banda Flanker Task.osexp,C:\Users\Edward Banda\Desktop\Avd Quant Methods 5316,FALSE,mono,FALSE,18,no,white,no,yes,768,legacy,78,79,C:/Users/Edward Banda/Desktop/subject-2.csv,legacy,Melodramatic Milgram,4.0.5,0,s,return,return,NA,s,NA,355,8642,111499,NA,355,NA,2,legacy,1024,2,48000,-16,experiment,SSSSS,1,odd,10831,254695,NA,381919,383452,382420,383909,383450,383553,2184,328194,2188,143195,NA,383553,NA,Flanker Task,135,66561,159,1024
85,85,418,418,#000000,legacy,legacy,legacy,Incongruent,1,undefined,1,h,0,0,0,159,159,159,159,159,159,0,159,0,0,0,159,0,Sun Sep 24 19:13:54 2023,600,The main experiment item,FALSE,Edward Banda Flanker Task.osexp,C:\Users\Edward Banda\Desktop\Avd Quant Methods 5316,FALSE,mono,FALSE,18,no,white,no,yes,768,legacy,79,79,C:/Users/Edward Banda/Desktop/subject-2.csv,legacy,Melodramatic Milgram,4.0.5,0,h,return,return,NA,h,NA,387,8642,111499,NA,387,NA,2,legacy,1024,2,48000,-16,experiment,SSHSS,1,odd,10831,254695,NA,381919,384978,383922,385467,384976,385079,2184,328194,2188,143195,NA,385079,NA,Flanker Task,136,66948,160,1024
85,85,418,418,#000000,legacy,legacy,legacy,Congruent,1,undefined,1,h,0,0,0,160,160,160,160,160,160,0,160,0,0,0,160,0,Sun Sep 24 19:13:54 2023,300,The main experiment item,FALSE,Edward Banda Flanker Task.osexp,C:\Users\Edward Banda\Desktop\Avd Quant Methods 5316,FALSE,mono,FALSE,18,no,white,no,yes,768,legacy,0,79,C:/Users/Edward Banda/Desktop/subject-2.csv,legacy,Melodramatic Milgram,4.0.5,0,h,return,return,h,h,NA,412,8642,111499,4521,412,NA,2,legacy,1024,2,48000,-16,experiment,HHHHH,1,odd,10831,254695,391004,381919,391034,385480,391548,391033,391135,2184,328194,2188,143195,386482,391135,NA,Flanker Task,137,67360,161,1024
84,84,417,417,#000000,legacy,legacy,legacy,Congruent,0,undefined,0,h,0,0,0,161,161,161,161,161,161,0,161,0,0,0,161,0,Sun Sep 24 19:13:54 2023,300,The main experiment item,FALSE,Edward Banda Flanker Task.osexp,C:\Users\Edward Banda\Desktop\Avd Quant Methods 5316,FALSE,mono,FALSE,18,no,white,no,yes,768,legacy,1,79,C:/Users/Edward Banda/Desktop/subject-2.csv,legacy,Melodramatic Milgram,4.0.5,0,s,return,return,h,s,NA,266,8642,111499,4521,266,NA,2,legacy,1024,2,48000,-16,experiment,HHHHH,1,odd,10831,254695,391004,381919,393093,392062,393461,393090,393194,2184,391561,2188,143195,386482,393194,NA,Flanker Task,137,67626,162,1024
84,84,416,416,#000000,legacy,legacy,legacy,Incongruent,0,undefined,0,h,0,0,0,162,162,162,162,162,162,0,162,0,0,0,162,0,Sun Sep 24 19:13:54 2023,300,The main experiment item,FALSE,Edward Banda Flanker Task.osexp,C:\Users\Edward Banda\Desktop\Avd Quant Methods 5316,FALSE,mono,FALSE,18,no,white,no,yes,768,legacy,2,79,C:/Users/Edward Banda/Desktop/subject-2.csv,legacy,Melodramatic Milgram,4.0.5,0,s,return,return,h,s,NA,296,8642,111499,4521,296,NA,2,legacy,1024,2,48000,-16,experiment,SSHSS,1,odd,10831,254695,391004,393473,395006,393974,395404,395004,395107,2184,391561,2188,143195,386482,395107,NA,Flanker Task,137,67922,163,1024
