acc,accuracy,average_response_time,avg_rt,background,canvas_backend,clock_backend,color_backend,compensation,condition,coordinates,correct,correct_Instructions1,correct_keyboard_response,correct_response,count_Block1,count_Block2,count_Block3,count_Finish,count_ISI,count_Instructions1,count_Instructions2,count_Instructions3,count_errorFeedback,count_experiment,count_faster,count_fixation,count_keyboard_response,count_logger,count_sequence,count_stimulus,datetime,deadline,description,disable_garbage_collection,experiment_file,experiment_path,font_bold,font_family,font_italic,font_size,font_underline,foreground,form_clicks,fullscreen,height,keyboard_backend,live_row,live_row_Block1,logfile,mouse_backend,opensesame_codename,opensesame_version,repeat_cycle,response,response_Finish,response_Instructions1,response_Instructions2,response_Instructions3,response_keyboard_response,response_time,response_time_Finish,response_time_Instructions1,response_time_Instructions2,response_time_Instructions3,response_time_keyboard_response,round_decimals,sampler_backend,sound_buf_size,sound_channels,sound_freq,sound_sample_size,start,stimulus,subject_nr,subject_parity,time_Block1,time_Block2,time_Block3,time_Finish,time_ISI,time_Instructions1,time_Instructions2,time_Instructions3,time_errorFeedback,time_experiment,time_faster,time_fixation,time_keyboard_response,time_logger,time_sequence,time_stimulus,title,total_correct,total_response_time,total_responses,uniform_coordinates,width
100,100,2940024,2940024,black,legacy,legacy,legacy,0,congruent,uniform,1,undefined,1,h,0,0,0,0,0,0,0,0,0,0,0,0,0,0,0,0,Wed Sep 25 20:35:40 2019,1500,The main experiment item,yes,fp-subject-1.osexp,/Users/freyaportales/Desktop/OpenSesame Assignments,no,mono,no,18,no,white,no,no,768,legacy,0,0,/Users/freyaportales/Desktop/OpenSesame Assignments/quickrun.csv,legacy,Kafkaesque Koffka,3.2.8,0,h,NA,caps lock,NA,NA,h,2940024,NA,2388691,NA,NA,2940024,2,legacy,1024,2,48000,-16,experiment,HHHHH,999,odd,2391377,NA,NA,NA,NA,2666,NA,NA,NA,2603,NA,2391750,2391898,5331933,2391595,2391898,Flanker task,1,2940024,1,yes,1024
100,100,1470359.5,1470359.5,black,legacy,legacy,legacy,0,incongruent,uniform,1,undefined,1,h,0,0,0,0,1,0,0,0,1,0,1,1,1,1,1,1,Wed Sep 25 20:35:40 2019,1500,The main experiment item,yes,fp-subject-1.osexp,/Users/freyaportales/Desktop/OpenSesame Assignments,no,mono,no,18,no,white,no,no,768,legacy,1,1,/Users/freyaportales/Desktop/OpenSesame Assignments/quickrun.csv,legacy,Kafkaesque Koffka,3.2.8,0,h,NA,caps lock,NA,NA,h,695,NA,2388691,NA,NA,695,2,legacy,1024,2,48000,-16,experiment,SSHSS,999,odd,2391377,NA,NA,NA,5332504,2666,NA,NA,NA,2603,5331972,5333649,5333782,5334478,5333617,5333782,Flanker task,2,2940719,2,yes,1024
100,100,980513.3333,980513.3333,black,legacy,legacy,legacy,0,congruent,uniform,1,undefined,1,h,0,0,0,0,2,0,0,0,2,0,2,2,2,2,2,2,Wed Sep 25 20:35:40 2019,1500,The main experiment item,yes,fp-subject-1.osexp,/Users/freyaportales/Desktop/OpenSesame Assignments,no,mono,no,18,no,white,no,no,768,legacy,2,2,/Users/freyaportales/Desktop/OpenSesame Assignments/quickrun.csv,legacy,Kafkaesque Koffka,3.2.8,0,h,NA,caps lock,NA,NA,h,821,NA,2388691,NA,NA,821,2,legacy,1024,2,48000,-16,experiment,HHHHH,999,odd,2391377,NA,NA,NA,5334517,2666,NA,NA,NA,2603,5331972,5335654,5335787,5336609,5335621,5335786,Flanker task,3,2941540,3,yes,1024
100,100,735529,735529,black,legacy,legacy,legacy,0,congruent,uniform,1,undefined,1,h,0,0,0,0,3,0,0,0,3,0,3,3,3,3,3,3,Wed Sep 25 20:35:40 2019,1500,The main experiment item,yes,fp-subject-1.osexp,/Users/freyaportales/Desktop/OpenSesame Assignments,no,mono,no,18,no,white,no,no,768,legacy,3,3,/Users/freyaportales/Desktop/OpenSesame Assignments/quickrun.csv,legacy,Kafkaesque Koffka,3.2.8,0,h,NA,caps lock,NA,NA,h,576,NA,2388691,NA,NA,576,2,legacy,1024,2,48000,-16,experiment,HHHHH,999,odd,2391377,NA,NA,NA,5336647,2666,NA,NA,NA,2603,5331972,5337773,5337907,5338484,5337740,5337906,Flanker task,4,2942116,4,yes,1024
100,100,588540.8,588540.8,black,legacy,legacy,legacy,0,congruent,uniform,1,undefined,1,h,0,0,0,0,4,0,0,0,4,0,4,4,4,4,4,4,Wed Sep 25 20:35:40 2019,1500,The main experiment item,yes,fp-subject-1.osexp,/Users/freyaportales/Desktop/OpenSesame Assignments,no,mono,no,18,no,white,no,no,768,legacy,4,4,/Users/freyaportales/Desktop/OpenSesame Assignments/quickrun.csv,legacy,Kafkaesque Koffka,3.2.8,0,h,NA,caps lock,NA,NA,h,588,NA,2388691,NA,NA,588,2,legacy,1024,2,48000,-16,experiment,HHHHH,999,odd,2391377,NA,NA,NA,5338520,2666,NA,NA,NA,2603,5331972,5339640,5339773,5340362,5339606,5339773,Flanker task,5,2942704,5,yes,1024
100,100,490585.5,490585.5,black,legacy,legacy,legacy,0,incongruent,uniform,1,undefined,1,s,0,0,0,0,5,0,0,0,5,0,5,5,5,5,5,5,Wed Sep 25 20:35:40 2019,1500,The main experiment item,yes,fp-subject-1.osexp,/Users/freyaportales/Desktop/OpenSesame Assignments,no,mono,no,18,no,white,no,no,768,legacy,5,5,/Users/freyaportales/Desktop/OpenSesame Assignments/quickrun.csv,legacy,Kafkaesque Koffka,3.2.8,0,s,NA,caps lock,NA,NA,s,809,NA,2388691,NA,NA,809,2,legacy,1024,2,48000,-16,experiment,HHSHH,999,odd,2391377,NA,NA,NA,5340397,2666,NA,NA,NA,2603,5331972,5341517,5341649,5342459,5341484,5341649,Flanker task,6,2943513,6,yes,1024
100,100,420594,420594,black,legacy,legacy,legacy,0,incongruent,uniform,1,undefined,1,h,0,0,0,0,6,0,0,0,6,0,6,6,6,6,6,6,Wed Sep 25 20:35:40 2019,1500,The main experiment item,yes,fp-subject-1.osexp,/Users/freyaportales/Desktop/OpenSesame Assignments,no,mono,no,18,no,white,no,no,768,legacy,6,6,/Users/freyaportales/Desktop/OpenSesame Assignments/quickrun.csv,legacy,Kafkaesque Koffka,3.2.8,0,h,NA,caps lock,NA,NA,h,645,NA,2388691,NA,NA,645,2,legacy,1024,2,48000,-16,experiment,SSHSS,999,odd,2391377,NA,NA,NA,5342497,2666,NA,NA,NA,2603,5331972,5343625,5343757,5344403,5343591,5343757,Flanker task,7,2944158,7,yes,1024
100,100,368072.125,368072.125,black,legacy,legacy,legacy,0,incongruent,uniform,1,undefined,1,h,0,0,0,0,7,0,0,0,7,0,7,7,7,7,7,7,Wed Sep 25 20:35:40 2019,1500,The main experiment item,yes,fp-subject-1.osexp,/Users/freyaportales/Desktop/OpenSesame Assignments,no,mono,no,18,no,white,no,no,768,legacy,7,7,/Users/freyaportales/Desktop/OpenSesame Assignments/quickrun.csv,legacy,Kafkaesque Koffka,3.2.8,0,h,NA,caps lock,NA,NA,h,419,NA,2388691,NA,NA,419,2,legacy,1024,2,48000,-16,experiment,SSHSS,999,odd,2391377,NA,NA,NA,5344438,2666,NA,NA,NA,2603,5331972,5345556,5345689,5346109,5345523,5345689,Flanker task,8,2944577,8,yes,1024
100,100,327225.3333,327225.3333,black,legacy,legacy,legacy,0,congruent,uniform,1,undefined,1,s,0,0,0,0,8,0,0,0,8,0,8,8,8,8,8,8,Wed Sep 25 20:35:40 2019,1500,The main experiment item,yes,fp-subject-1.osexp,/Users/freyaportales/Desktop/OpenSesame Assignments,no,mono,no,18,no,white,no,no,768,legacy,8,8,/Users/freyaportales/Desktop/OpenSesame Assignments/quickrun.csv,legacy,Kafkaesque Koffka,3.2.8,0,s,NA,caps lock,NA,NA,s,451,NA,2388691,NA,NA,451,2,legacy,1024,2,48000,-16,experiment,SSSSS,999,odd,2391377,NA,NA,NA,5346145,2666,NA,NA,NA,2603,5331972,5347261,5347395,5347847,5347228,5347394,Flanker task,9,2945028,9,yes,1024
100,100,294551.6,294551.6,black,legacy,legacy,legacy,0,congruent,uniform,1,undefined,1,h,0,0,0,0,9,0,0,0,9,0,9,9,9,9,9,9,Wed Sep 25 20:35:40 2019,1500,The main experiment item,yes,fp-subject-1.osexp,/Users/freyaportales/Desktop/OpenSesame Assignments,no,mono,no,18,no,white,no,no,768,legacy,9,9,/Users/freyaportales/Desktop/OpenSesame Assignments/quickrun.csv,legacy,Kafkaesque Koffka,3.2.8,0,h,NA,caps lock,NA,NA,h,488,NA,2388691,NA,NA,488,2,legacy,1024,2,48000,-16,experiment,HHHHH,999,odd,2391377,NA,NA,NA,5347886,2666,NA,NA,NA,2603,5331972,5349005,5349138,5349628,5348974,5349138,Flanker task,10,2945516,10,yes,1024
100,100,267813.8182,267813.8182,black,legacy,legacy,legacy,0,incongruent,uniform,1,undefined,1,s,0,0,0,0,10,0,0,0,10,0,10,10,10,10,10,10,Wed Sep 25 20:35:40 2019,1500,The main experiment item,yes,fp-subject-1.osexp,/Users/freyaportales/Desktop/OpenSesame Assignments,no,mono,no,18,no,white,no,no,768,legacy,10,10,/Users/freyaportales/Desktop/OpenSesame Assignments/quickrun.csv,legacy,Kafkaesque Koffka,3.2.8,0,s,NA,caps lock,NA,NA,s,436,NA,2388691,NA,NA,436,2,legacy,1024,2,48000,-16,experiment,HHSHH,999,odd,2391377,NA,NA,NA,5349663,2666,NA,NA,NA,2603,5331972,5350780,5350913,5351350,5350748,5350913,Flanker task,11,2945952,11,yes,1024
100,100,245566.75,245566.75,black,legacy,legacy,legacy,0,congruent,uniform,1,undefined,1,h,0,0,0,0,11,0,0,0,11,0,11,11,11,11,11,11,Wed Sep 25 20:35:40 2019,1500,The main experiment item,yes,fp-subject-1.osexp,/Users/freyaportales/Desktop/OpenSesame Assignments,no,mono,no,18,no,white,no,no,768,legacy,11,11,/Users/freyaportales/Desktop/OpenSesame Assignments/quickrun.csv,legacy,Kafkaesque Koffka,3.2.8,0,h,NA,caps lock,NA,NA,h,849,NA,2388691,NA,NA,849,2,legacy,1024,2,48000,-16,experiment,HHHHH,999,odd,2391377,NA,NA,NA,5351389,2666,NA,NA,NA,2603,5331972,5352516,5352649,5353499,5352483,5352649,Flanker task,12,2946801,12,yes,1024
100,100,226740.7692,226740.7692,black,legacy,legacy,legacy,0,incongruent,uniform,1,undefined,1,s,0,0,0,0,12,0,0,0,12,0,12,12,12,12,12,12,Wed Sep 25 20:35:40 2019,1500,The main experiment item,yes,fp-subject-1.osexp,/Users/freyaportales/Desktop/OpenSesame Assignments,no,mono,no,18,no,white,no,no,768,legacy,12,12,/Users/freyaportales/Desktop/OpenSesame Assignments/quickrun.csv,legacy,Kafkaesque Koffka,3.2.8,0,s,NA,caps lock,NA,NA,s,829,NA,2388691,NA,NA,829,2,legacy,1024,2,48000,-16,experiment,HHSHH,999,odd,2391377,NA,NA,NA,5353535,2666,NA,NA,NA,2603,5331972,5354655,5354788,5355620,5354623,5354788,Flanker task,13,2947630,13,yes,1024
100,100,210582.8571,210582.8571,black,legacy,legacy,legacy,0,incongruent,uniform,1,undefined,1,s,0,0,0,0,13,0,0,0,13,0,13,13,13,13,13,13,Wed Sep 25 20:35:40 2019,1500,The main experiment item,yes,fp-subject-1.osexp,/Users/freyaportales/Desktop/OpenSesame Assignments,no,mono,no,18,no,white,no,no,768,legacy,13,13,/Users/freyaportales/Desktop/OpenSesame Assignments/quickrun.csv,legacy,Kafkaesque Koffka,3.2.8,0,s,NA,caps lock,NA,NA,s,530,NA,2388691,NA,NA,530,2,legacy,1024,2,48000,-16,experiment,HHSHH,999,odd,2391377,NA,NA,NA,5355661,2666,NA,NA,NA,2603,5331972,5356789,5356921,5357452,5356756,5356921,Flanker task,14,2948160,14,yes,1024
100,100,196576.6,196576.6,black,legacy,legacy,legacy,0,congruent,uniform,1,undefined,1,h,0,0,0,0,14,0,0,0,14,0,14,14,14,14,14,14,Wed Sep 25 20:35:40 2019,1500,The main experiment item,yes,fp-subject-1.osexp,/Users/freyaportales/Desktop/OpenSesame Assignments,no,mono,no,18,no,white,no,no,768,legacy,14,14,/Users/freyaportales/Desktop/OpenSesame Assignments/quickrun.csv,legacy,Kafkaesque Koffka,3.2.8,0,h,NA,caps lock,NA,NA,h,489,NA,2388691,NA,NA,489,2,legacy,1024,2,48000,-16,experiment,HHHHH,999,odd,2391377,NA,NA,NA,5357489,2666,NA,NA,NA,2603,5331972,5358604,5358738,5359228,5358572,5358737,Flanker task,15,2948649,15,yes,1024
100,100,184323,184323,black,legacy,legacy,legacy,0,incongruent,uniform,1,undefined,1,s,0,0,0,0,15,0,0,0,15,0,15,15,15,15,15,15,Wed Sep 25 20:35:40 2019,1500,The main experiment item,yes,fp-subject-1.osexp,/Users/freyaportales/Desktop/OpenSesame Assignments,no,mono,no,18,no,white,no,no,768,legacy,15,15,/Users/freyaportales/Desktop/OpenSesame Assignments/quickrun.csv,legacy,Kafkaesque Koffka,3.2.8,0,s,NA,caps lock,NA,NA,s,519,NA,2388691,NA,NA,519,2,legacy,1024,2,48000,-16,experiment,HHSHH,999,odd,2391377,NA,NA,NA,5359267,2666,NA,NA,NA,2603,5331972,5360383,5360516,5361036,5360350,5360516,Flanker task,16,2949168,16,yes,1024
100,100,173509.8235,173509.8235,black,legacy,legacy,legacy,0,congruent,uniform,1,undefined,1,h,0,0,0,0,16,0,0,0,16,0,16,16,16,16,16,16,Wed Sep 25 20:35:40 2019,1500,The main experiment item,yes,fp-subject-1.osexp,/Users/freyaportales/Desktop/OpenSesame Assignments,no,mono,no,18,no,white,no,no,768,legacy,16,16,/Users/freyaportales/Desktop/OpenSesame Assignments/quickrun.csv,legacy,Kafkaesque Koffka,3.2.8,0,h,NA,caps lock,NA,NA,h,499,NA,2388691,NA,NA,499,2,legacy,1024,2,48000,-16,experiment,HHHHH,999,odd,2391377,NA,NA,NA,5361076,2666,NA,NA,NA,2603,5331972,5362192,5362325,5362825,5362159,5362325,Flanker task,17,2949667,17,yes,1024
100,100,163900.2222,163900.2222,black,legacy,legacy,legacy,0,incongruent,uniform,1,undefined,1,s,0,0,0,0,17,0,0,0,17,0,17,17,17,17,17,17,Wed Sep 25 20:35:40 2019,1500,The main experiment item,yes,fp-subject-1.osexp,/Users/freyaportales/Desktop/OpenSesame Assignments,no,mono,no,18,no,white,no,no,768,legacy,17,17,/Users/freyaportales/Desktop/OpenSesame Assignments/quickrun.csv,legacy,Kafkaesque Koffka,3.2.8,0,s,NA,caps lock,NA,NA,s,537,NA,2388691,NA,NA,537,2,legacy,1024,2,48000,-16,experiment,HHSHH,999,odd,2391377,NA,NA,NA,5362860,2666,NA,NA,NA,2603,5331972,5363976,5364108,5364646,5363943,5364108,Flanker task,18,2950204,18,yes,1024
100,100,155298.5789,155298.5789,black,legacy,legacy,legacy,0,congruent,uniform,1,undefined,1,h,0,0,0,0,18,0,0,0,18,0,18,18,18,18,18,18,Wed Sep 25 20:35:40 2019,1500,The main experiment item,yes,fp-subject-1.osexp,/Users/freyaportales/Desktop/OpenSesame Assignments,no,mono,no,18,no,white,no,no,768,legacy,18,18,/Users/freyaportales/Desktop/OpenSesame Assignments/quickrun.csv,legacy,Kafkaesque Koffka,3.2.8,0,h,NA,caps lock,NA,NA,h,469,NA,2388691,NA,NA,469,2,legacy,1024,2,48000,-16,experiment,HHHHH,999,odd,2391377,NA,NA,NA,5364683,2666,NA,NA,NA,2603,5331972,5365804,5365943,5366414,5365772,5365942,Flanker task,19,2950673,19,yes,1024
100,100,147556.7,147556.7,black,legacy,legacy,legacy,0,congruent,uniform,1,undefined,1,h,0,0,0,0,19,0,0,0,19,0,19,19,19,19,19,19,Wed Sep 25 20:35:40 2019,1500,The main experiment item,yes,fp-subject-1.osexp,/Users/freyaportales/Desktop/OpenSesame Assignments,no,mono,no,18,no,white,no,no,768,legacy,19,19,/Users/freyaportales/Desktop/OpenSesame Assignments/quickrun.csv,legacy,Kafkaesque Koffka,3.2.8,0,h,NA,caps lock,NA,NA,h,461,NA,2388691,NA,NA,461,2,legacy,1024,2,48000,-16,experiment,HHHHH,999,odd,2391377,NA,NA,NA,5366450,2666,NA,NA,NA,2603,5331972,5367566,5367699,5368162,5367533,5367699,Flanker task,20,2951134,20,yes,1024
100,100,140553.5714,140553.5714,black,legacy,legacy,legacy,0,incongruent,uniform,1,undefined,1,s,0,0,0,0,20,0,0,0,20,0,20,20,20,20,20,20,Wed Sep 25 20:35:40 2019,1500,The main experiment item,yes,fp-subject-1.osexp,/Users/freyaportales/Desktop/OpenSesame Assignments,no,mono,no,18,no,white,no,no,768,legacy,20,20,/Users/freyaportales/Desktop/OpenSesame Assignments/quickrun.csv,legacy,Kafkaesque Koffka,3.2.8,0,s,NA,caps lock,NA,NA,s,491,NA,2388691,NA,NA,491,2,legacy,1024,2,48000,-16,experiment,HHSHH,999,odd,2391377,NA,NA,NA,5368217,2666,NA,NA,NA,2603,5331972,5369332,5369466,5369959,5369300,5369466,Flanker task,21,2951625,21,yes,1024
95.45454545,95.45454545,134187.1818,134187.1818,black,legacy,legacy,legacy,0,incongruent,uniform,0,undefined,0,h,0,0,0,0,21,0,0,0,21,0,21,21,21,21,21,21,Wed Sep 25 20:35:40 2019,1500,The main experiment item,yes,fp-subject-1.osexp,/Users/freyaportales/Desktop/OpenSesame Assignments,no,mono,no,18,no,white,no,no,768,legacy,21,21,/Users/freyaportales/Desktop/OpenSesame Assignments/quickrun.csv,legacy,Kafkaesque Koffka,3.2.8,0,s,NA,caps lock,NA,NA,s,493,NA,2388691,NA,NA,493,2,legacy,1024,2,48000,-16,experiment,SSHSS,999,odd,2391377,NA,NA,NA,5369995,2666,NA,NA,NA,2603,5331972,5371120,5371263,5371758,5371088,5371263,Flanker task,21,2952118,22,yes,1024
95.65217391,95.65217391,128371.4348,128371.4348,black,legacy,legacy,legacy,0,congruent,uniform,1,undefined,1,s,0,0,0,0,22,0,0,0,22,0,22,22,22,22,22,22,Wed Sep 25 20:35:40 2019,1500,The main experiment item,yes,fp-subject-1.osexp,/Users/freyaportales/Desktop/OpenSesame Assignments,no,mono,no,18,no,white,no,no,768,legacy,22,22,/Users/freyaportales/Desktop/OpenSesame Assignments/quickrun.csv,legacy,Kafkaesque Koffka,3.2.8,0,s,NA,caps lock,NA,NA,s,425,NA,2388691,NA,NA,425,2,legacy,1024,2,48000,-16,experiment,SSSSS,999,odd,2391377,NA,NA,NA,5372326,2666,NA,NA,5371793,2603,5331972,5373443,5373576,5374003,5373410,5373575,Flanker task,22,2952543,23,yes,1024
95.83333333,95.83333333,123043.1667,123043.1667,black,legacy,legacy,legacy,0,incongruent,uniform,1,undefined,1,s,0,0,0,0,23,0,0,0,23,0,23,23,23,23,23,23,Wed Sep 25 20:35:40 2019,1500,The main experiment item,yes,fp-subject-1.osexp,/Users/freyaportales/Desktop/OpenSesame Assignments,no,mono,no,18,no,white,no,no,768,legacy,23,23,/Users/freyaportales/Desktop/OpenSesame Assignments/quickrun.csv,legacy,Kafkaesque Koffka,3.2.8,0,s,NA,caps lock,NA,NA,s,493,NA,2388691,NA,NA,493,2,legacy,1024,2,48000,-16,experiment,HHSHH,999,odd,2391377,NA,NA,NA,5374038,2666,NA,NA,5371793,2603,5331972,5375153,5375287,5375782,5375120,5375287,Flanker task,23,2953036,24,yes,1024
96,96,118141.08,118141.08,black,legacy,legacy,legacy,0,incongruent,uniform,1,undefined,1,s,0,0,0,0,24,0,0,0,24,0,24,24,24,24,24,24,Wed Sep 25 20:35:40 2019,1500,The main experiment item,yes,fp-subject-1.osexp,/Users/freyaportales/Desktop/OpenSesame Assignments,no,mono,no,18,no,white,no,no,768,legacy,24,24,/Users/freyaportales/Desktop/OpenSesame Assignments/quickrun.csv,legacy,Kafkaesque Koffka,3.2.8,0,s,NA,caps lock,NA,NA,s,491,NA,2388691,NA,NA,491,2,legacy,1024,2,48000,-16,experiment,HHSHH,999,odd,2391377,NA,NA,NA,5375818,2666,NA,NA,5371793,2603,5331972,5376943,5377085,5377578,5376911,5377085,Flanker task,24,2953527,25,yes,1024
96.15384615,96.15384615,113616.5385,113616.5385,black,legacy,legacy,legacy,0,congruent,uniform,1,undefined,1,s,0,0,0,0,25,0,0,0,25,0,25,25,25,25,25,25,Wed Sep 25 20:35:40 2019,1500,The main experiment item,yes,fp-subject-1.osexp,/Users/freyaportales/Desktop/OpenSesame Assignments,no,mono,no,18,no,white,no,no,768,legacy,25,25,/Users/freyaportales/Desktop/OpenSesame Assignments/quickrun.csv,legacy,Kafkaesque Koffka,3.2.8,0,s,NA,caps lock,NA,NA,s,503,NA,2388691,NA,NA,503,2,legacy,1024,2,48000,-16,experiment,SSSSS,999,odd,2391377,NA,NA,NA,5377617,2666,NA,NA,5371793,2603,5331972,5378732,5378864,5379368,5378700,5378864,Flanker task,25,2954030,26,yes,1024
96.2962963,96.2962963,109424.7778,109424.7778,black,legacy,legacy,legacy,0,congruent,uniform,1,undefined,1,h,0,0,0,0,26,0,0,0,26,0,26,26,26,26,26,26,Wed Sep 25 20:35:40 2019,1500,The main experiment item,yes,fp-subject-1.osexp,/Users/freyaportales/Desktop/OpenSesame Assignments,no,mono,no,18,no,white,no,no,768,legacy,26,26,/Users/freyaportales/Desktop/OpenSesame Assignments/quickrun.csv,legacy,Kafkaesque Koffka,3.2.8,0,h,NA,caps lock,NA,NA,h,439,NA,2388691,NA,NA,439,2,legacy,1024,2,48000,-16,experiment,HHHHH,999,odd,2391377,NA,NA,NA,5379407,2666,NA,NA,5371793,2603,5331972,5380531,5380663,5381104,5380497,5380663,Flanker task,26,2954469,27,yes,1024
96.42857143,96.42857143,105532.3929,105532.3929,black,legacy,legacy,legacy,0,congruent,uniform,1,undefined,1,s,0,0,0,0,27,0,0,0,27,0,27,27,27,27,27,27,Wed Sep 25 20:35:40 2019,1500,The main experiment item,yes,fp-subject-1.osexp,/Users/freyaportales/Desktop/OpenSesame Assignments,no,mono,no,18,no,white,no,no,768,legacy,27,27,/Users/freyaportales/Desktop/OpenSesame Assignments/quickrun.csv,legacy,Kafkaesque Koffka,3.2.8,0,s,NA,caps lock,NA,NA,s,438,NA,2388691,NA,NA,438,2,legacy,1024,2,48000,-16,experiment,SSSSS,999,odd,2391377,NA,NA,NA,5381141,2666,NA,NA,5371793,2603,5331972,5382265,5382404,5382844,5382228,5382404,Flanker task,27,2954907,28,yes,1024
96.55172414,96.55172414,101910.4828,101910.4828,black,legacy,legacy,legacy,0,congruent,uniform,1,undefined,1,h,0,0,0,0,28,0,0,0,28,0,28,28,28,28,28,28,Wed Sep 25 20:35:40 2019,1500,The main experiment item,yes,fp-subject-1.osexp,/Users/freyaportales/Desktop/OpenSesame Assignments,no,mono,no,18,no,white,no,no,768,legacy,28,28,/Users/freyaportales/Desktop/OpenSesame Assignments/quickrun.csv,legacy,Kafkaesque Koffka,3.2.8,0,h,NA,caps lock,NA,NA,h,497,NA,2388691,NA,NA,497,2,legacy,1024,2,48000,-16,experiment,HHHHH,999,odd,2391377,NA,NA,NA,5382881,2666,NA,NA,5371793,2603,5331972,5384003,5384149,5384647,5383971,5384149,Flanker task,28,2955404,29,yes,1024
96.66666667,96.66666667,98529.46667,98529.46667,black,legacy,legacy,legacy,0,congruent,uniform,1,undefined,1,h,0,0,0,0,29,0,0,0,29,0,29,29,29,29,29,29,Wed Sep 25 20:35:40 2019,1500,The main experiment item,yes,fp-subject-1.osexp,/Users/freyaportales/Desktop/OpenSesame Assignments,no,mono,no,18,no,white,no,no,768,legacy,29,29,/Users/freyaportales/Desktop/OpenSesame Assignments/quickrun.csv,legacy,Kafkaesque Koffka,3.2.8,0,h,NA,caps lock,NA,NA,h,480,NA,2388691,NA,NA,480,2,legacy,1024,2,48000,-16,experiment,HHHHH,999,odd,2391377,NA,NA,NA,5384683,2666,NA,NA,5371793,2603,5331972,5385798,5385931,5386413,5385766,5385931,Flanker task,29,2955884,30,yes,1024
96.77419355,96.77419355,95366.51613,95366.51613,black,legacy,legacy,legacy,0,congruent,uniform,1,undefined,1,h,0,0,0,0,30,0,0,0,30,0,30,30,30,30,30,30,Wed Sep 25 20:35:40 2019,1500,The main experiment item,yes,fp-subject-1.osexp,/Users/freyaportales/Desktop/OpenSesame Assignments,no,mono,no,18,no,white,no,no,768,legacy,30,30,/Users/freyaportales/Desktop/OpenSesame Assignments/quickrun.csv,legacy,Kafkaesque Koffka,3.2.8,0,h,NA,caps lock,NA,NA,h,478,NA,2388691,NA,NA,478,2,legacy,1024,2,48000,-16,experiment,HHHHH,999,odd,2391377,NA,NA,NA,5386449,2666,NA,NA,5371793,2603,5331972,5387575,5387707,5388187,5387542,5387707,Flanker task,30,2956362,31,yes,1024
93.75,93.75,92400.40625,92400.40625,black,legacy,legacy,legacy,0,incongruent,uniform,0,undefined,0,h,0,0,0,0,31,0,0,0,31,0,31,31,31,31,31,31,Wed Sep 25 20:35:40 2019,1500,The main experiment item,yes,fp-subject-1.osexp,/Users/freyaportales/Desktop/OpenSesame Assignments,no,mono,no,18,no,white,no,no,768,legacy,31,31,/Users/freyaportales/Desktop/OpenSesame Assignments/quickrun.csv,legacy,Kafkaesque Koffka,3.2.8,0,s,NA,caps lock,NA,NA,s,451,NA,2388691,NA,NA,451,2,legacy,1024,2,48000,-16,experiment,SSHSS,999,odd,2391377,NA,NA,NA,5388222,2666,NA,NA,5371793,2603,5331972,5389337,5389472,5389925,5389305,5389472,Flanker task,30,2956813,32,yes,1024
93.93939394,93.93939394,89619.66667,89619.66667,black,legacy,legacy,legacy,0,incongruent,uniform,1,undefined,1,s,0,0,0,0,32,0,0,0,32,0,32,32,32,32,32,32,Wed Sep 25 20:35:40 2019,1500,The main experiment item,yes,fp-subject-1.osexp,/Users/freyaportales/Desktop/OpenSesame Assignments,no,mono,no,18,no,white,no,no,768,legacy,32,32,/Users/freyaportales/Desktop/OpenSesame Assignments/quickrun.csv,legacy,Kafkaesque Koffka,3.2.8,0,s,NA,caps lock,NA,NA,s,636,NA,2388691,NA,NA,636,2,legacy,1024,2,48000,-16,experiment,HHSHH,999,odd,2391377,NA,NA,NA,5390495,2666,NA,NA,5389961,2603,5331972,5391610,5391742,5392381,5391578,5391742,Flanker task,31,2957449,33,yes,1024
94.11764706,94.11764706,86997.79412,86997.79412,black,legacy,legacy,legacy,0,congruent,uniform,1,undefined,1,s,0,0,0,0,33,0,0,0,33,0,33,33,33,33,33,33,Wed Sep 25 20:35:40 2019,1500,The main experiment item,yes,fp-subject-1.osexp,/Users/freyaportales/Desktop/OpenSesame Assignments,no,mono,no,18,no,white,no,no,768,legacy,33,33,/Users/freyaportales/Desktop/OpenSesame Assignments/quickrun.csv,legacy,Kafkaesque Koffka,3.2.8,0,s,NA,caps lock,NA,NA,s,476,NA,2388691,NA,NA,476,2,legacy,1024,2,48000,-16,experiment,SSSSS,999,odd,2391377,NA,NA,NA,5392428,2666,NA,NA,5389961,2603,5331972,5393557,5393692,5394170,5393523,5393691,Flanker task,32,2957925,34,yes,1024
94.28571429,94.28571429,84529.97143,84529.97143,black,legacy,legacy,legacy,0,congruent,uniform,1,undefined,1,h,0,0,0,0,34,0,0,0,34,0,34,34,34,34,34,34,Wed Sep 25 20:35:40 2019,1500,The main experiment item,yes,fp-subject-1.osexp,/Users/freyaportales/Desktop/OpenSesame Assignments,no,mono,no,18,no,white,no,no,768,legacy,34,34,/Users/freyaportales/Desktop/OpenSesame Assignments/quickrun.csv,legacy,Kafkaesque Koffka,3.2.8,0,h,NA,caps lock,NA,NA,h,624,NA,2388691,NA,NA,624,2,legacy,1024,2,48000,-16,experiment,HHHHH,999,odd,2391377,NA,NA,NA,5394204,2666,NA,NA,5389961,2603,5331972,5395320,5395452,5396079,5395287,5395452,Flanker task,33,2958549,35,yes,1024
94.44444444,94.44444444,82198.11111,82198.11111,black,legacy,legacy,legacy,0,incongruent,uniform,1,undefined,1,s,0,0,0,0,35,0,0,0,35,0,35,35,35,35,35,35,Wed Sep 25 20:35:40 2019,1500,The main experiment item,yes,fp-subject-1.osexp,/Users/freyaportales/Desktop/OpenSesame Assignments,no,mono,no,18,no,white,no,no,768,legacy,35,35,/Users/freyaportales/Desktop/OpenSesame Assignments/quickrun.csv,legacy,Kafkaesque Koffka,3.2.8,0,s,NA,caps lock,NA,NA,s,583,NA,2388691,NA,NA,583,2,legacy,1024,2,48000,-16,experiment,HHSHH,999,odd,2391377,NA,NA,NA,5396119,2666,NA,NA,5389961,2603,5331972,5397243,5397378,5397963,5397211,5397377,Flanker task,34,2959132,36,yes,1024
94.59459459,94.59459459,79994,79994,black,legacy,legacy,legacy,0,incongruent,uniform,1,undefined,1,s,0,0,0,0,36,0,0,0,36,0,36,36,36,36,36,36,Wed Sep 25 20:35:40 2019,1500,The main experiment item,yes,fp-subject-1.osexp,/Users/freyaportales/Desktop/OpenSesame Assignments,no,mono,no,18,no,white,no,no,768,legacy,36,36,/Users/freyaportales/Desktop/OpenSesame Assignments/quickrun.csv,legacy,Kafkaesque Koffka,3.2.8,0,s,NA,caps lock,NA,NA,s,646,NA,2388691,NA,NA,646,2,legacy,1024,2,48000,-16,experiment,HHSHH,999,odd,2391377,NA,NA,NA,5397998,2666,NA,NA,5389961,2603,5331972,5399113,5399246,5399894,5399080,5399246,Flanker task,35,2959778,37,yes,1024
94.73684211,94.73684211,77903.07895,77903.07895,black,legacy,legacy,legacy,0,congruent,uniform,1,undefined,1,s,0,0,0,0,37,0,0,0,37,0,37,37,37,37,37,37,Wed Sep 25 20:35:40 2019,1500,The main experiment item,yes,fp-subject-1.osexp,/Users/freyaportales/Desktop/OpenSesame Assignments,no,mono,no,18,no,white,no,no,768,legacy,37,37,/Users/freyaportales/Desktop/OpenSesame Assignments/quickrun.csv,legacy,Kafkaesque Koffka,3.2.8,0,s,NA,caps lock,NA,NA,s,539,NA,2388691,NA,NA,539,2,legacy,1024,2,48000,-16,experiment,SSSSS,999,odd,2391377,NA,NA,NA,5399929,2666,NA,NA,5389961,2603,5331972,5401048,5401181,5401722,5401013,5401180,Flanker task,36,2960317,38,yes,1024
94.87179487,94.87179487,75924.48718,75924.48718,black,legacy,legacy,legacy,0,incongruent,uniform,1,undefined,1,h,0,0,0,0,38,0,0,0,38,0,38,38,38,38,38,38,Wed Sep 25 20:35:40 2019,1500,The main experiment item,yes,fp-subject-1.osexp,/Users/freyaportales/Desktop/OpenSesame Assignments,no,mono,no,18,no,white,no,no,768,legacy,38,38,/Users/freyaportales/Desktop/OpenSesame Assignments/quickrun.csv,legacy,Kafkaesque Koffka,3.2.8,0,h,NA,caps lock,NA,NA,h,738,NA,2388691,NA,NA,738,2,legacy,1024,2,48000,-16,experiment,SSHSS,999,odd,2391377,NA,NA,NA,5401761,2666,NA,NA,5389961,2603,5331972,5402886,5403018,5403758,5402853,5403017,Flanker task,37,2961055,39,yes,1024
95,95,74050.225,74050.225,black,legacy,legacy,legacy,0,incongruent,uniform,1,undefined,1,s,0,0,0,0,39,0,0,0,39,0,39,39,39,39,39,39,Wed Sep 25 20:35:40 2019,1500,The main experiment item,yes,fp-subject-1.osexp,/Users/freyaportales/Desktop/OpenSesame Assignments,no,mono,no,18,no,white,no,no,768,legacy,39,39,/Users/freyaportales/Desktop/OpenSesame Assignments/quickrun.csv,legacy,Kafkaesque Koffka,3.2.8,0,s,NA,caps lock,NA,NA,s,954,NA,2388691,NA,NA,954,2,legacy,1024,2,48000,-16,experiment,HHSHH,999,odd,2391377,NA,NA,NA,5403793,2666,NA,NA,5389961,2603,5331972,5404919,5405051,5406007,5404886,5405050,Flanker task,38,2962009,40,yes,1024
95.12195122,95.12195122,72255.12195,72255.12195,black,legacy,legacy,legacy,0,congruent,uniform,1,undefined,1,s,0,0,0,0,40,0,0,0,40,0,40,40,40,40,40,40,Wed Sep 25 20:35:40 2019,1500,The main experiment item,yes,fp-subject-1.osexp,/Users/freyaportales/Desktop/OpenSesame Assignments,no,mono,no,18,no,white,no,no,768,legacy,40,40,/Users/freyaportales/Desktop/OpenSesame Assignments/quickrun.csv,legacy,Kafkaesque Koffka,3.2.8,0,s,NA,caps lock,NA,NA,s,451,NA,2388691,NA,NA,451,2,legacy,1024,2,48000,-16,experiment,SSSSS,999,odd,2391377,NA,NA,NA,5406046,2666,NA,NA,5389961,2603,5331972,5407178,5407316,5407769,5407140,5407315,Flanker task,39,2962460,41,yes,1024
95.23809524,95.23809524,70544.61905,70544.61905,black,legacy,legacy,legacy,0,congruent,uniform,1,undefined,1,s,0,0,0,0,41,0,0,0,41,0,41,41,41,41,41,41,Wed Sep 25 20:35:40 2019,1500,The main experiment item,yes,fp-subject-1.osexp,/Users/freyaportales/Desktop/OpenSesame Assignments,no,mono,no,18,no,white,no,no,768,legacy,41,41,/Users/freyaportales/Desktop/OpenSesame Assignments/quickrun.csv,legacy,Kafkaesque Koffka,3.2.8,0,s,NA,caps lock,NA,NA,s,414,NA,2388691,NA,NA,414,2,legacy,1024,2,48000,-16,experiment,SSSSS,999,odd,2391377,NA,NA,NA,5407803,2666,NA,NA,5389961,2603,5331972,5408919,5409051,5409467,5408885,5409051,Flanker task,40,2962874,42,yes,1024
95.34883721,95.34883721,68915.46512,68915.46512,black,legacy,legacy,legacy,0,congruent,uniform,1,undefined,1,s,0,0,0,0,42,0,0,0,42,0,42,42,42,42,42,42,Wed Sep 25 20:35:40 2019,1500,The main experiment item,yes,fp-subject-1.osexp,/Users/freyaportales/Desktop/OpenSesame Assignments,no,mono,no,18,no,white,no,no,768,legacy,42,42,/Users/freyaportales/Desktop/OpenSesame Assignments/quickrun.csv,legacy,Kafkaesque Koffka,3.2.8,0,s,NA,caps lock,NA,NA,s,491,NA,2388691,NA,NA,491,2,legacy,1024,2,48000,-16,experiment,SSSSS,999,odd,2391377,NA,NA,NA,5409503,2666,NA,NA,5389961,2603,5331972,5410627,5410759,5411252,5410595,5410759,Flanker task,41,2963365,43,yes,1024
95.45454545,95.45454545,67361.15909,67361.15909,black,legacy,legacy,legacy,0,incongruent,uniform,1,undefined,1,h,0,0,0,0,43,0,0,0,43,0,43,43,43,43,43,43,Wed Sep 25 20:35:40 2019,1500,The main experiment item,yes,fp-subject-1.osexp,/Users/freyaportales/Desktop/OpenSesame Assignments,no,mono,no,18,no,white,no,no,768,legacy,43,43,/Users/freyaportales/Desktop/OpenSesame Assignments/quickrun.csv,legacy,Kafkaesque Koffka,3.2.8,0,h,NA,caps lock,NA,NA,h,526,NA,2388691,NA,NA,526,2,legacy,1024,2,48000,-16,experiment,SSHSS,999,odd,2391377,NA,NA,NA,5411287,2666,NA,NA,5389961,2603,5331972,5412402,5412534,5413062,5412369,5412534,Flanker task,42,2963891,44,yes,1024
95.55555556,95.55555556,65875.6,65875.6,black,legacy,legacy,legacy,0,congruent,uniform,1,undefined,1,h,0,0,0,0,44,0,0,0,44,0,44,44,44,44,44,44,Wed Sep 25 20:35:40 2019,1500,The main experiment item,yes,fp-subject-1.osexp,/Users/freyaportales/Desktop/OpenSesame Assignments,no,mono,no,18,no,white,no,no,768,legacy,44,44,/Users/freyaportales/Desktop/OpenSesame Assignments/quickrun.csv,legacy,Kafkaesque Koffka,3.2.8,0,h,NA,caps lock,NA,NA,h,511,NA,2388691,NA,NA,511,2,legacy,1024,2,48000,-16,experiment,HHHHH,999,odd,2391377,NA,NA,NA,5413100,2666,NA,NA,5389961,2603,5331972,5414221,5414353,5414866,5414188,5414353,Flanker task,43,2964402,45,yes,1024
95.65217391,95.65217391,64453.02174,64453.02174,black,legacy,legacy,legacy,0,congruent,uniform,1,undefined,1,s,0,0,0,0,45,0,0,0,45,0,45,45,45,45,45,45,Wed Sep 25 20:35:40 2019,1500,The main experiment item,yes,fp-subject-1.osexp,/Users/freyaportales/Desktop/OpenSesame Assignments,no,mono,no,18,no,white,no,no,768,legacy,45,45,/Users/freyaportales/Desktop/OpenSesame Assignments/quickrun.csv,legacy,Kafkaesque Koffka,3.2.8,0,s,NA,caps lock,NA,NA,s,437,NA,2388691,NA,NA,437,2,legacy,1024,2,48000,-16,experiment,SSSSS,999,odd,2391377,NA,NA,NA,5414901,2666,NA,NA,5389961,2603,5331972,5416016,5416149,5416589,5415984,5416149,Flanker task,44,2964839,46,yes,1024
95.74468085,95.74468085,63108.68085,63108.68085,black,legacy,legacy,legacy,0,congruent,uniform,1,undefined,1,s,0,0,0,0,46,0,0,0,46,0,46,46,46,46,46,46,Wed Sep 25 20:35:40 2019,1500,The main experiment item,yes,fp-subject-1.osexp,/Users/freyaportales/Desktop/OpenSesame Assignments,no,mono,no,18,no,white,no,no,768,legacy,46,46,/Users/freyaportales/Desktop/OpenSesame Assignments/quickrun.csv,legacy,Kafkaesque Koffka,3.2.8,0,s,NA,caps lock,NA,NA,s,1269,NA,2388691,NA,NA,1269,2,legacy,1024,2,48000,-16,experiment,SSSSS,999,odd,2391377,NA,NA,NA,5416629,2666,NA,NA,5389961,2603,5331972,5417746,5417880,5419151,5417714,5417879,Flanker task,45,2966108,47,yes,1024
95.83333333,95.83333333,61804.25,61804.25,black,legacy,legacy,legacy,0,incongruent,uniform,1,undefined,1,h,0,0,0,0,47,0,0,0,47,0,47,47,47,47,47,47,Wed Sep 25 20:35:40 2019,1500,The main experiment item,yes,fp-subject-1.osexp,/Users/freyaportales/Desktop/OpenSesame Assignments,no,mono,no,18,no,white,no,no,768,legacy,47,47,/Users/freyaportales/Desktop/OpenSesame Assignments/quickrun.csv,legacy,Kafkaesque Koffka,3.2.8,0,h,NA,caps lock,NA,NA,h,496,NA,2388691,NA,NA,496,2,legacy,1024,2,48000,-16,experiment,SSHSS,999,odd,2391377,NA,NA,NA,5419191,2666,NA,NA,5389961,2603,5331972,5420314,5420446,5420944,5420281,5420446,Flanker task,46,2966604,48,yes,1024
95.91836735,95.91836735,60553.83673,60553.83673,black,legacy,legacy,legacy,0,incongruent,uniform,1,undefined,1,s,0,0,0,0,48,0,0,0,48,0,48,48,48,48,48,48,Wed Sep 25 20:35:40 2019,1500,The main experiment item,yes,fp-subject-1.osexp,/Users/freyaportales/Desktop/OpenSesame Assignments,no,mono,no,18,no,white,no,no,768,legacy,48,48,/Users/freyaportales/Desktop/OpenSesame Assignments/quickrun.csv,legacy,Kafkaesque Koffka,3.2.8,0,s,NA,caps lock,NA,NA,s,534,NA,2388691,NA,NA,534,2,legacy,1024,2,48000,-16,experiment,HHSHH,999,odd,2391377,NA,NA,NA,5420979,2666,NA,NA,5389961,2603,5331972,5422094,5422229,5422765,5422061,5422229,Flanker task,47,2967138,49,yes,1024
96,96,59352.54,59352.54,black,legacy,legacy,legacy,0,incongruent,uniform,1,undefined,1,s,0,0,0,0,49,0,0,0,49,0,49,49,49,49,49,49,Wed Sep 25 20:35:40 2019,1500,The main experiment item,yes,fp-subject-1.osexp,/Users/freyaportales/Desktop/OpenSesame Assignments,no,mono,no,18,no,white,no,no,768,legacy,49,49,/Users/freyaportales/Desktop/OpenSesame Assignments/quickrun.csv,legacy,Kafkaesque Koffka,3.2.8,0,s,NA,caps lock,NA,NA,s,489,NA,2388691,NA,NA,489,2,legacy,1024,2,48000,-16,experiment,HHSHH,999,odd,2391377,NA,NA,NA,5422803,2666,NA,NA,5389961,2603,5331972,5423925,5424057,5424548,5423892,5424057,Flanker task,48,2967627,50,yes,1024
96.07843137,96.07843137,58200.96078,58200.96078,black,legacy,legacy,legacy,0,incongruent,uniform,1,undefined,1,h,0,0,0,0,50,0,0,0,50,0,50,50,50,50,50,50,Wed Sep 25 20:35:40 2019,1500,The main experiment item,yes,fp-subject-1.osexp,/Users/freyaportales/Desktop/OpenSesame Assignments,no,mono,no,18,no,white,no,no,768,legacy,50,50,/Users/freyaportales/Desktop/OpenSesame Assignments/quickrun.csv,legacy,Kafkaesque Koffka,3.2.8,0,h,NA,caps lock,NA,NA,h,622,NA,2388691,NA,NA,622,2,legacy,1024,2,48000,-16,experiment,SSHSS,999,odd,2391377,NA,NA,NA,5424583,2666,NA,NA,5389961,2603,5331972,5425709,5425844,5426468,5425676,5425844,Flanker task,49,2968249,51,yes,1024
96.15384615,96.15384615,57092.34615,57092.34615,black,legacy,legacy,legacy,0,congruent,uniform,1,undefined,1,s,0,0,0,0,51,0,0,0,51,0,51,51,51,51,51,51,Wed Sep 25 20:35:40 2019,1500,The main experiment item,yes,fp-subject-1.osexp,/Users/freyaportales/Desktop/OpenSesame Assignments,no,mono,no,18,no,white,no,no,768,legacy,51,51,/Users/freyaportales/Desktop/OpenSesame Assignments/quickrun.csv,legacy,Kafkaesque Koffka,3.2.8,0,s,NA,caps lock,NA,NA,s,553,NA,2388691,NA,NA,553,2,legacy,1024,2,48000,-16,experiment,SSSSS,999,odd,2391377,NA,NA,NA,5426503,2666,NA,NA,5389961,2603,5331972,5427625,5427758,5428313,5427592,5427758,Flanker task,50,2968802,52,yes,1024
96.22641509,96.22641509,56024.43396,56024.43396,black,legacy,legacy,legacy,0,congruent,uniform,1,undefined,1,s,0,0,0,0,52,0,0,0,52,0,52,52,52,52,52,52,Wed Sep 25 20:35:40 2019,1500,The main experiment item,yes,fp-subject-1.osexp,/Users/freyaportales/Desktop/OpenSesame Assignments,no,mono,no,18,no,white,no,no,768,legacy,52,52,/Users/freyaportales/Desktop/OpenSesame Assignments/quickrun.csv,legacy,Kafkaesque Koffka,3.2.8,0,s,NA,caps lock,NA,NA,s,493,NA,2388691,NA,NA,493,2,legacy,1024,2,48000,-16,experiment,SSSSS,999,odd,2391377,NA,NA,NA,5428347,2666,NA,NA,5389961,2603,5331972,5429464,5429598,5430093,5429431,5429598,Flanker task,51,2969295,53,yes,1024
96.2962963,96.2962963,54996.61111,54996.61111,black,legacy,legacy,legacy,0,incongruent,uniform,1,undefined,1,s,0,0,0,0,53,0,0,0,53,0,53,53,53,53,53,53,Wed Sep 25 20:35:40 2019,1500,The main experiment item,yes,fp-subject-1.osexp,/Users/freyaportales/Desktop/OpenSesame Assignments,no,mono,no,18,no,white,no,no,768,legacy,53,53,/Users/freyaportales/Desktop/OpenSesame Assignments/quickrun.csv,legacy,Kafkaesque Koffka,3.2.8,0,s,NA,caps lock,NA,NA,s,522,NA,2388691,NA,NA,522,2,legacy,1024,2,48000,-16,experiment,HHSHH,999,odd,2391377,NA,NA,NA,5430128,2666,NA,NA,5389961,2603,5331972,5431244,5431377,5431901,5431212,5431377,Flanker task,52,2969817,54,yes,1024
96.36363636,96.36363636,54006.43636,54006.43636,black,legacy,legacy,legacy,0,incongruent,uniform,1,undefined,1,h,0,0,0,0,54,0,0,0,54,0,54,54,54,54,54,54,Wed Sep 25 20:35:40 2019,1500,The main experiment item,yes,fp-subject-1.osexp,/Users/freyaportales/Desktop/OpenSesame Assignments,no,mono,no,18,no,white,no,no,768,legacy,54,54,/Users/freyaportales/Desktop/OpenSesame Assignments/quickrun.csv,legacy,Kafkaesque Koffka,3.2.8,0,h,NA,caps lock,NA,NA,h,537,NA,2388691,NA,NA,537,2,legacy,1024,2,48000,-16,experiment,SSHSS,999,odd,2391377,NA,NA,NA,5431941,2666,NA,NA,5389961,2603,5331972,5433080,5433216,5433755,5433043,5433216,Flanker task,53,2970354,55,yes,1024
96.42857143,96.42857143,53051.41071,53051.41071,black,legacy,legacy,legacy,0,incongruent,uniform,1,undefined,1,h,0,0,0,0,55,0,0,0,55,0,55,55,55,55,55,55,Wed Sep 25 20:35:40 2019,1500,The main experiment item,yes,fp-subject-1.osexp,/Users/freyaportales/Desktop/OpenSesame Assignments,no,mono,no,18,no,white,no,no,768,legacy,55,55,/Users/freyaportales/Desktop/OpenSesame Assignments/quickrun.csv,legacy,Kafkaesque Koffka,3.2.8,0,h,NA,caps lock,NA,NA,h,525,NA,2388691,NA,NA,525,2,legacy,1024,2,48000,-16,experiment,SSHSS,999,odd,2391377,NA,NA,NA,5433792,2666,NA,NA,5389961,2603,5331972,5434907,5435039,5435566,5434875,5435039,Flanker task,54,2970879,56,yes,1024
96.49122807,96.49122807,52130.59649,52130.59649,black,legacy,legacy,legacy,0,incongruent,uniform,1,undefined,1,h,0,0,0,0,56,0,0,0,56,0,56,56,56,56,56,56,Wed Sep 25 20:35:40 2019,1500,The main experiment item,yes,fp-subject-1.osexp,/Users/freyaportales/Desktop/OpenSesame Assignments,no,mono,no,18,no,white,no,no,768,legacy,56,56,/Users/freyaportales/Desktop/OpenSesame Assignments/quickrun.csv,legacy,Kafkaesque Koffka,3.2.8,0,h,NA,caps lock,NA,NA,h,565,NA,2388691,NA,NA,565,2,legacy,1024,2,48000,-16,experiment,SSHSS,999,odd,2391377,NA,NA,NA,5435601,2666,NA,NA,5389961,2603,5331972,5436716,5436848,5437415,5436684,5436848,Flanker task,55,2971444,57,yes,1024
96.55172414,96.55172414,51240.43103,51240.43103,black,legacy,legacy,legacy,0,congruent,uniform,1,undefined,1,h,0,0,0,0,57,0,0,0,57,0,57,57,57,57,57,57,Wed Sep 25 20:35:40 2019,1500,The main experiment item,yes,fp-subject-1.osexp,/Users/freyaportales/Desktop/OpenSesame Assignments,no,mono,no,18,no,white,no,no,768,legacy,57,57,/Users/freyaportales/Desktop/OpenSesame Assignments/quickrun.csv,legacy,Kafkaesque Koffka,3.2.8,0,h,NA,caps lock,NA,NA,h,501,NA,2388691,NA,NA,501,2,legacy,1024,2,48000,-16,experiment,HHHHH,999,odd,2391377,NA,NA,NA,5437468,2666,NA,NA,5389961,2603,5331972,5438584,5438716,5439219,5438551,5438716,Flanker task,56,2971945,58,yes,1024
96.61016949,96.61016949,50383.67797,50383.67797,black,legacy,legacy,legacy,0,incongruent,uniform,1,undefined,1,h,0,0,0,0,58,0,0,0,58,0,58,58,58,58,58,58,Wed Sep 25 20:35:40 2019,1500,The main experiment item,yes,fp-subject-1.osexp,/Users/freyaportales/Desktop/OpenSesame Assignments,no,mono,no,18,no,white,no,no,768,legacy,58,58,/Users/freyaportales/Desktop/OpenSesame Assignments/quickrun.csv,legacy,Kafkaesque Koffka,3.2.8,0,h,NA,caps lock,NA,NA,h,692,NA,2388691,NA,NA,692,2,legacy,1024,2,48000,-16,experiment,SSHSS,999,odd,2391377,NA,NA,NA,5439254,2666,NA,NA,5389961,2603,5331972,5440371,5440509,5441204,5440337,5440509,Flanker task,57,2972637,59,yes,1024
96.66666667,96.66666667,49555.51667,49555.51667,black,legacy,legacy,legacy,0,incongruent,uniform,1,undefined,1,h,0,0,0,0,59,0,0,0,59,0,59,59,59,59,59,59,Wed Sep 25 20:35:40 2019,1500,The main experiment item,yes,fp-subject-1.osexp,/Users/freyaportales/Desktop/OpenSesame Assignments,no,mono,no,18,no,white,no,no,768,legacy,59,59,/Users/freyaportales/Desktop/OpenSesame Assignments/quickrun.csv,legacy,Kafkaesque Koffka,3.2.8,0,h,NA,caps lock,NA,NA,h,694,NA,2388691,NA,NA,694,2,legacy,1024,2,48000,-16,experiment,SSHSS,999,odd,2391377,NA,NA,NA,5441240,2666,NA,NA,5389961,2603,5331972,5442356,5442489,5443186,5442323,5442489,Flanker task,58,2973331,60,yes,1024
96.72131148,96.72131148,48753.55738,48753.55738,black,legacy,legacy,legacy,0,congruent,uniform,1,undefined,1,s,0,0,0,0,60,0,0,0,60,0,60,60,60,60,60,60,Wed Sep 25 20:35:40 2019,1500,The main experiment item,yes,fp-subject-1.osexp,/Users/freyaportales/Desktop/OpenSesame Assignments,no,mono,no,18,no,white,no,no,768,legacy,60,60,/Users/freyaportales/Desktop/OpenSesame Assignments/quickrun.csv,legacy,Kafkaesque Koffka,3.2.8,0,s,NA,caps lock,NA,NA,s,636,NA,2388691,NA,NA,636,2,legacy,1024,2,48000,-16,experiment,SSSSS,999,odd,2391377,NA,NA,NA,5443225,2666,NA,NA,5389961,2603,5331972,5444342,5444477,5445116,5444309,5444477,Flanker task,59,2973967,61,yes,1024
96.77419355,96.77419355,47976.09677,47976.09677,black,legacy,legacy,legacy,0,incongruent,uniform,1,undefined,1,s,0,0,0,0,61,0,0,0,61,0,61,61,61,61,61,61,Wed Sep 25 20:35:40 2019,1500,The main experiment item,yes,fp-subject-1.osexp,/Users/freyaportales/Desktop/OpenSesame Assignments,no,mono,no,18,no,white,no,no,768,legacy,61,61,/Users/freyaportales/Desktop/OpenSesame Assignments/quickrun.csv,legacy,Kafkaesque Koffka,3.2.8,0,s,NA,caps lock,NA,NA,s,551,NA,2388691,NA,NA,551,2,legacy,1024,2,48000,-16,experiment,HHSHH,999,odd,2391377,NA,NA,NA,5445151,2666,NA,NA,5389961,2603,5331972,5446270,5446404,5446957,5446236,5446404,Flanker task,60,2974518,62,yes,1024
96.82539683,96.82539683,47223.98413,47223.98413,black,legacy,legacy,legacy,0,incongruent,uniform,1,undefined,1,h,0,0,0,0,62,0,0,0,62,0,62,62,62,62,62,62,Wed Sep 25 20:35:40 2019,1500,The main experiment item,yes,fp-subject-1.osexp,/Users/freyaportales/Desktop/OpenSesame Assignments,no,mono,no,18,no,white,no,no,768,legacy,62,62,/Users/freyaportales/Desktop/OpenSesame Assignments/quickrun.csv,legacy,Kafkaesque Koffka,3.2.8,0,h,NA,caps lock,NA,NA,h,593,NA,2388691,NA,NA,593,2,legacy,1024,2,48000,-16,experiment,SSHSS,999,odd,2391377,NA,NA,NA,5446992,2666,NA,NA,5389961,2603,5331972,5448107,5448240,5448836,5448074,5448240,Flanker task,61,2975111,63,yes,1024
96.875,96.875,46493.20313,46493.20313,black,legacy,legacy,legacy,0,congruent,uniform,1,undefined,1,s,0,0,0,0,63,0,0,0,63,0,63,63,63,63,63,63,Wed Sep 25 20:35:40 2019,1500,The main experiment item,yes,fp-subject-1.osexp,/Users/freyaportales/Desktop/OpenSesame Assignments,no,mono,no,18,no,white,no,no,768,legacy,63,63,/Users/freyaportales/Desktop/OpenSesame Assignments/quickrun.csv,legacy,Kafkaesque Koffka,3.2.8,0,s,NA,caps lock,NA,NA,s,454,NA,2388691,NA,NA,454,2,legacy,1024,2,48000,-16,experiment,SSSSS,999,odd,2391377,NA,NA,NA,5448875,2666,NA,NA,5389961,2603,5331972,5449997,5450129,5450585,5449964,5450129,Flanker task,62,2975565,64,yes,1024
96.92307692,96.92307692,45786.16923,45786.16923,black,legacy,legacy,legacy,0,incongruent,uniform,1,undefined,1,h,0,0,0,0,64,0,0,0,64,0,64,64,64,64,64,64,Wed Sep 25 20:35:40 2019,1500,The main experiment item,yes,fp-subject-1.osexp,/Users/freyaportales/Desktop/OpenSesame Assignments,no,mono,no,18,no,white,no,no,768,legacy,64,64,/Users/freyaportales/Desktop/OpenSesame Assignments/quickrun.csv,legacy,Kafkaesque Koffka,3.2.8,0,h,NA,caps lock,NA,NA,h,536,NA,2388691,NA,NA,536,2,legacy,1024,2,48000,-16,experiment,SSHSS,999,odd,2391377,NA,NA,NA,5450620,2666,NA,NA,5389961,2603,5331972,5451736,5451869,5452408,5451704,5451869,Flanker task,63,2976101,65,yes,1024
96.96969697,96.96969697,45100.40909,45100.40909,black,legacy,legacy,legacy,0,incongruent,uniform,1,undefined,1,h,0,0,0,0,65,0,0,0,65,0,65,65,65,65,65,65,Wed Sep 25 20:35:40 2019,1500,The main experiment item,yes,fp-subject-1.osexp,/Users/freyaportales/Desktop/OpenSesame Assignments,no,mono,no,18,no,white,no,no,768,legacy,65,65,/Users/freyaportales/Desktop/OpenSesame Assignments/quickrun.csv,legacy,Kafkaesque Koffka,3.2.8,0,h,NA,caps lock,NA,NA,h,526,NA,2388691,NA,NA,526,2,legacy,1024,2,48000,-16,experiment,SSHSS,999,odd,2391377,NA,NA,NA,5452447,2666,NA,NA,5389961,2603,5331972,5453573,5453705,5454233,5453540,5453705,Flanker task,64,2976627,66,yes,1024
97.01492537,97.01492537,44434.47761,44434.47761,black,legacy,legacy,legacy,0,incongruent,uniform,1,undefined,1,s,0,0,0,0,66,0,0,0,66,0,66,66,66,66,66,66,Wed Sep 25 20:35:40 2019,1500,The main experiment item,yes,fp-subject-1.osexp,/Users/freyaportales/Desktop/OpenSesame Assignments,no,mono,no,18,no,white,no,no,768,legacy,66,66,/Users/freyaportales/Desktop/OpenSesame Assignments/quickrun.csv,legacy,Kafkaesque Koffka,3.2.8,0,s,NA,caps lock,NA,NA,s,483,NA,2388691,NA,NA,483,2,legacy,1024,2,48000,-16,experiment,HHSHH,999,odd,2391377,NA,NA,NA,5454269,2666,NA,NA,5389961,2603,5331972,5455386,5455520,5456005,5455353,5455519,Flanker task,65,2977110,67,yes,1024
97.05882353,97.05882353,43790.05882,43790.05882,black,legacy,legacy,legacy,0,congruent,uniform,1,undefined,1,s,0,0,0,0,67,0,0,0,67,0,67,67,67,67,67,67,Wed Sep 25 20:35:40 2019,1500,The main experiment item,yes,fp-subject-1.osexp,/Users/freyaportales/Desktop/OpenSesame Assignments,no,mono,no,18,no,white,no,no,768,legacy,67,67,/Users/freyaportales/Desktop/OpenSesame Assignments/quickrun.csv,legacy,Kafkaesque Koffka,3.2.8,0,s,NA,caps lock,NA,NA,s,614,NA,2388691,NA,NA,614,2,legacy,1024,2,48000,-16,experiment,SSSSS,999,odd,2391377,NA,NA,NA,5456043,2666,NA,NA,5389961,2603,5331972,5457161,5457296,5457912,5457128,5457295,Flanker task,66,2977724,68,yes,1024
97.10144928,97.10144928,43163.04348,43163.04348,black,legacy,legacy,legacy,0,incongruent,uniform,1,undefined,1,h,0,0,0,0,68,0,0,0,68,0,68,68,68,68,68,68,Wed Sep 25 20:35:40 2019,1500,The main experiment item,yes,fp-subject-1.osexp,/Users/freyaportales/Desktop/OpenSesame Assignments,no,mono,no,18,no,white,no,no,768,legacy,68,68,/Users/freyaportales/Desktop/OpenSesame Assignments/quickrun.csv,legacy,Kafkaesque Koffka,3.2.8,0,h,NA,caps lock,NA,NA,h,526,NA,2388691,NA,NA,526,2,legacy,1024,2,48000,-16,experiment,SSHSS,999,odd,2391377,NA,NA,NA,5457948,2666,NA,NA,5389961,2603,5331972,5459071,5459205,5459733,5459038,5459205,Flanker task,67,2978250,69,yes,1024
97.14285714,97.14285714,42556.72857,42556.72857,black,legacy,legacy,legacy,0,incongruent,uniform,1,undefined,1,s,0,0,0,0,69,0,0,0,69,0,69,69,69,69,69,69,Wed Sep 25 20:35:40 2019,1500,The main experiment item,yes,fp-subject-1.osexp,/Users/freyaportales/Desktop/OpenSesame Assignments,no,mono,no,18,no,white,no,no,768,legacy,69,69,/Users/freyaportales/Desktop/OpenSesame Assignments/quickrun.csv,legacy,Kafkaesque Koffka,3.2.8,0,s,NA,caps lock,NA,NA,s,721,NA,2388691,NA,NA,721,2,legacy,1024,2,48000,-16,experiment,HHSHH,999,odd,2391377,NA,NA,NA,5459768,2666,NA,NA,5389961,2603,5331972,5460885,5461018,5461741,5460852,5461018,Flanker task,68,2978971,70,yes,1024
97.18309859,97.18309859,41967.01408,41967.01408,black,legacy,legacy,legacy,0,incongruent,uniform,1,undefined,1,h,0,0,0,0,70,0,0,0,70,0,70,70,70,70,70,70,Wed Sep 25 20:35:40 2019,1500,The main experiment item,yes,fp-subject-1.osexp,/Users/freyaportales/Desktop/OpenSesame Assignments,no,mono,no,18,no,white,no,no,768,legacy,70,70,/Users/freyaportales/Desktop/OpenSesame Assignments/quickrun.csv,legacy,Kafkaesque Koffka,3.2.8,0,h,NA,caps lock,NA,NA,h,687,NA,2388691,NA,NA,687,2,legacy,1024,2,48000,-16,experiment,SSHSS,999,odd,2391377,NA,NA,NA,5461778,2666,NA,NA,5389961,2603,5331972,5462894,5463026,5463715,5462862,5463026,Flanker task,69,2979658,71,yes,1024
97.22222222,97.22222222,41391.95833,41391.95833,black,legacy,legacy,legacy,0,congruent,uniform,1,undefined,1,s,0,0,0,0,71,0,0,0,71,0,71,71,71,71,71,71,Wed Sep 25 20:35:40 2019,1500,The main experiment item,yes,fp-subject-1.osexp,/Users/freyaportales/Desktop/OpenSesame Assignments,no,mono,no,18,no,white,no,no,768,legacy,71,71,/Users/freyaportales/Desktop/OpenSesame Assignments/quickrun.csv,legacy,Kafkaesque Koffka,3.2.8,0,s,NA,caps lock,NA,NA,s,563,NA,2388691,NA,NA,563,2,legacy,1024,2,48000,-16,experiment,SSSSS,999,odd,2391377,NA,NA,NA,5463750,2666,NA,NA,5389961,2603,5331972,5464878,5465011,5465576,5464845,5465011,Flanker task,70,2980221,72,yes,1024
97.26027397,97.26027397,40831.16438,40831.16438,black,legacy,legacy,legacy,0,congruent,uniform,1,undefined,1,h,0,0,0,0,72,0,0,0,72,0,72,72,72,72,72,72,Wed Sep 25 20:35:40 2019,1500,The main experiment item,yes,fp-subject-1.osexp,/Users/freyaportales/Desktop/OpenSesame Assignments,no,mono,no,18,no,white,no,no,768,legacy,72,72,/Users/freyaportales/Desktop/OpenSesame Assignments/quickrun.csv,legacy,Kafkaesque Koffka,3.2.8,0,h,NA,caps lock,NA,NA,h,454,NA,2388691,NA,NA,454,2,legacy,1024,2,48000,-16,experiment,HHHHH,999,odd,2391377,NA,NA,NA,5465613,2666,NA,NA,5389961,2603,5331972,5466730,5466863,5467319,5466697,5466863,Flanker task,71,2980675,73,yes,1024
97.2972973,97.2972973,40285.66216,40285.66216,black,legacy,legacy,legacy,0,congruent,uniform,1,undefined,1,h,0,0,0,0,73,0,0,0,73,0,73,73,73,73,73,73,Wed Sep 25 20:35:40 2019,1500,The main experiment item,yes,fp-subject-1.osexp,/Users/freyaportales/Desktop/OpenSesame Assignments,no,mono,no,18,no,white,no,no,768,legacy,73,73,/Users/freyaportales/Desktop/OpenSesame Assignments/quickrun.csv,legacy,Kafkaesque Koffka,3.2.8,0,h,NA,caps lock,NA,NA,h,464,NA,2388691,NA,NA,464,2,legacy,1024,2,48000,-16,experiment,HHHHH,999,odd,2391377,NA,NA,NA,5467359,2666,NA,NA,5389961,2603,5331972,5468482,5468615,5469082,5468448,5468614,Flanker task,72,2981139,74,yes,1024
97.33333333,97.33333333,39755.84,39755.84,black,legacy,legacy,legacy,0,incongruent,uniform,1,undefined,1,h,0,0,0,0,74,0,0,0,74,0,74,74,74,74,74,74,Wed Sep 25 20:35:40 2019,1500,The main experiment item,yes,fp-subject-1.osexp,/Users/freyaportales/Desktop/OpenSesame Assignments,no,mono,no,18,no,white,no,no,768,legacy,74,74,/Users/freyaportales/Desktop/OpenSesame Assignments/quickrun.csv,legacy,Kafkaesque Koffka,3.2.8,0,h,NA,caps lock,NA,NA,h,549,NA,2388691,NA,NA,549,2,legacy,1024,2,48000,-16,experiment,SSHSS,999,odd,2391377,NA,NA,NA,5469120,2666,NA,NA,5389961,2603,5331972,5470245,5470379,5470931,5470212,5470379,Flanker task,73,2981688,75,yes,1024
96.05263158,96.05263158,39255.75,39255.75,black,legacy,legacy,legacy,0,congruent,uniform,0,undefined,0,s,0,0,0,0,75,0,0,0,75,0,75,75,75,75,75,75,Wed Sep 25 20:35:40 2019,1500,The main experiment item,yes,fp-subject-1.osexp,/Users/freyaportales/Desktop/OpenSesame Assignments,no,mono,no,18,no,white,no,no,768,legacy,75,75,/Users/freyaportales/Desktop/OpenSesame Assignments/quickrun.csv,legacy,Kafkaesque Koffka,3.2.8,0,h,NA,caps lock,NA,NA,h,1749,NA,2388691,NA,NA,1749,2,legacy,1024,2,48000,-16,experiment,SSSSS,999,odd,2391377,NA,NA,NA,5470966,2666,NA,NA,5389961,2603,5331972,5472081,5472214,5473968,5472048,5472214,Flanker task,73,2983437,76,yes,1024
96.1038961,96.1038961,38752.53247,38752.53247,black,legacy,legacy,legacy,0,congruent,uniform,1,undefined,1,h,0,0,0,0,76,0,0,0,76,0,76,76,76,76,76,76,Wed Sep 25 20:35:40 2019,1500,The main experiment item,yes,fp-subject-1.osexp,/Users/freyaportales/Desktop/OpenSesame Assignments,no,mono,no,18,no,white,no,no,768,legacy,76,76,/Users/freyaportales/Desktop/OpenSesame Assignments/quickrun.csv,legacy,Kafkaesque Koffka,3.2.8,0,h,NA,caps lock,NA,NA,h,508,NA,2388691,NA,NA,508,2,legacy,1024,2,48000,-16,experiment,HHHHH,999,odd,2391377,NA,NA,NA,5475069,2666,NA,NA,5474003,2603,5474537,5476186,5476319,5476830,5476153,5476319,Flanker task,74,2983945,77,yes,1024
96.15384615,96.15384615,38262.42308,38262.42308,black,legacy,legacy,legacy,0,incongruent,uniform,1,undefined,1,s,0,0,0,0,77,0,0,0,77,0,77,77,77,77,77,77,Wed Sep 25 20:35:40 2019,1500,The main experiment item,yes,fp-subject-1.osexp,/Users/freyaportales/Desktop/OpenSesame Assignments,no,mono,no,18,no,white,no,no,768,legacy,77,77,/Users/freyaportales/Desktop/OpenSesame Assignments/quickrun.csv,legacy,Kafkaesque Koffka,3.2.8,0,s,NA,caps lock,NA,NA,s,524,NA,2388691,NA,NA,524,2,legacy,1024,2,48000,-16,experiment,HHSHH,999,odd,2391377,NA,NA,NA,5476866,2666,NA,NA,5474003,2603,5474537,5477987,5478119,5478646,5477952,5478119,Flanker task,75,2984469,78,yes,1024
96.20253165,96.20253165,37784.17722,37784.17722,black,legacy,legacy,legacy,0,congruent,uniform,1,undefined,1,s,0,0,0,0,78,0,0,0,78,0,78,78,78,78,78,78,Wed Sep 25 20:35:40 2019,1500,The main experiment item,yes,fp-subject-1.osexp,/Users/freyaportales/Desktop/OpenSesame Assignments,no,mono,no,18,no,white,no,no,768,legacy,78,78,/Users/freyaportales/Desktop/OpenSesame Assignments/quickrun.csv,legacy,Kafkaesque Koffka,3.2.8,0,s,NA,caps lock,NA,NA,s,481,NA,2388691,NA,NA,481,2,legacy,1024,2,48000,-16,experiment,SSSSS,999,odd,2391377,NA,NA,NA,5478681,2666,NA,NA,5474003,2603,5474537,5479798,5479932,5480416,5479765,5479931,Flanker task,76,2984950,79,yes,1024
96.25,96.25,37317.3875,37317.3875,black,legacy,legacy,legacy,0,congruent,uniform,1,undefined,1,s,0,0,0,0,79,0,0,0,79,0,79,79,79,79,79,79,Wed Sep 25 20:35:40 2019,1500,The main experiment item,yes,fp-subject-1.osexp,/Users/freyaportales/Desktop/OpenSesame Assignments,no,mono,no,18,no,white,no,no,768,legacy,79,79,/Users/freyaportales/Desktop/OpenSesame Assignments/quickrun.csv,legacy,Kafkaesque Koffka,3.2.8,0,s,NA,caps lock,NA,NA,s,441,NA,2388691,NA,NA,441,2,legacy,1024,2,48000,-16,experiment,SSSSS,999,odd,2391377,NA,NA,NA,5480452,2666,NA,NA,5474003,2603,5474537,5481571,5481703,5482146,5481538,5481703,Flanker task,77,2985391,80,yes,1024
96.2962963,96.2962963,37155.19753,37155.19753,black,legacy,legacy,legacy,0,congruent,uniform,1,undefined,1,h,0,0,0,0,80,0,0,0,80,0,80,80,80,80,80,80,Wed Sep 25 20:35:40 2019,600,The main experiment item,yes,fp-subject-1.osexp,/Users/freyaportales/Desktop/OpenSesame Assignments,no,mono,no,18,no,white,no,no,768,legacy,0,79,/Users/freyaportales/Desktop/OpenSesame Assignments/quickrun.csv,legacy,Kafkaesque Koffka,3.2.8,0,h,NA,caps lock,caps lock,NA,h,24180,NA,2388691,276682,NA,24180,2,legacy,1024,2,48000,-16,experiment,HHHHH,999,odd,2391377,5759927,NA,NA,5482182,2666,5483240,NA,5474003,2603,5474537,5760052,5760186,5784369,5760018,5760186,Flanker task,78,3009571,81,yes,1024
96.34146341,96.34146341,36707.91463,36707.91463,black,legacy,legacy,legacy,0,congruent,uniform,1,undefined,1,s,0,0,0,0,81,0,0,0,81,0,81,81,81,81,81,81,Wed Sep 25 20:35:40 2019,600,The main experiment item,yes,fp-subject-1.osexp,/Users/freyaportales/Desktop/OpenSesame Assignments,no,mono,no,18,no,white,no,no,768,legacy,1,79,/Users/freyaportales/Desktop/OpenSesame Assignments/quickrun.csv,legacy,Kafkaesque Koffka,3.2.8,0,s,NA,caps lock,caps lock,NA,s,478,NA,2388691,276682,NA,478,2,legacy,1024,2,48000,-16,experiment,SSSSS,999,odd,2391377,5759927,NA,NA,5784939,2666,5483240,NA,5474003,2603,5784407,5786056,5786189,5786669,5786023,5786189,Flanker task,79,3010049,82,yes,1024
96.38554217,96.38554217,36271.31325,36271.31325,black,legacy,legacy,legacy,0,incongruent,uniform,1,undefined,1,h,0,0,0,0,82,0,0,0,82,0,82,82,82,82,82,82,Wed Sep 25 20:35:40 2019,600,The main experiment item,yes,fp-subject-1.osexp,/Users/freyaportales/Desktop/OpenSesame Assignments,no,mono,no,18,no,white,no,no,768,legacy,2,79,/Users/freyaportales/Desktop/OpenSesame Assignments/quickrun.csv,legacy,Kafkaesque Koffka,3.2.8,0,h,NA,caps lock,caps lock,NA,h,470,NA,2388691,276682,NA,470,2,legacy,1024,2,48000,-16,experiment,SSHSS,999,odd,2391377,5759927,NA,NA,5786711,2666,5483240,NA,5474003,2603,5784407,5787838,5787970,5788442,5787801,5787970,Flanker task,80,3010519,83,yes,1024
96.42857143,96.42857143,35844.13095,35844.13095,black,legacy,legacy,legacy,0,congruent,uniform,1,undefined,1,s,0,0,0,0,83,0,0,0,83,0,83,83,83,83,83,83,Wed Sep 25 20:35:40 2019,600,The main experiment item,yes,fp-subject-1.osexp,/Users/freyaportales/Desktop/OpenSesame Assignments,no,mono,no,18,no,white,no,no,768,legacy,3,79,/Users/freyaportales/Desktop/OpenSesame Assignments/quickrun.csv,legacy,Kafkaesque Koffka,3.2.8,0,s,NA,caps lock,caps lock,NA,s,388,NA,2388691,276682,NA,388,2,legacy,1024,2,48000,-16,experiment,SSSSS,999,odd,2391377,5759927,NA,NA,5788479,2666,5483240,NA,5474003,2603,5784407,5789606,5789738,5790128,5789563,5789738,Flanker task,81,3010907,84,yes,1024
96.47058824,96.47058824,35429.36471,35429.36471,black,legacy,legacy,legacy,0,incongruent,uniform,1,undefined,1,h,0,0,0,0,84,0,0,0,84,0,84,84,84,84,84,84,Wed Sep 25 20:35:40 2019,600,The main experiment item,yes,fp-subject-1.osexp,/Users/freyaportales/Desktop/OpenSesame Assignments,no,mono,no,18,no,white,no,no,768,legacy,4,79,/Users/freyaportales/Desktop/OpenSesame Assignments/quickrun.csv,legacy,Kafkaesque Koffka,3.2.8,0,h,NA,caps lock,caps lock,NA,h,589,NA,2388691,276682,NA,589,2,legacy,1024,2,48000,-16,experiment,SSHSS,999,odd,2391377,5759927,NA,NA,5790164,2666,5483240,NA,5474003,2603,5784407,5791342,5791480,5792071,5791294,5791479,Flanker task,82,3011496,85,yes,1024
96.51162791,96.51162791,35022.32558,35022.32558,black,legacy,legacy,legacy,0,congruent,uniform,1,undefined,1,s,0,0,0,0,85,0,0,0,85,0,85,85,85,85,85,85,Wed Sep 25 20:35:40 2019,600,The main experiment item,yes,fp-subject-1.osexp,/Users/freyaportales/Desktop/OpenSesame Assignments,no,mono,no,18,no,white,no,no,768,legacy,5,79,/Users/freyaportales/Desktop/OpenSesame Assignments/quickrun.csv,legacy,Kafkaesque Koffka,3.2.8,0,s,NA,caps lock,caps lock,NA,s,424,NA,2388691,276682,NA,424,2,legacy,1024,2,48000,-16,experiment,SSSSS,999,odd,2391377,5759927,NA,NA,5792119,2666,5483240,NA,5474003,2603,5784407,5793235,5793367,5793793,5793202,5793367,Flanker task,83,3011920,86,yes,1024
96.55172414,96.55172414,34625.4023,34625.4023,black,legacy,legacy,legacy,0,incongruent,uniform,1,undefined,1,h,0,0,0,0,86,0,0,0,86,0,86,86,86,86,86,86,Wed Sep 25 20:35:40 2019,600,The main experiment item,yes,fp-subject-1.osexp,/Users/freyaportales/Desktop/OpenSesame Assignments,no,mono,no,18,no,white,no,no,768,legacy,6,79,/Users/freyaportales/Desktop/OpenSesame Assignments/quickrun.csv,legacy,Kafkaesque Koffka,3.2.8,0,h,NA,caps lock,caps lock,NA,h,490,NA,2388691,276682,NA,490,2,legacy,1024,2,48000,-16,experiment,SSHSS,999,odd,2391377,5759927,NA,NA,5793828,2666,5483240,NA,5474003,2603,5784407,5794944,5795076,5795568,5794911,5795076,Flanker task,84,3012410,87,yes,1024
96.59090909,96.59090909,34238.01136,34238.01136,black,legacy,legacy,legacy,0,incongruent,uniform,1,undefined,1,s,0,0,0,0,87,0,0,0,87,0,87,87,87,87,87,87,Wed Sep 25 20:35:40 2019,600,The main experiment item,yes,fp-subject-1.osexp,/Users/freyaportales/Desktop/OpenSesame Assignments,no,mono,no,18,no,white,no,no,768,legacy,7,79,/Users/freyaportales/Desktop/OpenSesame Assignments/quickrun.csv,legacy,Kafkaesque Koffka,3.2.8,0,s,NA,caps lock,caps lock,NA,s,535,NA,2388691,276682,NA,535,2,legacy,1024,2,48000,-16,experiment,HHSHH,999,odd,2391377,5759927,NA,NA,5795605,2666,5483240,NA,5474003,2603,5784407,5796729,5796862,5797399,5796697,5796862,Flanker task,85,3012945,88,yes,1024
96.62921348,96.62921348,33861.01124,33861.01124,black,legacy,legacy,legacy,0,incongruent,uniform,1,undefined,1,s,0,0,0,0,88,0,0,0,88,0,88,88,88,88,88,88,Wed Sep 25 20:35:40 2019,600,The main experiment item,yes,fp-subject-1.osexp,/Users/freyaportales/Desktop/OpenSesame Assignments,no,mono,no,18,no,white,no,no,768,legacy,8,79,/Users/freyaportales/Desktop/OpenSesame Assignments/quickrun.csv,legacy,Kafkaesque Koffka,3.2.8,0,s,NA,caps lock,caps lock,NA,s,685,NA,2388691,276682,NA,685,2,legacy,1024,2,48000,-16,experiment,HHSHH,999,odd,2391377,5759927,NA,NA,5797436,2666,5483240,NA,5474003,2603,5784407,5798554,5798688,5799375,5798521,5798687,Flanker task,86,3013630,89,yes,1024
96.66666667,96.66666667,33489.64444,33489.64444,black,legacy,legacy,legacy,0,congruent,uniform,1,undefined,1,h,0,0,0,0,89,0,0,0,89,0,89,89,89,89,89,89,Wed Sep 25 20:35:40 2019,600,The main experiment item,yes,fp-subject-1.osexp,/Users/freyaportales/Desktop/OpenSesame Assignments,no,mono,no,18,no,white,no,no,768,legacy,9,79,/Users/freyaportales/Desktop/OpenSesame Assignments/quickrun.csv,legacy,Kafkaesque Koffka,3.2.8,0,h,NA,caps lock,caps lock,NA,h,438,NA,2388691,276682,NA,438,2,legacy,1024,2,48000,-16,experiment,HHHHH,999,odd,2391377,5759927,NA,NA,5799944,2666,5483240,NA,5474003,2603,5799410,5801059,5801192,5801632,5801026,5801192,Flanker task,87,3014068,90,yes,1024
95.6043956,95.6043956,33126.3956,33126.3956,black,legacy,legacy,legacy,0,incongruent,uniform,0,undefined,0,h,0,0,0,0,90,0,0,0,90,0,90,90,90,90,90,90,Wed Sep 25 20:35:40 2019,600,The main experiment item,yes,fp-subject-1.osexp,/Users/freyaportales/Desktop/OpenSesame Assignments,no,mono,no,18,no,white,no,no,768,legacy,10,79,/Users/freyaportales/Desktop/OpenSesame Assignments/quickrun.csv,legacy,Kafkaesque Koffka,3.2.8,0,s,NA,caps lock,caps lock,NA,s,434,NA,2388691,276682,NA,434,2,legacy,1024,2,48000,-16,experiment,SSHSS,999,odd,2391377,5759927,NA,NA,5801667,2666,5483240,NA,5474003,2603,5799410,5802788,5802920,5803356,5802754,5802920,Flanker task,87,3014502,91,yes,1024
95.65217391,95.65217391,32772.44565,32772.44565,black,legacy,legacy,legacy,0,incongruent,uniform,1,undefined,1,s,0,0,0,0,91,0,0,0,91,0,91,91,91,91,91,91,Wed Sep 25 20:35:40 2019,600,The main experiment item,yes,fp-subject-1.osexp,/Users/freyaportales/Desktop/OpenSesame Assignments,no,mono,no,18,no,white,no,no,768,legacy,11,79,/Users/freyaportales/Desktop/OpenSesame Assignments/quickrun.csv,legacy,Kafkaesque Koffka,3.2.8,0,s,NA,caps lock,caps lock,NA,s,563,NA,2388691,276682,NA,563,2,legacy,1024,2,48000,-16,experiment,HHSHH,999,odd,2391377,5759927,NA,NA,5803925,2666,5483240,NA,5803392,2603,5799410,5805041,5805173,5805738,5805009,5805173,Flanker task,88,3015065,92,yes,1024
95.69892473,95.69892473,32426.13978,32426.13978,black,legacy,legacy,legacy,0,incongruent,uniform,1,undefined,1,h,0,0,0,0,92,0,0,0,92,0,92,92,92,92,92,92,Wed Sep 25 20:35:40 2019,600,The main experiment item,yes,fp-subject-1.osexp,/Users/freyaportales/Desktop/OpenSesame Assignments,no,mono,no,18,no,white,no,no,768,legacy,12,79,/Users/freyaportales/Desktop/OpenSesame Assignments/quickrun.csv,legacy,Kafkaesque Koffka,3.2.8,0,h,NA,caps lock,caps lock,NA,h,566,NA,2388691,276682,NA,566,2,legacy,1024,2,48000,-16,experiment,SSHSS,999,odd,2391377,5759927,NA,NA,5805773,2666,5483240,NA,5803392,2603,5799410,5806898,5807029,5807597,5806865,5807029,Flanker task,89,3015631,93,yes,1024
95.74468085,95.74468085,32085.61702,32085.61702,black,legacy,legacy,legacy,0,incongruent,uniform,1,undefined,1,h,0,0,0,0,93,0,0,0,93,0,93,93,93,93,93,93,Wed Sep 25 20:35:40 2019,600,The main experiment item,yes,fp-subject-1.osexp,/Users/freyaportales/Desktop/OpenSesame Assignments,no,mono,no,18,no,white,no,no,768,legacy,13,79,/Users/freyaportales/Desktop/OpenSesame Assignments/quickrun.csv,legacy,Kafkaesque Koffka,3.2.8,0,h,NA,caps lock,caps lock,NA,h,417,NA,2388691,276682,NA,417,2,legacy,1024,2,48000,-16,experiment,SSHSS,999,odd,2391377,5759927,NA,NA,5807633,2666,5483240,NA,5803392,2603,5799410,5808749,5808882,5809302,5808716,5808882,Flanker task,90,3016048,94,yes,1024
95.78947368,95.78947368,31752.78947,31752.78947,black,legacy,legacy,legacy,0,incongruent,uniform,1,undefined,1,s,0,0,0,0,94,0,0,0,94,0,94,94,94,94,94,94,Wed Sep 25 20:35:40 2019,600,The main experiment item,yes,fp-subject-1.osexp,/Users/freyaportales/Desktop/OpenSesame Assignments,no,mono,no,18,no,white,no,no,768,legacy,14,79,/Users/freyaportales/Desktop/OpenSesame Assignments/quickrun.csv,legacy,Kafkaesque Koffka,3.2.8,0,s,NA,caps lock,caps lock,NA,s,467,NA,2388691,276682,NA,467,2,legacy,1024,2,48000,-16,experiment,HHSHH,999,odd,2391377,5759927,NA,NA,5809337,2666,5483240,NA,5803392,2603,5799410,5810457,5810589,5811058,5810424,5810589,Flanker task,91,3016515,95,yes,1024
95.83333333,95.83333333,31426.58333,31426.58333,black,legacy,legacy,legacy,0,congruent,uniform,1,undefined,1,h,0,0,0,0,95,0,0,0,95,0,95,95,95,95,95,95,Wed Sep 25 20:35:40 2019,600,The main experiment item,yes,fp-subject-1.osexp,/Users/freyaportales/Desktop/OpenSesame Assignments,no,mono,no,18,no,white,no,no,768,legacy,15,79,/Users/freyaportales/Desktop/OpenSesame Assignments/quickrun.csv,legacy,Kafkaesque Koffka,3.2.8,0,h,NA,caps lock,caps lock,NA,h,437,NA,2388691,276682,NA,437,2,legacy,1024,2,48000,-16,experiment,HHHHH,999,odd,2391377,5759927,NA,NA,5811094,2666,5483240,NA,5803392,2603,5799410,5812211,5812343,5812782,5812178,5812343,Flanker task,92,3016952,96,yes,1024
95.87628866,95.87628866,31107.20619,31107.20619,black,legacy,legacy,legacy,0,congruent,uniform,1,undefined,1,h,0,0,0,0,96,0,0,0,96,0,96,96,96,96,96,96,Wed Sep 25 20:35:40 2019,600,The main experiment item,yes,fp-subject-1.osexp,/Users/freyaportales/Desktop/OpenSesame Assignments,no,mono,no,18,no,white,no,no,768,legacy,16,79,/Users/freyaportales/Desktop/OpenSesame Assignments/quickrun.csv,legacy,Kafkaesque Koffka,3.2.8,0,h,NA,caps lock,caps lock,NA,h,447,NA,2388691,276682,NA,447,2,legacy,1024,2,48000,-16,experiment,HHHHH,999,odd,2391377,5759927,NA,NA,5812825,2666,5483240,NA,5803392,2603,5799410,5813942,5814074,5814523,5813910,5814074,Flanker task,93,3017399,97,yes,1024
95.91836735,95.91836735,30796.04082,30796.04082,black,legacy,legacy,legacy,0,incongruent,uniform,1,undefined,1,s,0,0,0,0,97,0,0,0,97,0,97,97,97,97,97,97,Wed Sep 25 20:35:40 2019,600,The main experiment item,yes,fp-subject-1.osexp,/Users/freyaportales/Desktop/OpenSesame Assignments,no,mono,no,18,no,white,no,no,768,legacy,17,79,/Users/freyaportales/Desktop/OpenSesame Assignments/quickrun.csv,legacy,Kafkaesque Koffka,3.2.8,0,s,NA,caps lock,caps lock,NA,s,613,NA,2388691,276682,NA,613,2,legacy,1024,2,48000,-16,experiment,HHSHH,999,odd,2391377,5759927,NA,NA,5814559,2666,5483240,NA,5803392,2603,5799410,5815675,5815808,5816423,5815643,5815808,Flanker task,94,3018012,98,yes,1024
95.95959596,95.95959596,30488.86869,30488.86869,black,legacy,legacy,legacy,0,congruent,uniform,1,undefined,1,s,0,0,0,0,98,0,0,0,98,0,98,98,98,98,98,98,Wed Sep 25 20:35:40 2019,600,The main experiment item,yes,fp-subject-1.osexp,/Users/freyaportales/Desktop/OpenSesame Assignments,no,mono,no,18,no,white,no,no,768,legacy,18,79,/Users/freyaportales/Desktop/OpenSesame Assignments/quickrun.csv,legacy,Kafkaesque Koffka,3.2.8,0,s,NA,caps lock,caps lock,NA,s,386,NA,2388691,276682,NA,386,2,legacy,1024,2,48000,-16,experiment,SSSSS,999,odd,2391377,5759927,NA,NA,5816998,2666,5483240,NA,5803392,2603,5816465,5818113,5818245,5818633,5818080,5818245,Flanker task,95,3018398,99,yes,1024
96,96,30188.75,30188.75,black,legacy,legacy,legacy,0,incongruent,uniform,1,undefined,1,h,0,0,0,0,99,0,0,0,99,0,99,99,99,99,99,99,Wed Sep 25 20:35:40 2019,600,The main experiment item,yes,fp-subject-1.osexp,/Users/freyaportales/Desktop/OpenSesame Assignments,no,mono,no,18,no,white,no,no,768,legacy,19,79,/Users/freyaportales/Desktop/OpenSesame Assignments/quickrun.csv,legacy,Kafkaesque Koffka,3.2.8,0,h,NA,caps lock,caps lock,NA,h,477,NA,2388691,276682,NA,477,2,legacy,1024,2,48000,-16,experiment,SSHSS,999,odd,2391377,5759927,NA,NA,5818670,2666,5483240,NA,5803392,2603,5816465,5819792,5819924,5820403,5819760,5819924,Flanker task,96,3018875,100,yes,1024
96.03960396,96.03960396,29893.74257,29893.74257,black,legacy,legacy,legacy,0,congruent,uniform,1,undefined,1,s,0,0,0,0,100,0,0,0,100,0,100,100,100,100,100,100,Wed Sep 25 20:35:40 2019,600,The main experiment item,yes,fp-subject-1.osexp,/Users/freyaportales/Desktop/OpenSesame Assignments,no,mono,no,18,no,white,no,no,768,legacy,20,79,/Users/freyaportales/Desktop/OpenSesame Assignments/quickrun.csv,legacy,Kafkaesque Koffka,3.2.8,0,s,NA,caps lock,caps lock,NA,s,393,NA,2388691,276682,NA,393,2,legacy,1024,2,48000,-16,experiment,SSSSS,999,odd,2391377,5759927,NA,NA,5820438,2666,5483240,NA,5803392,2603,5816465,5821555,5821688,5822086,5821522,5821688,Flanker task,97,3019268,101,yes,1024
96.07843137,96.07843137,29605.44118,29605.44118,black,legacy,legacy,legacy,0,incongruent,uniform,1,undefined,1,h,0,0,0,0,101,0,0,0,101,0,101,101,101,101,101,101,Wed Sep 25 20:35:40 2019,600,The main experiment item,yes,fp-subject-1.osexp,/Users/freyaportales/Desktop/OpenSesame Assignments,no,mono,no,18,no,white,no,no,768,legacy,21,79,/Users/freyaportales/Desktop/OpenSesame Assignments/quickrun.csv,legacy,Kafkaesque Koffka,3.2.8,0,h,NA,caps lock,caps lock,NA,h,487,NA,2388691,276682,NA,487,2,legacy,1024,2,48000,-16,experiment,SSHSS,999,odd,2391377,5759927,NA,NA,5822126,2666,5483240,NA,5803392,2603,5816465,5823281,5823419,5823908,5823238,5823419,Flanker task,98,3019755,102,yes,1024
96.11650485,96.11650485,29321.85437,29321.85437,black,legacy,legacy,legacy,0,congruent,uniform,1,undefined,1,h,0,0,0,0,102,0,0,0,102,0,102,102,102,102,102,102,Wed Sep 25 20:35:40 2019,600,The main experiment item,yes,fp-subject-1.osexp,/Users/freyaportales/Desktop/OpenSesame Assignments,no,mono,no,18,no,white,no,no,768,legacy,22,79,/Users/freyaportales/Desktop/OpenSesame Assignments/quickrun.csv,legacy,Kafkaesque Koffka,3.2.8,0,h,NA,caps lock,caps lock,NA,h,396,NA,2388691,276682,NA,396,2,legacy,1024,2,48000,-16,experiment,HHHHH,999,odd,2391377,5759927,NA,NA,5823943,2666,5483240,NA,5803392,2603,5816465,5825057,5825190,5825590,5825024,5825189,Flanker task,99,3020151,103,yes,1024
96.15384615,96.15384615,29043.56731,29043.56731,black,legacy,legacy,legacy,0,congruent,uniform,1,undefined,1,h,0,0,0,0,103,0,0,0,103,0,103,103,103,103,103,103,Wed Sep 25 20:35:40 2019,600,The main experiment item,yes,fp-subject-1.osexp,/Users/freyaportales/Desktop/OpenSesame Assignments,no,mono,no,18,no,white,no,no,768,legacy,23,79,/Users/freyaportales/Desktop/OpenSesame Assignments/quickrun.csv,legacy,Kafkaesque Koffka,3.2.8,0,h,NA,caps lock,caps lock,NA,h,380,NA,2388691,276682,NA,380,2,legacy,1024,2,48000,-16,experiment,HHHHH,999,odd,2391377,5759927,NA,NA,5825627,2666,5483240,NA,5803392,2603,5816465,5826747,5826880,5827262,5826715,5826880,Flanker task,100,3020531,104,yes,1024
96.19047619,96.19047619,28770.51429,28770.51429,black,legacy,legacy,legacy,0,congruent,uniform,1,undefined,1,h,0,0,0,0,104,0,0,0,104,0,104,104,104,104,104,104,Wed Sep 25 20:35:40 2019,600,The main experiment item,yes,fp-subject-1.osexp,/Users/freyaportales/Desktop/OpenSesame Assignments,no,mono,no,18,no,white,no,no,768,legacy,24,79,/Users/freyaportales/Desktop/OpenSesame Assignments/quickrun.csv,legacy,Kafkaesque Koffka,3.2.8,0,h,NA,caps lock,caps lock,NA,h,373,NA,2388691,276682,NA,373,2,legacy,1024,2,48000,-16,experiment,HHHHH,999,odd,2391377,5759927,NA,NA,5827298,2666,5483240,NA,5803392,2603,5816465,5828415,5828547,5828923,5828382,5828547,Flanker task,101,3020904,105,yes,1024
96.22641509,96.22641509,28502.89623,28502.89623,black,legacy,legacy,legacy,0,congruent,uniform,1,undefined,1,h,0,0,0,0,105,0,0,0,105,0,105,105,105,105,105,105,Wed Sep 25 20:35:40 2019,600,The main experiment item,yes,fp-subject-1.osexp,/Users/freyaportales/Desktop/OpenSesame Assignments,no,mono,no,18,no,white,no,no,768,legacy,25,79,/Users/freyaportales/Desktop/OpenSesame Assignments/quickrun.csv,legacy,Kafkaesque Koffka,3.2.8,0,h,NA,caps lock,caps lock,NA,h,403,NA,2388691,276682,NA,403,2,legacy,1024,2,48000,-16,experiment,HHHHH,999,odd,2391377,5759927,NA,NA,5828961,2666,5483240,NA,5803392,2603,5816465,5830087,5830220,5830626,5830055,5830220,Flanker task,102,3021307,106,yes,1024
96.26168224,96.26168224,28240.88785,28240.88785,black,legacy,legacy,legacy,0,incongruent,uniform,1,undefined,1,h,0,0,0,0,106,0,0,0,106,0,106,106,106,106,106,106,Wed Sep 25 20:35:40 2019,600,The main experiment item,yes,fp-subject-1.osexp,/Users/freyaportales/Desktop/OpenSesame Assignments,no,mono,no,18,no,white,no,no,768,legacy,26,79,/Users/freyaportales/Desktop/OpenSesame Assignments/quickrun.csv,legacy,Kafkaesque Koffka,3.2.8,0,h,NA,caps lock,caps lock,NA,h,468,NA,2388691,276682,NA,468,2,legacy,1024,2,48000,-16,experiment,SSHSS,999,odd,2391377,5759927,NA,NA,5830661,2666,5483240,NA,5803392,2603,5816465,5831778,5831911,5832382,5831745,5831910,Flanker task,103,3021775,107,yes,1024
96.2962963,96.2962963,27983.37963,27983.37963,black,legacy,legacy,legacy,0,incongruent,uniform,1,undefined,1,h,0,0,0,0,107,0,0,0,107,0,107,107,107,107,107,107,Wed Sep 25 20:35:40 2019,600,The main experiment item,yes,fp-subject-1.osexp,/Users/freyaportales/Desktop/OpenSesame Assignments,no,mono,no,18,no,white,no,no,768,legacy,27,79,/Users/freyaportales/Desktop/OpenSesame Assignments/quickrun.csv,legacy,Kafkaesque Koffka,3.2.8,0,h,NA,caps lock,caps lock,NA,h,430,NA,2388691,276682,NA,430,2,legacy,1024,2,48000,-16,experiment,SSHSS,999,odd,2391377,5759927,NA,NA,5832428,2666,5483240,NA,5803392,2603,5816465,5833545,5833678,5834110,5833513,5833678,Flanker task,104,3022205,108,yes,1024
96.33027523,96.33027523,27730.38532,27730.38532,black,legacy,legacy,legacy,0,congruent,uniform,1,undefined,1,h,0,0,0,0,108,0,0,0,108,0,108,108,108,108,108,108,Wed Sep 25 20:35:40 2019,600,The main experiment item,yes,fp-subject-1.osexp,/Users/freyaportales/Desktop/OpenSesame Assignments,no,mono,no,18,no,white,no,no,768,legacy,28,79,/Users/freyaportales/Desktop/OpenSesame Assignments/quickrun.csv,legacy,Kafkaesque Koffka,3.2.8,0,h,NA,caps lock,caps lock,NA,h,407,NA,2388691,276682,NA,407,2,legacy,1024,2,48000,-16,experiment,HHHHH,999,odd,2391377,5759927,NA,NA,5834145,2666,5483240,NA,5803392,2603,5816465,5835261,5835393,5835806,5835228,5835393,Flanker task,105,3022612,109,yes,1024
96.36363636,96.36363636,27481.83636,27481.83636,black,legacy,legacy,legacy,0,congruent,uniform,1,undefined,1,s,0,0,0,0,109,0,0,0,109,0,109,109,109,109,109,109,Wed Sep 25 20:35:40 2019,600,The main experiment item,yes,fp-subject-1.osexp,/Users/freyaportales/Desktop/OpenSesame Assignments,no,mono,no,18,no,white,no,no,768,legacy,29,79,/Users/freyaportales/Desktop/OpenSesame Assignments/quickrun.csv,legacy,Kafkaesque Koffka,3.2.8,0,s,NA,caps lock,caps lock,NA,s,390,NA,2388691,276682,NA,390,2,legacy,1024,2,48000,-16,experiment,SSSSS,999,odd,2391377,5759927,NA,NA,5835843,2666,5483240,NA,5803392,2603,5816465,5836963,5837096,5837488,5836930,5837096,Flanker task,106,3023002,110,yes,1024
96.3963964,96.3963964,27237.92793,27237.92793,black,legacy,legacy,legacy,0,congruent,uniform,1,undefined,1,h,0,0,0,0,110,0,0,0,110,0,110,110,110,110,110,110,Wed Sep 25 20:35:40 2019,600,The main experiment item,yes,fp-subject-1.osexp,/Users/freyaportales/Desktop/OpenSesame Assignments,no,mono,no,18,no,white,no,no,768,legacy,30,79,/Users/freyaportales/Desktop/OpenSesame Assignments/quickrun.csv,legacy,Kafkaesque Koffka,3.2.8,0,h,NA,caps lock,caps lock,NA,h,408,NA,2388691,276682,NA,408,2,legacy,1024,2,48000,-16,experiment,HHHHH,999,odd,2391377,5759927,NA,NA,5837523,2666,5483240,NA,5803392,2603,5816465,5838640,5838773,5839186,5838607,5838772,Flanker task,107,3023410,111,yes,1024
96.42857143,96.42857143,26999.96429,26999.96429,black,legacy,legacy,legacy,0,incongruent,uniform,1,undefined,1,s,0,0,0,0,111,0,0,0,111,0,111,111,111,111,111,111,Wed Sep 25 20:35:40 2019,600,The main experiment item,yes,fp-subject-1.osexp,/Users/freyaportales/Desktop/OpenSesame Assignments,no,mono,no,18,no,white,no,no,768,legacy,31,79,/Users/freyaportales/Desktop/OpenSesame Assignments/quickrun.csv,legacy,Kafkaesque Koffka,3.2.8,0,s,NA,caps lock,caps lock,NA,s,586,NA,2388691,276682,NA,586,2,legacy,1024,2,48000,-16,experiment,HHSHH,999,odd,2391377,5759927,NA,NA,5839232,2666,5483240,NA,5803392,2603,5816465,5840356,5840491,5841080,5840324,5840491,Flanker task,108,3023996,112,yes,1024
96.46017699,96.46017699,26765.41593,26765.41593,black,legacy,legacy,legacy,0,incongruent,uniform,1,undefined,1,s,0,0,0,0,112,0,0,0,112,0,112,112,112,112,112,112,Wed Sep 25 20:35:40 2019,600,The main experiment item,yes,fp-subject-1.osexp,/Users/freyaportales/Desktop/OpenSesame Assignments,no,mono,no,18,no,white,no,no,768,legacy,32,79,/Users/freyaportales/Desktop/OpenSesame Assignments/quickrun.csv,legacy,Kafkaesque Koffka,3.2.8,0,s,NA,caps lock,caps lock,NA,s,496,NA,2388691,276682,NA,496,2,legacy,1024,2,48000,-16,experiment,HHSHH,999,odd,2391377,5759927,NA,NA,5841115,2666,5483240,NA,5803392,2603,5816465,5842230,5842362,5842861,5842198,5842362,Flanker task,109,3024492,113,yes,1024
96.49122807,96.49122807,26534.94737,26534.94737,black,legacy,legacy,legacy,0,congruent,uniform,1,undefined,1,s,0,0,0,0,113,0,0,0,113,0,113,113,113,113,113,113,Wed Sep 25 20:35:40 2019,600,The main experiment item,yes,fp-subject-1.osexp,/Users/freyaportales/Desktop/OpenSesame Assignments,no,mono,no,18,no,white,no,no,768,legacy,33,79,/Users/freyaportales/Desktop/OpenSesame Assignments/quickrun.csv,legacy,Kafkaesque Koffka,3.2.8,0,s,NA,caps lock,caps lock,NA,s,492,NA,2388691,276682,NA,492,2,legacy,1024,2,48000,-16,experiment,SSSSS,999,odd,2391377,5759927,NA,NA,5842896,2666,5483240,NA,5803392,2603,5816465,5844011,5844143,5844638,5843979,5844143,Flanker task,110,3024984,114,yes,1024
96.52173913,96.52173913,26307.81739,26307.81739,black,legacy,legacy,legacy,0,congruent,uniform,1,undefined,1,h,0,0,0,0,114,0,0,0,114,0,114,114,114,114,114,114,Wed Sep 25 20:35:40 2019,600,The main experiment item,yes,fp-subject-1.osexp,/Users/freyaportales/Desktop/OpenSesame Assignments,no,mono,no,18,no,white,no,no,768,legacy,34,79,/Users/freyaportales/Desktop/OpenSesame Assignments/quickrun.csv,legacy,Kafkaesque Koffka,3.2.8,0,h,NA,caps lock,caps lock,NA,h,415,NA,2388691,276682,NA,415,2,legacy,1024,2,48000,-16,experiment,HHHHH,999,odd,2391377,5759927,NA,NA,5844676,2666,5483240,NA,5803392,2603,5816465,5845791,5845923,5846341,5845758,5845923,Flanker task,111,3025399,115,yes,1024
96.55172414,96.55172414,26084.93966,26084.93966,black,legacy,legacy,legacy,0,congruent,uniform,1,undefined,1,s,0,0,0,0,115,0,0,0,115,0,115,115,115,115,115,115,Wed Sep 25 20:35:40 2019,600,The main experiment item,yes,fp-subject-1.osexp,/Users/freyaportales/Desktop/OpenSesame Assignments,no,mono,no,18,no,white,no,no,768,legacy,35,79,/Users/freyaportales/Desktop/OpenSesame Assignments/quickrun.csv,legacy,Kafkaesque Koffka,3.2.8,0,s,NA,caps lock,caps lock,NA,s,454,NA,2388691,276682,NA,454,2,legacy,1024,2,48000,-16,experiment,SSSSS,999,odd,2391377,5759927,NA,NA,5846376,2666,5483240,NA,5803392,2603,5816465,5847493,5847625,5848086,5847459,5847625,Flanker task,112,3025853,116,yes,1024
96.58119658,96.58119658,25865.50427,25865.50427,black,legacy,legacy,legacy,0,congruent,uniform,1,undefined,1,s,0,0,0,0,116,0,0,0,116,0,116,116,116,116,116,116,Wed Sep 25 20:35:40 2019,600,The main experiment item,yes,fp-subject-1.osexp,/Users/freyaportales/Desktop/OpenSesame Assignments,no,mono,no,18,no,white,no,no,768,legacy,36,79,/Users/freyaportales/Desktop/OpenSesame Assignments/quickrun.csv,legacy,Kafkaesque Koffka,3.2.8,0,s,NA,caps lock,caps lock,NA,s,411,NA,2388691,276682,NA,411,2,legacy,1024,2,48000,-16,experiment,SSSSS,999,odd,2391377,5759927,NA,NA,5848124,2666,5483240,NA,5803392,2603,5816465,5849248,5849383,5849797,5849215,5849383,Flanker task,113,3026264,117,yes,1024
96.61016949,96.61016949,25650.01695,25650.01695,black,legacy,legacy,legacy,0,incongruent,uniform,1,undefined,1,h,0,0,0,0,117,0,0,0,117,0,117,117,117,117,117,117,Wed Sep 25 20:35:40 2019,600,The main experiment item,yes,fp-subject-1.osexp,/Users/freyaportales/Desktop/OpenSesame Assignments,no,mono,no,18,no,white,no,no,768,legacy,37,79,/Users/freyaportales/Desktop/OpenSesame Assignments/quickrun.csv,legacy,Kafkaesque Koffka,3.2.8,0,h,NA,caps lock,caps lock,NA,h,438,NA,2388691,276682,NA,438,2,legacy,1024,2,48000,-16,experiment,SSHSS,999,odd,2391377,5759927,NA,NA,5849832,2666,5483240,NA,5803392,2603,5816465,5850947,5851079,5851520,5850915,5851079,Flanker task,114,3026702,118,yes,1024
96.63865546,96.63865546,25438.31933,25438.31933,black,legacy,legacy,legacy,0,incongruent,uniform,1,undefined,1,s,0,0,0,0,118,0,0,0,118,0,118,118,118,118,118,118,Wed Sep 25 20:35:40 2019,600,The main experiment item,yes,fp-subject-1.osexp,/Users/freyaportales/Desktop/OpenSesame Assignments,no,mono,no,18,no,white,no,no,768,legacy,38,79,/Users/freyaportales/Desktop/OpenSesame Assignments/quickrun.csv,legacy,Kafkaesque Koffka,3.2.8,0,s,NA,caps lock,caps lock,NA,s,458,NA,2388691,276682,NA,458,2,legacy,1024,2,48000,-16,experiment,HHSHH,999,odd,2391377,5759927,NA,NA,5851557,2666,5483240,NA,5803392,2603,5816465,5852683,5852817,5853278,5852650,5852816,Flanker task,115,3027160,119,yes,1024
96.66666667,96.66666667,25229.60833,25229.60833,black,legacy,legacy,legacy,0,congruent,uniform,1,undefined,1,s,0,0,0,0,119,0,0,0,119,0,119,119,119,119,119,119,Wed Sep 25 20:35:40 2019,600,The main experiment item,yes,fp-subject-1.osexp,/Users/freyaportales/Desktop/OpenSesame Assignments,no,mono,no,18,no,white,no,no,768,legacy,39,79,/Users/freyaportales/Desktop/OpenSesame Assignments/quickrun.csv,legacy,Kafkaesque Koffka,3.2.8,0,s,NA,caps lock,caps lock,NA,s,393,NA,2388691,276682,NA,393,2,legacy,1024,2,48000,-16,experiment,SSSSS,999,odd,2391377,5759927,NA,NA,5853313,2666,5483240,NA,5803392,2603,5816465,5854430,5854562,5854958,5854397,5854562,Flanker task,116,3027553,120,yes,1024
96.69421488,96.69421488,25025.1157,25025.1157,black,legacy,legacy,legacy,0,congruent,uniform,1,undefined,1,s,0,0,0,0,120,0,0,0,120,0,120,120,120,120,120,120,Wed Sep 25 20:35:40 2019,600,The main experiment item,yes,fp-subject-1.osexp,/Users/freyaportales/Desktop/OpenSesame Assignments,no,mono,no,18,no,white,no,no,768,legacy,40,79,/Users/freyaportales/Desktop/OpenSesame Assignments/quickrun.csv,legacy,Kafkaesque Koffka,3.2.8,0,s,NA,caps lock,caps lock,NA,s,486,NA,2388691,276682,NA,486,2,legacy,1024,2,48000,-16,experiment,SSSSS,999,odd,2391377,5759927,NA,NA,5854996,2666,5483240,NA,5803392,2603,5816465,5856123,5856267,5856756,5856085,5856267,Flanker task,117,3028039,121,yes,1024
96.72131148,96.72131148,24824,24824,black,legacy,legacy,legacy,0,incongruent,uniform,1,undefined,1,h,0,0,0,0,121,0,0,0,121,0,121,121,121,121,121,121,Wed Sep 25 20:35:40 2019,600,The main experiment item,yes,fp-subject-1.osexp,/Users/freyaportales/Desktop/OpenSesame Assignments,no,mono,no,18,no,white,no,no,768,legacy,41,79,/Users/freyaportales/Desktop/OpenSesame Assignments/quickrun.csv,legacy,Kafkaesque Koffka,3.2.8,0,h,NA,caps lock,caps lock,NA,h,489,NA,2388691,276682,NA,489,2,legacy,1024,2,48000,-16,experiment,SSHSS,999,odd,2391377,5759927,NA,NA,5856791,2666,5483240,NA,5803392,2603,5816465,5857909,5858041,5858533,5857876,5858041,Flanker task,118,3028528,122,yes,1024
96.74796748,96.74796748,24625.69919,24625.69919,black,legacy,legacy,legacy,0,congruent,uniform,1,undefined,1,h,0,0,0,0,122,0,0,0,122,0,122,122,122,122,122,122,Wed Sep 25 20:35:40 2019,600,The main experiment item,yes,fp-subject-1.osexp,/Users/freyaportales/Desktop/OpenSesame Assignments,no,mono,no,18,no,white,no,no,768,legacy,42,79,/Users/freyaportales/Desktop/OpenSesame Assignments/quickrun.csv,legacy,Kafkaesque Koffka,3.2.8,0,h,NA,caps lock,caps lock,NA,h,433,NA,2388691,276682,NA,433,2,legacy,1024,2,48000,-16,experiment,HHHHH,999,odd,2391377,5759927,NA,NA,5858579,2666,5483240,NA,5803392,2603,5816465,5859697,5859830,5860266,5859664,5859829,Flanker task,119,3028961,123,yes,1024
96.77419355,96.77419355,24429.87903,24429.87903,black,legacy,legacy,legacy,0,incongruent,uniform,1,undefined,1,s,0,0,0,0,123,0,0,0,123,0,123,123,123,123,123,123,Wed Sep 25 20:35:40 2019,600,The main experiment item,yes,fp-subject-1.osexp,/Users/freyaportales/Desktop/OpenSesame Assignments,no,mono,no,18,no,white,no,no,768,legacy,43,79,/Users/freyaportales/Desktop/OpenSesame Assignments/quickrun.csv,legacy,Kafkaesque Koffka,3.2.8,0,s,NA,caps lock,caps lock,NA,s,344,NA,2388691,276682,NA,344,2,legacy,1024,2,48000,-16,experiment,HHSHH,999,odd,2391377,5759927,NA,NA,5860301,2666,5483240,NA,5803392,2603,5816465,5861418,5861550,5861897,5861386,5861550,Flanker task,120,3029305,124,yes,1024
96.8,96.8,24238.208,24238.208,black,legacy,legacy,legacy,0,congruent,uniform,1,undefined,1,h,0,0,0,0,124,0,0,0,124,0,124,124,124,124,124,124,Wed Sep 25 20:35:40 2019,600,The main experiment item,yes,fp-subject-1.osexp,/Users/freyaportales/Desktop/OpenSesame Assignments,no,mono,no,18,no,white,no,no,768,legacy,44,79,/Users/freyaportales/Desktop/OpenSesame Assignments/quickrun.csv,legacy,Kafkaesque Koffka,3.2.8,0,h,NA,caps lock,caps lock,NA,h,471,NA,2388691,276682,NA,471,2,legacy,1024,2,48000,-16,experiment,HHHHH,999,odd,2391377,5759927,NA,NA,5861933,2666,5483240,NA,5803392,2603,5816465,5863053,5863186,5863660,5863020,5863186,Flanker task,121,3029776,125,yes,1024
96.82539683,96.82539683,24048.99206,24048.99206,black,legacy,legacy,legacy,0,congruent,uniform,1,undefined,1,s,0,0,0,0,125,0,0,0,125,0,125,125,125,125,125,125,Wed Sep 25 20:35:40 2019,600,The main experiment item,yes,fp-subject-1.osexp,/Users/freyaportales/Desktop/OpenSesame Assignments,no,mono,no,18,no,white,no,no,768,legacy,45,79,/Users/freyaportales/Desktop/OpenSesame Assignments/quickrun.csv,legacy,Kafkaesque Koffka,3.2.8,0,s,NA,caps lock,caps lock,NA,s,397,NA,2388691,276682,NA,397,2,legacy,1024,2,48000,-16,experiment,SSSSS,999,odd,2391377,5759927,NA,NA,5863695,2666,5483240,NA,5803392,2603,5816465,5864812,5864945,5865345,5864779,5864944,Flanker task,122,3030173,126,yes,1024
96.8503937,96.8503937,23864.14173,23864.14173,black,legacy,legacy,legacy,0,congruent,uniform,1,undefined,1,s,0,0,0,0,126,0,0,0,126,0,126,126,126,126,126,126,Wed Sep 25 20:35:40 2019,600,The main experiment item,yes,fp-subject-1.osexp,/Users/freyaportales/Desktop/OpenSesame Assignments,no,mono,no,18,no,white,no,no,768,legacy,46,79,/Users/freyaportales/Desktop/OpenSesame Assignments/quickrun.csv,legacy,Kafkaesque Koffka,3.2.8,0,s,NA,caps lock,caps lock,NA,s,573,NA,2388691,276682,NA,573,2,legacy,1024,2,48000,-16,experiment,SSSSS,999,odd,2391377,5759927,NA,NA,5865390,2666,5483240,NA,5803392,2603,5816465,5866513,5866647,5867223,5866480,5866647,Flanker task,123,3030746,127,yes,1024
96.875,96.875,23680.78125,23680.78125,black,legacy,legacy,legacy,0,congruent,uniform,1,undefined,1,h,0,0,0,0,127,0,0,0,127,0,127,127,127,127,127,127,Wed Sep 25 20:35:40 2019,600,The main experiment item,yes,fp-subject-1.osexp,/Users/freyaportales/Desktop/OpenSesame Assignments,no,mono,no,18,no,white,no,no,768,legacy,47,79,/Users/freyaportales/Desktop/OpenSesame Assignments/quickrun.csv,legacy,Kafkaesque Koffka,3.2.8,0,h,NA,caps lock,caps lock,NA,h,394,NA,2388691,276682,NA,394,2,legacy,1024,2,48000,-16,experiment,HHHHH,999,odd,2391377,5759927,NA,NA,5867258,2666,5483240,NA,5803392,2603,5816465,5868375,5868508,5868905,5868342,5868508,Flanker task,124,3031140,128,yes,1024
96.89922481,96.89922481,23502.13178,23502.13178,black,legacy,legacy,legacy,0,incongruent,uniform,1,undefined,1,h,0,0,0,0,128,0,0,0,128,0,128,128,128,128,128,128,Wed Sep 25 20:35:40 2019,600,The main experiment item,yes,fp-subject-1.osexp,/Users/freyaportales/Desktop/OpenSesame Assignments,no,mono,no,18,no,white,no,no,768,legacy,48,79,/Users/freyaportales/Desktop/OpenSesame Assignments/quickrun.csv,legacy,Kafkaesque Koffka,3.2.8,0,h,NA,caps lock,caps lock,NA,h,635,NA,2388691,276682,NA,635,2,legacy,1024,2,48000,-16,experiment,SSHSS,999,odd,2391377,5759927,NA,NA,5868940,2666,5483240,NA,5803392,2603,5816465,5870056,5870189,5870828,5870023,5870189,Flanker task,125,3031775,129,yes,1024
96.92307692,96.92307692,23324.07692,23324.07692,black,legacy,legacy,legacy,0,incongruent,uniform,1,undefined,1,h,0,0,0,0,129,0,0,0,129,0,129,129,129,129,129,129,Wed Sep 25 20:35:40 2019,600,The main experiment item,yes,fp-subject-1.osexp,/Users/freyaportales/Desktop/OpenSesame Assignments,no,mono,no,18,no,white,no,no,768,legacy,49,79,/Users/freyaportales/Desktop/OpenSesame Assignments/quickrun.csv,legacy,Kafkaesque Koffka,3.2.8,0,h,NA,caps lock,caps lock,NA,h,355,NA,2388691,276682,NA,355,2,legacy,1024,2,48000,-16,experiment,SSHSS,999,odd,2391377,5759927,NA,NA,5871397,2666,5483240,NA,5803392,2603,5870865,5872517,5872650,5873008,5872484,5872650,Flanker task,126,3032130,130,yes,1024
96.94656489,96.94656489,23149.70992,23149.70992,black,legacy,legacy,legacy,0,incongruent,uniform,1,undefined,1,s,0,0,0,0,130,0,0,0,130,0,130,130,130,130,130,130,Wed Sep 25 20:35:40 2019,600,The main experiment item,yes,fp-subject-1.osexp,/Users/freyaportales/Desktop/OpenSesame Assignments,no,mono,no,18,no,white,no,no,768,legacy,50,79,/Users/freyaportales/Desktop/OpenSesame Assignments/quickrun.csv,legacy,Kafkaesque Koffka,3.2.8,0,s,NA,caps lock,caps lock,NA,s,482,NA,2388691,276682,NA,482,2,legacy,1024,2,48000,-16,experiment,HHSHH,999,odd,2391377,5759927,NA,NA,5873046,2666,5483240,NA,5803392,2603,5870865,5874173,5874306,5874791,5874140,5874306,Flanker task,127,3032612,131,yes,1024
96.96969697,96.96969697,22977.76515,22977.76515,black,legacy,legacy,legacy,0,congruent,uniform,1,undefined,1,h,0,0,0,0,131,0,0,0,131,0,131,131,131,131,131,131,Wed Sep 25 20:35:40 2019,600,The main experiment item,yes,fp-subject-1.osexp,/Users/freyaportales/Desktop/OpenSesame Assignments,no,mono,no,18,no,white,no,no,768,legacy,51,79,/Users/freyaportales/Desktop/OpenSesame Assignments/quickrun.csv,legacy,Kafkaesque Koffka,3.2.8,0,h,NA,caps lock,caps lock,NA,h,453,NA,2388691,276682,NA,453,2,legacy,1024,2,48000,-16,experiment,HHHHH,999,odd,2391377,5759927,NA,NA,5874826,2666,5483240,NA,5803392,2603,5870865,5875945,5876077,5876533,5875911,5876077,Flanker task,128,3033065,132,yes,1024
96.9924812,96.9924812,22808.61654,22808.61654,black,legacy,legacy,legacy,0,incongruent,uniform,1,undefined,1,s,0,0,0,0,132,0,0,0,132,0,132,132,132,132,132,132,Wed Sep 25 20:35:40 2019,600,The main experiment item,yes,fp-subject-1.osexp,/Users/freyaportales/Desktop/OpenSesame Assignments,no,mono,no,18,no,white,no,no,768,legacy,52,79,/Users/freyaportales/Desktop/OpenSesame Assignments/quickrun.csv,legacy,Kafkaesque Koffka,3.2.8,0,s,NA,caps lock,caps lock,NA,s,481,NA,2388691,276682,NA,481,2,legacy,1024,2,48000,-16,experiment,HHSHH,999,odd,2391377,5759927,NA,NA,5876574,2666,5483240,NA,5803392,2603,5870865,5877694,5877826,5878310,5877660,5877826,Flanker task,129,3033546,133,yes,1024
97.01492537,97.01492537,22642.17164,22642.17164,black,legacy,legacy,legacy,0,incongruent,uniform,1,undefined,1,s,0,0,0,0,133,0,0,0,133,0,133,133,133,133,133,133,Wed Sep 25 20:35:40 2019,600,The main experiment item,yes,fp-subject-1.osexp,/Users/freyaportales/Desktop/OpenSesame Assignments,no,mono,no,18,no,white,no,no,768,legacy,53,79,/Users/freyaportales/Desktop/OpenSesame Assignments/quickrun.csv,legacy,Kafkaesque Koffka,3.2.8,0,s,NA,caps lock,caps lock,NA,s,505,NA,2388691,276682,NA,505,2,legacy,1024,2,48000,-16,experiment,HHSHH,999,odd,2391377,5759927,NA,NA,5878345,2666,5483240,NA,5803392,2603,5870865,5879463,5879596,5880105,5879429,5879596,Flanker task,130,3034051,134,yes,1024
97.03703704,97.03703704,22477.77037,22477.77037,black,legacy,legacy,legacy,0,incongruent,uniform,1,undefined,1,s,0,0,0,0,134,0,0,0,134,0,134,134,134,134,134,134,Wed Sep 25 20:35:40 2019,600,The main experiment item,yes,fp-subject-1.osexp,/Users/freyaportales/Desktop/OpenSesame Assignments,no,mono,no,18,no,white,no,no,768,legacy,54,79,/Users/freyaportales/Desktop/OpenSesame Assignments/quickrun.csv,legacy,Kafkaesque Koffka,3.2.8,0,s,NA,caps lock,caps lock,NA,s,448,NA,2388691,276682,NA,448,2,legacy,1024,2,48000,-16,experiment,HHSHH,999,odd,2391377,5759927,NA,NA,5880144,2666,5483240,NA,5803392,2603,5870865,5881264,5881397,5881848,5881231,5881397,Flanker task,131,3034499,135,yes,1024
97.05882353,97.05882353,22315.69118,22315.69118,black,legacy,legacy,legacy,0,congruent,uniform,1,undefined,1,h,0,0,0,0,135,0,0,0,135,0,135,135,135,135,135,135,Wed Sep 25 20:35:40 2019,600,The main experiment item,yes,fp-subject-1.osexp,/Users/freyaportales/Desktop/OpenSesame Assignments,no,mono,no,18,no,white,no,no,768,legacy,55,79,/Users/freyaportales/Desktop/OpenSesame Assignments/quickrun.csv,legacy,Kafkaesque Koffka,3.2.8,0,h,NA,caps lock,caps lock,NA,h,435,NA,2388691,276682,NA,435,2,legacy,1024,2,48000,-16,experiment,HHHHH,999,odd,2391377,5759927,NA,NA,5881883,2666,5483240,NA,5803392,2603,5870865,5882999,5883131,5883569,5882967,5883131,Flanker task,132,3034934,136,yes,1024
97.08029197,97.08029197,22155.60584,22155.60584,black,legacy,legacy,legacy,0,congruent,uniform,1,undefined,1,s,0,0,0,0,136,0,0,0,136,0,136,136,136,136,136,136,Wed Sep 25 20:35:40 2019,600,The main experiment item,yes,fp-subject-1.osexp,/Users/freyaportales/Desktop/OpenSesame Assignments,no,mono,no,18,no,white,no,no,768,legacy,56,79,/Users/freyaportales/Desktop/OpenSesame Assignments/quickrun.csv,legacy,Kafkaesque Koffka,3.2.8,0,s,NA,caps lock,caps lock,NA,s,384,NA,2388691,276682,NA,384,2,legacy,1024,2,48000,-16,experiment,SSSSS,999,odd,2391377,5759927,NA,NA,5883606,2666,5483240,NA,5803392,2603,5870865,5884729,5884862,5885249,5884697,5884861,Flanker task,133,3035318,137,yes,1024
96.37681159,96.37681159,21998,21998,black,legacy,legacy,legacy,0,incongruent,uniform,0,undefined,0,s,0,0,0,0,137,0,0,0,137,0,137,137,137,137,137,137,Wed Sep 25 20:35:40 2019,600,The main experiment item,yes,fp-subject-1.osexp,/Users/freyaportales/Desktop/OpenSesame Assignments,no,mono,no,18,no,white,no,no,768,legacy,57,79,/Users/freyaportales/Desktop/OpenSesame Assignments/quickrun.csv,legacy,Kafkaesque Koffka,3.2.8,0,h,NA,caps lock,caps lock,NA,h,406,NA,2388691,276682,NA,406,2,legacy,1024,2,48000,-16,experiment,HHSHH,999,odd,2391377,5759927,NA,NA,5885284,2666,5483240,NA,5803392,2603,5870865,5886400,5886533,5886942,5886368,5886532,Flanker task,133,3035724,138,yes,1024
95.68345324,95.68345324,21840.2518,21840.2518,black,legacy,legacy,legacy,0,incongruent,uniform,0,undefined,0,s,0,0,0,0,138,0,0,0,138,0,138,138,138,138,138,138,Wed Sep 25 20:35:40 2019,600,The main experiment item,yes,fp-subject-1.osexp,/Users/freyaportales/Desktop/OpenSesame Assignments,no,mono,no,18,no,white,no,no,768,legacy,58,79,/Users/freyaportales/Desktop/OpenSesame Assignments/quickrun.csv,legacy,Kafkaesque Koffka,3.2.8,0,h,NA,caps lock,caps lock,NA,h,71,NA,2388691,276682,NA,71,2,legacy,1024,2,48000,-16,experiment,HHSHH,999,odd,2391377,5759927,NA,NA,5887513,2666,5483240,NA,5886979,2603,5870865,5888633,5888767,5888841,5888597,5888766,Flanker task,133,3035795,139,yes,1024
95.71428571,95.71428571,21687.21429,21687.21429,black,legacy,legacy,legacy,0,incongruent,uniform,1,undefined,1,h,0,0,0,0,139,0,0,0,139,0,139,139,139,139,139,139,Wed Sep 25 20:35:40 2019,600,The main experiment item,yes,fp-subject-1.osexp,/Users/freyaportales/Desktop/OpenSesame Assignments,no,mono,no,18,no,white,no,no,768,legacy,59,79,/Users/freyaportales/Desktop/OpenSesame Assignments/quickrun.csv,legacy,Kafkaesque Koffka,3.2.8,0,h,NA,caps lock,caps lock,NA,h,415,NA,2388691,276682,NA,415,2,legacy,1024,2,48000,-16,experiment,SSHSS,999,odd,2391377,5759927,NA,NA,5889412,2666,5483240,NA,5888876,2603,5870865,5890537,5890670,5891088,5890496,5890670,Flanker task,134,3036210,140,yes,1024
95.74468085,95.74468085,21536.78014,21536.78014,black,legacy,legacy,legacy,0,incongruent,uniform,1,undefined,1,h,0,0,0,0,140,0,0,0,140,0,140,140,140,140,140,140,Wed Sep 25 20:35:40 2019,600,The main experiment item,yes,fp-subject-1.osexp,/Users/freyaportales/Desktop/OpenSesame Assignments,no,mono,no,18,no,white,no,no,768,legacy,60,79,/Users/freyaportales/Desktop/OpenSesame Assignments/quickrun.csv,legacy,Kafkaesque Koffka,3.2.8,0,h,NA,caps lock,caps lock,NA,h,476,NA,2388691,276682,NA,476,2,legacy,1024,2,48000,-16,experiment,SSHSS,999,odd,2391377,5759927,NA,NA,5891130,2666,5483240,NA,5888876,2603,5870865,5892255,5892387,5892866,5892222,5892387,Flanker task,135,3036686,141,yes,1024
95.77464789,95.77464789,21387.8662,21387.8662,black,legacy,legacy,legacy,0,congruent,uniform,1,undefined,1,s,0,0,0,0,141,0,0,0,141,0,141,141,141,141,141,141,Wed Sep 25 20:35:40 2019,600,The main experiment item,yes,fp-subject-1.osexp,/Users/freyaportales/Desktop/OpenSesame Assignments,no,mono,no,18,no,white,no,no,768,legacy,61,79,/Users/freyaportales/Desktop/OpenSesame Assignments/quickrun.csv,legacy,Kafkaesque Koffka,3.2.8,0,s,NA,caps lock,caps lock,NA,s,391,NA,2388691,276682,NA,391,2,legacy,1024,2,48000,-16,experiment,SSSSS,999,odd,2391377,5759927,NA,NA,5892901,2666,5483240,NA,5888876,2603,5870865,5894017,5894150,5894545,5893985,5894150,Flanker task,136,3037077,142,yes,1024
95.8041958,95.8041958,21244.67133,21244.67133,black,legacy,legacy,legacy,0,incongruent,uniform,1,undefined,1,h,0,0,0,0,142,0,0,0,142,0,142,142,142,142,142,142,Wed Sep 25 20:35:40 2019,600,The main experiment item,yes,fp-subject-1.osexp,/Users/freyaportales/Desktop/OpenSesame Assignments,no,mono,no,18,no,white,no,no,768,legacy,62,79,/Users/freyaportales/Desktop/OpenSesame Assignments/quickrun.csv,legacy,Kafkaesque Koffka,3.2.8,0,h,NA,caps lock,caps lock,NA,h,911,NA,2388691,276682,NA,911,2,legacy,1024,2,48000,-16,experiment,SSHSS,999,odd,2391377,5759927,NA,NA,5894581,2666,5483240,NA,5888876,2603,5870865,5895701,5895834,5896749,5895668,5895834,Flanker task,137,3037988,143,yes,1024
95.83333333,95.83333333,21100.14583,21100.14583,black,legacy,legacy,legacy,0,congruent,uniform,1,undefined,1,s,0,0,0,0,143,0,0,0,143,0,143,143,143,143,143,143,Wed Sep 25 20:35:40 2019,600,The main experiment item,yes,fp-subject-1.osexp,/Users/freyaportales/Desktop/OpenSesame Assignments,no,mono,no,18,no,white,no,no,768,legacy,63,79,/Users/freyaportales/Desktop/OpenSesame Assignments/quickrun.csv,legacy,Kafkaesque Koffka,3.2.8,0,s,NA,caps lock,caps lock,NA,s,433,NA,2388691,276682,NA,433,2,legacy,1024,2,48000,-16,experiment,SSSSS,999,odd,2391377,5759927,NA,NA,5897320,2666,5483240,NA,5888876,2603,5896788,5898437,5898570,5899006,5898404,5898570,Flanker task,138,3038421,144,yes,1024
95.86206897,95.86206897,20957.55862,20957.55862,black,legacy,legacy,legacy,0,congruent,uniform,1,undefined,1,h,0,0,0,0,144,0,0,0,144,0,144,144,144,144,144,144,Wed Sep 25 20:35:40 2019,600,The main experiment item,yes,fp-subject-1.osexp,/Users/freyaportales/Desktop/OpenSesame Assignments,no,mono,no,18,no,white,no,no,768,legacy,64,79,/Users/freyaportales/Desktop/OpenSesame Assignments/quickrun.csv,legacy,Kafkaesque Koffka,3.2.8,0,h,NA,caps lock,caps lock,NA,h,425,NA,2388691,276682,NA,425,2,legacy,1024,2,48000,-16,experiment,HHHHH,999,odd,2391377,5759927,NA,NA,5899042,2666,5483240,NA,5888876,2603,5896788,5900170,5900303,5900731,5900138,5900303,Flanker task,139,3038846,145,yes,1024
95.89041096,95.89041096,20817.19863,20817.19863,black,legacy,legacy,legacy,0,congruent,uniform,1,undefined,1,h,0,0,0,0,145,0,0,0,145,0,145,145,145,145,145,145,Wed Sep 25 20:35:40 2019,600,The main experiment item,yes,fp-subject-1.osexp,/Users/freyaportales/Desktop/OpenSesame Assignments,no,mono,no,18,no,white,no,no,768,legacy,65,79,/Users/freyaportales/Desktop/OpenSesame Assignments/quickrun.csv,legacy,Kafkaesque Koffka,3.2.8,0,h,NA,caps lock,caps lock,NA,h,465,NA,2388691,276682,NA,465,2,legacy,1024,2,48000,-16,experiment,HHHHH,999,odd,2391377,5759927,NA,NA,5900765,2666,5483240,NA,5888876,2603,5896788,5901881,5902014,5902483,5901848,5902014,Flanker task,140,3039311,146,yes,1024
95.91836735,95.91836735,20678.97279,20678.97279,black,legacy,legacy,legacy,0,incongruent,uniform,1,undefined,1,s,0,0,0,0,146,0,0,0,146,0,146,146,146,146,146,146,Wed Sep 25 20:35:40 2019,600,The main experiment item,yes,fp-subject-1.osexp,/Users/freyaportales/Desktop/OpenSesame Assignments,no,mono,no,18,no,white,no,no,768,legacy,66,79,/Users/freyaportales/Desktop/OpenSesame Assignments/quickrun.csv,legacy,Kafkaesque Koffka,3.2.8,0,s,NA,caps lock,caps lock,NA,s,498,NA,2388691,276682,NA,498,2,legacy,1024,2,48000,-16,experiment,HHSHH,999,odd,2391377,5759927,NA,NA,5902521,2666,5483240,NA,5888876,2603,5896788,5903648,5903781,5904283,5903615,5903781,Flanker task,141,3039809,147,yes,1024
95.27027027,95.27027027,20544.00676,20544.00676,black,legacy,legacy,legacy,0,incongruent,uniform,0,undefined,0,h,0,0,0,0,147,0,0,0,147,0,147,147,147,147,147,147,Wed Sep 25 20:35:40 2019,600,The main experiment item,yes,fp-subject-1.osexp,/Users/freyaportales/Desktop/OpenSesame Assignments,no,mono,no,18,no,white,no,no,768,legacy,67,79,/Users/freyaportales/Desktop/OpenSesame Assignments/quickrun.csv,legacy,Kafkaesque Koffka,3.2.8,0,s,NA,caps lock,caps lock,NA,s,704,NA,2388691,276682,NA,704,2,legacy,1024,2,48000,-16,experiment,SSHSS,999,odd,2391377,5759927,NA,NA,5904319,2666,5483240,NA,5888876,2603,5896788,5905436,5905568,5906276,5905403,5905568,Flanker task,141,3040513,148,yes,1024
