"acc","accuracy","average_response_time","avg_rt","background","canvas_backend","clock_backend","color_backend","condition","correct","correct_instructions1","correct_keyboard_response","correct_response","count_Block1","count_Block2","count_Block3","count_ISI","count_errorFeedback","count_experiment","count_faster","count_finish","count_fixation","count_instructions1","count_instructions2","count_instructions3","count_keyboard_response","count_logger","count_sequence","count_stimulus","datetime","deadline","description","disable_garbage_collection","experiment_file","experiment_path","font_bold","font_family","font_italic","font_size","font_underline","foreground","form_clicks","fullscreen","height","keyboard_backend","live_row","live_row_Block1","logfile","mouse_backend","opensesame_codename","opensesame_version","repeat_cycle","response","response_finish","response_instructions1","response_instructions2","response_instructions3","response_keyboard_response","response_time","response_time_finish","response_time_instructions1","response_time_instructions2","response_time_instructions3","response_time_keyboard_response","round_decimals","sampler_backend","sound_buf_size","sound_channels","sound_freq","sound_sample_size","start","stimulus","subject_nr","subject_parity","time_Block1","time_Block2","time_Block3","time_ISI","time_errorFeedback","time_experiment","time_faster","time_finish","time_fixation","time_instructions1","time_instructions2","time_instructions3","time_keyboard_response","time_logger","time_sequence","time_stimulus","title","total_correct","total_response_time","total_responses","width"
"100","100","682","682","black","legacy","legacy","legacy","incongruent","1","undefined","1","h","0","0","0","0","0","0","0","0","0","0","0","0","0","0","0","0","Fri Sep 15 14:51:05 2023","1500","The main experiment item","True","Lab2.1.osexp","/Users/test/Desktop","False","mono","False","18","no","white","no","yes","768","legacy","0","0","/Users/test/Downloads/at-subject-3.csv","legacy","Melodramatic Milgram","4.0.5","0","h","NA","s","NA","NA","h","682.0","NA","1049","NA","NA","682","2","legacy","1024","2","48000","-16","experiment","SSHSS","3","odd","5458","NA","NA","NA","NA","4244","NA","NA","5528","4395","NA","NA","5632","6315","5523","5632","Lab 2-1","1","682.0","1","1024"
"100","100","719","719","black","legacy","legacy","legacy","congruent","1","undefined","1","h","0","0","0","1","1","0","1","0","1","0","0","0","1","1","1","1","Fri Sep 15 14:51:05 2023","1500","The main experiment item","True","Lab2.1.osexp","/Users/test/Desktop","False","mono","False","18","no","white","no","yes","768","legacy","1","1","/Users/test/Downloads/at-subject-3.csv","legacy","Melodramatic Milgram","4.0.5","0","h","NA","s","NA","NA","h","757.0","NA","1049","NA","NA","757","2","legacy","1024","2","48000","-16","experiment","HHHHH","3","odd","5458","NA","NA","6323","NA","4244","NA","NA","7369","4395","NA","NA","7473","8243","7366","7472","Lab 2-1","2","1439.0","2","1024"
"100","100","670","670","black","legacy","legacy","legacy","incongruent","1","undefined","1","h","0","0","0","2","2","0","2","0","2","0","0","0","2","2","2","2","Fri Sep 15 14:51:05 2023","1500","The main experiment item","True","Lab2.1.osexp","/Users/test/Desktop","False","mono","False","18","no","white","no","yes","768","legacy","2","2","/Users/test/Downloads/at-subject-3.csv","legacy","Melodramatic Milgram","4.0.5","0","h","NA","s","NA","NA","h","573.0","NA","1049","NA","NA","573","2","legacy","1024","2","48000","-16","experiment","SSHSS","3","odd","5458","NA","NA","8246","NA","4244","NA","NA","9288","4395","NA","NA","9391","9965","9285","9391","Lab 2-1","3","2012.0","3","1024"
"100","100","616","616","black","legacy","legacy","legacy","congruent","1","undefined","1","h","0","0","0","3","3","0","3","0","3","0","0","0","3","3","3","3","Fri Sep 15 14:51:05 2023","1500","The main experiment item","True","Lab2.1.osexp","/Users/test/Desktop","False","mono","False","18","no","white","no","yes","768","legacy","3","3","/Users/test/Downloads/at-subject-3.csv","legacy","Melodramatic Milgram","4.0.5","0","h","NA","s","NA","NA","h","454.0","NA","1049","NA","NA","454","2","legacy","1024","2","48000","-16","experiment","HHHHH","3","odd","5458","NA","NA","9968","NA","4244","NA","NA","11010","4395","NA","NA","11113","11568","11007","11113","Lab 2-1","4","2466.0","4","1024"
"100","100","593","593","black","legacy","legacy","legacy","congruent","1","undefined","1","s","0","0","0","4","4","0","4","0","4","0","0","0","4","4","4","4","Fri Sep 15 14:51:05 2023","1500","The main experiment item","True","Lab2.1.osexp","/Users/test/Desktop","False","mono","False","18","no","white","no","yes","768","legacy","4","4","/Users/test/Downloads/at-subject-3.csv","legacy","Melodramatic Milgram","4.0.5","0","s","NA","s","NA","NA","s","500.0","NA","1049","NA","NA","500","2","legacy","1024","2","48000","-16","experiment","SSSSS","3","odd","5458","NA","NA","11572","NA","4244","NA","NA","12617","4395","NA","NA","12720","13221","12614","12720","Lab 2-1","5","2966.0","5","1024"
"100","100","607","607","black","legacy","legacy","legacy","incongruent","1","undefined","1","h","0","0","0","5","5","0","5","0","5","0","0","0","5","5","5","5","Fri Sep 15 14:51:05 2023","1500","The main experiment item","True","Lab2.1.osexp","/Users/test/Desktop","False","mono","False","18","no","white","no","yes","768","legacy","5","5","/Users/test/Downloads/at-subject-3.csv","legacy","Melodramatic Milgram","4.0.5","0","h","NA","s","NA","NA","h","678.0","NA","1049","NA","NA","678","2","legacy","1024","2","48000","-16","experiment","SSHSS","3","odd","5458","NA","NA","13224","NA","4244","NA","NA","14268","4395","NA","NA","14372","15051","14265","14372","Lab 2-1","6","3644.0","6","1024"
"100","100","598","598","black","legacy","legacy","legacy","incongruent","1","undefined","1","s","0","0","0","6","6","0","6","0","6","0","0","0","6","6","6","6","Fri Sep 15 14:51:05 2023","1500","The main experiment item","True","Lab2.1.osexp","/Users/test/Desktop","False","mono","False","18","no","white","no","yes","768","legacy","6","6","/Users/test/Downloads/at-subject-3.csv","legacy","Melodramatic Milgram","4.0.5","0","s","NA","s","NA","NA","s","542.0","NA","1049","NA","NA","542","2","legacy","1024","2","48000","-16","experiment","HHSHH","3","odd","5458","NA","NA","15054","NA","4244","NA","NA","16105","4395","NA","NA","16208","16750","16102","16208","Lab 2-1","7","4186.0","7","1024"
"100","100","592","592","black","legacy","legacy","legacy","congruent","1","undefined","1","s","0","0","0","7","7","0","7","0","7","0","0","0","7","7","7","7","Fri Sep 15 14:51:05 2023","1500","The main experiment item","True","Lab2.1.osexp","/Users/test/Desktop","False","mono","False","18","no","white","no","yes","768","legacy","7","7","/Users/test/Downloads/at-subject-3.csv","legacy","Melodramatic Milgram","4.0.5","0","s","NA","s","NA","NA","s","552.0","NA","1049","NA","NA","552","2","legacy","1024","2","48000","-16","experiment","SSSSS","3","odd","5458","NA","NA","16754","NA","4244","NA","NA","17804","4395","NA","NA","17908","18460","17801","17907","Lab 2-1","8","4738.0","8","1024"
"100","100","581","581","black","legacy","legacy","legacy","congruent","1","undefined","1","s","0","0","0","8","8","0","8","0","8","0","0","0","8","8","8","8","Fri Sep 15 14:51:05 2023","1500","The main experiment item","True","Lab2.1.osexp","/Users/test/Desktop","False","mono","False","18","no","white","no","yes","768","legacy","8","8","/Users/test/Downloads/at-subject-3.csv","legacy","Melodramatic Milgram","4.0.5","0","s","NA","s","NA","NA","s","498.0","NA","1049","NA","NA","498","2","legacy","1024","2","48000","-16","experiment","SSSSS","3","odd","5458","NA","NA","18464","NA","4244","NA","NA","19508","4395","NA","NA","19612","20110","19505","19611","Lab 2-1","9","5236.0","9","1024"
"100","100","590","590","black","legacy","legacy","legacy","incongruent","1","undefined","1","h","0","0","0","9","9","0","9","0","9","0","0","0","9","9","9","9","Fri Sep 15 14:51:05 2023","1500","The main experiment item","True","Lab2.1.osexp","/Users/test/Desktop","False","mono","False","18","no","white","no","yes","768","legacy","9","9","/Users/test/Downloads/at-subject-3.csv","legacy","Melodramatic Milgram","4.0.5","0","h","NA","s","NA","NA","h","668.0","NA","1049","NA","NA","668","2","legacy","1024","2","48000","-16","experiment","SSHSS","3","odd","5458","NA","NA","20114","NA","4244","NA","NA","21163","4395","NA","NA","21266","21935","21161","21266","Lab 2-1","10","5904.0","10","1024"
"100","100","588","588","black","legacy","legacy","legacy","incongruent","1","undefined","1","h","0","0","0","10","10","0","10","0","10","0","0","0","10","10","10","10","Fri Sep 15 14:51:05 2023","1500","The main experiment item","True","Lab2.1.osexp","/Users/test/Desktop","False","mono","False","18","no","white","no","yes","768","legacy","10","10","/Users/test/Downloads/at-subject-3.csv","legacy","Melodramatic Milgram","4.0.5","0","h","NA","s","NA","NA","h","574.0","NA","1049","NA","NA","574","2","legacy","1024","2","48000","-16","experiment","SSHSS","3","odd","5458","NA","NA","21961","NA","4244","NA","NA","22995","4395","NA","NA","23099","23673","22993","23099","Lab 2-1","11","6478.0","11","1024"
"100","100","581","581","black","legacy","legacy","legacy","congruent","1","undefined","1","s","0","0","0","11","11","0","11","0","11","0","0","0","11","11","11","11","Fri Sep 15 14:51:05 2023","1500","The main experiment item","True","Lab2.1.osexp","/Users/test/Desktop","False","mono","False","18","no","white","no","yes","768","legacy","11","11","/Users/test/Downloads/at-subject-3.csv","legacy","Melodramatic Milgram","4.0.5","0","s","NA","s","NA","NA","s","503.0","NA","1049","NA","NA","503","2","legacy","1024","2","48000","-16","experiment","SSSSS","3","odd","5458","NA","NA","23676","NA","4244","NA","NA","24715","4395","NA","NA","24818","25322","24712","24818","Lab 2-1","12","6981.0","12","1024"
"100","100","575","575","black","legacy","legacy","legacy","incongruent","1","undefined","1","s","0","0","0","12","12","0","12","0","12","0","0","0","12","12","12","12","Fri Sep 15 14:51:05 2023","1500","The main experiment item","True","Lab2.1.osexp","/Users/test/Desktop","False","mono","False","18","no","white","no","yes","768","legacy","12","12","/Users/test/Downloads/at-subject-3.csv","legacy","Melodramatic Milgram","4.0.5","0","s","NA","s","NA","NA","s","495.0","NA","1049","NA","NA","495","2","legacy","1024","2","48000","-16","experiment","HHSHH","3","odd","5458","NA","NA","25326","NA","4244","NA","NA","26370","4395","NA","NA","26473","26969","26367","26473","Lab 2-1","13","7476.0","13","1024"
"100","100","575","575","black","legacy","legacy","legacy","incongruent","1","undefined","1","h","0","0","0","13","13","0","13","0","13","0","0","0","13","13","13","13","Fri Sep 15 14:51:05 2023","1500","The main experiment item","True","Lab2.1.osexp","/Users/test/Desktop","False","mono","False","18","no","white","no","yes","768","legacy","13","13","/Users/test/Downloads/at-subject-3.csv","legacy","Melodramatic Milgram","4.0.5","0","h","NA","s","NA","NA","h","575.0","NA","1049","NA","NA","575","2","legacy","1024","2","48000","-16","experiment","SSHSS","3","odd","5458","NA","NA","26972","NA","4244","NA","NA","28012","4395","NA","NA","28115","28691","28009","28115","Lab 2-1","14","8051.0","14","1024"
"100","100","579","579","black","legacy","legacy","legacy","incongruent","1","undefined","1","h","0","0","0","14","14","0","14","0","14","0","0","0","14","14","14","14","Fri Sep 15 14:51:05 2023","1500","The main experiment item","True","Lab2.1.osexp","/Users/test/Desktop","False","mono","False","18","no","white","no","yes","768","legacy","14","14","/Users/test/Downloads/at-subject-3.csv","legacy","Melodramatic Milgram","4.0.5","0","h","NA","s","NA","NA","h","639.0","NA","1049","NA","NA","639","2","legacy","1024","2","48000","-16","experiment","SSHSS","3","odd","5458","NA","NA","28694","NA","4244","NA","NA","29739","4395","NA","NA","29841","30481","29736","29841","Lab 2-1","15","8690.0","15","1024"
"100","100","584","584","black","legacy","legacy","legacy","congruent","1","undefined","1","h","0","0","0","15","15","0","15","0","15","0","0","0","15","15","15","15","Fri Sep 15 14:51:05 2023","1500","The main experiment item","True","Lab2.1.osexp","/Users/test/Desktop","False","mono","False","18","no","white","no","yes","768","legacy","15","15","/Users/test/Downloads/at-subject-3.csv","legacy","Melodramatic Milgram","4.0.5","0","h","NA","s","NA","NA","h","664.0","NA","1049","NA","NA","664","2","legacy","1024","2","48000","-16","experiment","HHHHH","3","odd","5458","NA","NA","30485","NA","4244","NA","NA","31535","4395","NA","NA","31639","32304","31532","31639","Lab 2-1","16","9354.0","16","1024"
"100","100","580","580","black","legacy","legacy","legacy","incongruent","1","undefined","1","s","0","0","0","16","16","0","16","0","16","0","0","0","16","16","16","16","Fri Sep 15 14:51:05 2023","1500","The main experiment item","True","Lab2.1.osexp","/Users/test/Desktop","False","mono","False","18","no","white","no","yes","768","legacy","16","16","/Users/test/Downloads/at-subject-3.csv","legacy","Melodramatic Milgram","4.0.5","0","s","NA","s","NA","NA","s","509.0","NA","1049","NA","NA","509","2","legacy","1024","2","48000","-16","experiment","HHSHH","3","odd","5458","NA","NA","32307","NA","4244","NA","NA","33362","4395","NA","NA","33465","33975","33359","33465","Lab 2-1","17","9863.0","17","1024"
"100","100","582","582","black","legacy","legacy","legacy","incongruent","1","undefined","1","s","0","0","0","17","17","0","17","0","17","0","0","0","17","17","17","17","Fri Sep 15 14:51:05 2023","1500","The main experiment item","True","Lab2.1.osexp","/Users/test/Desktop","False","mono","False","18","no","white","no","yes","768","legacy","17","17","/Users/test/Downloads/at-subject-3.csv","legacy","Melodramatic Milgram","4.0.5","0","s","NA","s","NA","NA","s","628.0","NA","1049","NA","NA","628","2","legacy","1024","2","48000","-16","experiment","HHSHH","3","odd","5458","NA","NA","33978","NA","4244","NA","NA","35015","4395","NA","NA","35120","35749","35012","35119","Lab 2-1","18","10491.0","18","1024"
"100","100","583","583","black","legacy","legacy","legacy","incongruent","1","undefined","1","s","0","0","0","18","18","0","18","0","18","0","0","0","18","18","18","18","Fri Sep 15 14:51:05 2023","1500","The main experiment item","True","Lab2.1.osexp","/Users/test/Desktop","False","mono","False","18","no","white","no","yes","768","legacy","18","18","/Users/test/Downloads/at-subject-3.csv","legacy","Melodramatic Milgram","4.0.5","0","s","NA","s","NA","NA","s","592.0","NA","1049","NA","NA","592","2","legacy","1024","2","48000","-16","experiment","HHSHH","3","odd","5458","NA","NA","35752","NA","4244","NA","NA","36798","4395","NA","NA","36901","37493","36795","36901","Lab 2-1","19","11083.0","19","1024"
"100","100","591","591","black","legacy","legacy","legacy","congruent","1","undefined","1","s","0","0","0","19","19","0","19","0","19","0","0","0","19","19","19","19","Fri Sep 15 14:51:05 2023","1500","The main experiment item","True","Lab2.1.osexp","/Users/test/Desktop","False","mono","False","18","no","white","no","yes","768","legacy","19","19","/Users/test/Downloads/at-subject-3.csv","legacy","Melodramatic Milgram","4.0.5","0","s","NA","s","NA","NA","s","738.0","NA","1049","NA","NA","738","2","legacy","1024","2","48000","-16","experiment","SSSSS","3","odd","5458","NA","NA","37497","NA","4244","NA","NA","38542","4395","NA","NA","38646","39384","38539","38646","Lab 2-1","20","11821.0","20","1024"
"100","100","597","597","black","legacy","legacy","legacy","congruent","1","undefined","1","h","0","0","0","20","20","0","20","0","20","0","0","0","20","20","20","20","Fri Sep 15 14:51:05 2023","1500","The main experiment item","True","Lab2.1.osexp","/Users/test/Desktop","False","mono","False","18","no","white","no","yes","768","legacy","20","20","/Users/test/Downloads/at-subject-3.csv","legacy","Melodramatic Milgram","4.0.5","0","h","NA","s","NA","NA","h","727.0","NA","1049","NA","NA","727","2","legacy","1024","2","48000","-16","experiment","HHHHH","3","odd","5458","NA","NA","39388","NA","4244","NA","NA","40431","4395","NA","NA","40534","41262","40428","40533","Lab 2-1","21","12548.0","21","1024"
"100","100","599","599","black","legacy","legacy","legacy","incongruent","1","undefined","1","s","0","0","0","21","21","0","21","0","21","0","0","0","21","21","21","21","Fri Sep 15 14:51:05 2023","1500","The main experiment item","True","Lab2.1.osexp","/Users/test/Desktop","False","mono","False","18","no","white","no","yes","768","legacy","21","21","/Users/test/Downloads/at-subject-3.csv","legacy","Melodramatic Milgram","4.0.5","0","s","NA","s","NA","NA","s","645.0","NA","1049","NA","NA","645","2","legacy","1024","2","48000","-16","experiment","HHSHH","3","odd","5458","NA","NA","41266","NA","4244","NA","NA","42310","4395","NA","NA","42414","43059","42307","42413","Lab 2-1","22","13193.0","22","1024"
"100","100","595","595","black","legacy","legacy","legacy","congruent","1","undefined","1","s","0","0","0","22","22","0","22","0","22","0","0","0","22","22","22","22","Fri Sep 15 14:51:05 2023","1500","The main experiment item","True","Lab2.1.osexp","/Users/test/Desktop","False","mono","False","18","no","white","no","yes","768","legacy","22","22","/Users/test/Downloads/at-subject-3.csv","legacy","Melodramatic Milgram","4.0.5","0","s","NA","s","NA","NA","s","503.0","NA","1049","NA","NA","503","2","legacy","1024","2","48000","-16","experiment","SSSSS","3","odd","5458","NA","NA","43063","NA","4244","NA","NA","44112","4395","NA","NA","44215","44719","44109","44215","Lab 2-1","23","13696.0","23","1024"
"100","100","628","628","black","legacy","legacy","legacy","incongruent","1","undefined","1","h","0","0","0","23","23","0","23","0","23","0","0","0","23","23","23","23","Fri Sep 15 14:51:05 2023","1500","The main experiment item","True","Lab2.1.osexp","/Users/test/Desktop","False","mono","False","18","no","white","no","yes","768","legacy","23","23","/Users/test/Downloads/at-subject-3.csv","legacy","Melodramatic Milgram","4.0.5","0","h","NA","s","NA","NA","h","1376.0","NA","1049","NA","NA","1376","2","legacy","1024","2","48000","-16","experiment","SSHSS","3","odd","5458","NA","NA","44722","NA","4244","NA","NA","45773","4395","NA","NA","45876","47253","45770","45875","Lab 2-1","24","15072.0","24","1024"
"100","100","627","627","black","legacy","legacy","legacy","incongruent","1","undefined","1","h","0","0","0","24","24","0","24","0","24","0","0","0","24","24","24","24","Fri Sep 15 14:51:05 2023","1500","The main experiment item","True","Lab2.1.osexp","/Users/test/Desktop","False","mono","False","18","no","white","no","yes","768","legacy","24","24","/Users/test/Downloads/at-subject-3.csv","legacy","Melodramatic Milgram","4.0.5","0","h","NA","s","NA","NA","h","603.0","NA","1049","NA","NA","603","2","legacy","1024","2","48000","-16","experiment","SSHSS","3","odd","5458","NA","NA","47256","NA","4244","NA","NA","48305","4395","NA","NA","48408","49012","48302","48408","Lab 2-1","25","15675.0","25","1024"
"100","100","624","624","black","legacy","legacy","legacy","incongruent","1","undefined","1","s","0","0","0","25","25","0","25","0","25","0","0","0","25","25","25","25","Fri Sep 15 14:51:05 2023","1500","The main experiment item","True","Lab2.1.osexp","/Users/test/Desktop","False","mono","False","18","no","white","no","yes","768","legacy","25","25","/Users/test/Downloads/at-subject-3.csv","legacy","Melodramatic Milgram","4.0.5","0","s","NA","s","NA","NA","s","560.0","NA","1049","NA","NA","560","2","legacy","1024","2","48000","-16","experiment","HHSHH","3","odd","5458","NA","NA","49015","NA","4244","NA","NA","50052","4395","NA","NA","50155","50716","50049","50155","Lab 2-1","26","16235.0","26","1024"
"100","100","623","623","black","legacy","legacy","legacy","congruent","1","undefined","1","s","0","0","0","26","26","0","26","0","26","0","0","0","26","26","26","26","Fri Sep 15 14:51:05 2023","1500","The main experiment item","True","Lab2.1.osexp","/Users/test/Desktop","False","mono","False","18","no","white","no","yes","768","legacy","26","26","/Users/test/Downloads/at-subject-3.csv","legacy","Melodramatic Milgram","4.0.5","0","s","NA","s","NA","NA","s","596.0","NA","1049","NA","NA","596","2","legacy","1024","2","48000","-16","experiment","SSSSS","3","odd","5458","NA","NA","50719","NA","4244","NA","NA","51758","4395","NA","NA","51860","52457","51755","51860","Lab 2-1","27","16831.0","27","1024"
"100","100","624","624","black","legacy","legacy","legacy","congruent","1","undefined","1","h","0","0","0","27","27","0","27","0","27","0","0","0","27","27","27","27","Fri Sep 15 14:51:05 2023","1500","The main experiment item","True","Lab2.1.osexp","/Users/test/Desktop","False","mono","False","18","no","white","no","yes","768","legacy","27","27","/Users/test/Downloads/at-subject-3.csv","legacy","Melodramatic Milgram","4.0.5","0","h","NA","s","NA","NA","h","656.0","NA","1049","NA","NA","656","2","legacy","1024","2","48000","-16","experiment","HHHHH","3","odd","5458","NA","NA","52460","NA","4244","NA","NA","53520","4395","NA","NA","53623","54280","53517","53623","Lab 2-1","28","17487.0","28","1024"
"100","100","628","628","black","legacy","legacy","legacy","congruent","1","undefined","1","h","0","0","0","28","28","0","28","0","28","0","0","0","28","28","28","28","Fri Sep 15 14:51:05 2023","1500","The main experiment item","True","Lab2.1.osexp","/Users/test/Desktop","False","mono","False","18","no","white","no","yes","768","legacy","28","28","/Users/test/Downloads/at-subject-3.csv","legacy","Melodramatic Milgram","4.0.5","0","h","NA","s","NA","NA","h","739.0","NA","1049","NA","NA","739","2","legacy","1024","2","48000","-16","experiment","HHHHH","3","odd","5458","NA","NA","54283","NA","4244","NA","NA","55354","4395","NA","NA","55457","56196","55351","55457","Lab 2-1","29","18226.0","29","1024"
"100","100","627","627","black","legacy","legacy","legacy","incongruent","1","undefined","1","s","0","0","0","29","29","0","29","0","29","0","0","0","29","29","29","29","Fri Sep 15 14:51:05 2023","1500","The main experiment item","True","Lab2.1.osexp","/Users/test/Desktop","False","mono","False","18","no","white","no","yes","768","legacy","29","29","/Users/test/Downloads/at-subject-3.csv","legacy","Melodramatic Milgram","4.0.5","0","s","NA","s","NA","NA","s","592.0","NA","1049","NA","NA","592","2","legacy","1024","2","48000","-16","experiment","HHSHH","3","odd","5458","NA","NA","56200","NA","4244","NA","NA","57259","4395","NA","NA","57362","57955","57255","57361","Lab 2-1","30","18818.0","30","1024"
"100","100","637","637","black","legacy","legacy","legacy","incongruent","1","undefined","1","h","0","0","0","30","30","0","30","0","30","0","0","0","30","30","30","30","Fri Sep 15 14:51:05 2023","1500","The main experiment item","True","Lab2.1.osexp","/Users/test/Desktop","False","mono","False","18","no","white","no","yes","768","legacy","30","30","/Users/test/Downloads/at-subject-3.csv","legacy","Melodramatic Milgram","4.0.5","0","h","NA","s","NA","NA","h","941.0","NA","1049","NA","NA","941","2","legacy","1024","2","48000","-16","experiment","SSHSS","3","odd","5458","NA","NA","57960","NA","4244","NA","NA","59009","4395","NA","NA","59113","60095","59006","59113","Lab 2-1","31","19759.0","31","1024"
"100","100","639","639","black","legacy","legacy","legacy","incongruent","1","undefined","1","s","0","0","0","31","31","0","31","0","31","0","0","0","31","31","31","31","Fri Sep 15 14:51:05 2023","1500","The main experiment item","True","Lab2.1.osexp","/Users/test/Desktop","False","mono","False","18","no","white","no","yes","768","legacy","31","31","/Users/test/Downloads/at-subject-3.csv","legacy","Melodramatic Milgram","4.0.5","0","s","NA","s","NA","NA","s","691.0","NA","1049","NA","NA","691","2","legacy","1024","2","48000","-16","experiment","HHSHH","3","odd","5458","NA","NA","60107","NA","4244","NA","NA","61159","4395","NA","NA","61262","61954","61156","61262","Lab 2-1","32","20450.0","32","1024"
"100","100","643","643","black","legacy","legacy","legacy","incongruent","1","undefined","1","s","0","0","0","32","32","0","32","0","32","0","0","0","32","32","32","32","Fri Sep 15 14:51:05 2023","1500","The main experiment item","True","Lab2.1.osexp","/Users/test/Desktop","False","mono","False","18","no","white","no","yes","768","legacy","32","32","/Users/test/Downloads/at-subject-3.csv","legacy","Melodramatic Milgram","4.0.5","0","s","NA","s","NA","NA","s","773.0","NA","1049","NA","NA","773","2","legacy","1024","2","48000","-16","experiment","HHSHH","3","odd","5458","NA","NA","61957","NA","4244","NA","NA","63005","4395","NA","NA","63107","63881","63002","63107","Lab 2-1","33","21223.0","33","1024"
"100","100","646","646","black","legacy","legacy","legacy","incongruent","1","undefined","1","h","0","0","0","33","33","0","33","0","33","0","0","0","33","33","33","33","Fri Sep 15 14:51:05 2023","1500","The main experiment item","True","Lab2.1.osexp","/Users/test/Desktop","False","mono","False","18","no","white","no","yes","768","legacy","33","33","/Users/test/Downloads/at-subject-3.csv","legacy","Melodramatic Milgram","4.0.5","0","h","NA","s","NA","NA","h","764.0","NA","1049","NA","NA","764","2","legacy","1024","2","48000","-16","experiment","SSHSS","3","odd","5458","NA","NA","63886","NA","4244","NA","NA","64936","4395","NA","NA","65040","65805","64933","65040","Lab 2-1","34","21987.0","34","1024"
"100","100","649","649","black","legacy","legacy","legacy","congruent","1","undefined","1","h","0","0","0","34","34","0","34","0","34","0","0","0","34","34","34","34","Fri Sep 15 14:51:05 2023","1500","The main experiment item","True","Lab2.1.osexp","/Users/test/Desktop","False","mono","False","18","no","white","no","yes","768","legacy","34","34","/Users/test/Downloads/at-subject-3.csv","legacy","Melodramatic Milgram","4.0.5","0","h","NA","s","NA","NA","h","744.0","NA","1049","NA","NA","744","2","legacy","1024","2","48000","-16","experiment","HHHHH","3","odd","5458","NA","NA","65809","NA","4244","NA","NA","66864","4395","NA","NA","66967","67712","66861","66966","Lab 2-1","35","22731.0","35","1024"
"100","100","649","649","black","legacy","legacy","legacy","congruent","1","undefined","1","s","0","0","0","35","35","0","35","0","35","0","0","0","35","35","35","35","Fri Sep 15 14:51:05 2023","1500","The main experiment item","True","Lab2.1.osexp","/Users/test/Desktop","False","mono","False","18","no","white","no","yes","768","legacy","35","35","/Users/test/Downloads/at-subject-3.csv","legacy","Melodramatic Milgram","4.0.5","0","s","NA","s","NA","NA","s","643.0","NA","1049","NA","NA","643","2","legacy","1024","2","48000","-16","experiment","SSSSS","3","odd","5458","NA","NA","67715","NA","4244","NA","NA","68762","4395","NA","NA","68865","69509","68759","68864","Lab 2-1","36","23374.0","36","1024"
"100","100","645","645","black","legacy","legacy","legacy","congruent","1","undefined","1","s","0","0","0","36","36","0","36","0","36","0","0","0","36","36","36","36","Fri Sep 15 14:51:05 2023","1500","The main experiment item","True","Lab2.1.osexp","/Users/test/Desktop","False","mono","False","18","no","white","no","yes","768","legacy","36","36","/Users/test/Downloads/at-subject-3.csv","legacy","Melodramatic Milgram","4.0.5","0","s","NA","s","NA","NA","s","500.0","NA","1049","NA","NA","500","2","legacy","1024","2","48000","-16","experiment","SSSSS","3","odd","5458","NA","NA","69512","NA","4244","NA","NA","70559","4395","NA","NA","70663","71164","70556","70663","Lab 2-1","37","23874.0","37","1024"
"100","100","639","639","black","legacy","legacy","legacy","congruent","1","undefined","1","s","0","0","0","37","37","0","37","0","37","0","0","0","37","37","37","37","Fri Sep 15 14:51:05 2023","1500","The main experiment item","True","Lab2.1.osexp","/Users/test/Desktop","False","mono","False","18","no","white","no","yes","768","legacy","37","37","/Users/test/Downloads/at-subject-3.csv","legacy","Melodramatic Milgram","4.0.5","0","s","NA","s","NA","NA","s","418.0","NA","1049","NA","NA","418","2","legacy","1024","2","48000","-16","experiment","SSSSS","3","odd","5458","NA","NA","71168","NA","4244","NA","NA","72215","4395","NA","NA","72319","72738","72212","72318","Lab 2-1","38","24292.0","38","1024"
"100","100","641","641","black","legacy","legacy","legacy","incongruent","1","undefined","1","s","0","0","0","38","38","0","38","0","38","0","0","0","38","38","38","38","Fri Sep 15 14:51:05 2023","1500","The main experiment item","True","Lab2.1.osexp","/Users/test/Desktop","False","mono","False","18","no","white","no","yes","768","legacy","38","38","/Users/test/Downloads/at-subject-3.csv","legacy","Melodramatic Milgram","4.0.5","0","s","NA","s","NA","NA","s","745.0","NA","1049","NA","NA","745","2","legacy","1024","2","48000","-16","experiment","HHSHH","3","odd","5458","NA","NA","72741","NA","4244","NA","NA","73790","4395","NA","NA","73892","74638","73787","73892","Lab 2-1","39","25037.0","39","1024"
"100","100","642","642","black","legacy","legacy","legacy","congruent","1","undefined","1","s","0","0","0","39","39","0","39","0","39","0","0","0","39","39","39","39","Fri Sep 15 14:51:05 2023","1500","The main experiment item","True","Lab2.1.osexp","/Users/test/Desktop","False","mono","False","18","no","white","no","yes","768","legacy","39","39","/Users/test/Downloads/at-subject-3.csv","legacy","Melodramatic Milgram","4.0.5","0","s","NA","s","NA","NA","s","651.0","NA","1049","NA","NA","651","2","legacy","1024","2","48000","-16","experiment","SSSSS","3","odd","5458","NA","NA","74641","NA","4244","NA","NA","75689","4395","NA","NA","75793","76444","75687","75793","Lab 2-1","40","25688.0","40","1024"
"100","100","647","647","black","legacy","legacy","legacy","incongruent","1","undefined","1","s","0","0","0","40","40","0","40","0","40","0","0","0","40","40","40","40","Fri Sep 15 14:51:05 2023","1500","The main experiment item","True","Lab2.1.osexp","/Users/test/Desktop","False","mono","False","18","no","white","no","yes","768","legacy","40","40","/Users/test/Downloads/at-subject-3.csv","legacy","Melodramatic Milgram","4.0.5","0","s","NA","s","NA","NA","s","876.0","NA","1049","NA","NA","876","2","legacy","1024","2","48000","-16","experiment","HHSHH","3","odd","5458","NA","NA","76448","NA","4244","NA","NA","77485","4395","NA","NA","77588","78465","77482","77588","Lab 2-1","41","26564.0","41","1024"
"100","100","644","644","black","legacy","legacy","legacy","incongruent","1","undefined","1","s","0","0","0","41","41","0","41","0","41","0","0","0","41","41","41","41","Fri Sep 15 14:51:05 2023","1500","The main experiment item","True","Lab2.1.osexp","/Users/test/Desktop","False","mono","False","18","no","white","no","yes","768","legacy","41","41","/Users/test/Downloads/at-subject-3.csv","legacy","Melodramatic Milgram","4.0.5","0","s","NA","s","NA","NA","s","487.0","NA","1049","NA","NA","487","2","legacy","1024","2","48000","-16","experiment","HHSHH","3","odd","5458","NA","NA","78469","NA","4244","NA","NA","79509","4395","NA","NA","79612","80100","79506","79612","Lab 2-1","42","27051.0","42","1024"
"100","100","641","641","black","legacy","legacy","legacy","congruent","1","undefined","1","h","0","0","0","42","42","0","42","0","42","0","0","0","42","42","42","42","Fri Sep 15 14:51:05 2023","1500","The main experiment item","True","Lab2.1.osexp","/Users/test/Desktop","False","mono","False","18","no","white","no","yes","768","legacy","42","42","/Users/test/Downloads/at-subject-3.csv","legacy","Melodramatic Milgram","4.0.5","0","h","NA","s","NA","NA","h","549.0","NA","1049","NA","NA","549","2","legacy","1024","2","48000","-16","experiment","HHHHH","3","odd","5458","NA","NA","80103","NA","4244","NA","NA","81146","4395","NA","NA","81249","81800","81143","81249","Lab 2-1","43","27600.0","43","1024"
"100","100","639","639","black","legacy","legacy","legacy","congruent","1","undefined","1","h","0","0","0","43","43","0","43","0","43","0","0","0","43","43","43","43","Fri Sep 15 14:51:05 2023","1500","The main experiment item","True","Lab2.1.osexp","/Users/test/Desktop","False","mono","False","18","no","white","no","yes","768","legacy","43","43","/Users/test/Downloads/at-subject-3.csv","legacy","Melodramatic Milgram","4.0.5","0","h","NA","s","NA","NA","h","556.0","NA","1049","NA","NA","556","2","legacy","1024","2","48000","-16","experiment","HHHHH","3","odd","5458","NA","NA","81804","NA","4244","NA","NA","82853","4395","NA","NA","82956","83513","82850","82955","Lab 2-1","44","28156.0","44","1024"
"100","100","636","636","black","legacy","legacy","legacy","congruent","1","undefined","1","h","0","0","0","44","44","0","44","0","44","0","0","0","44","44","44","44","Fri Sep 15 14:51:05 2023","1500","The main experiment item","True","Lab2.1.osexp","/Users/test/Desktop","False","mono","False","18","no","white","no","yes","768","legacy","44","44","/Users/test/Downloads/at-subject-3.csv","legacy","Melodramatic Milgram","4.0.5","0","h","NA","s","NA","NA","h","494.0","NA","1049","NA","NA","494","2","legacy","1024","2","48000","-16","experiment","HHHHH","3","odd","5458","NA","NA","83517","NA","4244","NA","NA","84559","4395","NA","NA","84663","85158","84557","84663","Lab 2-1","45","28650.0","45","1024"
"100","100","632","632","black","legacy","legacy","legacy","congruent","1","undefined","1","h","0","0","0","45","45","0","45","0","45","0","0","0","45","45","45","45","Fri Sep 15 14:51:05 2023","1500","The main experiment item","True","Lab2.1.osexp","/Users/test/Desktop","False","mono","False","18","no","white","no","yes","768","legacy","45","45","/Users/test/Downloads/at-subject-3.csv","legacy","Melodramatic Milgram","4.0.5","0","h","NA","s","NA","NA","h","464.0","NA","1049","NA","NA","464","2","legacy","1024","2","48000","-16","experiment","HHHHH","3","odd","5458","NA","NA","85161","NA","4244","NA","NA","86210","4395","NA","NA","86314","86779","86207","86313","Lab 2-1","46","29114.0","46","1024"
"100","100","629","629","black","legacy","legacy","legacy","congruent","1","undefined","1","s","0","0","0","46","46","0","46","0","46","0","0","0","46","46","46","46","Fri Sep 15 14:51:05 2023","1500","The main experiment item","True","Lab2.1.osexp","/Users/test/Desktop","False","mono","False","18","no","white","no","yes","768","legacy","46","46","/Users/test/Downloads/at-subject-3.csv","legacy","Melodramatic Milgram","4.0.5","0","s","NA","s","NA","NA","s","488.0","NA","1049","NA","NA","488","2","legacy","1024","2","48000","-16","experiment","SSSSS","3","odd","5458","NA","NA","86782","NA","4244","NA","NA","87857","4395","NA","NA","87960","88449","87854","87959","Lab 2-1","47","29602.0","47","1024"
"100","100","626","626","black","legacy","legacy","legacy","congruent","1","undefined","1","s","0","0","0","47","47","0","47","0","47","0","0","0","47","47","47","47","Fri Sep 15 14:51:05 2023","1500","The main experiment item","True","Lab2.1.osexp","/Users/test/Desktop","False","mono","False","18","no","white","no","yes","768","legacy","47","47","/Users/test/Downloads/at-subject-3.csv","legacy","Melodramatic Milgram","4.0.5","0","s","NA","s","NA","NA","s","491.0","NA","1049","NA","NA","491","2","legacy","1024","2","48000","-16","experiment","SSSSS","3","odd","5458","NA","NA","88452","NA","4244","NA","NA","89488","4395","NA","NA","89591","90083","89485","89591","Lab 2-1","48","30093.0","48","1024"
"100","100","623","623","black","legacy","legacy","legacy","congruent","1","undefined","1","s","0","0","0","48","48","0","48","0","48","0","0","0","48","48","48","48","Fri Sep 15 14:51:05 2023","1500","The main experiment item","True","Lab2.1.osexp","/Users/test/Desktop","False","mono","False","18","no","white","no","yes","768","legacy","48","48","/Users/test/Downloads/at-subject-3.csv","legacy","Melodramatic Milgram","4.0.5","0","s","NA","s","NA","NA","s","464.0","NA","1049","NA","NA","464","2","legacy","1024","2","48000","-16","experiment","SSSSS","3","odd","5458","NA","NA","90086","NA","4244","NA","NA","91124","4395","NA","NA","91227","91692","91121","91227","Lab 2-1","49","30557.0","49","1024"
"100","100","624","624","black","legacy","legacy","legacy","incongruent","1","undefined","1","h","0","0","0","49","49","0","49","0","49","0","0","0","49","49","49","49","Fri Sep 15 14:51:05 2023","1500","The main experiment item","True","Lab2.1.osexp","/Users/test/Desktop","False","mono","False","18","no","white","no","yes","768","legacy","49","49","/Users/test/Downloads/at-subject-3.csv","legacy","Melodramatic Milgram","4.0.5","0","h","NA","s","NA","NA","h","669.0","NA","1049","NA","NA","669","2","legacy","1024","2","48000","-16","experiment","SSHSS","3","odd","5458","NA","NA","91695","NA","4244","NA","NA","92738","4395","NA","NA","92842","93512","92735","92841","Lab 2-1","50","31226.0","50","1024"
"100","100","625","625","black","legacy","legacy","legacy","congruent","1","undefined","1","h","0","0","0","50","50","0","50","0","50","0","0","0","50","50","50","50","Fri Sep 15 14:51:05 2023","1500","The main experiment item","True","Lab2.1.osexp","/Users/test/Desktop","False","mono","False","18","no","white","no","yes","768","legacy","50","50","/Users/test/Downloads/at-subject-3.csv","legacy","Melodramatic Milgram","4.0.5","0","h","NA","s","NA","NA","h","649.0","NA","1049","NA","NA","649","2","legacy","1024","2","48000","-16","experiment","HHHHH","3","odd","5458","NA","NA","93515","NA","4244","NA","NA","94560","4395","NA","NA","94663","95313","94557","94663","Lab 2-1","51","31875.0","51","1024"
"100","100","625","625","black","legacy","legacy","legacy","congruent","1","undefined","1","h","0","0","0","51","51","0","51","0","51","0","0","0","51","51","51","51","Fri Sep 15 14:51:05 2023","1500","The main experiment item","True","Lab2.1.osexp","/Users/test/Desktop","False","mono","False","18","no","white","no","yes","768","legacy","51","51","/Users/test/Downloads/at-subject-3.csv","legacy","Melodramatic Milgram","4.0.5","0","h","NA","s","NA","NA","h","676.0","NA","1049","NA","NA","676","2","legacy","1024","2","48000","-16","experiment","HHHHH","3","odd","5458","NA","NA","95316","NA","4244","NA","NA","96359","4395","NA","NA","96462","97138","96356","96462","Lab 2-1","52","32551.0","52","1024"
"100","100","624","624","black","legacy","legacy","legacy","congruent","1","undefined","1","s","0","0","0","52","52","0","52","0","52","0","0","0","52","52","52","52","Fri Sep 15 14:51:05 2023","1500","The main experiment item","True","Lab2.1.osexp","/Users/test/Desktop","False","mono","False","18","no","white","no","yes","768","legacy","52","52","/Users/test/Downloads/at-subject-3.csv","legacy","Melodramatic Milgram","4.0.5","0","s","NA","s","NA","NA","s","529.0","NA","1049","NA","NA","529","2","legacy","1024","2","48000","-16","experiment","SSSSS","3","odd","5458","NA","NA","97142","NA","4244","NA","NA","98186","4395","NA","NA","98289","98820","98183","98289","Lab 2-1","53","33080.0","53","1024"
"100","100","623","623","black","legacy","legacy","legacy","incongruent","1","undefined","1","s","0","0","0","53","53","0","53","0","53","0","0","0","53","53","53","53","Fri Sep 15 14:51:05 2023","1500","The main experiment item","True","Lab2.1.osexp","/Users/test/Desktop","False","mono","False","18","no","white","no","yes","768","legacy","53","53","/Users/test/Downloads/at-subject-3.csv","legacy","Melodramatic Milgram","4.0.5","0","s","NA","s","NA","NA","s","595.0","NA","1049","NA","NA","595","2","legacy","1024","2","48000","-16","experiment","HHSHH","3","odd","5458","NA","NA","98823","NA","4244","NA","NA","99877","4395","NA","NA","99980","100576","99874","99980","Lab 2-1","54","33675.0","54","1024"
"100","100","621","621","black","legacy","legacy","legacy","incongruent","1","undefined","1","s","0","0","0","54","54","0","54","0","54","0","0","0","54","54","54","54","Fri Sep 15 14:51:05 2023","1500","The main experiment item","True","Lab2.1.osexp","/Users/test/Desktop","False","mono","False","18","no","white","no","yes","768","legacy","54","54","/Users/test/Downloads/at-subject-3.csv","legacy","Melodramatic Milgram","4.0.5","0","s","NA","s","NA","NA","s","488.0","NA","1049","NA","NA","488","2","legacy","1024","2","48000","-16","experiment","HHSHH","3","odd","5458","NA","NA","100579","NA","4244","NA","NA","101628","4395","NA","NA","101732","102221","101626","101732","Lab 2-1","55","34163.0","55","1024"
"100","100","620","620","black","legacy","legacy","legacy","congruent","1","undefined","1","h","0","0","0","55","55","0","55","0","55","0","0","0","55","55","55","55","Fri Sep 15 14:51:05 2023","1500","The main experiment item","True","Lab2.1.osexp","/Users/test/Desktop","False","mono","False","18","no","white","no","yes","768","legacy","55","55","/Users/test/Downloads/at-subject-3.csv","legacy","Melodramatic Milgram","4.0.5","0","h","NA","s","NA","NA","h","593.0","NA","1049","NA","NA","593","2","legacy","1024","2","48000","-16","experiment","HHHHH","3","odd","5458","NA","NA","102225","NA","4244","NA","NA","103266","4395","NA","NA","103368","103962","103263","103368","Lab 2-1","56","34756.0","56","1024"
"100","100","621","621","black","legacy","legacy","legacy","congruent","1","undefined","1","s","0","0","0","56","56","0","56","0","56","0","0","0","56","56","56","56","Fri Sep 15 14:51:05 2023","1500","The main experiment item","True","Lab2.1.osexp","/Users/test/Desktop","False","mono","False","18","no","white","no","yes","768","legacy","56","56","/Users/test/Downloads/at-subject-3.csv","legacy","Melodramatic Milgram","4.0.5","0","s","NA","s","NA","NA","s","697.0","NA","1049","NA","NA","697","2","legacy","1024","2","48000","-16","experiment","SSSSS","3","odd","5458","NA","NA","103968","NA","4244","NA","NA","105004","4395","NA","NA","105108","105806","105002","105108","Lab 2-1","57","35453.0","57","1024"
"100","100","626","626","black","legacy","legacy","legacy","incongruent","1","undefined","1","h","0","0","0","57","57","0","57","0","57","0","0","0","57","57","57","57","Fri Sep 15 14:51:05 2023","1500","The main experiment item","True","Lab2.1.osexp","/Users/test/Desktop","False","mono","False","18","no","white","no","yes","768","legacy","57","57","/Users/test/Downloads/at-subject-3.csv","legacy","Melodramatic Milgram","4.0.5","0","h","NA","s","NA","NA","h","867.0","NA","1049","NA","NA","867","2","legacy","1024","2","48000","-16","experiment","SSHSS","3","odd","5458","NA","NA","105810","NA","4244","NA","NA","106855","4395","NA","NA","106958","107826","106852","106958","Lab 2-1","58","36320.0","58","1024"
"100","100","625","625","black","legacy","legacy","legacy","congruent","1","undefined","1","h","0","0","0","58","58","0","58","0","58","0","0","0","58","58","58","58","Fri Sep 15 14:51:05 2023","1500","The main experiment item","True","Lab2.1.osexp","/Users/test/Desktop","False","mono","False","18","no","white","no","yes","768","legacy","58","58","/Users/test/Downloads/at-subject-3.csv","legacy","Melodramatic Milgram","4.0.5","0","h","NA","s","NA","NA","h","566.0","NA","1049","NA","NA","566","2","legacy","1024","2","48000","-16","experiment","HHHHH","3","odd","5458","NA","NA","107830","NA","4244","NA","NA","108892","4395","NA","NA","108994","109561","108889","108994","Lab 2-1","59","36886.0","59","1024"
"100","100","622","622","black","legacy","legacy","legacy","incongruent","1","undefined","1","s","0","0","0","59","59","0","59","0","59","0","0","0","59","59","59","59","Fri Sep 15 14:51:05 2023","1500","The main experiment item","True","Lab2.1.osexp","/Users/test/Desktop","False","mono","False","18","no","white","no","yes","768","legacy","59","59","/Users/test/Downloads/at-subject-3.csv","legacy","Melodramatic Milgram","4.0.5","0","s","NA","s","NA","NA","s","458.0","NA","1049","NA","NA","458","2","legacy","1024","2","48000","-16","experiment","HHSHH","3","odd","5458","NA","NA","109565","NA","4244","NA","NA","110610","4395","NA","NA","110714","111173","110607","110714","Lab 2-1","60","37344.0","60","1024"
"100","100","622","622","black","legacy","legacy","legacy","congruent","1","undefined","1","h","0","0","0","60","60","0","60","0","60","0","0","0","60","60","60","60","Fri Sep 15 14:51:05 2023","1500","The main experiment item","True","Lab2.1.osexp","/Users/test/Desktop","False","mono","False","18","no","white","no","yes","768","legacy","60","60","/Users/test/Downloads/at-subject-3.csv","legacy","Melodramatic Milgram","4.0.5","0","h","NA","s","NA","NA","h","616.0","NA","1049","NA","NA","616","2","legacy","1024","2","48000","-16","experiment","HHHHH","3","odd","5458","NA","NA","111176","NA","4244","NA","NA","112219","4395","NA","NA","112322","112940","112216","112322","Lab 2-1","61","37960.0","61","1024"
"100","100","621","621","black","legacy","legacy","legacy","congruent","1","undefined","1","h","0","0","0","61","61","0","61","0","61","0","0","0","61","61","61","61","Fri Sep 15 14:51:05 2023","1500","The main experiment item","True","Lab2.1.osexp","/Users/test/Desktop","False","mono","False","18","no","white","no","yes","768","legacy","61","61","/Users/test/Downloads/at-subject-3.csv","legacy","Melodramatic Milgram","4.0.5","0","h","NA","s","NA","NA","h","573.0","NA","1049","NA","NA","573","2","legacy","1024","2","48000","-16","experiment","HHHHH","3","odd","5458","NA","NA","112944","NA","4244","NA","NA","114002","4395","NA","NA","114106","114680","113998","114105","Lab 2-1","62","38533.0","62","1024"
"100","100","620","620","black","legacy","legacy","legacy","incongruent","1","undefined","1","s","0","0","0","62","62","0","62","0","62","0","0","0","62","62","62","62","Fri Sep 15 14:51:05 2023","1500","The main experiment item","True","Lab2.1.osexp","/Users/test/Desktop","False","mono","False","18","no","white","no","yes","768","legacy","62","62","/Users/test/Downloads/at-subject-3.csv","legacy","Melodramatic Milgram","4.0.5","0","s","NA","s","NA","NA","s","581.0","NA","1049","NA","NA","581","2","legacy","1024","2","48000","-16","experiment","HHSHH","3","odd","5458","NA","NA","114683","NA","4244","NA","NA","115720","4395","NA","NA","115823","116405","115717","115823","Lab 2-1","63","39114.0","63","1024"
"100","100","623","623","black","legacy","legacy","legacy","incongruent","1","undefined","1","h","0","0","0","63","63","0","63","0","63","0","0","0","63","63","63","63","Fri Sep 15 14:51:05 2023","1500","The main experiment item","True","Lab2.1.osexp","/Users/test/Desktop","False","mono","False","18","no","white","no","yes","768","legacy","63","63","/Users/test/Downloads/at-subject-3.csv","legacy","Melodramatic Milgram","4.0.5","0","h","NA","s","NA","NA","h","769.0","NA","1049","NA","NA","769","2","legacy","1024","2","48000","-16","experiment","SSHSS","3","odd","5458","NA","NA","116409","NA","4244","NA","NA","117447","4395","NA","NA","117550","118321","117444","117550","Lab 2-1","64","39883.0","64","1024"
"100","100","623","623","black","legacy","legacy","legacy","incongruent","1","undefined","1","h","0","0","0","64","64","0","64","0","64","0","0","0","64","64","64","64","Fri Sep 15 14:51:05 2023","1500","The main experiment item","True","Lab2.1.osexp","/Users/test/Desktop","False","mono","False","18","no","white","no","yes","768","legacy","64","64","/Users/test/Downloads/at-subject-3.csv","legacy","Melodramatic Milgram","4.0.5","0","h","NA","s","NA","NA","h","651.0","NA","1049","NA","NA","651","2","legacy","1024","2","48000","-16","experiment","SSHSS","3","odd","5458","NA","NA","118324","NA","4244","NA","NA","119367","4395","NA","NA","119470","120122","119364","119470","Lab 2-1","65","40534.0","65","1024"
"100","100","625","625","black","legacy","legacy","legacy","incongruent","1","undefined","1","s","0","0","0","65","65","0","65","0","65","0","0","0","65","65","65","65","Fri Sep 15 14:51:05 2023","1500","The main experiment item","True","Lab2.1.osexp","/Users/test/Desktop","False","mono","False","18","no","white","no","yes","768","legacy","65","65","/Users/test/Downloads/at-subject-3.csv","legacy","Melodramatic Milgram","4.0.5","0","s","NA","s","NA","NA","s","771.0","NA","1049","NA","NA","771","2","legacy","1024","2","48000","-16","experiment","HHSHH","3","odd","5458","NA","NA","120125","NA","4244","NA","NA","121168","4395","NA","NA","121271","122043","121165","121271","Lab 2-1","66","41305.0","66","1024"
"100","100","631","631","black","legacy","legacy","legacy","incongruent","1","undefined","1","h","0","0","0","66","66","0","66","0","66","0","0","0","66","66","66","66","Fri Sep 15 14:51:05 2023","1500","The main experiment item","True","Lab2.1.osexp","/Users/test/Desktop","False","mono","False","18","no","white","no","yes","768","legacy","66","66","/Users/test/Downloads/at-subject-3.csv","legacy","Melodramatic Milgram","4.0.5","0","h","NA","s","NA","NA","h","998.0","NA","1049","NA","NA","998","2","legacy","1024","2","48000","-16","experiment","SSHSS","3","odd","5458","NA","NA","122046","NA","4244","NA","NA","123093","4395","NA","NA","123197","124196","123089","123197","Lab 2-1","67","42303.0","67","1024"
"100","100","631","631","black","legacy","legacy","legacy","incongruent","1","undefined","1","h","0","0","0","67","67","0","67","0","67","0","0","0","67","67","67","67","Fri Sep 15 14:51:05 2023","1500","The main experiment item","True","Lab2.1.osexp","/Users/test/Desktop","False","mono","False","18","no","white","no","yes","768","legacy","67","67","/Users/test/Downloads/at-subject-3.csv","legacy","Melodramatic Milgram","4.0.5","0","h","NA","s","NA","NA","h","643.0","NA","1049","NA","NA","643","2","legacy","1024","2","48000","-16","experiment","SSHSS","3","odd","5458","NA","NA","124199","NA","4244","NA","NA","125242","4395","NA","NA","125347","125991","125239","125346","Lab 2-1","68","42946.0","68","1024"
"100","100","631","631","black","legacy","legacy","legacy","congruent","1","undefined","1","h","0","0","0","68","68","0","68","0","68","0","0","0","68","68","68","68","Fri Sep 15 14:51:05 2023","1500","The main experiment item","True","Lab2.1.osexp","/Users/test/Desktop","False","mono","False","18","no","white","no","yes","768","legacy","68","68","/Users/test/Downloads/at-subject-3.csv","legacy","Melodramatic Milgram","4.0.5","0","h","NA","s","NA","NA","h","620.0","NA","1049","NA","NA","620","2","legacy","1024","2","48000","-16","experiment","HHHHH","3","odd","5458","NA","NA","125995","NA","4244","NA","NA","127035","4395","NA","NA","127138","127760","127032","127138","Lab 2-1","69","43566.0","69","1024"
"100","100","629","629","black","legacy","legacy","legacy","congruent","1","undefined","1","s","0","0","0","69","69","0","69","0","69","0","0","0","69","69","69","69","Fri Sep 15 14:51:05 2023","1500","The main experiment item","True","Lab2.1.osexp","/Users/test/Desktop","False","mono","False","18","no","white","no","yes","768","legacy","69","69","/Users/test/Downloads/at-subject-3.csv","legacy","Melodramatic Milgram","4.0.5","0","s","NA","s","NA","NA","s","468.0","NA","1049","NA","NA","468","2","legacy","1024","2","48000","-16","experiment","SSSSS","3","odd","5458","NA","NA","127764","NA","4244","NA","NA","128813","4395","NA","NA","128916","129385","128810","128915","Lab 2-1","70","44034.0","70","1024"
"100","100","632","632","black","legacy","legacy","legacy","incongruent","1","undefined","1","h","0","0","0","70","70","0","70","0","70","0","0","0","70","70","70","70","Fri Sep 15 14:51:05 2023","1500","The main experiment item","True","Lab2.1.osexp","/Users/test/Desktop","False","mono","False","18","no","white","no","yes","768","legacy","70","70","/Users/test/Downloads/at-subject-3.csv","legacy","Melodramatic Milgram","4.0.5","0","h","NA","s","NA","NA","h","868.0","NA","1049","NA","NA","868","2","legacy","1024","2","48000","-16","experiment","SSHSS","3","odd","5458","NA","NA","129388","NA","4244","NA","NA","130424","4395","NA","NA","130527","131396","130421","130526","Lab 2-1","71","44902.0","71","1024"
"100","100","630","630","black","legacy","legacy","legacy","congruent","1","undefined","1","s","0","0","0","71","71","0","71","0","71","0","0","0","71","71","71","71","Fri Sep 15 14:51:05 2023","1500","The main experiment item","True","Lab2.1.osexp","/Users/test/Desktop","False","mono","False","18","no","white","no","yes","768","legacy","71","71","/Users/test/Downloads/at-subject-3.csv","legacy","Melodramatic Milgram","4.0.5","0","s","NA","s","NA","NA","s","520.0","NA","1049","NA","NA","520","2","legacy","1024","2","48000","-16","experiment","SSSSS","3","odd","5458","NA","NA","131399","NA","4244","NA","NA","132438","4395","NA","NA","132541","133062","132435","132541","Lab 2-1","72","45422.0","72","1024"
"100","100","629","629","black","legacy","legacy","legacy","incongruent","1","undefined","1","s","0","0","0","72","72","0","72","0","72","0","0","0","72","72","72","72","Fri Sep 15 14:51:05 2023","1500","The main experiment item","True","Lab2.1.osexp","/Users/test/Desktop","False","mono","False","18","no","white","no","yes","768","legacy","72","72","/Users/test/Downloads/at-subject-3.csv","legacy","Melodramatic Milgram","4.0.5","0","s","NA","s","NA","NA","s","509.0","NA","1049","NA","NA","509","2","legacy","1024","2","48000","-16","experiment","HHSHH","3","odd","5458","NA","NA","133065","NA","4244","NA","NA","134111","4395","NA","NA","134215","134726","134108","134215","Lab 2-1","73","45931.0","73","1024"
"100","100","628","628","black","legacy","legacy","legacy","incongruent","1","undefined","1","h","0","0","0","73","73","0","73","0","73","0","0","0","73","73","73","73","Fri Sep 15 14:51:05 2023","1500","The main experiment item","True","Lab2.1.osexp","/Users/test/Desktop","False","mono","False","18","no","white","no","yes","768","legacy","73","73","/Users/test/Downloads/at-subject-3.csv","legacy","Melodramatic Milgram","4.0.5","0","h","NA","s","NA","NA","h","602.0","NA","1049","NA","NA","602","2","legacy","1024","2","48000","-16","experiment","SSHSS","3","odd","5458","NA","NA","134729","NA","4244","NA","NA","135772","4395","NA","NA","135875","136478","135769","135874","Lab 2-1","74","46533.0","74","1024"
"100","100","629","629","black","legacy","legacy","legacy","congruent","1","undefined","1","s","0","0","0","74","74","0","74","0","74","0","0","0","74","74","74","74","Fri Sep 15 14:51:05 2023","1500","The main experiment item","True","Lab2.1.osexp","/Users/test/Desktop","False","mono","False","18","no","white","no","yes","768","legacy","74","74","/Users/test/Downloads/at-subject-3.csv","legacy","Melodramatic Milgram","4.0.5","0","s","NA","s","NA","NA","s","657.0","NA","1049","NA","NA","657","2","legacy","1024","2","48000","-16","experiment","SSSSS","3","odd","5458","NA","NA","136481","NA","4244","NA","NA","137524","4395","NA","NA","137627","138285","137521","137627","Lab 2-1","75","47190.0","75","1024"
"100","100","629","629","black","legacy","legacy","legacy","congruent","1","undefined","1","s","0","0","0","75","75","0","75","0","75","0","0","0","75","75","75","75","Fri Sep 15 14:51:05 2023","1500","The main experiment item","True","Lab2.1.osexp","/Users/test/Desktop","False","mono","False","18","no","white","no","yes","768","legacy","75","75","/Users/test/Downloads/at-subject-3.csv","legacy","Melodramatic Milgram","4.0.5","0","s","NA","s","NA","NA","s","631.0","NA","1049","NA","NA","631","2","legacy","1024","2","48000","-16","experiment","SSSSS","3","odd","5458","NA","NA","138289","NA","4244","NA","NA","139332","4395","NA","NA","139436","140068","139329","139435","Lab 2-1","76","47821.0","76","1024"
"100","100","630","630","black","legacy","legacy","legacy","incongruent","1","undefined","1","h","0","0","0","76","76","0","76","0","76","0","0","0","76","76","76","76","Fri Sep 15 14:51:05 2023","1500","The main experiment item","True","Lab2.1.osexp","/Users/test/Desktop","False","mono","False","18","no","white","no","yes","768","legacy","76","76","/Users/test/Downloads/at-subject-3.csv","legacy","Melodramatic Milgram","4.0.5","0","h","NA","s","NA","NA","h","744.0","NA","1049","NA","NA","744","2","legacy","1024","2","48000","-16","experiment","SSHSS","3","odd","5458","NA","NA","140072","NA","4244","NA","NA","141125","4395","NA","NA","141229","141974","141123","141229","Lab 2-1","77","48565.0","77","1024"
"100","100","631","631","black","legacy","legacy","legacy","congruent","1","undefined","1","h","0","0","0","77","77","0","77","0","77","0","0","0","77","77","77","77","Fri Sep 15 14:51:05 2023","1500","The main experiment item","True","Lab2.1.osexp","/Users/test/Desktop","False","mono","False","18","no","white","no","yes","768","legacy","77","77","/Users/test/Downloads/at-subject-3.csv","legacy","Melodramatic Milgram","4.0.5","0","h","NA","s","NA","NA","h","695.0","NA","1049","NA","NA","695","2","legacy","1024","2","48000","-16","experiment","HHHHH","3","odd","5458","NA","NA","141977","NA","4244","NA","NA","143010","4395","NA","NA","143113","143809","143007","143113","Lab 2-1","78","49260.0","78","1024"
"100","100","629","629","black","legacy","legacy","legacy","congruent","1","undefined","1","h","0","0","0","78","78","0","78","0","78","0","0","0","78","78","78","78","Fri Sep 15 14:51:05 2023","1500","The main experiment item","True","Lab2.1.osexp","/Users/test/Desktop","False","mono","False","18","no","white","no","yes","768","legacy","78","78","/Users/test/Downloads/at-subject-3.csv","legacy","Melodramatic Milgram","4.0.5","0","h","NA","s","NA","NA","h","464.0","NA","1049","NA","NA","464","2","legacy","1024","2","48000","-16","experiment","HHHHH","3","odd","5458","NA","NA","143813","NA","4244","NA","NA","144856","4395","NA","NA","144958","145423","144853","144958","Lab 2-1","79","49724.0","79","1024"
"100","100","629","629","black","legacy","legacy","legacy","incongruent","1","undefined","1","s","0","0","0","79","79","0","79","0","79","0","0","0","79","79","79","79","Fri Sep 15 14:51:05 2023","1500","The main experiment item","True","Lab2.1.osexp","/Users/test/Desktop","False","mono","False","18","no","white","no","yes","768","legacy","79","79","/Users/test/Downloads/at-subject-3.csv","legacy","Melodramatic Milgram","4.0.5","0","s","NA","s","NA","NA","s","645.0","NA","1049","NA","NA","645","2","legacy","1024","2","48000","-16","experiment","HHSHH","3","odd","5458","NA","NA","145427","NA","4244","NA","NA","146470","4395","NA","NA","146573","147219","146467","146573","Lab 2-1","80","50369.0","80","1024"
"100","100","630","630","black","legacy","legacy","legacy","incongruent","1","undefined","1","h","0","0","0","80","80","0","80","0","80","0","0","0","80","80","80","80","Fri Sep 15 14:51:05 2023","600","The main experiment item","True","Lab2.1.osexp","/Users/test/Desktop","False","mono","False","18","no","white","no","yes","768","legacy","0","79","/Users/test/Downloads/at-subject-3.csv","legacy","Melodramatic Milgram","4.0.5","0","h","NA","s","s","NA","h","672.0","NA","1049","10804","NA","672","2","legacy","1024","2","48000","-16","experiment","SSHSS","3","odd","5458","159031","NA","147222","NA","4244","NA","NA","159075","4395","148226","NA","159178","159851","159071","159178","Lab 2-1","81","51041.0","81","1024"
"98","98","628","628","black","legacy","legacy","legacy","incongruent","0","undefined","0","s","0","0","0","81","81","0","81","0","81","0","0","0","81","81","81","81","Fri Sep 15 14:51:05 2023","600","The main experiment item","True","Lab2.1.osexp","/Users/test/Desktop","False","mono","False","18","no","white","no","yes","768","legacy","1","79","/Users/test/Downloads/at-subject-3.csv","legacy","Melodramatic Milgram","4.0.5","0","h","NA","s","s","NA","h","457.0","NA","1049","10804","NA","457","2","legacy","1024","2","48000","-16","experiment","HHSHH","3","odd","5458","159031","NA","160358","NA","4244","159854","NA","161394","4395","148226","NA","161497","161955","161392","161497","Lab 2-1","81","51498.0","82","1024"
"98","98","626","626","black","legacy","legacy","legacy","congruent","1","undefined","1","s","0","0","0","82","82","0","82","0","82","0","0","0","82","82","82","82","Fri Sep 15 14:51:05 2023","600","The main experiment item","True","Lab2.1.osexp","/Users/test/Desktop","False","mono","False","18","no","white","no","yes","768","legacy","2","79","/Users/test/Downloads/at-subject-3.csv","legacy","Melodramatic Milgram","4.0.5","0","s","NA","s","s","NA","s","480.0","NA","1049","10804","NA","480","2","legacy","1024","2","48000","-16","experiment","SSSSS","3","odd","5458","159031","NA","162462","161958","4244","159854","NA","163500","4395","148226","NA","163603","164084","163497","163603","Lab 2-1","82","51978.0","83","1024"
"98","98","624","624","black","legacy","legacy","legacy","congruent","1","undefined","1","h","0","0","0","83","83","0","83","0","83","0","0","0","83","83","83","83","Fri Sep 15 14:51:05 2023","600","The main experiment item","True","Lab2.1.osexp","/Users/test/Desktop","False","mono","False","18","no","white","no","yes","768","legacy","3","79","/Users/test/Downloads/at-subject-3.csv","legacy","Melodramatic Milgram","4.0.5","0","h","NA","s","s","NA","h","467.0","NA","1049","10804","NA","467","2","legacy","1024","2","48000","-16","experiment","HHHHH","3","odd","5458","159031","NA","164114","161958","4244","159854","NA","165157","4395","148226","NA","165260","165728","165154","165260","Lab 2-1","83","52445.0","84","1024"
"98","98","621","621","black","legacy","legacy","legacy","congruent","1","undefined","1","s","0","0","0","84","84","0","84","0","84","0","0","0","84","84","84","84","Fri Sep 15 14:51:05 2023","600","The main experiment item","True","Lab2.1.osexp","/Users/test/Desktop","False","mono","False","18","no","white","no","yes","768","legacy","4","79","/Users/test/Downloads/at-subject-3.csv","legacy","Melodramatic Milgram","4.0.5","0","s","NA","s","s","NA","s","354.0","NA","1049","10804","NA","354","2","legacy","1024","2","48000","-16","experiment","SSSSS","3","odd","5458","159031","NA","165731","161958","4244","159854","NA","166775","4395","148226","NA","166878","167233","166772","166877","Lab 2-1","84","52799.0","85","1024"
"98","98","619","619","black","legacy","legacy","legacy","congruent","1","undefined","1","s","0","0","0","85","85","0","85","0","85","0","0","0","85","85","85","85","Fri Sep 15 14:51:05 2023","600","The main experiment item","True","Lab2.1.osexp","/Users/test/Desktop","False","mono","False","18","no","white","no","yes","768","legacy","5","79","/Users/test/Downloads/at-subject-3.csv","legacy","Melodramatic Milgram","4.0.5","0","s","NA","s","s","NA","s","436.0","NA","1049","10804","NA","436","2","legacy","1024","2","48000","-16","experiment","SSSSS","3","odd","5458","159031","NA","167237","161958","4244","159854","NA","168308","4395","148226","NA","168412","168851","168304","168411","Lab 2-1","85","53235.0","86","1024"
"98","98","616","616","black","legacy","legacy","legacy","congruent","1","undefined","1","s","0","0","0","86","86","0","86","0","86","0","0","0","86","86","86","86","Fri Sep 15 14:51:05 2023","600","The main experiment item","True","Lab2.1.osexp","/Users/test/Desktop","False","mono","False","18","no","white","no","yes","768","legacy","6","79","/Users/test/Downloads/at-subject-3.csv","legacy","Melodramatic Milgram","4.0.5","0","s","NA","s","s","NA","s","390.0","NA","1049","10804","NA","390","2","legacy","1024","2","48000","-16","experiment","SSSSS","3","odd","5458","159031","NA","168858","161958","4244","159854","NA","169918","4395","148226","NA","170020","170411","169915","170020","Lab 2-1","86","53625.0","87","1024"
"98","98","616","616","black","legacy","legacy","legacy","incongruent","1","undefined","1","s","0","0","0","87","87","0","87","0","87","0","0","0","87","87","87","87","Fri Sep 15 14:51:05 2023","600","The main experiment item","True","Lab2.1.osexp","/Users/test/Desktop","False","mono","False","18","no","white","no","yes","768","legacy","7","79","/Users/test/Downloads/at-subject-3.csv","legacy","Melodramatic Milgram","4.0.5","0","s","NA","s","s","NA","s","653.0","NA","1049","10804","NA","653","2","legacy","1024","2","48000","-16","experiment","HHSHH","3","odd","5458","159031","NA","170414","161958","4244","159854","NA","171465","4395","148226","NA","171568","172222","171462","171568","Lab 2-1","87","54278.0","88","1024"
"98","98","616","616","black","legacy","legacy","legacy","congruent","1","undefined","1","h","0","0","0","88","88","0","88","0","88","0","0","0","88","88","88","88","Fri Sep 15 14:51:05 2023","600","The main experiment item","True","Lab2.1.osexp","/Users/test/Desktop","False","mono","False","18","no","white","no","yes","768","legacy","8","79","/Users/test/Downloads/at-subject-3.csv","legacy","Melodramatic Milgram","4.0.5","0","h","NA","s","s","NA","h","560.0","NA","1049","10804","NA","560","2","legacy","1024","2","48000","-16","experiment","HHHHH","3","odd","5458","159031","NA","172729","161958","4244","172225","NA","173774","4395","148226","NA","173877","174438","173772","173876","Lab 2-1","88","54838.0","89","1024"
"98","98","613","613","black","legacy","legacy","legacy","congruent","1","undefined","1","s","0","0","0","89","89","0","89","0","89","0","0","0","89","89","89","89","Fri Sep 15 14:51:05 2023","600","The main experiment item","True","Lab2.1.osexp","/Users/test/Desktop","False","mono","False","18","no","white","no","yes","768","legacy","9","79","/Users/test/Downloads/at-subject-3.csv","legacy","Melodramatic Milgram","4.0.5","0","s","NA","s","s","NA","s","403.0","NA","1049","10804","NA","403","2","legacy","1024","2","48000","-16","experiment","SSSSS","3","odd","5458","159031","NA","174441","161958","4244","172225","NA","175477","4395","148226","NA","175581","175985","175475","175581","Lab 2-1","89","55241.0","90","1024"
"98","98","611","611","black","legacy","legacy","legacy","incongruent","1","undefined","1","s","0","0","0","90","90","0","90","0","90","0","0","0","90","90","90","90","Fri Sep 15 14:51:05 2023","600","The main experiment item","True","Lab2.1.osexp","/Users/test/Desktop","False","mono","False","18","no","white","no","yes","768","legacy","10","79","/Users/test/Downloads/at-subject-3.csv","legacy","Melodramatic Milgram","4.0.5","0","s","NA","s","s","NA","s","382.0","NA","1049","10804","NA","382","2","legacy","1024","2","48000","-16","experiment","HHSHH","3","odd","5458","159031","NA","175989","161958","4244","172225","NA","177026","4395","148226","NA","177129","177512","177023","177129","Lab 2-1","90","55623.0","91","1024"
"98","98","608","608","black","legacy","legacy","legacy","congruent","1","undefined","1","s","0","0","0","91","91","0","91","0","91","0","0","0","91","91","91","91","Fri Sep 15 14:51:05 2023","600","The main experiment item","True","Lab2.1.osexp","/Users/test/Desktop","False","mono","False","18","no","white","no","yes","768","legacy","11","79","/Users/test/Downloads/at-subject-3.csv","legacy","Melodramatic Milgram","4.0.5","0","s","NA","s","s","NA","s","395.0","NA","1049","10804","NA","395","2","legacy","1024","2","48000","-16","experiment","SSSSS","3","odd","5458","159031","NA","177515","161958","4244","172225","NA","178563","4395","148226","NA","178667","179063","178560","178666","Lab 2-1","91","56018.0","92","1024"
"98","98","606","606","black","legacy","legacy","legacy","congruent","1","undefined","1","s","0","0","0","92","92","0","92","0","92","0","0","0","92","92","92","92","Fri Sep 15 14:51:05 2023","600","The main experiment item","True","Lab2.1.osexp","/Users/test/Desktop","False","mono","False","18","no","white","no","yes","768","legacy","12","79","/Users/test/Downloads/at-subject-3.csv","legacy","Melodramatic Milgram","4.0.5","0","s","NA","s","s","NA","s","415.0","NA","1049","10804","NA","415","2","legacy","1024","2","48000","-16","experiment","SSSSS","3","odd","5458","159031","NA","179066","161958","4244","172225","NA","180106","4395","148226","NA","180209","180625","180103","180209","Lab 2-1","92","56433.0","93","1024"
"98","98","604","604","black","legacy","legacy","legacy","congruent","1","undefined","1","h","0","0","0","93","93","0","93","0","93","0","0","0","93","93","93","93","Fri Sep 15 14:51:05 2023","600","The main experiment item","True","Lab2.1.osexp","/Users/test/Desktop","False","mono","False","18","no","white","no","yes","768","legacy","13","79","/Users/test/Downloads/at-subject-3.csv","legacy","Melodramatic Milgram","4.0.5","0","h","NA","s","s","NA","h","364.0","NA","1049","10804","NA","364","2","legacy","1024","2","48000","-16","experiment","HHHHH","3","odd","5458","159031","NA","180629","161958","4244","172225","NA","181683","4395","148226","NA","181786","182152","181679","181786","Lab 2-1","93","56797.0","94","1024"
"98","98","601","601","black","legacy","legacy","legacy","congruent","1","undefined","1","h","0","0","0","94","94","0","94","0","94","0","0","0","94","94","94","94","Fri Sep 15 14:51:05 2023","600","The main experiment item","True","Lab2.1.osexp","/Users/test/Desktop","False","mono","False","18","no","white","no","yes","768","legacy","14","79","/Users/test/Downloads/at-subject-3.csv","legacy","Melodramatic Milgram","4.0.5","0","h","NA","s","s","NA","h","375.0","NA","1049","10804","NA","375","2","legacy","1024","2","48000","-16","experiment","HHHHH","3","odd","5458","159031","NA","182155","161958","4244","172225","NA","183208","4395","148226","NA","183311","183687","183204","183311","Lab 2-1","94","57172.0","95","1024"
"98","98","601","601","black","legacy","legacy","legacy","incongruent","1","undefined","1","h","0","0","0","95","95","0","95","0","95","0","0","0","95","95","95","95","Fri Sep 15 14:51:05 2023","600","The main experiment item","True","Lab2.1.osexp","/Users/test/Desktop","False","mono","False","18","no","white","no","yes","768","legacy","15","79","/Users/test/Downloads/at-subject-3.csv","legacy","Melodramatic Milgram","4.0.5","0","h","NA","s","s","NA","h","554.0","NA","1049","10804","NA","554","2","legacy","1024","2","48000","-16","experiment","SSHSS","3","odd","5458","159031","NA","183690","161958","4244","172225","NA","184747","4395","148226","NA","184849","185404","184745","184849","Lab 2-1","95","57726.0","96","1024"
"98","98","599","599","black","legacy","legacy","legacy","congruent","1","undefined","1","h","0","0","0","96","96","0","96","0","96","0","0","0","96","96","96","96","Fri Sep 15 14:51:05 2023","600","The main experiment item","True","Lab2.1.osexp","/Users/test/Desktop","False","mono","False","18","no","white","no","yes","768","legacy","16","79","/Users/test/Downloads/at-subject-3.csv","legacy","Melodramatic Milgram","4.0.5","0","h","NA","s","s","NA","h","449.0","NA","1049","10804","NA","449","2","legacy","1024","2","48000","-16","experiment","HHHHH","3","odd","5458","159031","NA","185408","161958","4244","172225","NA","186445","4395","148226","NA","186548","186999","186441","186548","Lab 2-1","96","58175.0","97","1024"
"98","98","597","597","black","legacy","legacy","legacy","congruent","1","undefined","1","s","0","0","0","97","97","0","97","0","97","0","0","0","97","97","97","97","Fri Sep 15 14:51:05 2023","600","The main experiment item","True","Lab2.1.osexp","/Users/test/Desktop","False","mono","False","18","no","white","no","yes","768","legacy","17","79","/Users/test/Downloads/at-subject-3.csv","legacy","Melodramatic Milgram","4.0.5","0","s","NA","s","s","NA","s","405.0","NA","1049","10804","NA","405","2","legacy","1024","2","48000","-16","experiment","SSSSS","3","odd","5458","159031","NA","187002","161958","4244","172225","NA","188040","4395","148226","NA","188143","188549","188037","188143","Lab 2-1","97","58580.0","98","1024"
"98","98","596","596","black","legacy","legacy","legacy","congruent","1","undefined","1","h","0","0","0","98","98","0","98","0","98","0","0","0","98","98","98","98","Fri Sep 15 14:51:05 2023","600","The main experiment item","True","Lab2.1.osexp","/Users/test/Desktop","False","mono","False","18","no","white","no","yes","768","legacy","18","79","/Users/test/Downloads/at-subject-3.csv","legacy","Melodramatic Milgram","4.0.5","0","h","NA","s","s","NA","h","454.0","NA","1049","10804","NA","454","2","legacy","1024","2","48000","-16","experiment","HHHHH","3","odd","5458","159031","NA","188553","161958","4244","172225","NA","189595","4395","148226","NA","189698","190153","189592","189698","Lab 2-1","98","59034.0","99","1024"
"99","99","594","594","black","legacy","legacy","legacy","incongruent","1","undefined","1","h","0","0","0","99","99","0","99","0","99","0","0","0","99","99","99","99","Fri Sep 15 14:51:05 2023","600","The main experiment item","True","Lab2.1.osexp","/Users/test/Desktop","False","mono","False","18","no","white","no","yes","768","legacy","19","79","/Users/test/Downloads/at-subject-3.csv","legacy","Melodramatic Milgram","4.0.5","0","h","NA","s","s","NA","h","407.0","NA","1049","10804","NA","407","2","legacy","1024","2","48000","-16","experiment","SSHSS","3","odd","5458","159031","NA","190157","161958","4244","172225","NA","191200","4395","148226","NA","191303","191711","191197","191303","Lab 2-1","99","59441.0","100","1024"
"99","99","592","592","black","legacy","legacy","legacy","incongruent","1","undefined","1","s","0","0","0","100","100","0","100","0","100","0","0","0","100","100","100","100","Fri Sep 15 14:51:05 2023","600","The main experiment item","True","Lab2.1.osexp","/Users/test/Desktop","False","mono","False","18","no","white","no","yes","768","legacy","20","79","/Users/test/Downloads/at-subject-3.csv","legacy","Melodramatic Milgram","4.0.5","0","s","NA","s","s","NA","s","439.0","NA","1049","10804","NA","439","2","legacy","1024","2","48000","-16","experiment","HHSHH","3","odd","5458","159031","NA","191714","161958","4244","172225","NA","192757","4395","148226","NA","192859","193299","192754","192859","Lab 2-1","100","59880.0","101","1024"
"99","99","590","590","black","legacy","legacy","legacy","congruent","1","undefined","1","s","0","0","0","101","101","0","101","0","101","0","0","0","101","101","101","101","Fri Sep 15 14:51:05 2023","600","The main experiment item","True","Lab2.1.osexp","/Users/test/Desktop","False","mono","False","18","no","white","no","yes","768","legacy","21","79","/Users/test/Downloads/at-subject-3.csv","legacy","Melodramatic Milgram","4.0.5","0","s","NA","s","s","NA","s","349.0","NA","1049","10804","NA","349","2","legacy","1024","2","48000","-16","experiment","SSSSS","3","odd","5458","159031","NA","193302","161958","4244","172225","NA","194350","4395","148226","NA","194453","194803","194346","194453","Lab 2-1","101","60229.0","102","1024"
"99","99","588","588","black","legacy","legacy","legacy","incongruent","1","undefined","1","s","0","0","0","102","102","0","102","0","102","0","0","0","102","102","102","102","Fri Sep 15 14:51:05 2023","600","The main experiment item","True","Lab2.1.osexp","/Users/test/Desktop","False","mono","False","18","no","white","no","yes","768","legacy","22","79","/Users/test/Downloads/at-subject-3.csv","legacy","Melodramatic Milgram","4.0.5","0","s","NA","s","s","NA","s","406.0","NA","1049","10804","NA","406","2","legacy","1024","2","48000","-16","experiment","HHSHH","3","odd","5458","159031","NA","194807","161958","4244","172225","NA","195866","4395","148226","NA","195969","196376","195863","195968","Lab 2-1","102","60635.0","103","1024"
"99","99","587","587","black","legacy","legacy","legacy","congruent","1","undefined","1","h","0","0","0","103","103","0","103","0","103","0","0","0","103","103","103","103","Fri Sep 15 14:51:05 2023","600","The main experiment item","True","Lab2.1.osexp","/Users/test/Desktop","False","mono","False","18","no","white","no","yes","768","legacy","23","79","/Users/test/Downloads/at-subject-3.csv","legacy","Melodramatic Milgram","4.0.5","0","h","NA","s","s","NA","h","461.0","NA","1049","10804","NA","461","2","legacy","1024","2","48000","-16","experiment","HHHHH","3","odd","5458","159031","NA","196380","161958","4244","172225","NA","197429","4395","148226","NA","197533","197995","197426","197532","Lab 2-1","103","61096.0","104","1024"
"99","99","585","585","black","legacy","legacy","legacy","congruent","1","undefined","1","h","0","0","0","104","104","0","104","0","104","0","0","0","104","104","104","104","Fri Sep 15 14:51:05 2023","600","The main experiment item","True","Lab2.1.osexp","/Users/test/Desktop","False","mono","False","18","no","white","no","yes","768","legacy","24","79","/Users/test/Downloads/at-subject-3.csv","legacy","Melodramatic Milgram","4.0.5","0","h","NA","s","s","NA","h","376.0","NA","1049","10804","NA","376","2","legacy","1024","2","48000","-16","experiment","HHHHH","3","odd","5458","159031","NA","197998","161958","4244","172225","NA","199032","4395","148226","NA","199135","199512","199029","199135","Lab 2-1","104","61472.0","105","1024"
"99","99","584","584","black","legacy","legacy","legacy","incongruent","1","undefined","1","s","0","0","0","105","105","0","105","0","105","0","0","0","105","105","105","105","Fri Sep 15 14:51:05 2023","600","The main experiment item","True","Lab2.1.osexp","/Users/test/Desktop","False","mono","False","18","no","white","no","yes","768","legacy","25","79","/Users/test/Downloads/at-subject-3.csv","legacy","Melodramatic Milgram","4.0.5","0","s","NA","s","s","NA","s","448.0","NA","1049","10804","NA","448","2","legacy","1024","2","48000","-16","experiment","HHSHH","3","odd","5458","159031","NA","199515","161958","4244","172225","NA","200551","4395","148226","NA","200654","201104","200548","200654","Lab 2-1","105","61920.0","106","1024"
"99","99","583","583","black","legacy","legacy","legacy","congruent","1","undefined","1","s","0","0","0","106","106","0","106","0","106","0","0","0","106","106","106","106","Fri Sep 15 14:51:05 2023","600","The main experiment item","True","Lab2.1.osexp","/Users/test/Desktop","False","mono","False","18","no","white","no","yes","768","legacy","26","79","/Users/test/Downloads/at-subject-3.csv","legacy","Melodramatic Milgram","4.0.5","0","s","NA","s","s","NA","s","471.0","NA","1049","10804","NA","471","2","legacy","1024","2","48000","-16","experiment","SSSSS","3","odd","5458","159031","NA","201107","161958","4244","172225","NA","202150","4395","148226","NA","202253","202725","202147","202253","Lab 2-1","106","62391.0","107","1024"
"99","99","581","581","black","legacy","legacy","legacy","incongruent","1","undefined","1","s","0","0","0","107","107","0","107","0","107","0","0","0","107","107","107","107","Fri Sep 15 14:51:05 2023","600","The main experiment item","True","Lab2.1.osexp","/Users/test/Desktop","False","mono","False","18","no","white","no","yes","768","legacy","27","79","/Users/test/Downloads/at-subject-3.csv","legacy","Melodramatic Milgram","4.0.5","0","s","NA","s","s","NA","s","443.0","NA","1049","10804","NA","443","2","legacy","1024","2","48000","-16","experiment","HHSHH","3","odd","5458","159031","NA","202728","161958","4244","172225","NA","203772","4395","148226","NA","203874","204318","203769","203874","Lab 2-1","107","62834.0","108","1024"
"99","99","581","581","black","legacy","legacy","legacy","congruent","1","undefined","1","h","0","0","0","108","108","0","108","0","108","0","0","0","108","108","108","108","Fri Sep 15 14:51:05 2023","600","The main experiment item","True","Lab2.1.osexp","/Users/test/Desktop","False","mono","False","18","no","white","no","yes","768","legacy","28","79","/Users/test/Downloads/at-subject-3.csv","legacy","Melodramatic Milgram","4.0.5","0","h","NA","s","s","NA","h","578.0","NA","1049","10804","NA","578","2","legacy","1024","2","48000","-16","experiment","HHHHH","3","odd","5458","159031","NA","204322","161958","4244","172225","NA","205365","4395","148226","NA","205468","206047","205362","205468","Lab 2-1","108","63412.0","109","1024"
"99","99","581","581","black","legacy","legacy","legacy","congruent","1","undefined","1","h","0","0","0","109","109","0","109","0","109","0","0","0","109","109","109","109","Fri Sep 15 14:51:05 2023","600","The main experiment item","True","Lab2.1.osexp","/Users/test/Desktop","False","mono","False","18","no","white","no","yes","768","legacy","29","79","/Users/test/Downloads/at-subject-3.csv","legacy","Melodramatic Milgram","4.0.5","0","h","NA","s","s","NA","h","500.0","NA","1049","10804","NA","500","2","legacy","1024","2","48000","-16","experiment","HHHHH","3","odd","5458","159031","NA","206051","161958","4244","172225","NA","207101","4395","148226","NA","207205","207706","207098","207205","Lab 2-1","109","63912.0","110","1024"
"99","99","580","580","black","legacy","legacy","legacy","incongruent","1","undefined","1","s","0","0","0","110","110","0","110","0","110","0","0","0","110","110","110","110","Fri Sep 15 14:51:05 2023","600","The main experiment item","True","Lab2.1.osexp","/Users/test/Desktop","False","mono","False","18","no","white","no","yes","768","legacy","30","79","/Users/test/Downloads/at-subject-3.csv","legacy","Melodramatic Milgram","4.0.5","0","s","NA","s","s","NA","s","534.0","NA","1049","10804","NA","534","2","legacy","1024","2","48000","-16","experiment","HHSHH","3","odd","5458","159031","NA","207710","161958","4244","172225","NA","208769","4395","148226","NA","208871","209406","208766","208871","Lab 2-1","110","64446.0","111","1024"
"99","99","579","579","black","legacy","legacy","legacy","congruent","1","undefined","1","h","0","0","0","111","111","0","111","0","111","0","0","0","111","111","111","111","Fri Sep 15 14:51:05 2023","600","The main experiment item","True","Lab2.1.osexp","/Users/test/Desktop","False","mono","False","18","no","white","no","yes","768","legacy","31","79","/Users/test/Downloads/at-subject-3.csv","legacy","Melodramatic Milgram","4.0.5","0","h","NA","s","s","NA","h","490.0","NA","1049","10804","NA","490","2","legacy","1024","2","48000","-16","experiment","HHHHH","3","odd","5458","159031","NA","209410","161958","4244","172225","NA","210446","4395","148226","NA","210550","211042","210444","210550","Lab 2-1","111","64936.0","112","1024"
"99","99","579","579","black","legacy","legacy","legacy","congruent","1","undefined","1","s","0","0","0","112","112","0","112","0","112","0","0","0","112","112","112","112","Fri Sep 15 14:51:05 2023","600","The main experiment item","True","Lab2.1.osexp","/Users/test/Desktop","False","mono","False","18","no","white","no","yes","768","legacy","32","79","/Users/test/Downloads/at-subject-3.csv","legacy","Melodramatic Milgram","4.0.5","0","s","NA","s","s","NA","s","522.0","NA","1049","10804","NA","522","2","legacy","1024","2","48000","-16","experiment","SSSSS","3","odd","5458","159031","NA","211045","161958","4244","172225","NA","212082","4395","148226","NA","212186","212709","212080","212186","Lab 2-1","112","65458.0","113","1024"
"99","99","577","577","black","legacy","legacy","legacy","congruent","1","undefined","1","s","0","0","0","113","113","0","113","0","113","0","0","0","113","113","113","113","Fri Sep 15 14:51:05 2023","600","The main experiment item","True","Lab2.1.osexp","/Users/test/Desktop","False","mono","False","18","no","white","no","yes","768","legacy","33","79","/Users/test/Downloads/at-subject-3.csv","legacy","Melodramatic Milgram","4.0.5","0","s","NA","s","s","NA","s","355.0","NA","1049","10804","NA","355","2","legacy","1024","2","48000","-16","experiment","SSSSS","3","odd","5458","159031","NA","212712","161958","4244","172225","NA","213755","4395","148226","NA","213857","214213","213752","213857","Lab 2-1","113","65813.0","114","1024"
"99","99","575","575","black","legacy","legacy","legacy","congruent","1","undefined","1","s","0","0","0","114","114","0","114","0","114","0","0","0","114","114","114","114","Fri Sep 15 14:51:05 2023","600","The main experiment item","True","Lab2.1.osexp","/Users/test/Desktop","False","mono","False","18","no","white","no","yes","768","legacy","34","79","/Users/test/Downloads/at-subject-3.csv","legacy","Melodramatic Milgram","4.0.5","0","s","NA","s","s","NA","s","400.0","NA","1049","10804","NA","400","2","legacy","1024","2","48000","-16","experiment","SSSSS","3","odd","5458","159031","NA","214217","161958","4244","172225","NA","215259","4395","148226","NA","215363","215764","215257","215363","Lab 2-1","114","66213.0","115","1024"
"99","99","574","574","black","legacy","legacy","legacy","incongruent","1","undefined","1","s","0","0","0","115","115","0","115","0","115","0","0","0","115","115","115","115","Fri Sep 15 14:51:05 2023","600","The main experiment item","True","Lab2.1.osexp","/Users/test/Desktop","False","mono","False","18","no","white","no","yes","768","legacy","35","79","/Users/test/Downloads/at-subject-3.csv","legacy","Melodramatic Milgram","4.0.5","0","s","NA","s","s","NA","s","373.0","NA","1049","10804","NA","373","2","legacy","1024","2","48000","-16","experiment","HHSHH","3","odd","5458","159031","NA","215768","161958","4244","172225","NA","216811","4395","148226","NA","216913","217287","216808","216913","Lab 2-1","115","66586.0","116","1024"
"99","99","572","572","black","legacy","legacy","legacy","congruent","1","undefined","1","s","0","0","0","116","116","0","116","0","116","0","0","0","116","116","116","116","Fri Sep 15 14:51:05 2023","600","The main experiment item","True","Lab2.1.osexp","/Users/test/Desktop","False","mono","False","18","no","white","no","yes","768","legacy","36","79","/Users/test/Downloads/at-subject-3.csv","legacy","Melodramatic Milgram","4.0.5","0","s","NA","s","s","NA","s","357.0","NA","1049","10804","NA","357","2","legacy","1024","2","48000","-16","experiment","SSSSS","3","odd","5458","159031","NA","217290","161958","4244","172225","NA","218335","4395","148226","NA","218438","218797","218332","218438","Lab 2-1","116","66943.0","117","1024"
"99","99","570","570","black","legacy","legacy","legacy","incongruent","1","undefined","1","s","0","0","0","117","117","0","117","0","117","0","0","0","117","117","117","117","Fri Sep 15 14:51:05 2023","600","The main experiment item","True","Lab2.1.osexp","/Users/test/Desktop","False","mono","False","18","no","white","no","yes","768","legacy","37","79","/Users/test/Downloads/at-subject-3.csv","legacy","Melodramatic Milgram","4.0.5","0","s","NA","s","s","NA","s","351.0","NA","1049","10804","NA","351","2","legacy","1024","2","48000","-16","experiment","HHSHH","3","odd","5458","159031","NA","218802","161958","4244","172225","NA","219851","4395","148226","NA","219954","220307","219848","219953","Lab 2-1","117","67294.0","118","1024"
"98","98","568","568","black","legacy","legacy","legacy","incongruent","0","undefined","0","h","0","0","0","118","118","0","118","0","118","0","0","0","118","118","118","118","Fri Sep 15 14:51:05 2023","600","The main experiment item","True","Lab2.1.osexp","/Users/test/Desktop","False","mono","False","18","no","white","no","yes","768","legacy","38","79","/Users/test/Downloads/at-subject-3.csv","legacy","Melodramatic Milgram","4.0.5","0","s","NA","s","s","NA","s","404.0","NA","1049","10804","NA","404","2","legacy","1024","2","48000","-16","experiment","SSHSS","3","odd","5458","159031","NA","220314","161958","4244","172225","NA","221364","4395","148226","NA","221466","221872","221361","221466","Lab 2-1","117","67698.0","119","1024"
"98","98","568","568","black","legacy","legacy","legacy","incongruent","1","undefined","1","s","0","0","0","119","119","0","119","0","119","0","0","0","119","119","119","119","Fri Sep 15 14:51:05 2023","600","The main experiment item","True","Lab2.1.osexp","/Users/test/Desktop","False","mono","False","18","no","white","no","yes","768","legacy","39","79","/Users/test/Downloads/at-subject-3.csv","legacy","Melodramatic Milgram","4.0.5","0","s","NA","s","s","NA","s","544.0","NA","1049","10804","NA","544","2","legacy","1024","2","48000","-16","experiment","HHSHH","3","odd","5458","159031","NA","222380","221875","4244","172225","NA","223416","4395","148226","NA","223520","224065","223413","223519","Lab 2-1","118","68242.0","120","1024"
"98","98","567","567","black","legacy","legacy","legacy","incongruent","1","undefined","1","h","0","0","0","120","120","0","120","0","120","0","0","0","120","120","120","120","Fri Sep 15 14:51:05 2023","600","The main experiment item","True","Lab2.1.osexp","/Users/test/Desktop","False","mono","False","18","no","white","no","yes","768","legacy","40","79","/Users/test/Downloads/at-subject-3.csv","legacy","Melodramatic Milgram","4.0.5","0","h","NA","s","s","NA","h","450.0","NA","1049","10804","NA","450","2","legacy","1024","2","48000","-16","experiment","SSHSS","3","odd","5458","159031","NA","224069","221875","4244","172225","NA","225108","4395","148226","NA","225211","225663","225106","225211","Lab 2-1","119","68692.0","121","1024"
"98","98","567","567","black","legacy","legacy","legacy","incongruent","1","undefined","1","h","0","0","0","121","121","0","121","0","121","0","0","0","121","121","121","121","Fri Sep 15 14:51:05 2023","600","The main experiment item","True","Lab2.1.osexp","/Users/test/Desktop","False","mono","False","18","no","white","no","yes","768","legacy","41","79","/Users/test/Downloads/at-subject-3.csv","legacy","Melodramatic Milgram","4.0.5","0","h","NA","s","s","NA","h","602.0","NA","1049","10804","NA","602","2","legacy","1024","2","48000","-16","experiment","SSHSS","3","odd","5458","159031","NA","225666","221875","4244","172225","NA","226710","4395","148226","NA","226813","227416","226707","226813","Lab 2-1","120","69294.0","122","1024"
"98","98","567","567","black","legacy","legacy","legacy","congruent","1","undefined","1","s","0","0","0","122","122","0","122","0","122","0","0","0","122","122","122","122","Fri Sep 15 14:51:05 2023","600","The main experiment item","True","Lab2.1.osexp","/Users/test/Desktop","False","mono","False","18","no","white","no","yes","768","legacy","42","79","/Users/test/Downloads/at-subject-3.csv","legacy","Melodramatic Milgram","4.0.5","0","s","NA","s","s","NA","s","462.0","NA","1049","10804","NA","462","2","legacy","1024","2","48000","-16","experiment","SSSSS","3","odd","5458","159031","NA","227922","221875","4244","227420","NA","228967","4395","148226","NA","229071","229534","228964","229071","Lab 2-1","121","69756.0","123","1024"
"98","98","565","565","black","legacy","legacy","legacy","congruent","1","undefined","1","s","0","0","0","123","123","0","123","0","123","0","0","0","123","123","123","123","Fri Sep 15 14:51:05 2023","600","The main experiment item","True","Lab2.1.osexp","/Users/test/Desktop","False","mono","False","18","no","white","no","yes","768","legacy","43","79","/Users/test/Downloads/at-subject-3.csv","legacy","Melodramatic Milgram","4.0.5","0","s","NA","s","s","NA","s","417.0","NA","1049","10804","NA","417","2","legacy","1024","2","48000","-16","experiment","SSSSS","3","odd","5458","159031","NA","229537","221875","4244","227420","NA","230580","4395","148226","NA","230684","231102","230578","230684","Lab 2-1","122","70173.0","124","1024"
"98","98","565","565","black","legacy","legacy","legacy","incongruent","1","undefined","1","h","0","0","0","124","124","0","124","0","124","0","0","0","124","124","124","124","Fri Sep 15 14:51:05 2023","600","The main experiment item","True","Lab2.1.osexp","/Users/test/Desktop","False","mono","False","18","no","white","no","yes","768","legacy","44","79","/Users/test/Downloads/at-subject-3.csv","legacy","Melodramatic Milgram","4.0.5","0","h","NA","s","s","NA","h","536.0","NA","1049","10804","NA","536","2","legacy","1024","2","48000","-16","experiment","SSHSS","3","odd","5458","159031","NA","231106","221875","4244","227420","NA","232151","4395","148226","NA","232255","232793","232148","232254","Lab 2-1","123","70709.0","125","1024"
"98","98","564","564","black","legacy","legacy","legacy","congruent","1","undefined","1","s","0","0","0","125","125","0","125","0","125","0","0","0","125","125","125","125","Fri Sep 15 14:51:05 2023","600","The main experiment item","True","Lab2.1.osexp","/Users/test/Desktop","False","mono","False","18","no","white","no","yes","768","legacy","45","79","/Users/test/Downloads/at-subject-3.csv","legacy","Melodramatic Milgram","4.0.5","0","s","NA","s","s","NA","s","470.0","NA","1049","10804","NA","470","2","legacy","1024","2","48000","-16","experiment","SSSSS","3","odd","5458","159031","NA","232796","221875","4244","227420","NA","233892","4395","148226","NA","233994","234465","233889","233994","Lab 2-1","124","71179.0","126","1024"
"98","98","564","564","black","legacy","legacy","legacy","incongruent","1","undefined","1","h","0","0","0","126","126","0","126","0","126","0","0","0","126","126","126","126","Fri Sep 15 14:51:05 2023","600","The main experiment item","True","Lab2.1.osexp","/Users/test/Desktop","False","mono","False","18","no","white","no","yes","768","legacy","46","79","/Users/test/Downloads/at-subject-3.csv","legacy","Melodramatic Milgram","4.0.5","0","h","NA","s","s","NA","h","477.0","NA","1049","10804","NA","477","2","legacy","1024","2","48000","-16","experiment","SSHSS","3","odd","5458","159031","NA","234468","221875","4244","227420","NA","235504","4395","148226","NA","235608","236087","235501","235608","Lab 2-1","125","71656.0","127","1024"
"98","98","563","563","black","legacy","legacy","legacy","congruent","1","undefined","1","h","0","0","0","127","127","0","127","0","127","0","0","0","127","127","127","127","Fri Sep 15 14:51:05 2023","600","The main experiment item","True","Lab2.1.osexp","/Users/test/Desktop","False","mono","False","18","no","white","no","yes","768","legacy","47","79","/Users/test/Downloads/at-subject-3.csv","legacy","Melodramatic Milgram","4.0.5","0","h","NA","s","s","NA","h","499.0","NA","1049","10804","NA","499","2","legacy","1024","2","48000","-16","experiment","HHHHH","3","odd","5458","159031","NA","236090","221875","4244","227420","NA","237127","4395","148226","NA","237231","237731","237125","237231","Lab 2-1","126","72155.0","128","1024"
"98","98","563","563","black","legacy","legacy","legacy","incongruent","1","undefined","1","s","0","0","0","128","128","0","128","0","128","0","0","0","128","128","128","128","Fri Sep 15 14:51:05 2023","600","The main experiment item","True","Lab2.1.osexp","/Users/test/Desktop","False","mono","False","18","no","white","no","yes","768","legacy","48","79","/Users/test/Downloads/at-subject-3.csv","legacy","Melodramatic Milgram","4.0.5","0","s","NA","s","s","NA","s","526.0","NA","1049","10804","NA","526","2","legacy","1024","2","48000","-16","experiment","HHSHH","3","odd","5458","159031","NA","237734","221875","4244","227420","NA","238778","4395","148226","NA","238880","239407","238775","238880","Lab 2-1","127","72681.0","129","1024"
"98","98","563","563","black","legacy","legacy","legacy","incongruent","1","undefined","1","h","0","0","0","129","129","0","129","0","129","0","0","0","129","129","129","129","Fri Sep 15 14:51:05 2023","600","The main experiment item","True","Lab2.1.osexp","/Users/test/Desktop","False","mono","False","18","no","white","no","yes","768","legacy","49","79","/Users/test/Downloads/at-subject-3.csv","legacy","Melodramatic Milgram","4.0.5","0","h","NA","s","s","NA","h","543.0","NA","1049","10804","NA","543","2","legacy","1024","2","48000","-16","experiment","SSHSS","3","odd","5458","159031","NA","239411","221875","4244","227420","NA","240454","4395","148226","NA","240557","241102","240451","240557","Lab 2-1","128","73224.0","130","1024"
"98","98","562","562","black","legacy","legacy","legacy","incongruent","1","undefined","1","h","0","0","0","130","130","0","130","0","130","0","0","0","130","130","130","130","Fri Sep 15 14:51:05 2023","600","The main experiment item","True","Lab2.1.osexp","/Users/test/Desktop","False","mono","False","18","no","white","no","yes","768","legacy","50","79","/Users/test/Downloads/at-subject-3.csv","legacy","Melodramatic Milgram","4.0.5","0","h","NA","s","s","NA","h","443.0","NA","1049","10804","NA","443","2","legacy","1024","2","48000","-16","experiment","SSHSS","3","odd","5458","159031","NA","241105","221875","4244","227420","NA","242147","4395","148226","NA","242250","242695","242144","242250","Lab 2-1","129","73667.0","131","1024"
"98","98","562","562","black","legacy","legacy","legacy","incongruent","1","undefined","1","s","0","0","0","131","131","0","131","0","131","0","0","0","131","131","131","131","Fri Sep 15 14:51:05 2023","600","The main experiment item","True","Lab2.1.osexp","/Users/test/Desktop","False","mono","False","18","no","white","no","yes","768","legacy","51","79","/Users/test/Downloads/at-subject-3.csv","legacy","Melodramatic Milgram","4.0.5","0","s","NA","s","s","NA","s","623.0","NA","1049","10804","NA","623","2","legacy","1024","2","48000","-16","experiment","HHSHH","3","odd","5458","159031","NA","242698","221875","4244","227420","NA","243741","4395","148226","NA","243844","244468","243738","243844","Lab 2-1","130","74290.0","132","1024"
"98","98","563","563","black","legacy","legacy","legacy","congruent","1","undefined","1","h","0","0","0","132","132","0","132","0","132","0","0","0","132","132","132","132","Fri Sep 15 14:51:05 2023","600","The main experiment item","True","Lab2.1.osexp","/Users/test/Desktop","False","mono","False","18","no","white","no","yes","768","legacy","52","79","/Users/test/Downloads/at-subject-3.csv","legacy","Melodramatic Milgram","4.0.5","0","h","NA","s","s","NA","h","612.0","NA","1049","10804","NA","612","2","legacy","1024","2","48000","-16","experiment","HHHHH","3","odd","5458","159031","NA","244975","221875","4244","244472","NA","246016","4395","148226","NA","246120","246733","246013","246119","Lab 2-1","131","74902.0","133","1024"
"98","98","563","563","black","legacy","legacy","legacy","incongruent","1","undefined","1","s","0","0","0","133","133","0","133","0","133","0","0","0","133","133","133","133","Fri Sep 15 14:51:05 2023","600","The main experiment item","True","Lab2.1.osexp","/Users/test/Desktop","False","mono","False","18","no","white","no","yes","768","legacy","53","79","/Users/test/Downloads/at-subject-3.csv","legacy","Melodramatic Milgram","4.0.5","0","s","NA","s","s","NA","s","561.0","NA","1049","10804","NA","561","2","legacy","1024","2","48000","-16","experiment","HHSHH","3","odd","5458","159031","NA","247240","221875","4244","246736","NA","248287","4395","148226","NA","248391","248954","248285","248391","Lab 2-1","132","75463.0","134","1024"
"98","98","562","562","black","legacy","legacy","legacy","congruent","1","undefined","1","h","0","0","0","134","134","0","134","0","134","0","0","0","134","134","134","134","Fri Sep 15 14:51:05 2023","600","The main experiment item","True","Lab2.1.osexp","/Users/test/Desktop","False","mono","False","18","no","white","no","yes","768","legacy","54","79","/Users/test/Downloads/at-subject-3.csv","legacy","Melodramatic Milgram","4.0.5","0","h","NA","s","s","NA","h","455.0","NA","1049","10804","NA","455","2","legacy","1024","2","48000","-16","experiment","HHHHH","3","odd","5458","159031","NA","248957","221875","4244","246736","NA","249992","4395","148226","NA","250096","250552","249990","250095","Lab 2-1","133","75918.0","135","1024"
"98","98","562","562","black","legacy","legacy","legacy","incongruent","1","undefined","1","h","0","0","0","135","135","0","135","0","135","0","0","0","135","135","135","135","Fri Sep 15 14:51:05 2023","600","The main experiment item","True","Lab2.1.osexp","/Users/test/Desktop","False","mono","False","18","no","white","no","yes","768","legacy","55","79","/Users/test/Downloads/at-subject-3.csv","legacy","Melodramatic Milgram","4.0.5","0","h","NA","s","s","NA","h","575.0","NA","1049","10804","NA","575","2","legacy","1024","2","48000","-16","experiment","SSHSS","3","odd","5458","159031","NA","250555","221875","4244","246736","NA","251594","4395","148226","NA","251698","252274","251592","251698","Lab 2-1","134","76493.0","136","1024"
