"acc","accuracy","average_response_time","avg_rt","background","canvas_backend","clock_backend","color_backend","compensation","condition","coordinates","correct","correct_Instructions1","correct_keyboard_response","correct_response","count_Block1","count_Block2","count_Block3","count_ISI","count_Instructions1","count_Sequence","count_errorFeedback","count_experiment","count_faster","count_fixation","count_instructions2","count_keyboard_response","count_logger","count_stimulus","datetime","deadline","description","disable_garbage_collection","experiment_file","experiment_path","font_bold","font_family","font_italic","font_size","font_underline","foreground","form_clicks","fullscreen","height","keyboard_backend","live_row","live_row_Block1","logfile","mouse_backend","opensesame_codename","opensesame_version","repeat_cycle","response","response_Instructions1","response_instructions2","response_keyboard_response","response_time","response_time_Instructions1","response_time_instructions2","response_time_keyboard_response","round_decimals","sampler_backend","sound_buf_size","sound_channels","sound_freq","sound_sample_size","start","stimulus","subject_nr","subject_parity","time_Block1","time_Block2","time_Block3","time_ISI","time_Instructions1","time_Sequence","time_errorFeedback","time_experiment","time_faster","time_fixation","time_instructions2","time_keyboard_response","time_logger","time_stimulus","title","total_correct","total_response_time","total_responses","uniform_coordinates","width"
"100","100","778","778","black","legacy","legacy","legacy","0","incongruent","uniform","1","undefined","1","s","0","0","0","0","0","0","0","0","0","0","0","0","0","0","Sat Sep 24 13:42:43 2022","1500","The main experiment item","yes","FlankerTest_Savkovic.osexp","/Users/andrea/Desktop/Adv. Quant Methods","no","mono","no","18","no","white","no","no","768","legacy","0","0","/Users/andrea/Desktop/Adv. Quant Methods/AS-subject-2.csv","legacy","Lentiform Loewenfeld","3.3.12","0","s","s","NA","s","778","9935","NA","778","2","legacy","1024","2","48000","-16","experiment","HHSHH","2","even","11415","NA","NA","NA","1476","11455","NA","1420","NA","11457","NA","11562","12344","11562","Flanker Test","1","778","1","yes","1024"
"100","100","710.5","710.5","black","legacy","legacy","legacy","0","incongruent","uniform","1","undefined","1","s","0","0","0","1","0","1","1","0","1","1","0","1","1","1","Sat Sep 24 13:42:43 2022","1500","The main experiment item","yes","FlankerTest_Savkovic.osexp","/Users/andrea/Desktop/Adv. Quant Methods","no","mono","no","18","no","white","no","no","768","legacy","1","1","/Users/andrea/Desktop/Adv. Quant Methods/AS-subject-2.csv","legacy","Lentiform Loewenfeld","3.3.12","0","s","s","NA","s","643","9935","NA","643","2","legacy","1024","2","48000","-16","experiment","HHSHH","2","even","11415","NA","NA","12349","1476","13405","NA","1420","NA","13406","NA","13512","14156","13511","Flanker Test","2","1421","2","yes","1024"
"100","100","662.6666666666666","662.6666666666666","black","legacy","legacy","legacy","0","incongruent","uniform","1","undefined","1","s","0","0","0","2","0","2","2","0","2","2","0","2","2","2","Sat Sep 24 13:42:43 2022","1500","The main experiment item","yes","FlankerTest_Savkovic.osexp","/Users/andrea/Desktop/Adv. Quant Methods","no","mono","no","18","no","white","no","no","768","legacy","2","2","/Users/andrea/Desktop/Adv. Quant Methods/AS-subject-2.csv","legacy","Lentiform Loewenfeld","3.3.12","0","s","s","NA","s","567","9935","NA","567","2","legacy","1024","2","48000","-16","experiment","HHSHH","2","even","11415","NA","NA","14159","1476","15208","NA","1420","NA","15210","NA","15314","15882","15314","Flanker Test","3","1988","3","yes","1024"
"100","100","672.25","672.25","black","legacy","legacy","legacy","0","incongruent","uniform","1","undefined","1","h","0","0","0","3","0","3","3","0","3","3","0","3","3","3","Sat Sep 24 13:42:43 2022","1500","The main experiment item","yes","FlankerTest_Savkovic.osexp","/Users/andrea/Desktop/Adv. Quant Methods","no","mono","no","18","no","white","no","no","768","legacy","3","3","/Users/andrea/Desktop/Adv. Quant Methods/AS-subject-2.csv","legacy","Lentiform Loewenfeld","3.3.12","0","h","s","NA","h","701","9935","NA","701","2","legacy","1024","2","48000","-16","experiment","SSHSS","2","even","11415","NA","NA","15885","1476","16932","NA","1420","NA","16935","NA","17039","17741","17039","Flanker Test","4","2689","4","yes","1024"
"100","100","660.2","660.2","black","legacy","legacy","legacy","0","incongruent","uniform","1","undefined","1","s","0","0","0","4","0","4","4","0","4","4","0","4","4","4","Sat Sep 24 13:42:43 2022","1500","The main experiment item","yes","FlankerTest_Savkovic.osexp","/Users/andrea/Desktop/Adv. Quant Methods","no","mono","no","18","no","white","no","no","768","legacy","4","4","/Users/andrea/Desktop/Adv. Quant Methods/AS-subject-2.csv","legacy","Lentiform Loewenfeld","3.3.12","0","s","s","NA","s","612","9935","NA","612","2","legacy","1024","2","48000","-16","experiment","HHSHH","2","even","11415","NA","NA","17744","1476","18792","NA","1420","NA","18794","NA","18898","19511","18898","Flanker Test","5","3301","5","yes","1024"
"100","100","632.3333333333334","632.3333333333334","black","legacy","legacy","legacy","0","congruent","uniform","1","undefined","1","h","0","0","0","5","0","5","5","0","5","5","0","5","5","5","Sat Sep 24 13:42:43 2022","1500","The main experiment item","yes","FlankerTest_Savkovic.osexp","/Users/andrea/Desktop/Adv. Quant Methods","no","mono","no","18","no","white","no","no","768","legacy","5","5","/Users/andrea/Desktop/Adv. Quant Methods/AS-subject-2.csv","legacy","Lentiform Loewenfeld","3.3.12","0","h","s","NA","h","493","9935","NA","493","2","legacy","1024","2","48000","-16","experiment","HHHHH","2","even","11415","NA","NA","19513","1476","20561","NA","1420","NA","20563","NA","20667","21161","20667","Flanker Test","6","3794","6","yes","1024"
"100","100","621","621","black","legacy","legacy","legacy","0","incongruent","uniform","1","undefined","1","h","0","0","0","6","0","6","6","0","6","6","0","6","6","6","Sat Sep 24 13:42:43 2022","1500","The main experiment item","yes","FlankerTest_Savkovic.osexp","/Users/andrea/Desktop/Adv. Quant Methods","no","mono","no","18","no","white","no","no","768","legacy","6","6","/Users/andrea/Desktop/Adv. Quant Methods/AS-subject-2.csv","legacy","Lentiform Loewenfeld","3.3.12","0","h","s","NA","h","553","9935","NA","553","2","legacy","1024","2","48000","-16","experiment","SSHSS","2","even","11415","NA","NA","21164","1476","22212","NA","1420","NA","22214","NA","22318","22871","22318","Flanker Test","7","4347","7","yes","1024"
"100","100","591.875","591.875","black","legacy","legacy","legacy","0","congruent","uniform","1","undefined","1","h","0","0","0","7","0","7","7","0","7","7","0","7","7","7","Sat Sep 24 13:42:43 2022","1500","The main experiment item","yes","FlankerTest_Savkovic.osexp","/Users/andrea/Desktop/Adv. Quant Methods","no","mono","no","18","no","white","no","no","768","legacy","7","7","/Users/andrea/Desktop/Adv. Quant Methods/AS-subject-2.csv","legacy","Lentiform Loewenfeld","3.3.12","0","h","s","NA","h","388","9935","NA","388","2","legacy","1024","2","48000","-16","experiment","HHHHH","2","even","11415","NA","NA","22874","1476","23922","NA","1420","NA","23924","NA","24028","24416","24028","Flanker Test","8","4735","8","yes","1024"
"100","100","585.5555555555555","585.5555555555555","black","legacy","legacy","legacy","0","incongruent","uniform","1","undefined","1","h","0","0","0","8","0","8","8","0","8","8","0","8","8","8","Sat Sep 24 13:42:43 2022","1500","The main experiment item","yes","FlankerTest_Savkovic.osexp","/Users/andrea/Desktop/Adv. Quant Methods","no","mono","no","18","no","white","no","no","768","legacy","8","8","/Users/andrea/Desktop/Adv. Quant Methods/AS-subject-2.csv","legacy","Lentiform Loewenfeld","3.3.12","0","h","s","NA","h","535","9935","NA","535","2","legacy","1024","2","48000","-16","experiment","SSHSS","2","even","11415","NA","NA","24419","1476","25469","NA","1420","NA","25471","NA","25575","26111","25575","Flanker Test","9","5270","9","yes","1024"
"100","100","568.8","568.8","black","legacy","legacy","legacy","0","congruent","uniform","1","undefined","1","h","0","0","0","9","0","9","9","0","9","9","0","9","9","9","Sat Sep 24 13:42:43 2022","1500","The main experiment item","yes","FlankerTest_Savkovic.osexp","/Users/andrea/Desktop/Adv. Quant Methods","no","mono","no","18","no","white","no","no","768","legacy","9","9","/Users/andrea/Desktop/Adv. Quant Methods/AS-subject-2.csv","legacy","Lentiform Loewenfeld","3.3.12","0","h","s","NA","h","418","9935","NA","418","2","legacy","1024","2","48000","-16","experiment","HHHHH","2","even","11415","NA","NA","26114","1476","27162","NA","1420","NA","27164","NA","27268","27686","27268","Flanker Test","10","5688","10","yes","1024"
"100","100","565.9090909090909","565.9090909090909","black","legacy","legacy","legacy","0","incongruent","uniform","1","undefined","1","s","0","0","0","10","0","10","10","0","10","10","0","10","10","10","Sat Sep 24 13:42:43 2022","1500","The main experiment item","yes","FlankerTest_Savkovic.osexp","/Users/andrea/Desktop/Adv. Quant Methods","no","mono","no","18","no","white","no","no","768","legacy","10","10","/Users/andrea/Desktop/Adv. Quant Methods/AS-subject-2.csv","legacy","Lentiform Loewenfeld","3.3.12","0","s","s","NA","s","537","9935","NA","537","2","legacy","1024","2","48000","-16","experiment","HHSHH","2","even","11415","NA","NA","27690","1476","28738","NA","1420","NA","28740","NA","28844","29381","28844","Flanker Test","11","6225","11","yes","1024"
"100","100","559.5","559.5","black","legacy","legacy","legacy","0","congruent","uniform","1","undefined","1","h","0","0","0","11","0","11","11","0","11","11","0","11","11","11","Sat Sep 24 13:42:43 2022","1500","The main experiment item","yes","FlankerTest_Savkovic.osexp","/Users/andrea/Desktop/Adv. Quant Methods","no","mono","no","18","no","white","no","no","768","legacy","11","11","/Users/andrea/Desktop/Adv. Quant Methods/AS-subject-2.csv","legacy","Lentiform Loewenfeld","3.3.12","0","h","s","NA","h","489","9935","NA","489","2","legacy","1024","2","48000","-16","experiment","HHHHH","2","even","11415","NA","NA","29384","1476","30423","NA","1420","NA","30425","NA","30527","31017","30527","Flanker Test","12","6714","12","yes","1024"
"100","100","555.5384615384615","555.5384615384615","black","legacy","legacy","legacy","0","incongruent","uniform","1","undefined","1","h","0","0","0","12","0","12","12","0","12","12","0","12","12","12","Sat Sep 24 13:42:43 2022","1500","The main experiment item","yes","FlankerTest_Savkovic.osexp","/Users/andrea/Desktop/Adv. Quant Methods","no","mono","no","18","no","white","no","no","768","legacy","12","12","/Users/andrea/Desktop/Adv. Quant Methods/AS-subject-2.csv","legacy","Lentiform Loewenfeld","3.3.12","0","h","s","NA","h","508","9935","NA","508","2","legacy","1024","2","48000","-16","experiment","SSHSS","2","even","11415","NA","NA","31019","1476","32066","NA","1420","NA","32069","NA","32173","32682","32173","Flanker Test","13","7222","13","yes","1024"
"100","100","547.7857142857143","547.7857142857143","black","legacy","legacy","legacy","0","congruent","uniform","1","undefined","1","s","0","0","0","13","0","13","13","0","13","13","0","13","13","13","Sat Sep 24 13:42:43 2022","1500","The main experiment item","yes","FlankerTest_Savkovic.osexp","/Users/andrea/Desktop/Adv. Quant Methods","no","mono","no","18","no","white","no","no","768","legacy","13","13","/Users/andrea/Desktop/Adv. Quant Methods/AS-subject-2.csv","legacy","Lentiform Loewenfeld","3.3.12","0","s","s","NA","s","447","9935","NA","447","2","legacy","1024","2","48000","-16","experiment","SSSSS","2","even","11415","NA","NA","32685","1476","33732","NA","1420","NA","33735","NA","33839","34287","33839","Flanker Test","14","7669","14","yes","1024"
"100","100","544.4","544.4","black","legacy","legacy","legacy","0","congruent","uniform","1","undefined","1","s","0","0","0","14","0","14","14","0","14","14","0","14","14","14","Sat Sep 24 13:42:43 2022","1500","The main experiment item","yes","FlankerTest_Savkovic.osexp","/Users/andrea/Desktop/Adv. Quant Methods","no","mono","no","18","no","white","no","no","768","legacy","14","14","/Users/andrea/Desktop/Adv. Quant Methods/AS-subject-2.csv","legacy","Lentiform Loewenfeld","3.3.12","0","s","s","NA","s","497","9935","NA","497","2","legacy","1024","2","48000","-16","experiment","SSSSS","2","even","11415","NA","NA","34290","1476","35338","NA","1420","NA","35340","NA","35453","35951","35453","Flanker Test","15","8166","15","yes","1024"
"100","100","536.4375","536.4375","black","legacy","legacy","legacy","0","congruent","uniform","1","undefined","1","s","0","0","0","15","0","15","15","0","15","15","0","15","15","15","Sat Sep 24 13:42:43 2022","1500","The main experiment item","yes","FlankerTest_Savkovic.osexp","/Users/andrea/Desktop/Adv. Quant Methods","no","mono","no","18","no","white","no","no","768","legacy","15","15","/Users/andrea/Desktop/Adv. Quant Methods/AS-subject-2.csv","legacy","Lentiform Loewenfeld","3.3.12","0","s","s","NA","s","417","9935","NA","417","2","legacy","1024","2","48000","-16","experiment","SSSSS","2","even","11415","NA","NA","35954","1476","37002","NA","1420","NA","37004","NA","37108","37526","37108","Flanker Test","16","8583","16","yes","1024"
"100","100","537","537","black","legacy","legacy","legacy","0","incongruent","uniform","1","undefined","1","h","0","0","0","16","0","16","16","0","16","16","0","16","16","16","Sat Sep 24 13:42:43 2022","1500","The main experiment item","yes","FlankerTest_Savkovic.osexp","/Users/andrea/Desktop/Adv. Quant Methods","no","mono","no","18","no","white","no","no","768","legacy","16","16","/Users/andrea/Desktop/Adv. Quant Methods/AS-subject-2.csv","legacy","Lentiform Loewenfeld","3.3.12","0","h","s","NA","h","546","9935","NA","546","2","legacy","1024","2","48000","-16","experiment","SSHSS","2","even","11415","NA","NA","37529","1476","38570","NA","1420","NA","38572","NA","38676","39222","38675","Flanker Test","17","9129","17","yes","1024"
"100","100","532","532","black","legacy","legacy","legacy","0","congruent","uniform","1","undefined","1","s","0","0","0","17","0","17","17","0","17","17","0","17","17","17","Sat Sep 24 13:42:43 2022","1500","The main experiment item","yes","FlankerTest_Savkovic.osexp","/Users/andrea/Desktop/Adv. Quant Methods","no","mono","no","18","no","white","no","no","768","legacy","17","17","/Users/andrea/Desktop/Adv. Quant Methods/AS-subject-2.csv","legacy","Lentiform Loewenfeld","3.3.12","0","s","s","NA","s","447","9935","NA","447","2","legacy","1024","2","48000","-16","experiment","SSSSS","2","even","11415","NA","NA","39225","1476","40273","NA","1420","NA","40275","NA","40379","40827","40379","Flanker Test","18","9576","18","yes","1024"
"100","100","529.2105263157895","529.2105263157895","black","legacy","legacy","legacy","0","incongruent","uniform","1","undefined","1","h","0","0","0","18","0","18","18","0","18","18","0","18","18","18","Sat Sep 24 13:42:43 2022","1500","The main experiment item","yes","FlankerTest_Savkovic.osexp","/Users/andrea/Desktop/Adv. Quant Methods","no","mono","no","18","no","white","no","no","768","legacy","18","18","/Users/andrea/Desktop/Adv. Quant Methods/AS-subject-2.csv","legacy","Lentiform Loewenfeld","3.3.12","0","h","s","NA","h","479","9935","NA","479","2","legacy","1024","2","48000","-16","experiment","SSHSS","2","even","11415","NA","NA","40830","1476","41877","NA","1420","NA","41879","NA","41983","42462","41983","Flanker Test","19","10055","19","yes","1024"
"100","100","540.2","540.2","black","legacy","legacy","legacy","0","incongruent","uniform","1","undefined","1","s","0","0","0","19","0","19","19","0","19","19","0","19","19","19","Sat Sep 24 13:42:43 2022","1500","The main experiment item","yes","FlankerTest_Savkovic.osexp","/Users/andrea/Desktop/Adv. Quant Methods","no","mono","no","18","no","white","no","no","768","legacy","19","19","/Users/andrea/Desktop/Adv. Quant Methods/AS-subject-2.csv","legacy","Lentiform Loewenfeld","3.3.12","0","s","s","NA","s","749","9935","NA","749","2","legacy","1024","2","48000","-16","experiment","HHSHH","2","even","11415","NA","NA","42465","1476","43514","NA","1420","NA","43516","NA","43618","44367","43618","Flanker Test","20","10804","20","yes","1024"
"100","100","536.4761904761905","536.4761904761905","black","legacy","legacy","legacy","0","congruent","uniform","1","undefined","1","h","0","0","0","20","0","20","20","0","20","20","0","20","20","20","Sat Sep 24 13:42:43 2022","1500","The main experiment item","yes","FlankerTest_Savkovic.osexp","/Users/andrea/Desktop/Adv. Quant Methods","no","mono","no","18","no","white","no","no","768","legacy","20","20","/Users/andrea/Desktop/Adv. Quant Methods/AS-subject-2.csv","legacy","Lentiform Loewenfeld","3.3.12","0","h","s","NA","h","462","9935","NA","462","2","legacy","1024","2","48000","-16","experiment","HHHHH","2","even","11415","NA","NA","44370","1476","45418","NA","1420","NA","45421","NA","45525","45987","45525","Flanker Test","21","11266","21","yes","1024"
"100","100","533.0909090909091","533.0909090909091","black","legacy","legacy","legacy","0","congruent","uniform","1","undefined","1","s","0","0","0","21","0","21","21","0","21","21","0","21","21","21","Sat Sep 24 13:42:43 2022","1500","The main experiment item","yes","FlankerTest_Savkovic.osexp","/Users/andrea/Desktop/Adv. Quant Methods","no","mono","no","18","no","white","no","no","768","legacy","21","21","/Users/andrea/Desktop/Adv. Quant Methods/AS-subject-2.csv","legacy","Lentiform Loewenfeld","3.3.12","0","s","s","NA","s","462","9935","NA","462","2","legacy","1024","2","48000","-16","experiment","SSSSS","2","even","11415","NA","NA","45991","1476","47039","NA","1420","NA","47041","NA","47145","47607","47145","Flanker Test","22","11728","22","yes","1024"
"100","100","528.7391304347826","528.7391304347826","black","legacy","legacy","legacy","0","congruent","uniform","1","undefined","1","h","0","0","0","22","0","22","22","0","22","22","0","22","22","22","Sat Sep 24 13:42:43 2022","1500","The main experiment item","yes","FlankerTest_Savkovic.osexp","/Users/andrea/Desktop/Adv. Quant Methods","no","mono","no","18","no","white","no","no","768","legacy","22","22","/Users/andrea/Desktop/Adv. Quant Methods/AS-subject-2.csv","legacy","Lentiform Loewenfeld","3.3.12","0","h","s","NA","h","433","9935","NA","433","2","legacy","1024","2","48000","-16","experiment","HHHHH","2","even","11415","NA","NA","47610","1476","48658","NA","1420","NA","48660","NA","48764","49198","48764","Flanker Test","23","12161","23","yes","1024"
"100","100","530.3333333333334","530.3333333333334","black","legacy","legacy","legacy","0","incongruent","uniform","1","undefined","1","h","0","0","0","23","0","23","23","0","23","23","0","23","23","23","Sat Sep 24 13:42:43 2022","1500","The main experiment item","yes","FlankerTest_Savkovic.osexp","/Users/andrea/Desktop/Adv. Quant Methods","no","mono","no","18","no","white","no","no","768","legacy","23","23","/Users/andrea/Desktop/Adv. Quant Methods/AS-subject-2.csv","legacy","Lentiform Loewenfeld","3.3.12","0","h","s","NA","h","567","9935","NA","567","2","legacy","1024","2","48000","-16","experiment","SSHSS","2","even","11415","NA","NA","49200","1476","50249","NA","1420","NA","50251","NA","50355","50923","50355","Flanker Test","24","12728","24","yes","1024"
"100","100","526.48","526.48","black","legacy","legacy","legacy","0","congruent","uniform","1","undefined","1","h","0","0","0","24","0","24","24","0","24","24","0","24","24","24","Sat Sep 24 13:42:43 2022","1500","The main experiment item","yes","FlankerTest_Savkovic.osexp","/Users/andrea/Desktop/Adv. Quant Methods","no","mono","no","18","no","white","no","no","768","legacy","24","24","/Users/andrea/Desktop/Adv. Quant Methods/AS-subject-2.csv","legacy","Lentiform Loewenfeld","3.3.12","0","h","s","NA","h","434","9935","NA","434","2","legacy","1024","2","48000","-16","experiment","HHHHH","2","even","11415","NA","NA","50925","1476","51972","NA","1420","NA","51974","NA","52078","52512","52078","Flanker Test","25","13162","25","yes","1024"
"100","100","521.2692307692307","521.2692307692307","black","legacy","legacy","legacy","0","congruent","uniform","1","undefined","1","s","0","0","0","25","0","25","25","0","25","25","0","25","25","25","Sat Sep 24 13:42:43 2022","1500","The main experiment item","yes","FlankerTest_Savkovic.osexp","/Users/andrea/Desktop/Adv. Quant Methods","no","mono","no","18","no","white","no","no","768","legacy","25","25","/Users/andrea/Desktop/Adv. Quant Methods/AS-subject-2.csv","legacy","Lentiform Loewenfeld","3.3.12","0","s","s","NA","s","391","9935","NA","391","2","legacy","1024","2","48000","-16","experiment","SSSSS","2","even","11415","NA","NA","52515","1476","53560","NA","1420","NA","53562","NA","53666","54057","53666","Flanker Test","26","13553","26","yes","1024"
"100","100","516.8888888888889","516.8888888888889","black","legacy","legacy","legacy","0","congruent","uniform","1","undefined","1","s","0","0","0","26","0","26","26","0","26","26","0","26","26","26","Sat Sep 24 13:42:43 2022","1500","The main experiment item","yes","FlankerTest_Savkovic.osexp","/Users/andrea/Desktop/Adv. Quant Methods","no","mono","no","18","no","white","no","no","768","legacy","26","26","/Users/andrea/Desktop/Adv. Quant Methods/AS-subject-2.csv","legacy","Lentiform Loewenfeld","3.3.12","0","s","s","NA","s","403","9935","NA","403","2","legacy","1024","2","48000","-16","experiment","SSSSS","2","even","11415","NA","NA","54060","1476","55108","NA","1420","NA","55110","NA","55214","55618","55214","Flanker Test","27","13956","27","yes","1024"
"100","100","510.64285714285717","510.64285714285717","black","legacy","legacy","legacy","0","congruent","uniform","1","undefined","1","s","0","0","0","27","0","27","27","0","27","27","0","27","27","27","Sat Sep 24 13:42:43 2022","1500","The main experiment item","yes","FlankerTest_Savkovic.osexp","/Users/andrea/Desktop/Adv. Quant Methods","no","mono","no","18","no","white","no","no","768","legacy","27","27","/Users/andrea/Desktop/Adv. Quant Methods/AS-subject-2.csv","legacy","Lentiform Loewenfeld","3.3.12","0","s","s","NA","s","342","9935","NA","342","2","legacy","1024","2","48000","-16","experiment","SSSSS","2","even","11415","NA","NA","55621","1476","56669","NA","1420","NA","56671","NA","56775","57118","56775","Flanker Test","28","14298","28","yes","1024"
"100","100","515.6896551724138","515.6896551724138","black","legacy","legacy","legacy","0","incongruent","uniform","1","undefined","1","s","0","0","0","28","0","28","28","0","28","28","0","28","28","28","Sat Sep 24 13:42:43 2022","1500","The main experiment item","yes","FlankerTest_Savkovic.osexp","/Users/andrea/Desktop/Adv. Quant Methods","no","mono","no","18","no","white","no","no","768","legacy","28","28","/Users/andrea/Desktop/Adv. Quant Methods/AS-subject-2.csv","legacy","Lentiform Loewenfeld","3.3.12","0","s","s","NA","s","657","9935","NA","657","2","legacy","1024","2","48000","-16","experiment","HHSHH","2","even","11415","NA","NA","57121","1476","58169","NA","1420","NA","58172","NA","58276","58933","58276","Flanker Test","29","14955","29","yes","1024"
"100","100","510.6666666666667","510.6666666666667","black","legacy","legacy","legacy","0","incongruent","uniform","1","undefined","1","s","0","0","0","29","0","29","29","0","29","29","0","29","29","29","Sat Sep 24 13:42:43 2022","1500","The main experiment item","yes","FlankerTest_Savkovic.osexp","/Users/andrea/Desktop/Adv. Quant Methods","no","mono","no","18","no","white","no","no","768","legacy","29","29","/Users/andrea/Desktop/Adv. Quant Methods/AS-subject-2.csv","legacy","Lentiform Loewenfeld","3.3.12","0","s","s","NA","s","365","9935","NA","365","2","legacy","1024","2","48000","-16","experiment","HHSHH","2","even","11415","NA","NA","58936","1476","59991","NA","1420","NA","59993","NA","60097","60463","60097","Flanker Test","30","15320","30","yes","1024"
"100","100","511.96774193548384","511.96774193548384","black","legacy","legacy","legacy","0","incongruent","uniform","1","undefined","1","h","0","0","0","30","0","30","30","0","30","30","0","30","30","30","Sat Sep 24 13:42:43 2022","1500","The main experiment item","yes","FlankerTest_Savkovic.osexp","/Users/andrea/Desktop/Adv. Quant Methods","no","mono","no","18","no","white","no","no","768","legacy","30","30","/Users/andrea/Desktop/Adv. Quant Methods/AS-subject-2.csv","legacy","Lentiform Loewenfeld","3.3.12","0","h","s","NA","h","551","9935","NA","551","2","legacy","1024","2","48000","-16","experiment","SSHSS","2","even","11415","NA","NA","60466","1476","61515","NA","1420","NA","61517","NA","61621","62172","61621","Flanker Test","31","15871","31","yes","1024"
"100","100","509.9375","509.9375","black","legacy","legacy","legacy","0","incongruent","uniform","1","undefined","1","h","0","0","0","31","0","31","31","0","31","31","0","31","31","31","Sat Sep 24 13:42:43 2022","1500","The main experiment item","yes","FlankerTest_Savkovic.osexp","/Users/andrea/Desktop/Adv. Quant Methods","no","mono","no","18","no","white","no","no","768","legacy","31","31","/Users/andrea/Desktop/Adv. Quant Methods/AS-subject-2.csv","legacy","Lentiform Loewenfeld","3.3.12","0","h","s","NA","h","447","9935","NA","447","2","legacy","1024","2","48000","-16","experiment","SSHSS","2","even","11415","NA","NA","62176","1476","63224","NA","1420","NA","63226","NA","63330","63778","63330","Flanker Test","32","16318","32","yes","1024"
"100","100","507.6363636363636","507.6363636363636","black","legacy","legacy","legacy","0","congruent","uniform","1","undefined","1","s","0","0","0","32","0","32","32","0","32","32","0","32","32","32","Sat Sep 24 13:42:43 2022","1500","The main experiment item","yes","FlankerTest_Savkovic.osexp","/Users/andrea/Desktop/Adv. Quant Methods","no","mono","no","18","no","white","no","no","768","legacy","32","32","/Users/andrea/Desktop/Adv. Quant Methods/AS-subject-2.csv","legacy","Lentiform Loewenfeld","3.3.12","0","s","s","NA","s","434","9935","NA","434","2","legacy","1024","2","48000","-16","experiment","SSSSS","2","even","11415","NA","NA","63781","1476","64829","NA","1420","NA","64831","NA","64933","65367","64933","Flanker Test","33","16752","33","yes","1024"
"100","100","504.52941176470586","504.52941176470586","black","legacy","legacy","legacy","0","congruent","uniform","1","undefined","1","s","0","0","0","33","0","33","33","0","33","33","0","33","33","33","Sat Sep 24 13:42:43 2022","1500","The main experiment item","yes","FlankerTest_Savkovic.osexp","/Users/andrea/Desktop/Adv. Quant Methods","no","mono","no","18","no","white","no","no","768","legacy","33","33","/Users/andrea/Desktop/Adv. Quant Methods/AS-subject-2.csv","legacy","Lentiform Loewenfeld","3.3.12","0","s","s","NA","s","402","9935","NA","402","2","legacy","1024","2","48000","-16","experiment","SSSSS","2","even","11415","NA","NA","65370","1476","66418","NA","1420","NA","66420","NA","66524","66927","66523","Flanker Test","34","17154","34","yes","1024"
"100","100","504.62857142857143","504.62857142857143","black","legacy","legacy","legacy","0","incongruent","uniform","1","undefined","1","h","0","0","0","34","0","34","34","0","34","34","0","34","34","34","Sat Sep 24 13:42:43 2022","1500","The main experiment item","yes","FlankerTest_Savkovic.osexp","/Users/andrea/Desktop/Adv. Quant Methods","no","mono","no","18","no","white","no","no","768","legacy","34","34","/Users/andrea/Desktop/Adv. Quant Methods/AS-subject-2.csv","legacy","Lentiform Loewenfeld","3.3.12","0","h","s","NA","h","508","9935","NA","508","2","legacy","1024","2","48000","-16","experiment","SSHSS","2","even","11415","NA","NA","66930","1476","67978","NA","1420","NA","67980","NA","68084","68593","68084","Flanker Test","35","17662","35","yes","1024"
"100","100","504.72222222222223","504.72222222222223","black","legacy","legacy","legacy","0","incongruent","uniform","1","undefined","1","s","0","0","0","35","0","35","35","0","35","35","0","35","35","35","Sat Sep 24 13:42:43 2022","1500","The main experiment item","yes","FlankerTest_Savkovic.osexp","/Users/andrea/Desktop/Adv. Quant Methods","no","mono","no","18","no","white","no","no","768","legacy","35","35","/Users/andrea/Desktop/Adv. Quant Methods/AS-subject-2.csv","legacy","Lentiform Loewenfeld","3.3.12","0","s","s","NA","s","508","9935","NA","508","2","legacy","1024","2","48000","-16","experiment","HHSHH","2","even","11415","NA","NA","68596","1476","69643","NA","1420","NA","69646","NA","69750","70258","69750","Flanker Test","36","18170","36","yes","1024"
"100","100","502.7567567567568","502.7567567567568","black","legacy","legacy","legacy","0","congruent","uniform","1","undefined","1","h","0","0","0","36","0","36","36","0","36","36","0","36","36","36","Sat Sep 24 13:42:43 2022","1500","The main experiment item","yes","FlankerTest_Savkovic.osexp","/Users/andrea/Desktop/Adv. Quant Methods","no","mono","no","18","no","white","no","no","768","legacy","36","36","/Users/andrea/Desktop/Adv. Quant Methods/AS-subject-2.csv","legacy","Lentiform Loewenfeld","3.3.12","0","h","s","NA","h","432","9935","NA","432","2","legacy","1024","2","48000","-16","experiment","HHHHH","2","even","11415","NA","NA","70262","1476","71310","NA","1420","NA","71312","NA","71416","71848","71416","Flanker Test","37","18602","37","yes","1024"
"100","100","500.13157894736844","500.13157894736844","black","legacy","legacy","legacy","0","congruent","uniform","1","undefined","1","s","0","0","0","37","0","37","37","0","37","37","0","37","37","37","Sat Sep 24 13:42:43 2022","1500","The main experiment item","yes","FlankerTest_Savkovic.osexp","/Users/andrea/Desktop/Adv. Quant Methods","no","mono","no","18","no","white","no","no","768","legacy","37","37","/Users/andrea/Desktop/Adv. Quant Methods/AS-subject-2.csv","legacy","Lentiform Loewenfeld","3.3.12","0","s","s","NA","s","403","9935","NA","403","2","legacy","1024","2","48000","-16","experiment","SSSSS","2","even","11415","NA","NA","71851","1476","72899","NA","1420","NA","72901","NA","73005","73408","73005","Flanker Test","38","19005","38","yes","1024"
"100","100","500.3076923076923","500.3076923076923","black","legacy","legacy","legacy","0","incongruent","uniform","1","undefined","1","s","0","0","0","38","0","38","38","0","38","38","0","38","38","38","Sat Sep 24 13:42:43 2022","1500","The main experiment item","yes","FlankerTest_Savkovic.osexp","/Users/andrea/Desktop/Adv. Quant Methods","no","mono","no","18","no","white","no","no","768","legacy","38","38","/Users/andrea/Desktop/Adv. Quant Methods/AS-subject-2.csv","legacy","Lentiform Loewenfeld","3.3.12","0","s","s","NA","s","507","9935","NA","507","2","legacy","1024","2","48000","-16","experiment","HHSHH","2","even","11415","NA","NA","73411","1476","74460","NA","1420","NA","74462","NA","74566","75074","74566","Flanker Test","39","19512","39","yes","1024"
"100","100","499.35","499.35","black","legacy","legacy","legacy","0","congruent","uniform","1","undefined","1","h","0","0","0","39","0","39","39","0","39","39","0","39","39","39","Sat Sep 24 13:42:43 2022","1500","The main experiment item","yes","FlankerTest_Savkovic.osexp","/Users/andrea/Desktop/Adv. Quant Methods","no","mono","no","18","no","white","no","no","768","legacy","39","39","/Users/andrea/Desktop/Adv. Quant Methods/AS-subject-2.csv","legacy","Lentiform Loewenfeld","3.3.12","0","h","s","NA","h","462","9935","NA","462","2","legacy","1024","2","48000","-16","experiment","HHHHH","2","even","11415","NA","NA","75076","1476","76125","NA","1420","NA","76127","NA","76231","76694","76231","Flanker Test","40","19974","40","yes","1024"
"100","100","500.2926829268293","500.2926829268293","black","legacy","legacy","legacy","0","incongruent","uniform","1","undefined","1","h","0","0","0","40","0","40","40","0","40","40","0","40","40","40","Sat Sep 24 13:42:43 2022","1500","The main experiment item","yes","FlankerTest_Savkovic.osexp","/Users/andrea/Desktop/Adv. Quant Methods","no","mono","no","18","no","white","no","no","768","legacy","40","40","/Users/andrea/Desktop/Adv. Quant Methods/AS-subject-2.csv","legacy","Lentiform Loewenfeld","3.3.12","0","h","s","NA","h","538","9935","NA","538","2","legacy","1024","2","48000","-16","experiment","SSHSS","2","even","11415","NA","NA","76697","1476","77744","NA","1420","NA","77746","NA","77850","78389","77850","Flanker Test","41","20512","41","yes","1024"
"100","100","499.5238095238095","499.5238095238095","black","legacy","legacy","legacy","0","congruent","uniform","1","undefined","1","h","0","0","0","41","0","41","41","0","41","41","0","41","41","41","Sat Sep 24 13:42:43 2022","1500","The main experiment item","yes","FlankerTest_Savkovic.osexp","/Users/andrea/Desktop/Adv. Quant Methods","no","mono","no","18","no","white","no","no","768","legacy","41","41","/Users/andrea/Desktop/Adv. Quant Methods/AS-subject-2.csv","legacy","Lentiform Loewenfeld","3.3.12","0","h","s","NA","h","468","9935","NA","468","2","legacy","1024","2","48000","-16","experiment","HHHHH","2","even","11415","NA","NA","78392","1476","79434","NA","1420","NA","79436","NA","79540","80009","79540","Flanker Test","42","20980","42","yes","1024"
"100","100","498.6279069767442","498.6279069767442","black","legacy","legacy","legacy","0","incongruent","uniform","1","undefined","1","s","0","0","0","42","0","42","42","0","42","42","0","42","42","42","Sat Sep 24 13:42:43 2022","1500","The main experiment item","yes","FlankerTest_Savkovic.osexp","/Users/andrea/Desktop/Adv. Quant Methods","no","mono","no","18","no","white","no","no","768","legacy","42","42","/Users/andrea/Desktop/Adv. Quant Methods/AS-subject-2.csv","legacy","Lentiform Loewenfeld","3.3.12","0","s","s","NA","s","461","9935","NA","461","2","legacy","1024","2","48000","-16","experiment","HHSHH","2","even","11415","NA","NA","80012","1476","81060","NA","1420","NA","81062","NA","81166","81628","81166","Flanker Test","43","21441","43","yes","1024"
"100","100","496.1136363636364","496.1136363636364","black","legacy","legacy","legacy","0","congruent","uniform","1","undefined","1","s","0","0","0","43","0","43","43","0","43","43","0","43","43","43","Sat Sep 24 13:42:43 2022","1500","The main experiment item","yes","FlankerTest_Savkovic.osexp","/Users/andrea/Desktop/Adv. Quant Methods","no","mono","no","18","no","white","no","no","768","legacy","43","43","/Users/andrea/Desktop/Adv. Quant Methods/AS-subject-2.csv","legacy","Lentiform Loewenfeld","3.3.12","0","s","s","NA","s","388","9935","NA","388","2","legacy","1024","2","48000","-16","experiment","SSSSS","2","even","11415","NA","NA","81631","1476","82678","NA","1420","NA","82680","NA","82785","83174","82785","Flanker Test","44","21829","44","yes","1024"
"100","100","497.35555555555555","497.35555555555555","black","legacy","legacy","legacy","0","incongruent","uniform","1","undefined","1","s","0","0","0","44","0","44","44","0","44","44","0","44","44","44","Sat Sep 24 13:42:43 2022","1500","The main experiment item","yes","FlankerTest_Savkovic.osexp","/Users/andrea/Desktop/Adv. Quant Methods","no","mono","no","18","no","white","no","no","768","legacy","44","44","/Users/andrea/Desktop/Adv. Quant Methods/AS-subject-2.csv","legacy","Lentiform Loewenfeld","3.3.12","0","s","s","NA","s","552","9935","NA","552","2","legacy","1024","2","48000","-16","experiment","HHSHH","2","even","11415","NA","NA","83177","1476","84224","NA","1420","NA","84226","NA","84331","84884","84330","Flanker Test","45","22381","45","yes","1024"
"100","100","495.95652173913044","495.95652173913044","black","legacy","legacy","legacy","0","incongruent","uniform","1","undefined","1","s","0","0","0","45","0","45","45","0","45","45","0","45","45","45","Sat Sep 24 13:42:43 2022","1500","The main experiment item","yes","FlankerTest_Savkovic.osexp","/Users/andrea/Desktop/Adv. Quant Methods","no","mono","no","18","no","white","no","no","768","legacy","45","45","/Users/andrea/Desktop/Adv. Quant Methods/AS-subject-2.csv","legacy","Lentiform Loewenfeld","3.3.12","0","s","s","NA","s","433","9935","NA","433","2","legacy","1024","2","48000","-16","experiment","HHSHH","2","even","11415","NA","NA","84887","1476","85934","NA","1420","NA","85936","NA","86040","86474","86040","Flanker Test","46","22814","46","yes","1024"
"100","100","496.3404255319149","496.3404255319149","black","legacy","legacy","legacy","0","incongruent","uniform","1","undefined","1","h","0","0","0","46","0","46","46","0","46","46","0","46","46","46","Sat Sep 24 13:42:43 2022","1500","The main experiment item","yes","FlankerTest_Savkovic.osexp","/Users/andrea/Desktop/Adv. Quant Methods","no","mono","no","18","no","white","no","no","768","legacy","46","46","/Users/andrea/Desktop/Adv. Quant Methods/AS-subject-2.csv","legacy","Lentiform Loewenfeld","3.3.12","0","h","s","NA","h","514","9935","NA","514","2","legacy","1024","2","48000","-16","experiment","SSHSS","2","even","11415","NA","NA","86477","1476","87533","NA","1420","NA","87535","NA","87639","88154","87639","Flanker Test","47","23328","47","yes","1024"
"100","100","496.2291666666667","496.2291666666667","black","legacy","legacy","legacy","0","incongruent","uniform","1","undefined","1","h","0","0","0","47","0","47","47","0","47","47","0","47","47","47","Sat Sep 24 13:42:43 2022","1500","The main experiment item","yes","FlankerTest_Savkovic.osexp","/Users/andrea/Desktop/Adv. Quant Methods","no","mono","no","18","no","white","no","no","768","legacy","47","47","/Users/andrea/Desktop/Adv. Quant Methods/AS-subject-2.csv","legacy","Lentiform Loewenfeld","3.3.12","0","h","s","NA","h","491","9935","NA","491","2","legacy","1024","2","48000","-16","experiment","SSHSS","2","even","11415","NA","NA","88157","1476","89204","NA","1420","NA","89207","NA","89312","89804","89311","Flanker Test","48","23819","48","yes","1024"
"100","100","495.85714285714283","495.85714285714283","black","legacy","legacy","legacy","0","incongruent","uniform","1","undefined","1","s","0","0","0","48","0","48","48","0","48","48","0","48","48","48","Sat Sep 24 13:42:43 2022","1500","The main experiment item","yes","FlankerTest_Savkovic.osexp","/Users/andrea/Desktop/Adv. Quant Methods","no","mono","no","18","no","white","no","no","768","legacy","48","48","/Users/andrea/Desktop/Adv. Quant Methods/AS-subject-2.csv","legacy","Lentiform Loewenfeld","3.3.12","0","s","s","NA","s","478","9935","NA","478","2","legacy","1024","2","48000","-16","experiment","HHSHH","2","even","11415","NA","NA","89807","1476","90854","NA","1420","NA","90856","NA","90960","91439","90960","Flanker Test","49","24297","49","yes","1024"
"100","100","496.4","496.4","black","legacy","legacy","legacy","0","incongruent","uniform","1","undefined","1","h","0","0","0","49","0","49","49","0","49","49","0","49","49","49","Sat Sep 24 13:42:43 2022","1500","The main experiment item","yes","FlankerTest_Savkovic.osexp","/Users/andrea/Desktop/Adv. Quant Methods","no","mono","no","18","no","white","no","no","768","legacy","49","49","/Users/andrea/Desktop/Adv. Quant Methods/AS-subject-2.csv","legacy","Lentiform Loewenfeld","3.3.12","0","h","s","NA","h","523","9935","NA","523","2","legacy","1024","2","48000","-16","experiment","SSHSS","2","even","11415","NA","NA","91442","1476","92490","NA","1420","NA","92492","NA","92596","93119","92596","Flanker Test","50","24820","50","yes","1024"
"100","100","494.5686274509804","494.5686274509804","black","legacy","legacy","legacy","0","congruent","uniform","1","undefined","1","s","0","0","0","50","0","50","50","0","50","50","0","50","50","50","Sat Sep 24 13:42:43 2022","1500","The main experiment item","yes","FlankerTest_Savkovic.osexp","/Users/andrea/Desktop/Adv. Quant Methods","no","mono","no","18","no","white","no","no","768","legacy","50","50","/Users/andrea/Desktop/Adv. Quant Methods/AS-subject-2.csv","legacy","Lentiform Loewenfeld","3.3.12","0","s","s","NA","s","403","9935","NA","403","2","legacy","1024","2","48000","-16","experiment","SSSSS","2","even","11415","NA","NA","93123","1476","94170","NA","1420","NA","94172","NA","94276","94679","94276","Flanker Test","51","25223","51","yes","1024"
"100","100","497.03846153846155","497.03846153846155","black","legacy","legacy","legacy","0","congruent","uniform","1","undefined","1","s","0","0","0","51","0","51","51","0","51","51","0","51","51","51","Sat Sep 24 13:42:43 2022","1500","The main experiment item","yes","FlankerTest_Savkovic.osexp","/Users/andrea/Desktop/Adv. Quant Methods","no","mono","no","18","no","white","no","no","768","legacy","51","51","/Users/andrea/Desktop/Adv. Quant Methods/AS-subject-2.csv","legacy","Lentiform Loewenfeld","3.3.12","0","s","s","NA","s","623","9935","NA","623","2","legacy","1024","2","48000","-16","experiment","SSSSS","2","even","11415","NA","NA","94682","1476","95735","NA","1420","NA","95737","NA","95841","96465","95841","Flanker Test","52","25846","52","yes","1024"
"100","100","498.60377358490564","498.60377358490564","black","legacy","legacy","legacy","0","incongruent","uniform","1","undefined","1","s","0","0","0","52","0","52","52","0","52","52","0","52","52","52","Sat Sep 24 13:42:43 2022","1500","The main experiment item","yes","FlankerTest_Savkovic.osexp","/Users/andrea/Desktop/Adv. Quant Methods","no","mono","no","18","no","white","no","no","768","legacy","52","52","/Users/andrea/Desktop/Adv. Quant Methods/AS-subject-2.csv","legacy","Lentiform Loewenfeld","3.3.12","0","s","s","NA","s","580","9935","NA","580","2","legacy","1024","2","48000","-16","experiment","HHSHH","2","even","11415","NA","NA","96468","1476","97517","NA","1420","NA","97519","NA","97623","98204","97623","Flanker Test","53","26426","53","yes","1024"
"100","100","499.31481481481484","499.31481481481484","black","legacy","legacy","legacy","0","congruent","uniform","1","undefined","1","s","0","0","0","53","0","53","53","0","53","53","0","53","53","53","Sat Sep 24 13:42:43 2022","1500","The main experiment item","yes","FlankerTest_Savkovic.osexp","/Users/andrea/Desktop/Adv. Quant Methods","no","mono","no","18","no","white","no","no","768","legacy","53","53","/Users/andrea/Desktop/Adv. Quant Methods/AS-subject-2.csv","legacy","Lentiform Loewenfeld","3.3.12","0","s","s","NA","s","537","9935","NA","537","2","legacy","1024","2","48000","-16","experiment","SSSSS","2","even","11415","NA","NA","98207","1476","99255","NA","1420","NA","99257","NA","99362","99900","99362","Flanker Test","54","26963","54","yes","1024"
"100","100","498.27272727272725","498.27272727272725","black","legacy","legacy","legacy","0","congruent","uniform","1","undefined","1","h","0","0","0","54","0","54","54","0","54","54","0","54","54","54","Sat Sep 24 13:42:43 2022","1500","The main experiment item","yes","FlankerTest_Savkovic.osexp","/Users/andrea/Desktop/Adv. Quant Methods","no","mono","no","18","no","white","no","no","768","legacy","54","54","/Users/andrea/Desktop/Adv. Quant Methods/AS-subject-2.csv","legacy","Lentiform Loewenfeld","3.3.12","0","h","s","NA","h","442","9935","NA","442","2","legacy","1024","2","48000","-16","experiment","HHHHH","2","even","11415","NA","NA","99921","1476","100970","NA","1420","NA","100972","NA","101077","101520","101076","Flanker Test","55","27405","55","yes","1024"
"100","100","497.4107142857143","497.4107142857143","black","legacy","legacy","legacy","0","congruent","uniform","1","undefined","1","s","0","0","0","55","0","55","55","0","55","55","0","55","55","55","Sat Sep 24 13:42:43 2022","1500","The main experiment item","yes","FlankerTest_Savkovic.osexp","/Users/andrea/Desktop/Adv. Quant Methods","no","mono","no","18","no","white","no","no","768","legacy","55","55","/Users/andrea/Desktop/Adv. Quant Methods/AS-subject-2.csv","legacy","Lentiform Loewenfeld","3.3.12","0","s","s","NA","s","450","9935","NA","450","2","legacy","1024","2","48000","-16","experiment","SSSSS","2","even","11415","NA","NA","101522","1476","102567","NA","1420","NA","102569","NA","102674","103125","102673","Flanker Test","56","27855","56","yes","1024"
"100","100","496.7894736842105","496.7894736842105","black","legacy","legacy","legacy","0","incongruent","uniform","1","undefined","1","s","0","0","0","56","0","56","56","0","56","56","0","56","56","56","Sat Sep 24 13:42:43 2022","1500","The main experiment item","yes","FlankerTest_Savkovic.osexp","/Users/andrea/Desktop/Adv. Quant Methods","no","mono","no","18","no","white","no","no","768","legacy","56","56","/Users/andrea/Desktop/Adv. Quant Methods/AS-subject-2.csv","legacy","Lentiform Loewenfeld","3.3.12","0","s","s","NA","s","462","9935","NA","462","2","legacy","1024","2","48000","-16","experiment","HHSHH","2","even","11415","NA","NA","103128","1476","104176","NA","1420","NA","104178","NA","104282","104744","104282","Flanker Test","57","28317","57","yes","1024"
"100","100","496.7068965517241","496.7068965517241","black","legacy","legacy","legacy","0","congruent","uniform","1","undefined","1","h","0","0","0","57","0","57","57","0","57","57","0","57","57","57","Sat Sep 24 13:42:43 2022","1500","The main experiment item","yes","FlankerTest_Savkovic.osexp","/Users/andrea/Desktop/Adv. Quant Methods","no","mono","no","18","no","white","no","no","768","legacy","57","57","/Users/andrea/Desktop/Adv. Quant Methods/AS-subject-2.csv","legacy","Lentiform Loewenfeld","3.3.12","0","h","s","NA","h","492","9935","NA","492","2","legacy","1024","2","48000","-16","experiment","HHHHH","2","even","11415","NA","NA","104748","1476","105796","NA","1420","NA","105798","NA","105902","106395","105902","Flanker Test","58","28809","58","yes","1024"
"100","100","495.864406779661","495.864406779661","black","legacy","legacy","legacy","0","congruent","uniform","1","undefined","1","h","0","0","0","58","0","58","58","0","58","58","0","58","58","58","Sat Sep 24 13:42:43 2022","1500","The main experiment item","yes","FlankerTest_Savkovic.osexp","/Users/andrea/Desktop/Adv. Quant Methods","no","mono","no","18","no","white","no","no","768","legacy","58","58","/Users/andrea/Desktop/Adv. Quant Methods/AS-subject-2.csv","legacy","Lentiform Loewenfeld","3.3.12","0","h","s","NA","h","447","9935","NA","447","2","legacy","1024","2","48000","-16","experiment","HHHHH","2","even","11415","NA","NA","106398","1476","107446","NA","1420","NA","107448","NA","107552","108000","107552","Flanker Test","59","29256","59","yes","1024"
"100","100","494.43333333333334","494.43333333333334","black","legacy","legacy","legacy","0","congruent","uniform","1","undefined","1","s","0","0","0","59","0","59","59","0","59","59","0","59","59","59","Sat Sep 24 13:42:43 2022","1500","The main experiment item","yes","FlankerTest_Savkovic.osexp","/Users/andrea/Desktop/Adv. Quant Methods","no","mono","no","18","no","white","no","no","768","legacy","59","59","/Users/andrea/Desktop/Adv. Quant Methods/AS-subject-2.csv","legacy","Lentiform Loewenfeld","3.3.12","0","s","s","NA","s","410","9935","NA","410","2","legacy","1024","2","48000","-16","experiment","SSSSS","2","even","11415","NA","NA","108003","1476","109043","NA","1420","NA","109045","NA","109149","109560","109149","Flanker Test","60","29666","60","yes","1024"
"100","100","493.6885245901639","493.6885245901639","black","legacy","legacy","legacy","0","congruent","uniform","1","undefined","1","h","0","0","0","60","0","60","60","0","60","60","0","60","60","60","Sat Sep 24 13:42:43 2022","1500","The main experiment item","yes","FlankerTest_Savkovic.osexp","/Users/andrea/Desktop/Adv. Quant Methods","no","mono","no","18","no","white","no","no","768","legacy","60","60","/Users/andrea/Desktop/Adv. Quant Methods/AS-subject-2.csv","legacy","Lentiform Loewenfeld","3.3.12","0","h","s","NA","h","449","9935","NA","449","2","legacy","1024","2","48000","-16","experiment","HHHHH","2","even","11415","NA","NA","109563","1476","110609","NA","1420","NA","110611","NA","110715","111165","110715","Flanker Test","61","30115","61","yes","1024"
"100","100","492.2258064516129","492.2258064516129","black","legacy","legacy","legacy","0","incongruent","uniform","1","undefined","1","s","0","0","0","61","0","61","61","0","61","61","0","61","61","61","Sat Sep 24 13:42:43 2022","1500","The main experiment item","yes","FlankerTest_Savkovic.osexp","/Users/andrea/Desktop/Adv. Quant Methods","no","mono","no","18","no","white","no","no","768","legacy","61","61","/Users/andrea/Desktop/Adv. Quant Methods/AS-subject-2.csv","legacy","Lentiform Loewenfeld","3.3.12","0","s","s","NA","s","403","9935","NA","403","2","legacy","1024","2","48000","-16","experiment","HHSHH","2","even","11415","NA","NA","111168","1476","112215","NA","1420","NA","112217","NA","112321","112725","112321","Flanker Test","62","30518","62","yes","1024"
"100","100","491.7142857142857","491.7142857142857","black","legacy","legacy","legacy","0","incongruent","uniform","1","undefined","1","h","0","0","0","62","0","62","62","0","62","62","0","62","62","62","Sat Sep 24 13:42:43 2022","1500","The main experiment item","yes","FlankerTest_Savkovic.osexp","/Users/andrea/Desktop/Adv. Quant Methods","no","mono","no","18","no","white","no","no","768","legacy","62","62","/Users/andrea/Desktop/Adv. Quant Methods/AS-subject-2.csv","legacy","Lentiform Loewenfeld","3.3.12","0","h","s","NA","h","460","9935","NA","460","2","legacy","1024","2","48000","-16","experiment","SSHSS","2","even","11415","NA","NA","112728","1476","113776","NA","1420","NA","113778","NA","113883","114344","113882","Flanker Test","63","30978","63","yes","1024"
"100","100","490.796875","490.796875","black","legacy","legacy","legacy","0","congruent","uniform","1","undefined","1","h","0","0","0","63","0","63","63","0","63","63","0","63","63","63","Sat Sep 24 13:42:43 2022","1500","The main experiment item","yes","FlankerTest_Savkovic.osexp","/Users/andrea/Desktop/Adv. Quant Methods","no","mono","no","18","no","white","no","no","768","legacy","63","63","/Users/andrea/Desktop/Adv. Quant Methods/AS-subject-2.csv","legacy","Lentiform Loewenfeld","3.3.12","0","h","s","NA","h","433","9935","NA","433","2","legacy","1024","2","48000","-16","experiment","HHHHH","2","even","11415","NA","NA","114347","1476","115395","NA","1420","NA","115397","NA","115501","115935","115501","Flanker Test","64","31411","64","yes","1024"
"100","100","489.10769230769233","489.10769230769233","black","legacy","legacy","legacy","0","incongruent","uniform","1","undefined","1","s","0","0","0","64","0","64","64","0","64","64","0","64","64","64","Sat Sep 24 13:42:43 2022","1500","The main experiment item","yes","FlankerTest_Savkovic.osexp","/Users/andrea/Desktop/Adv. Quant Methods","no","mono","no","18","no","white","no","no","768","legacy","64","64","/Users/andrea/Desktop/Adv. Quant Methods/AS-subject-2.csv","legacy","Lentiform Loewenfeld","3.3.12","0","s","s","NA","s","381","9935","NA","381","2","legacy","1024","2","48000","-16","experiment","HHSHH","2","even","11415","NA","NA","115939","1476","116977","NA","1420","NA","116979","NA","117084","117465","117084","Flanker Test","65","31792","65","yes","1024"
"100","100","488","488","black","legacy","legacy","legacy","0","congruent","uniform","1","undefined","1","h","0","0","0","65","0","65","65","0","65","65","0","65","65","65","Sat Sep 24 13:42:43 2022","1500","The main experiment item","yes","FlankerTest_Savkovic.osexp","/Users/andrea/Desktop/Adv. Quant Methods","no","mono","no","18","no","white","no","no","768","legacy","65","65","/Users/andrea/Desktop/Adv. Quant Methods/AS-subject-2.csv","legacy","Lentiform Loewenfeld","3.3.12","0","h","s","NA","h","416","9935","NA","416","2","legacy","1024","2","48000","-16","experiment","HHHHH","2","even","11415","NA","NA","117468","1476","118518","NA","1420","NA","118520","NA","118624","119040","118624","Flanker Test","66","32208","66","yes","1024"
"100","100","488.5223880597015","488.5223880597015","black","legacy","legacy","legacy","0","incongruent","uniform","1","undefined","1","h","0","0","0","66","0","66","66","0","66","66","0","66","66","66","Sat Sep 24 13:42:43 2022","1500","The main experiment item","yes","FlankerTest_Savkovic.osexp","/Users/andrea/Desktop/Adv. Quant Methods","no","mono","no","18","no","white","no","no","768","legacy","66","66","/Users/andrea/Desktop/Adv. Quant Methods/AS-subject-2.csv","legacy","Lentiform Loewenfeld","3.3.12","0","h","s","NA","h","523","9935","NA","523","2","legacy","1024","2","48000","-16","experiment","SSHSS","2","even","11415","NA","NA","119043","1476","120091","NA","1420","NA","120093","NA","120197","120721","120197","Flanker Test","67","32731","67","yes","1024"
"100","100","486.5882352941176","486.5882352941176","black","legacy","legacy","legacy","0","congruent","uniform","1","undefined","1","h","0","0","0","67","0","67","67","0","67","67","0","67","67","67","Sat Sep 24 13:42:43 2022","1500","The main experiment item","yes","FlankerTest_Savkovic.osexp","/Users/andrea/Desktop/Adv. Quant Methods","no","mono","no","18","no","white","no","no","768","legacy","67","67","/Users/andrea/Desktop/Adv. Quant Methods/AS-subject-2.csv","legacy","Lentiform Loewenfeld","3.3.12","0","h","s","NA","h","357","9935","NA","357","2","legacy","1024","2","48000","-16","experiment","HHHHH","2","even","11415","NA","NA","120724","1476","121771","NA","1420","NA","121774","NA","121878","122235","121878","Flanker Test","68","33088","68","yes","1024"
"100","100","485.2608695652174","485.2608695652174","black","legacy","legacy","legacy","0","congruent","uniform","1","undefined","1","s","0","0","0","68","0","68","68","0","68","68","0","68","68","68","Sat Sep 24 13:42:43 2022","1500","The main experiment item","yes","FlankerTest_Savkovic.osexp","/Users/andrea/Desktop/Adv. Quant Methods","no","mono","no","18","no","white","no","no","768","legacy","68","68","/Users/andrea/Desktop/Adv. Quant Methods/AS-subject-2.csv","legacy","Lentiform Loewenfeld","3.3.12","0","s","s","NA","s","395","9935","NA","395","2","legacy","1024","2","48000","-16","experiment","SSSSS","2","even","11415","NA","NA","122239","1476","123293","NA","1420","NA","123295","NA","123400","123796","123399","Flanker Test","69","33483","69","yes","1024"
"100","100","486.22857142857146","486.22857142857146","black","legacy","legacy","legacy","0","incongruent","uniform","1","undefined","1","s","0","0","0","69","0","69","69","0","69","69","0","69","69","69","Sat Sep 24 13:42:43 2022","1500","The main experiment item","yes","FlankerTest_Savkovic.osexp","/Users/andrea/Desktop/Adv. Quant Methods","no","mono","no","18","no","white","no","no","768","legacy","69","69","/Users/andrea/Desktop/Adv. Quant Methods/AS-subject-2.csv","legacy","Lentiform Loewenfeld","3.3.12","0","s","s","NA","s","553","9935","NA","553","2","legacy","1024","2","48000","-16","experiment","HHSHH","2","even","11415","NA","NA","123799","1476","124846","NA","1420","NA","124848","NA","124952","125506","124952","Flanker Test","70","34036","70","yes","1024"
"98.59154929577464","98.59154929577464","484.40845070422534","484.40845070422534","black","legacy","legacy","legacy","0","incongruent","uniform","0","undefined","0","h","0","0","0","70","0","70","70","0","70","70","0","70","70","70","Sat Sep 24 13:42:43 2022","1500","The main experiment item","yes","FlankerTest_Savkovic.osexp","/Users/andrea/Desktop/Adv. Quant Methods","no","mono","no","18","no","white","no","no","768","legacy","70","70","/Users/andrea/Desktop/Adv. Quant Methods/AS-subject-2.csv","legacy","Lentiform Loewenfeld","3.3.12","0","s","s","NA","s","357","9935","NA","357","2","legacy","1024","2","48000","-16","experiment","SSHSS","2","even","11415","NA","NA","125508","1476","126556","NA","1420","NA","126558","NA","126663","127021","126663","Flanker Test","70","34393","71","yes","1024"
"98.61111111111111","98.61111111111111","482.93055555555554","482.93055555555554","black","legacy","legacy","legacy","0","congruent","uniform","1","undefined","1","s","0","0","0","71","0","71","71","0","71","71","0","71","71","71","Sat Sep 24 13:42:43 2022","1500","The main experiment item","yes","FlankerTest_Savkovic.osexp","/Users/andrea/Desktop/Adv. Quant Methods","no","mono","no","18","no","white","no","no","768","legacy","71","71","/Users/andrea/Desktop/Adv. Quant Methods/AS-subject-2.csv","legacy","Lentiform Loewenfeld","3.3.12","0","s","s","NA","s","378","9935","NA","378","2","legacy","1024","2","48000","-16","experiment","SSSSS","2","even","11415","NA","NA","127528","1476","128576","127024","1420","NA","128578","NA","128682","129061","128682","Flanker Test","71","34771","72","yes","1024"
"98.63013698630137","98.63013698630137","482.63013698630135","482.63013698630135","black","legacy","legacy","legacy","0","congruent","uniform","1","undefined","1","s","0","0","0","72","0","72","72","0","72","72","0","72","72","72","Sat Sep 24 13:42:43 2022","1500","The main experiment item","yes","FlankerTest_Savkovic.osexp","/Users/andrea/Desktop/Adv. Quant Methods","no","mono","no","18","no","white","no","no","768","legacy","72","72","/Users/andrea/Desktop/Adv. Quant Methods/AS-subject-2.csv","legacy","Lentiform Loewenfeld","3.3.12","0","s","s","NA","s","461","9935","NA","461","2","legacy","1024","2","48000","-16","experiment","SSSSS","2","even","11415","NA","NA","129064","1476","130113","127024","1420","NA","130115","NA","130219","130681","130219","Flanker Test","72","35232","73","yes","1024"
"98.64864864864865","98.64864864864865","481.3378378378378","481.3378378378378","black","legacy","legacy","legacy","0","incongruent","uniform","1","undefined","1","s","0","0","0","73","0","73","73","0","73","73","0","73","73","73","Sat Sep 24 13:42:43 2022","1500","The main experiment item","yes","FlankerTest_Savkovic.osexp","/Users/andrea/Desktop/Adv. Quant Methods","no","mono","no","18","no","white","no","no","768","legacy","73","73","/Users/andrea/Desktop/Adv. Quant Methods/AS-subject-2.csv","legacy","Lentiform Loewenfeld","3.3.12","0","s","s","NA","s","387","9935","NA","387","2","legacy","1024","2","48000","-16","experiment","HHSHH","2","even","11415","NA","NA","130684","1476","131732","127024","1420","NA","131734","NA","131838","132226","131838","Flanker Test","73","35619","74","yes","1024"
"98.66666666666667","98.66666666666667","481.48","481.48","black","legacy","legacy","legacy","0","incongruent","uniform","1","undefined","1","h","0","0","0","74","0","74","74","0","74","74","0","74","74","74","Sat Sep 24 13:42:43 2022","1500","The main experiment item","yes","FlankerTest_Savkovic.osexp","/Users/andrea/Desktop/Adv. Quant Methods","no","mono","no","18","no","white","no","no","768","legacy","74","74","/Users/andrea/Desktop/Adv. Quant Methods/AS-subject-2.csv","legacy","Lentiform Loewenfeld","3.3.12","0","h","s","NA","h","492","9935","NA","492","2","legacy","1024","2","48000","-16","experiment","SSHSS","2","even","11415","NA","NA","132229","1476","133277","127024","1420","NA","133279","NA","133383","133876","133383","Flanker Test","74","36111","75","yes","1024"
"98.6842105263158","98.6842105263158","482.4078947368421","482.4078947368421","black","legacy","legacy","legacy","0","incongruent","uniform","1","undefined","1","h","0","0","0","75","0","75","75","0","75","75","0","75","75","75","Sat Sep 24 13:42:43 2022","1500","The main experiment item","yes","FlankerTest_Savkovic.osexp","/Users/andrea/Desktop/Adv. Quant Methods","no","mono","no","18","no","white","no","no","768","legacy","75","75","/Users/andrea/Desktop/Adv. Quant Methods/AS-subject-2.csv","legacy","Lentiform Loewenfeld","3.3.12","0","h","s","NA","h","552","9935","NA","552","2","legacy","1024","2","48000","-16","experiment","SSHSS","2","even","11415","NA","NA","133879","1476","134927","127024","1420","NA","134928","NA","135033","135586","135033","Flanker Test","75","36663","76","yes","1024"
"98.7012987012987","98.7012987012987","482.5974025974026","482.5974025974026","black","legacy","legacy","legacy","0","congruent","uniform","1","undefined","1","h","0","0","0","76","0","76","76","0","76","76","0","76","76","76","Sat Sep 24 13:42:43 2022","1500","The main experiment item","yes","FlankerTest_Savkovic.osexp","/Users/andrea/Desktop/Adv. Quant Methods","no","mono","no","18","no","white","no","no","768","legacy","76","76","/Users/andrea/Desktop/Adv. Quant Methods/AS-subject-2.csv","legacy","Lentiform Loewenfeld","3.3.12","0","h","s","NA","h","497","9935","NA","497","2","legacy","1024","2","48000","-16","experiment","HHHHH","2","even","11415","NA","NA","135589","1476","136632","127024","1420","NA","136634","NA","136738","137236","136738","Flanker Test","76","37160","77","yes","1024"
"98.71794871794872","98.71794871794872","482.71794871794873","482.71794871794873","black","legacy","legacy","legacy","0","incongruent","uniform","1","undefined","1","h","0","0","0","77","0","77","77","0","77","77","0","77","77","77","Sat Sep 24 13:42:43 2022","1500","The main experiment item","yes","FlankerTest_Savkovic.osexp","/Users/andrea/Desktop/Adv. Quant Methods","no","mono","no","18","no","white","no","no","768","legacy","77","77","/Users/andrea/Desktop/Adv. Quant Methods/AS-subject-2.csv","legacy","Lentiform Loewenfeld","3.3.12","0","h","s","NA","h","492","9935","NA","492","2","legacy","1024","2","48000","-16","experiment","SSHSS","2","even","11415","NA","NA","137239","1476","138287","127024","1420","NA","138289","NA","138393","138886","138393","Flanker Test","77","37652","78","yes","1024"
"98.73417721518987","98.73417721518987","481.44303797468353","481.44303797468353","black","legacy","legacy","legacy","0","congruent","uniform","1","undefined","1","h","0","0","0","78","0","78","78","0","78","78","0","78","78","78","Sat Sep 24 13:42:43 2022","1500","The main experiment item","yes","FlankerTest_Savkovic.osexp","/Users/andrea/Desktop/Adv. Quant Methods","no","mono","no","18","no","white","no","no","768","legacy","78","78","/Users/andrea/Desktop/Adv. Quant Methods/AS-subject-2.csv","legacy","Lentiform Loewenfeld","3.3.12","0","h","s","NA","h","382","9935","NA","382","2","legacy","1024","2","48000","-16","experiment","HHHHH","2","even","11415","NA","NA","138889","1476","139927","127024","1420","NA","139929","NA","140033","140416","140033","Flanker Test","78","38034","79","yes","1024"
"98.75","98.75","480.2625","480.2625","black","legacy","legacy","legacy","0","congruent","uniform","1","undefined","1","h","0","0","0","79","0","79","79","0","79","79","0","79","79","79","Sat Sep 24 13:42:43 2022","1500","The main experiment item","yes","FlankerTest_Savkovic.osexp","/Users/andrea/Desktop/Adv. Quant Methods","no","mono","no","18","no","white","no","no","768","legacy","79","79","/Users/andrea/Desktop/Adv. Quant Methods/AS-subject-2.csv","legacy","Lentiform Loewenfeld","3.3.12","0","h","s","NA","h","387","9935","NA","387","2","legacy","1024","2","48000","-16","experiment","HHHHH","2","even","11415","NA","NA","140419","1476","141467","127024","1420","NA","141469","NA","141573","141961","141573","Flanker Test","79","38421","80","yes","1024"
"98.76543209876543","98.76543209876543","482.5308641975309","482.5308641975309","black","legacy","legacy","legacy","0","incongruent","uniform","1","undefined","1","h","0","0","0","80","0","80","80","0","80","80","0","80","80","80","Sat Sep 24 13:42:43 2022","600","The main experiment item","yes","FlankerTest_Savkovic.osexp","/Users/andrea/Desktop/Adv. Quant Methods","no","mono","no","18","no","white","no","no","768","legacy","0","79","/Users/andrea/Desktop/Adv. Quant Methods/AS-subject-2.csv","legacy","Lentiform Loewenfeld","3.3.12","0","h","s","h","h","664","9935","24603","664","2","legacy","1024","2","48000","-16","experiment","SSHSS","2","even","11415","167597","NA","141964","1476","167620","127024","1420","NA","167622","142993","167727","168392","167727","Flanker Test","80","39085","81","yes","1024"
"98.78048780487805","98.78048780487805","481.4146341463415","481.4146341463415","black","legacy","legacy","legacy","0","congruent","uniform","1","undefined","1","h","0","0","0","81","0","81","81","0","81","81","0","81","81","81","Sat Sep 24 13:42:43 2022","600","The main experiment item","yes","FlankerTest_Savkovic.osexp","/Users/andrea/Desktop/Adv. Quant Methods","no","mono","no","18","no","white","no","no","768","legacy","1","79","/Users/andrea/Desktop/Adv. Quant Methods/AS-subject-2.csv","legacy","Lentiform Loewenfeld","3.3.12","0","h","s","h","h","391","9935","24603","391","2","legacy","1024","2","48000","-16","experiment","HHHHH","2","even","11415","167597","NA","168899","1476","169949","127024","1420","168395","169951","142993","170055","170447","170055","Flanker Test","81","39476","82","yes","1024"
"98.79518072289157","98.79518072289157","482.4578313253012","482.4578313253012","black","legacy","legacy","legacy","0","incongruent","uniform","1","undefined","1","h","0","0","0","82","0","82","82","0","82","82","0","82","82","82","Sat Sep 24 13:42:43 2022","600","The main experiment item","yes","FlankerTest_Savkovic.osexp","/Users/andrea/Desktop/Adv. Quant Methods","no","mono","no","18","no","white","no","no","768","legacy","2","79","/Users/andrea/Desktop/Adv. Quant Methods/AS-subject-2.csv","legacy","Lentiform Loewenfeld","3.3.12","0","h","s","h","h","568","9935","24603","568","2","legacy","1024","2","48000","-16","experiment","SSHSS","2","even","11415","167597","NA","170450","1476","171498","127024","1420","168395","171500","142993","171604","172173","171604","Flanker Test","82","40044","83","yes","1024"
"98.80952380952381","98.80952380952381","481.3333333333333","481.3333333333333","black","legacy","legacy","legacy","0","congruent","uniform","1","undefined","1","s","0","0","0","83","0","83","83","0","83","83","0","83","83","83","Sat Sep 24 13:42:43 2022","600","The main experiment item","yes","FlankerTest_Savkovic.osexp","/Users/andrea/Desktop/Adv. Quant Methods","no","mono","no","18","no","white","no","no","768","legacy","3","79","/Users/andrea/Desktop/Adv. Quant Methods/AS-subject-2.csv","legacy","Lentiform Loewenfeld","3.3.12","0","s","s","h","s","388","9935","24603","388","2","legacy","1024","2","48000","-16","experiment","SSSSS","2","even","11415","167597","NA","172175","1476","173224","127024","1420","168395","173226","142993","173328","173717","173328","Flanker Test","83","40432","84","yes","1024"
"98.82352941176471","98.82352941176471","479.70588235294116","479.70588235294116","black","legacy","legacy","legacy","0","congruent","uniform","1","undefined","1","s","0","0","0","84","0","84","84","0","84","84","0","84","84","84","Sat Sep 24 13:42:43 2022","600","The main experiment item","yes","FlankerTest_Savkovic.osexp","/Users/andrea/Desktop/Adv. Quant Methods","no","mono","no","18","no","white","no","no","768","legacy","4","79","/Users/andrea/Desktop/Adv. Quant Methods/AS-subject-2.csv","legacy","Lentiform Loewenfeld","3.3.12","0","s","s","h","s","343","9935","24603","343","2","legacy","1024","2","48000","-16","experiment","SSSSS","2","even","11415","167597","NA","173720","1476","174767","127024","1420","168395","174769","142993","174873","175218","174873","Flanker Test","84","40775","85","yes","1024"
"98.83720930232558","98.83720930232558","478.90697674418607","478.90697674418607","black","legacy","legacy","legacy","0","congruent","uniform","1","undefined","1","s","0","0","0","85","0","85","85","0","85","85","0","85","85","85","Sat Sep 24 13:42:43 2022","600","The main experiment item","yes","FlankerTest_Savkovic.osexp","/Users/andrea/Desktop/Adv. Quant Methods","no","mono","no","18","no","white","no","no","768","legacy","5","79","/Users/andrea/Desktop/Adv. Quant Methods/AS-subject-2.csv","legacy","Lentiform Loewenfeld","3.3.12","0","s","s","h","s","411","9935","24603","411","2","legacy","1024","2","48000","-16","experiment","SSSSS","2","even","11415","167597","NA","175221","1476","176270","127024","1420","168395","176272","142993","176381","176793","176381","Flanker Test","85","41186","86","yes","1024"
"97.70114942528735","97.70114942528735","478.1954022988506","478.1954022988506","black","legacy","legacy","legacy","0","incongruent","uniform","0","undefined","0","s","0","0","0","86","0","86","86","0","86","86","0","86","86","86","Sat Sep 24 13:42:43 2022","600","The main experiment item","yes","FlankerTest_Savkovic.osexp","/Users/andrea/Desktop/Adv. Quant Methods","no","mono","no","18","no","white","no","no","768","legacy","6","79","/Users/andrea/Desktop/Adv. Quant Methods/AS-subject-2.csv","legacy","Lentiform Loewenfeld","3.3.12","0","h","s","h","h","417","9935","24603","417","2","legacy","1024","2","48000","-16","experiment","HHSHH","2","even","11415","167597","NA","176796","1476","177844","127024","1420","168395","177846","142993","177950","178368","177950","Flanker Test","85","41603","87","yes","1024"
"97.72727272727273","97.72727272727273","477.5681818181818","477.5681818181818","black","legacy","legacy","legacy","0","incongruent","uniform","1","undefined","1","h","0","0","0","87","0","87","87","0","87","87","0","87","87","87","Sat Sep 24 13:42:43 2022","600","The main experiment item","yes","FlankerTest_Savkovic.osexp","/Users/andrea/Desktop/Adv. Quant Methods","no","mono","no","18","no","white","no","no","768","legacy","7","79","/Users/andrea/Desktop/Adv. Quant Methods/AS-subject-2.csv","legacy","Lentiform Loewenfeld","3.3.12","0","h","s","h","h","423","9935","24603","423","2","legacy","1024","2","48000","-16","experiment","SSHSS","2","even","11415","167597","NA","178875","1476","179923","178371","1420","168395","179925","142993","180029","180453","180029","Flanker Test","86","42026","88","yes","1024"
"96.62921348314607","96.62921348314607","477.2584269662921","477.2584269662921","black","legacy","legacy","legacy","0","incongruent","uniform","0","undefined","0","s","0","0","0","88","0","88","88","0","88","88","0","88","88","88","Sat Sep 24 13:42:43 2022","600","The main experiment item","yes","FlankerTest_Savkovic.osexp","/Users/andrea/Desktop/Adv. Quant Methods","no","mono","no","18","no","white","no","no","768","legacy","8","79","/Users/andrea/Desktop/Adv. Quant Methods/AS-subject-2.csv","legacy","Lentiform Loewenfeld","3.3.12","0","h","s","h","h","450","9935","24603","450","2","legacy","1024","2","48000","-16","experiment","HHSHH","2","even","11415","167597","NA","180456","1476","181516","178371","1420","168395","181518","142993","181622","182073","181622","Flanker Test","86","42476","89","yes","1024"
"96.66666666666667","96.66666666666667","476.65555555555557","476.65555555555557","black","legacy","legacy","legacy","0","incongruent","uniform","1","undefined","1","s","0","0","0","89","0","89","89","0","89","89","0","89","89","89","Sat Sep 24 13:42:43 2022","600","The main experiment item","yes","FlankerTest_Savkovic.osexp","/Users/andrea/Desktop/Adv. Quant Methods","no","mono","no","18","no","white","no","no","768","legacy","9","79","/Users/andrea/Desktop/Adv. Quant Methods/AS-subject-2.csv","legacy","Lentiform Loewenfeld","3.3.12","0","s","s","h","s","423","9935","24603","423","2","legacy","1024","2","48000","-16","experiment","HHSHH","2","even","11415","167597","NA","182581","1476","183628","182076","1420","168395","183630","142993","183734","184158","183734","Flanker Test","87","42899","90","yes","1024"
"96.7032967032967","96.7032967032967","475.5054945054945","475.5054945054945","black","legacy","legacy","legacy","0","incongruent","uniform","1","undefined","1","s","0","0","0","90","0","90","90","0","90","90","0","90","90","90","Sat Sep 24 13:42:43 2022","600","The main experiment item","yes","FlankerTest_Savkovic.osexp","/Users/andrea/Desktop/Adv. Quant Methods","no","mono","no","18","no","white","no","no","768","legacy","10","79","/Users/andrea/Desktop/Adv. Quant Methods/AS-subject-2.csv","legacy","Lentiform Loewenfeld","3.3.12","0","s","s","h","s","372","9935","24603","372","2","legacy","1024","2","48000","-16","experiment","HHSHH","2","even","11415","167597","NA","184161","1476","185209","182076","1420","168395","185211","142993","185315","185688","185315","Flanker Test","88","43271","91","yes","1024"
"96.73913043478261","96.73913043478261","474.54347826086956","474.54347826086956","black","legacy","legacy","legacy","0","congruent","uniform","1","undefined","1","h","0","0","0","91","0","91","91","0","91","91","0","91","91","91","Sat Sep 24 13:42:43 2022","600","The main experiment item","yes","FlankerTest_Savkovic.osexp","/Users/andrea/Desktop/Adv. Quant Methods","no","mono","no","18","no","white","no","no","768","legacy","11","79","/Users/andrea/Desktop/Adv. Quant Methods/AS-subject-2.csv","legacy","Lentiform Loewenfeld","3.3.12","0","h","s","h","h","387","9935","24603","387","2","legacy","1024","2","48000","-16","experiment","HHHHH","2","even","11415","167597","NA","185691","1476","186739","182076","1420","168395","186741","142993","186845","187233","186845","Flanker Test","89","43658","92","yes","1024"
"96.7741935483871","96.7741935483871","473.2795698924731","473.2795698924731","black","legacy","legacy","legacy","0","congruent","uniform","1","undefined","1","s","0","0","0","92","0","92","92","0","92","92","0","92","92","92","Sat Sep 24 13:42:43 2022","600","The main experiment item","yes","FlankerTest_Savkovic.osexp","/Users/andrea/Desktop/Adv. Quant Methods","no","mono","no","18","no","white","no","no","768","legacy","12","79","/Users/andrea/Desktop/Adv. Quant Methods/AS-subject-2.csv","legacy","Lentiform Loewenfeld","3.3.12","0","s","s","h","s","357","9935","24603","357","2","legacy","1024","2","48000","-16","experiment","SSSSS","2","even","11415","167597","NA","187236","1476","188283","182076","1420","168395","188285","142993","188390","188748","188390","Flanker Test","90","44015","93","yes","1024"
"96.80851063829788","96.80851063829788","473.1489361702128","473.1489361702128","black","legacy","legacy","legacy","0","congruent","uniform","1","undefined","1","h","0","0","0","93","0","93","93","0","93","93","0","93","93","93","Sat Sep 24 13:42:43 2022","600","The main experiment item","yes","FlankerTest_Savkovic.osexp","/Users/andrea/Desktop/Adv. Quant Methods","no","mono","no","18","no","white","no","no","768","legacy","13","79","/Users/andrea/Desktop/Adv. Quant Methods/AS-subject-2.csv","legacy","Lentiform Loewenfeld","3.3.12","0","h","s","h","h","461","9935","24603","461","2","legacy","1024","2","48000","-16","experiment","HHHHH","2","even","11415","167597","NA","188751","1476","189799","182076","1420","168395","189801","142993","189906","190368","189905","Flanker Test","91","44476","94","yes","1024"
"96.84210526315789","96.84210526315789","473.0421052631579","473.0421052631579","black","legacy","legacy","legacy","0","congruent","uniform","1","undefined","1","s","0","0","0","94","0","94","94","0","94","94","0","94","94","94","Sat Sep 24 13:42:43 2022","600","The main experiment item","yes","FlankerTest_Savkovic.osexp","/Users/andrea/Desktop/Adv. Quant Methods","no","mono","no","18","no","white","no","no","768","legacy","14","79","/Users/andrea/Desktop/Adv. Quant Methods/AS-subject-2.csv","legacy","Lentiform Loewenfeld","3.3.12","0","s","s","h","s","463","9935","24603","463","2","legacy","1024","2","48000","-16","experiment","SSSSS","2","even","11415","167597","NA","190370","1476","191418","182076","1420","168395","191420","142993","191524","191988","191524","Flanker Test","92","44939","95","yes","1024"
"96.875","96.875","472.7604166666667","472.7604166666667","black","legacy","legacy","legacy","0","congruent","uniform","1","undefined","1","h","0","0","0","95","0","95","95","0","95","95","0","95","95","95","Sat Sep 24 13:42:43 2022","600","The main experiment item","yes","FlankerTest_Savkovic.osexp","/Users/andrea/Desktop/Adv. Quant Methods","no","mono","no","18","no","white","no","no","768","legacy","15","79","/Users/andrea/Desktop/Adv. Quant Methods/AS-subject-2.csv","legacy","Lentiform Loewenfeld","3.3.12","0","h","s","h","h","446","9935","24603","446","2","legacy","1024","2","48000","-16","experiment","HHHHH","2","even","11415","167597","NA","191991","1476","193040","182076","1420","168395","193042","142993","193146","193593","193146","Flanker Test","93","45385","96","yes","1024"
"95.87628865979381","95.87628865979381","471.4226804123711","471.4226804123711","black","legacy","legacy","legacy","0","incongruent","uniform","0","undefined","0","h","0","0","0","96","0","96","96","0","96","96","0","96","96","96","Sat Sep 24 13:42:43 2022","600","The main experiment item","yes","FlankerTest_Savkovic.osexp","/Users/andrea/Desktop/Adv. Quant Methods","no","mono","no","18","no","white","no","no","768","legacy","16","79","/Users/andrea/Desktop/Adv. Quant Methods/AS-subject-2.csv","legacy","Lentiform Loewenfeld","3.3.12","0","s","s","h","s","343","9935","24603","343","2","legacy","1024","2","48000","-16","experiment","SSHSS","2","even","11415","167597","NA","193596","1476","194644","182076","1420","168395","194646","142993","194750","195094","194750","Flanker Test","93","45728","97","yes","1024"
"95.91836734693878","95.91836734693878","471.0816326530612","471.0816326530612","black","legacy","legacy","legacy","0","congruent","uniform","1","undefined","1","h","0","0","0","97","0","97","97","0","97","97","0","97","97","97","Sat Sep 24 13:42:43 2022","600","The main experiment item","yes","FlankerTest_Savkovic.osexp","/Users/andrea/Desktop/Adv. Quant Methods","no","mono","no","18","no","white","no","no","768","legacy","17","79","/Users/andrea/Desktop/Adv. Quant Methods/AS-subject-2.csv","legacy","Lentiform Loewenfeld","3.3.12","0","h","s","h","h","438","9935","24603","438","2","legacy","1024","2","48000","-16","experiment","HHHHH","2","even","11415","167597","NA","195601","1476","196649","195097","1420","168395","196651","142993","196755","197194","196755","Flanker Test","94","46166","98","yes","1024"
"95.95959595959596","95.95959595959596","470.22222222222223","470.22222222222223","black","legacy","legacy","legacy","0","incongruent","uniform","1","undefined","1","s","0","0","0","98","0","98","98","0","98","98","0","98","98","98","Sat Sep 24 13:42:43 2022","600","The main experiment item","yes","FlankerTest_Savkovic.osexp","/Users/andrea/Desktop/Adv. Quant Methods","no","mono","no","18","no","white","no","no","768","legacy","18","79","/Users/andrea/Desktop/Adv. Quant Methods/AS-subject-2.csv","legacy","Lentiform Loewenfeld","3.3.12","0","s","s","h","s","386","9935","24603","386","2","legacy","1024","2","48000","-16","experiment","HHSHH","2","even","11415","167597","NA","197197","1476","198245","195097","1420","168395","198247","142993","198352","198739","198351","Flanker Test","95","46552","99","yes","1024"
"96","96","469.5","469.5","black","legacy","legacy","legacy","0","congruent","uniform","1","undefined","1","s","0","0","0","99","0","99","99","0","99","99","0","99","99","99","Sat Sep 24 13:42:43 2022","600","The main experiment item","yes","FlankerTest_Savkovic.osexp","/Users/andrea/Desktop/Adv. Quant Methods","no","mono","no","18","no","white","no","no","768","legacy","19","79","/Users/andrea/Desktop/Adv. Quant Methods/AS-subject-2.csv","legacy","Lentiform Loewenfeld","3.3.12","0","s","s","h","s","398","9935","24603","398","2","legacy","1024","2","48000","-16","experiment","SSSSS","2","even","11415","167597","NA","198742","1476","199788","195097","1420","168395","199790","142993","199900","200299","199900","Flanker Test","96","46950","100","yes","1024"
"96.03960396039604","96.03960396039604","469.1287128712871","469.1287128712871","black","legacy","legacy","legacy","0","incongruent","uniform","1","undefined","1","s","0","0","0","100","0","100","100","0","100","100","0","100","100","100","Sat Sep 24 13:42:43 2022","600","The main experiment item","yes","FlankerTest_Savkovic.osexp","/Users/andrea/Desktop/Adv. Quant Methods","no","mono","no","18","no","white","no","no","768","legacy","20","79","/Users/andrea/Desktop/Adv. Quant Methods/AS-subject-2.csv","legacy","Lentiform Loewenfeld","3.3.12","0","s","s","h","s","432","9935","24603","432","2","legacy","1024","2","48000","-16","experiment","HHSHH","2","even","11415","167597","NA","200302","1476","201350","195097","1420","168395","201352","142993","201456","201888","201456","Flanker Test","97","47382","101","yes","1024"
"96.07843137254902","96.07843137254902","467.7450980392157","467.7450980392157","black","legacy","legacy","legacy","0","congruent","uniform","1","undefined","1","s","0","0","0","101","0","101","101","0","101","101","0","101","101","101","Sat Sep 24 13:42:43 2022","600","The main experiment item","yes","FlankerTest_Savkovic.osexp","/Users/andrea/Desktop/Adv. Quant Methods","no","mono","no","18","no","white","no","no","768","legacy","21","79","/Users/andrea/Desktop/Adv. Quant Methods/AS-subject-2.csv","legacy","Lentiform Loewenfeld","3.3.12","0","s","s","h","s","328","9935","24603","328","2","legacy","1024","2","48000","-16","experiment","SSSSS","2","even","11415","167597","NA","201891","1476","202939","195097","1420","168395","202941","142993","203045","203374","203045","Flanker Test","98","47710","102","yes","1024"
"96.11650485436893","96.11650485436893","466.5145631067961","466.5145631067961","black","legacy","legacy","legacy","0","congruent","uniform","1","undefined","1","s","0","0","0","102","0","102","102","0","102","102","0","102","102","102","Sat Sep 24 13:42:43 2022","600","The main experiment item","yes","FlankerTest_Savkovic.osexp","/Users/andrea/Desktop/Adv. Quant Methods","no","mono","no","18","no","white","no","no","768","legacy","22","79","/Users/andrea/Desktop/Adv. Quant Methods/AS-subject-2.csv","legacy","Lentiform Loewenfeld","3.3.12","0","s","s","h","s","341","9935","24603","341","2","legacy","1024","2","48000","-16","experiment","SSSSS","2","even","11415","167597","NA","203377","1476","204425","195097","1420","168395","204427","142993","204532","204874","204531","Flanker Test","99","48051","103","yes","1024"
"96.15384615384616","96.15384615384616","464.83653846153845","464.83653846153845","black","legacy","legacy","legacy","0","congruent","uniform","1","undefined","1","s","0","0","0","103","0","103","103","0","103","103","0","103","103","103","Sat Sep 24 13:42:43 2022","600","The main experiment item","yes","FlankerTest_Savkovic.osexp","/Users/andrea/Desktop/Adv. Quant Methods","no","mono","no","18","no","white","no","no","768","legacy","23","79","/Users/andrea/Desktop/Adv. Quant Methods/AS-subject-2.csv","legacy","Lentiform Loewenfeld","3.3.12","0","s","s","h","s","292","9935","24603","292","2","legacy","1024","2","48000","-16","experiment","SSSSS","2","even","11415","167597","NA","204877","1476","205925","195097","1420","168395","205927","142993","206036","206329","206036","Flanker Test","100","48343","104","yes","1024"
"96.19047619047619","96.19047619047619","463.65714285714284","463.65714285714284","black","legacy","legacy","legacy","0","congruent","uniform","1","undefined","1","s","0","0","0","104","0","104","104","0","104","104","0","104","104","104","Sat Sep 24 13:42:43 2022","600","The main experiment item","yes","FlankerTest_Savkovic.osexp","/Users/andrea/Desktop/Adv. Quant Methods","no","mono","no","18","no","white","no","no","768","legacy","24","79","/Users/andrea/Desktop/Adv. Quant Methods/AS-subject-2.csv","legacy","Lentiform Loewenfeld","3.3.12","0","s","s","h","s","341","9935","24603","341","2","legacy","1024","2","48000","-16","experiment","SSSSS","2","even","11415","167597","NA","206332","1476","207381","195097","1420","168395","207383","142993","207487","207829","207487","Flanker Test","101","48684","105","yes","1024"
"95.28301886792453","95.28301886792453","462.50943396226415","462.50943396226415","black","legacy","legacy","legacy","0","incongruent","uniform","0","undefined","0","h","0","0","0","105","0","105","105","0","105","105","0","105","105","105","Sat Sep 24 13:42:43 2022","600","The main experiment item","yes","FlankerTest_Savkovic.osexp","/Users/andrea/Desktop/Adv. Quant Methods","no","mono","no","18","no","white","no","no","768","legacy","25","79","/Users/andrea/Desktop/Adv. Quant Methods/AS-subject-2.csv","legacy","Lentiform Loewenfeld","3.3.12","0","s","s","h","s","342","9935","24603","342","2","legacy","1024","2","48000","-16","experiment","SSHSS","2","even","11415","167597","NA","207832","1476","208880","195097","1420","168395","208882","142993","208986","209329","208986","Flanker Test","101","49026","106","yes","1024"
"95.32710280373831","95.32710280373831","461.57943925233644","461.57943925233644","black","legacy","legacy","legacy","0","congruent","uniform","1","undefined","1","s","0","0","0","106","0","106","106","0","106","106","0","106","106","106","Sat Sep 24 13:42:43 2022","600","The main experiment item","yes","FlankerTest_Savkovic.osexp","/Users/andrea/Desktop/Adv. Quant Methods","no","mono","no","18","no","white","no","no","768","legacy","26","79","/Users/andrea/Desktop/Adv. Quant Methods/AS-subject-2.csv","legacy","Lentiform Loewenfeld","3.3.12","0","s","s","h","s","363","9935","24603","363","2","legacy","1024","2","48000","-16","experiment","SSSSS","2","even","11415","167597","NA","209836","1476","210884","209332","1420","168395","210886","142993","210990","211354","210990","Flanker Test","102","49389","107","yes","1024"
"95.37037037037037","95.37037037037037","461.30555555555554","461.30555555555554","black","legacy","legacy","legacy","0","congruent","uniform","1","undefined","1","h","0","0","0","107","0","107","107","0","107","107","0","107","107","107","Sat Sep 24 13:42:43 2022","600","The main experiment item","yes","FlankerTest_Savkovic.osexp","/Users/andrea/Desktop/Adv. Quant Methods","no","mono","no","18","no","white","no","no","768","legacy","27","79","/Users/andrea/Desktop/Adv. Quant Methods/AS-subject-2.csv","legacy","Lentiform Loewenfeld","3.3.12","0","h","s","h","h","432","9935","24603","432","2","legacy","1024","2","48000","-16","experiment","HHHHH","2","even","11415","167597","NA","211357","1476","212405","209332","1420","168395","212407","142993","212511","212944","212511","Flanker Test","103","49821","108","yes","1024"
"95.41284403669725","95.41284403669725","461.27522935779814","461.27522935779814","black","legacy","legacy","legacy","0","congruent","uniform","1","undefined","1","h","0","0","0","108","0","108","108","0","108","108","0","108","108","108","Sat Sep 24 13:42:43 2022","600","The main experiment item","yes","FlankerTest_Savkovic.osexp","/Users/andrea/Desktop/Adv. Quant Methods","no","mono","no","18","no","white","no","no","768","legacy","28","79","/Users/andrea/Desktop/Adv. Quant Methods/AS-subject-2.csv","legacy","Lentiform Loewenfeld","3.3.12","0","h","s","h","h","458","9935","24603","458","2","legacy","1024","2","48000","-16","experiment","HHHHH","2","even","11415","167597","NA","212947","1476","213998","209332","1420","168395","214001","142993","214105","214564","214105","Flanker Test","104","50279","109","yes","1024"
"95.45454545454545","95.45454545454545","461.8454545454546","461.8454545454546","black","legacy","legacy","legacy","0","incongruent","uniform","1","undefined","1","h","0","0","0","109","0","109","109","0","109","109","0","109","109","109","Sat Sep 24 13:42:43 2022","600","The main experiment item","yes","FlankerTest_Savkovic.osexp","/Users/andrea/Desktop/Adv. Quant Methods","no","mono","no","18","no","white","no","no","768","legacy","29","79","/Users/andrea/Desktop/Adv. Quant Methods/AS-subject-2.csv","legacy","Lentiform Loewenfeld","3.3.12","0","h","s","h","h","524","9935","24603","524","2","legacy","1024","2","48000","-16","experiment","SSHSS","2","even","11415","167597","NA","214567","1476","215615","209332","1420","168395","215617","142993","215721","216246","215721","Flanker Test","105","50803","110","yes","1024"
"95.49549549549549","95.49549549549549","461.44144144144144","461.44144144144144","black","legacy","legacy","legacy","0","congruent","uniform","1","undefined","1","h","0","0","0","110","0","110","110","0","110","110","0","110","110","110","Sat Sep 24 13:42:43 2022","600","The main experiment item","yes","FlankerTest_Savkovic.osexp","/Users/andrea/Desktop/Adv. Quant Methods","no","mono","no","18","no","white","no","no","768","legacy","30","79","/Users/andrea/Desktop/Adv. Quant Methods/AS-subject-2.csv","legacy","Lentiform Loewenfeld","3.3.12","0","h","s","h","h","417","9935","24603","417","2","legacy","1024","2","48000","-16","experiment","HHHHH","2","even","11415","167597","NA","216253","1476","217310","209332","1420","168395","217312","142993","217416","217834","217416","Flanker Test","106","51220","111","yes","1024"
"95.53571428571429","95.53571428571429","460.64285714285717","460.64285714285717","black","legacy","legacy","legacy","0","incongruent","uniform","1","undefined","1","s","0","0","0","111","0","111","111","0","111","111","0","111","111","111","Sat Sep 24 13:42:43 2022","600","The main experiment item","yes","FlankerTest_Savkovic.osexp","/Users/andrea/Desktop/Adv. Quant Methods","no","mono","no","18","no","white","no","no","768","legacy","31","79","/Users/andrea/Desktop/Adv. Quant Methods/AS-subject-2.csv","legacy","Lentiform Loewenfeld","3.3.12","0","s","s","h","s","372","9935","24603","372","2","legacy","1024","2","48000","-16","experiment","HHSHH","2","even","11415","167597","NA","217837","1476","218885","209332","1420","168395","218887","142993","218991","219364","218991","Flanker Test","107","51592","112","yes","1024"
"95.57522123893806","95.57522123893806","460.6106194690266","460.6106194690266","black","legacy","legacy","legacy","0","incongruent","uniform","1","undefined","1","h","0","0","0","112","0","112","112","0","112","112","0","112","112","112","Sat Sep 24 13:42:43 2022","600","The main experiment item","yes","FlankerTest_Savkovic.osexp","/Users/andrea/Desktop/Adv. Quant Methods","no","mono","no","18","no","white","no","no","768","legacy","32","79","/Users/andrea/Desktop/Adv. Quant Methods/AS-subject-2.csv","legacy","Lentiform Loewenfeld","3.3.12","0","h","s","h","h","457","9935","24603","457","2","legacy","1024","2","48000","-16","experiment","SSHSS","2","even","11415","167597","NA","219367","1476","220406","209332","1420","168395","220408","142993","220512","220970","220512","Flanker Test","108","52049","113","yes","1024"
"95.6140350877193","95.6140350877193","460.87719298245617","460.87719298245617","black","legacy","legacy","legacy","0","congruent","uniform","1","undefined","1","h","0","0","0","113","0","113","113","0","113","113","0","113","113","113","Sat Sep 24 13:42:43 2022","600","The main experiment item","yes","FlankerTest_Savkovic.osexp","/Users/andrea/Desktop/Adv. Quant Methods","no","mono","no","18","no","white","no","no","768","legacy","33","79","/Users/andrea/Desktop/Adv. Quant Methods/AS-subject-2.csv","legacy","Lentiform Loewenfeld","3.3.12","0","h","s","h","h","491","9935","24603","491","2","legacy","1024","2","48000","-16","experiment","HHHHH","2","even","11415","167597","NA","220973","1476","222021","209332","1420","168395","222023","142993","222127","222619","222127","Flanker Test","109","52540","114","yes","1024"
"95.65217391304348","95.65217391304348","460.37391304347824","460.37391304347824","black","legacy","legacy","legacy","0","incongruent","uniform","1","undefined","1","s","0","0","0","114","0","114","114","0","114","114","0","114","114","114","Sat Sep 24 13:42:43 2022","600","The main experiment item","yes","FlankerTest_Savkovic.osexp","/Users/andrea/Desktop/Adv. Quant Methods","no","mono","no","18","no","white","no","no","768","legacy","34","79","/Users/andrea/Desktop/Adv. Quant Methods/AS-subject-2.csv","legacy","Lentiform Loewenfeld","3.3.12","0","s","s","h","s","403","9935","24603","403","2","legacy","1024","2","48000","-16","experiment","HHSHH","2","even","11415","167597","NA","222622","1476","223670","209332","1420","168395","223672","142993","223776","224180","223776","Flanker Test","110","52943","115","yes","1024"
"95.6896551724138","95.6896551724138","459.87931034482756","459.87931034482756","black","legacy","legacy","legacy","0","incongruent","uniform","1","undefined","1","h","0","0","0","115","0","115","115","0","115","115","0","115","115","115","Sat Sep 24 13:42:43 2022","600","The main experiment item","yes","FlankerTest_Savkovic.osexp","/Users/andrea/Desktop/Adv. Quant Methods","no","mono","no","18","no","white","no","no","768","legacy","35","79","/Users/andrea/Desktop/Adv. Quant Methods/AS-subject-2.csv","legacy","Lentiform Loewenfeld","3.3.12","0","h","s","h","h","403","9935","24603","403","2","legacy","1024","2","48000","-16","experiment","SSHSS","2","even","11415","167597","NA","224183","1476","225230","209332","1420","168395","225232","142993","225336","225740","225336","Flanker Test","111","53346","116","yes","1024"
"95.72649572649573","95.72649572649573","460.15384615384613","460.15384615384613","black","legacy","legacy","legacy","0","incongruent","uniform","1","undefined","1","s","0","0","0","116","0","116","116","0","116","116","0","116","116","116","Sat Sep 24 13:42:43 2022","600","The main experiment item","yes","FlankerTest_Savkovic.osexp","/Users/andrea/Desktop/Adv. Quant Methods","no","mono","no","18","no","white","no","no","768","legacy","36","79","/Users/andrea/Desktop/Adv. Quant Methods/AS-subject-2.csv","legacy","Lentiform Loewenfeld","3.3.12","0","s","s","h","s","492","9935","24603","492","2","legacy","1024","2","48000","-16","experiment","HHSHH","2","even","11415","167597","NA","225743","1476","226791","209332","1420","168395","226793","142993","226897","227390","226897","Flanker Test","112","53838","117","yes","1024"
"95.76271186440678","95.76271186440678","460.04237288135596","460.04237288135596","black","legacy","legacy","legacy","0","congruent","uniform","1","undefined","1","s","0","0","0","117","0","117","117","0","117","117","0","117","117","117","Sat Sep 24 13:42:43 2022","600","The main experiment item","yes","FlankerTest_Savkovic.osexp","/Users/andrea/Desktop/Adv. Quant Methods","no","mono","no","18","no","white","no","no","768","legacy","37","79","/Users/andrea/Desktop/Adv. Quant Methods/AS-subject-2.csv","legacy","Lentiform Loewenfeld","3.3.12","0","s","s","h","s","447","9935","24603","447","2","legacy","1024","2","48000","-16","experiment","SSSSS","2","even","11415","167597","NA","227393","1476","228442","209332","1420","168395","228444","142993","228547","228995","228546","Flanker Test","113","54285","118","yes","1024"
"95.7983193277311","95.7983193277311","459.6890756302521","459.6890756302521","black","legacy","legacy","legacy","0","incongruent","uniform","1","undefined","1","s","0","0","0","118","0","118","118","0","118","118","0","118","118","118","Sat Sep 24 13:42:43 2022","600","The main experiment item","yes","FlankerTest_Savkovic.osexp","/Users/andrea/Desktop/Adv. Quant Methods","no","mono","no","18","no","white","no","no","768","legacy","38","79","/Users/andrea/Desktop/Adv. Quant Methods/AS-subject-2.csv","legacy","Lentiform Loewenfeld","3.3.12","0","s","s","h","s","418","9935","24603","418","2","legacy","1024","2","48000","-16","experiment","HHSHH","2","even","11415","167597","NA","228998","1476","230045","209332","1420","168395","230047","142993","230151","230570","230151","Flanker Test","114","54703","119","yes","1024"
"95.83333333333333","95.83333333333333","458.71666666666664","458.71666666666664","black","legacy","legacy","legacy","0","incongruent","uniform","1","undefined","1","s","0","0","0","119","0","119","119","0","119","119","0","119","119","119","Sat Sep 24 13:42:43 2022","600","The main experiment item","yes","FlankerTest_Savkovic.osexp","/Users/andrea/Desktop/Adv. Quant Methods","no","mono","no","18","no","white","no","no","768","legacy","39","79","/Users/andrea/Desktop/Adv. Quant Methods/AS-subject-2.csv","legacy","Lentiform Loewenfeld","3.3.12","0","s","s","h","s","343","9935","24603","343","2","legacy","1024","2","48000","-16","experiment","HHSHH","2","even","11415","167597","NA","230574","1476","231632","209332","1420","168395","231634","142993","231741","232085","231740","Flanker Test","115","55046","120","yes","1024"
"95.86776859504133","95.86776859504133","458.0082644628099","458.0082644628099","black","legacy","legacy","legacy","0","incongruent","uniform","1","undefined","1","s","0","0","0","120","0","120","120","0","120","120","0","120","120","120","Sat Sep 24 13:42:43 2022","600","The main experiment item","yes","FlankerTest_Savkovic.osexp","/Users/andrea/Desktop/Adv. Quant Methods","no","mono","no","18","no","white","no","no","768","legacy","40","79","/Users/andrea/Desktop/Adv. Quant Methods/AS-subject-2.csv","legacy","Lentiform Loewenfeld","3.3.12","0","s","s","h","s","373","9935","24603","373","2","legacy","1024","2","48000","-16","experiment","HHSHH","2","even","11415","167597","NA","232087","1476","233134","209332","1420","168395","233136","142993","233241","233615","233240","Flanker Test","116","55419","121","yes","1024"
"95.90163934426229","95.90163934426229","458.22131147540983","458.22131147540983","black","legacy","legacy","legacy","0","congruent","uniform","1","undefined","1","h","0","0","0","121","0","121","121","0","121","121","0","121","121","121","Sat Sep 24 13:42:43 2022","600","The main experiment item","yes","FlankerTest_Savkovic.osexp","/Users/andrea/Desktop/Adv. Quant Methods","no","mono","no","18","no","white","no","no","768","legacy","41","79","/Users/andrea/Desktop/Adv. Quant Methods/AS-subject-2.csv","legacy","Lentiform Loewenfeld","3.3.12","0","h","s","h","h","484","9935","24603","484","2","legacy","1024","2","48000","-16","experiment","HHHHH","2","even","11415","167597","NA","233618","1476","234675","209332","1420","168395","234677","142993","234781","235266","234781","Flanker Test","117","55903","122","yes","1024"
"95.9349593495935","95.9349593495935","458.609756097561","458.609756097561","black","legacy","legacy","legacy","0","incongruent","uniform","1","undefined","1","h","0","0","0","122","0","122","122","0","122","122","0","122","122","122","Sat Sep 24 13:42:43 2022","600","The main experiment item","yes","FlankerTest_Savkovic.osexp","/Users/andrea/Desktop/Adv. Quant Methods","no","mono","no","18","no","white","no","no","768","legacy","42","79","/Users/andrea/Desktop/Adv. Quant Methods/AS-subject-2.csv","legacy","Lentiform Loewenfeld","3.3.12","0","h","s","h","h","506","9935","24603","506","2","legacy","1024","2","48000","-16","experiment","SSHSS","2","even","11415","167597","NA","235268","1476","236317","209332","1420","168395","236319","142993","236423","236930","236423","Flanker Test","118","56409","123","yes","1024"
"95.96774193548387","95.96774193548387","458.28225806451616","458.28225806451616","black","legacy","legacy","legacy","0","incongruent","uniform","1","undefined","1","h","0","0","0","123","0","123","123","0","123","123","0","123","123","123","Sat Sep 24 13:42:43 2022","600","The main experiment item","yes","FlankerTest_Savkovic.osexp","/Users/andrea/Desktop/Adv. Quant Methods","no","mono","no","18","no","white","no","no","768","legacy","43","79","/Users/andrea/Desktop/Adv. Quant Methods/AS-subject-2.csv","legacy","Lentiform Loewenfeld","3.3.12","0","h","s","h","h","418","9935","24603","418","2","legacy","1024","2","48000","-16","experiment","SSHSS","2","even","11415","167597","NA","236933","1476","237979","209332","1420","168395","237982","142993","238086","238505","238086","Flanker Test","119","56827","124","yes","1024"
"96","96","458.688","458.688","black","legacy","legacy","legacy","0","incongruent","uniform","1","undefined","1","h","0","0","0","124","0","124","124","0","124","124","0","124","124","124","Sat Sep 24 13:42:43 2022","600","The main experiment item","yes","FlankerTest_Savkovic.osexp","/Users/andrea/Desktop/Adv. Quant Methods","no","mono","no","18","no","white","no","no","768","legacy","44","79","/Users/andrea/Desktop/Adv. Quant Methods/AS-subject-2.csv","legacy","Lentiform Loewenfeld","3.3.12","0","h","s","h","h","509","9935","24603","509","2","legacy","1024","2","48000","-16","experiment","SSHSS","2","even","11415","167597","NA","238508","1476","239553","209332","1420","168395","239555","142993","239660","240170","239659","Flanker Test","120","57336","125","yes","1024"
