condition,Stimulus,acc,accuracy,average_response_time,avg_rt,background,canvas_backend,clock_backend,color_backend,compensation,coordinates,correct,correct_Instruction1,correct_keyboard_response,correct_response,count_Block1,count_Block2,count_Block3,count_ErrorFeedback,count_Faster,count_Finish,count_Fixation,count_ISI,count_Instruction1,count_Instructions2,count_Instructions3,count_Sequence,count_Stimulus,count_experiment,count_keyboard_response,count_logger,datetime,deadline,description,disable_garbage_collection,experiment_file,experiment_path,font_bold,font_family,font_italic,font_size,font_underline,foreground,form_clicks,fullscreen,height,keyboard_backend,live_row,live_row_Block1,logfile,mouse_backend,opensesame_codename,opensesame_version,repeat_cycle,response,response_Finish,response_Instruction1,response_Instructions2,response_Instructions3,response_keyboard_response,response_time,response_time_Finish,response_time_Instruction1,response_time_Instructions2,response_time_Instructions3,response_time_keyboard_response,round_decimals,sampler_backend,sound_buf_size,sound_channels,sound_freq,sound_sample_size,start,subject_nr,subject_parity,time_Block1,time_Block2,time_Block3,time_ErrorFeedback,time_Faster,time_Finish,time_Fixation,time_ISI,time_Instruction1,time_Instructions2,time_Instructions3,time_Sequence,time_Stimulus,time_experiment,time_keyboard_response,time_logger,title,total_correct,total_response_time,total_responses,uniform_coordinates,width
Incongruent,SSHSS,100,100,1010,1010,black,legacy,legacy,legacy,0,uniform,1,undefined,1,h,0,0,0,0,0,0,0,0,0,0,0,0,0,0,0,0,Sat Sep 25 19:46:10 2021,1500,The main experiment item,yes,KS - Flanker Task.osexp,/Users/kaylinsilva/Desktop/Life/Tarleton/Adv Stats,no,mono,no,18,no,white,no,yes,768,legacy,0,0,/Users/kaylinsilva/Desktop/Life/Tarleton/Adv Stats/KS-subject-4.csv,legacy,Lentiform Loewenfeld,3.3.9,0,h,NA,h,NA,NA,h,1010,NA,17727,NA,NA,1010,2,legacy,1024,2,48000,-16,experiment,4,even,21721,NA,NA,NA,NA,NA,21763,NA,3988,NA,NA,21759,21870,3980,21871,22884,KS - Flanker Task,1,1010,1,yes,1024
Incongruent,SSHSS,100,100,1017,1017,black,legacy,legacy,legacy,0,uniform,1,undefined,1,h,0,0,0,1,1,0,1,1,0,0,0,1,1,0,1,1,Sat Sep 25 19:46:10 2021,1500,The main experiment item,yes,KS - Flanker Task.osexp,/Users/kaylinsilva/Desktop/Life/Tarleton/Adv Stats,no,mono,no,18,no,white,no,yes,768,legacy,1,1,/Users/kaylinsilva/Desktop/Life/Tarleton/Adv Stats/KS-subject-4.csv,legacy,Lentiform Loewenfeld,3.3.9,0,h,NA,h,NA,NA,h,1024,NA,17727,NA,NA,1024,2,legacy,1024,2,48000,-16,experiment,4,even,21721,NA,NA,NA,NA,NA,23967,22890,3988,NA,NA,23965,24074,3980,24074,25099,KS - Flanker Task,2,2034,2,yes,1024
Congruent,SSSSS,100,100,909.6666667,909.6666667,black,legacy,legacy,legacy,0,uniform,1,undefined,1,s,0,0,0,2,2,0,2,2,0,0,0,2,2,0,2,2,Sat Sep 25 19:46:10 2021,1500,The main experiment item,yes,KS - Flanker Task.osexp,/Users/kaylinsilva/Desktop/Life/Tarleton/Adv Stats,no,mono,no,18,no,white,no,yes,768,legacy,2,2,/Users/kaylinsilva/Desktop/Life/Tarleton/Adv Stats/KS-subject-4.csv,legacy,Lentiform Loewenfeld,3.3.9,0,s,NA,h,NA,NA,s,695,NA,17727,NA,NA,695,2,legacy,1024,2,48000,-16,experiment,4,even,21721,NA,NA,NA,NA,NA,26170,25103,3988,NA,NA,26167,26274,3980,26274,26970,KS - Flanker Task,3,2729,3,yes,1024
Congruent,HHHHH,100,100,810.75,810.75,black,legacy,legacy,legacy,0,uniform,1,undefined,1,h,0,0,0,3,3,0,3,3,0,0,0,3,3,0,3,3,Sat Sep 25 19:46:10 2021,1500,The main experiment item,yes,KS - Flanker Task.osexp,/Users/kaylinsilva/Desktop/Life/Tarleton/Adv Stats,no,mono,no,18,no,white,no,yes,768,legacy,3,3,/Users/kaylinsilva/Desktop/Life/Tarleton/Adv Stats/KS-subject-4.csv,legacy,Lentiform Loewenfeld,3.3.9,0,h,NA,h,NA,NA,h,514,NA,17727,NA,NA,514,2,legacy,1024,2,48000,-16,experiment,4,even,21721,NA,NA,NA,NA,NA,28041,26973,3988,NA,NA,28038,28145,3980,28145,28660,KS - Flanker Task,4,3243,4,yes,1024
Incongruent,HHSHH,100,100,767.6,767.6,black,legacy,legacy,legacy,0,uniform,1,undefined,1,s,0,0,0,4,4,0,4,4,0,0,0,4,4,0,4,4,Sat Sep 25 19:46:10 2021,1500,The main experiment item,yes,KS - Flanker Task.osexp,/Users/kaylinsilva/Desktop/Life/Tarleton/Adv Stats,no,mono,no,18,no,white,no,yes,768,legacy,4,4,/Users/kaylinsilva/Desktop/Life/Tarleton/Adv Stats/KS-subject-4.csv,legacy,Lentiform Loewenfeld,3.3.9,0,s,NA,h,NA,NA,s,595,NA,17727,NA,NA,595,2,legacy,1024,2,48000,-16,experiment,4,even,21721,NA,NA,NA,NA,NA,29731,28663,3988,NA,NA,29728,29835,3980,29835,30431,KS - Flanker Task,5,3838,5,yes,1024
Congruent,HHHHH,100,100,727.5,727.5,black,legacy,legacy,legacy,0,uniform,1,undefined,1,h,0,0,0,5,5,0,5,5,0,0,0,5,5,0,5,5,Sat Sep 25 19:46:10 2021,1500,The main experiment item,yes,KS - Flanker Task.osexp,/Users/kaylinsilva/Desktop/Life/Tarleton/Adv Stats,no,mono,no,18,no,white,no,yes,768,legacy,5,5,/Users/kaylinsilva/Desktop/Life/Tarleton/Adv Stats/KS-subject-4.csv,legacy,Lentiform Loewenfeld,3.3.9,0,h,NA,h,NA,NA,h,527,NA,17727,NA,NA,527,2,legacy,1024,2,48000,-16,experiment,4,even,21721,NA,NA,NA,NA,NA,31501,30434,3988,NA,NA,31498,31605,3980,31605,32132,KS - Flanker Task,6,4365,6,yes,1024
Incongruent,SSHSS,100,100,711.4285714,711.4285714,black,legacy,legacy,legacy,0,uniform,1,undefined,1,h,0,0,0,6,6,0,6,6,0,0,0,6,6,0,6,6,Sat Sep 25 19:46:10 2021,1500,The main experiment item,yes,KS - Flanker Task.osexp,/Users/kaylinsilva/Desktop/Life/Tarleton/Adv Stats,no,mono,no,18,no,white,no,yes,768,legacy,6,6,/Users/kaylinsilva/Desktop/Life/Tarleton/Adv Stats/KS-subject-4.csv,legacy,Lentiform Loewenfeld,3.3.9,0,h,NA,h,NA,NA,h,615,NA,17727,NA,NA,615,2,legacy,1024,2,48000,-16,experiment,4,even,21721,NA,NA,NA,NA,NA,33218,32135,3988,NA,NA,33214,33322,3980,33322,33938,KS - Flanker Task,7,4980,7,yes,1024
Incongruent,SSHSS,100,100,696.125,696.125,black,legacy,legacy,legacy,0,uniform,1,undefined,1,h,0,0,0,7,7,0,7,7,0,0,0,7,7,0,7,7,Sat Sep 25 19:46:10 2021,1500,The main experiment item,yes,KS - Flanker Task.osexp,/Users/kaylinsilva/Desktop/Life/Tarleton/Adv Stats,no,mono,no,18,no,white,no,yes,768,legacy,7,7,/Users/kaylinsilva/Desktop/Life/Tarleton/Adv Stats/KS-subject-4.csv,legacy,Lentiform Loewenfeld,3.3.9,0,h,NA,h,NA,NA,h,589,NA,17727,NA,NA,589,2,legacy,1024,2,48000,-16,experiment,4,even,21721,NA,NA,NA,NA,NA,35007,33940,3988,NA,NA,35004,35111,3980,35111,35701,KS - Flanker Task,8,5569,8,yes,1024
Incongruent,HHSHH,100,100,689.3333333,689.3333333,black,legacy,legacy,legacy,0,uniform,1,undefined,1,s,0,0,0,8,8,0,8,8,0,0,0,8,8,0,8,8,Sat Sep 25 19:46:10 2021,1500,The main experiment item,yes,KS - Flanker Task.osexp,/Users/kaylinsilva/Desktop/Life/Tarleton/Adv Stats,no,mono,no,18,no,white,no,yes,768,legacy,8,8,/Users/kaylinsilva/Desktop/Life/Tarleton/Adv Stats/KS-subject-4.csv,legacy,Lentiform Loewenfeld,3.3.9,0,s,NA,h,NA,NA,s,635,NA,17727,NA,NA,635,2,legacy,1024,2,48000,-16,experiment,4,even,21721,NA,NA,NA,NA,NA,36772,35704,3988,NA,NA,36769,36876,3980,36876,37511,KS - Flanker Task,9,6204,9,yes,1024
Congruent,HHHHH,100,100,666.3,666.3,black,legacy,legacy,legacy,0,uniform,1,undefined,1,h,0,0,0,9,9,0,9,9,0,0,0,9,9,0,9,9,Sat Sep 25 19:46:10 2021,1500,The main experiment item,yes,KS - Flanker Task.osexp,/Users/kaylinsilva/Desktop/Life/Tarleton/Adv Stats,no,mono,no,18,no,white,no,yes,768,legacy,9,9,/Users/kaylinsilva/Desktop/Life/Tarleton/Adv Stats/KS-subject-4.csv,legacy,Lentiform Loewenfeld,3.3.9,0,h,NA,h,NA,NA,h,459,NA,17727,NA,NA,459,2,legacy,1024,2,48000,-16,experiment,4,even,21721,NA,NA,NA,NA,NA,38582,37515,3988,NA,NA,38579,38686,3980,38686,39145,KS - Flanker Task,10,6663,10,yes,1024
Incongruent,SSHSS,100,100,661.9090909,661.9090909,black,legacy,legacy,legacy,0,uniform,1,undefined,1,h,0,0,0,10,10,0,10,10,0,0,0,10,10,0,10,10,Sat Sep 25 19:46:10 2021,1500,The main experiment item,yes,KS - Flanker Task.osexp,/Users/kaylinsilva/Desktop/Life/Tarleton/Adv Stats,no,mono,no,18,no,white,no,yes,768,legacy,10,10,/Users/kaylinsilva/Desktop/Life/Tarleton/Adv Stats/KS-subject-4.csv,legacy,Lentiform Loewenfeld,3.3.9,0,h,NA,h,NA,NA,h,618,NA,17727,NA,NA,618,2,legacy,1024,2,48000,-16,experiment,4,even,21721,NA,NA,NA,NA,NA,40216,39148,3988,NA,NA,40213,40320,3980,40320,40938,KS - Flanker Task,11,7281,11,yes,1024
Congruent,SSSSS,100,100,643.4166667,643.4166667,black,legacy,legacy,legacy,0,uniform,1,undefined,1,s,0,0,0,11,11,0,11,11,0,0,0,11,11,0,11,11,Sat Sep 25 19:46:10 2021,1500,The main experiment item,yes,KS - Flanker Task.osexp,/Users/kaylinsilva/Desktop/Life/Tarleton/Adv Stats,no,mono,no,18,no,white,no,yes,768,legacy,11,11,/Users/kaylinsilva/Desktop/Life/Tarleton/Adv Stats/KS-subject-4.csv,legacy,Lentiform Loewenfeld,3.3.9,0,s,NA,h,NA,NA,s,440,NA,17727,NA,NA,440,2,legacy,1024,2,48000,-16,experiment,4,even,21721,NA,NA,NA,NA,NA,42008,40941,3988,NA,NA,42005,42112,3980,42112,42552,KS - Flanker Task,12,7721,12,yes,1024
Incongruent,HHSHH,100,100,635.2307692,635.2307692,black,legacy,legacy,legacy,0,uniform,1,undefined,1,s,0,0,0,12,12,0,12,12,0,0,0,12,12,0,12,12,Sat Sep 25 19:46:10 2021,1500,The main experiment item,yes,KS - Flanker Task.osexp,/Users/kaylinsilva/Desktop/Life/Tarleton/Adv Stats,no,mono,no,18,no,white,no,yes,768,legacy,12,12,/Users/kaylinsilva/Desktop/Life/Tarleton/Adv Stats/KS-subject-4.csv,legacy,Lentiform Loewenfeld,3.3.9,0,s,NA,h,NA,NA,s,537,NA,17727,NA,NA,537,2,legacy,1024,2,48000,-16,experiment,4,even,21721,NA,NA,NA,NA,NA,43623,42556,3988,NA,NA,43620,43727,3980,43727,44264,KS - Flanker Task,13,8258,13,yes,1024
Congruent,SSSSS,100,100,619.5714286,619.5714286,black,legacy,legacy,legacy,0,uniform,1,undefined,1,s,0,0,0,13,13,0,13,13,0,0,0,13,13,0,13,13,Sat Sep 25 19:46:10 2021,1500,The main experiment item,yes,KS - Flanker Task.osexp,/Users/kaylinsilva/Desktop/Life/Tarleton/Adv Stats,no,mono,no,18,no,white,no,yes,768,legacy,13,13,/Users/kaylinsilva/Desktop/Life/Tarleton/Adv Stats/KS-subject-4.csv,legacy,Lentiform Loewenfeld,3.3.9,0,s,NA,h,NA,NA,s,416,NA,17727,NA,NA,416,2,legacy,1024,2,48000,-16,experiment,4,even,21721,NA,NA,NA,NA,NA,45339,44267,3988,NA,NA,45336,45443,3980,45443,45859,KS - Flanker Task,14,8674,14,yes,1024
Incongruent,SSHSS,100,100,615.0666667,615.0666667,black,legacy,legacy,legacy,0,uniform,1,undefined,1,h,0,0,0,14,14,0,14,14,0,0,0,14,14,0,14,14,Sat Sep 25 19:46:10 2021,1500,The main experiment item,yes,KS - Flanker Task.osexp,/Users/kaylinsilva/Desktop/Life/Tarleton/Adv Stats,no,mono,no,18,no,white,no,yes,768,legacy,14,14,/Users/kaylinsilva/Desktop/Life/Tarleton/Adv Stats/KS-subject-4.csv,legacy,Lentiform Loewenfeld,3.3.9,0,h,NA,h,NA,NA,h,552,NA,17727,NA,NA,552,2,legacy,1024,2,48000,-16,experiment,4,even,21721,NA,NA,NA,NA,NA,46930,45863,3988,NA,NA,46927,47034,3980,47034,47587,KS - Flanker Task,15,9226,15,yes,1024
Congruent,SSSSS,100,100,607.5625,607.5625,black,legacy,legacy,legacy,0,uniform,1,undefined,1,s,0,0,0,15,15,0,15,15,0,0,0,15,15,0,15,15,Sat Sep 25 19:46:10 2021,1500,The main experiment item,yes,KS - Flanker Task.osexp,/Users/kaylinsilva/Desktop/Life/Tarleton/Adv Stats,no,mono,no,18,no,white,no,yes,768,legacy,15,15,/Users/kaylinsilva/Desktop/Life/Tarleton/Adv Stats/KS-subject-4.csv,legacy,Lentiform Loewenfeld,3.3.9,0,s,NA,h,NA,NA,s,495,NA,17727,NA,NA,495,2,legacy,1024,2,48000,-16,experiment,4,even,21721,NA,NA,NA,NA,NA,48657,47590,3988,NA,NA,48654,48761,3980,48761,49256,KS - Flanker Task,16,9721,16,yes,1024
Congruent,SSSSS,100,100,600.7647059,600.7647059,black,legacy,legacy,legacy,0,uniform,1,undefined,1,s,0,0,0,16,16,0,16,16,0,0,0,16,16,0,16,16,Sat Sep 25 19:46:10 2021,1500,The main experiment item,yes,KS - Flanker Task.osexp,/Users/kaylinsilva/Desktop/Life/Tarleton/Adv Stats,no,mono,no,18,no,white,no,yes,768,legacy,16,16,/Users/kaylinsilva/Desktop/Life/Tarleton/Adv Stats/KS-subject-4.csv,legacy,Lentiform Loewenfeld,3.3.9,0,s,NA,h,NA,NA,s,492,NA,17727,NA,NA,492,2,legacy,1024,2,48000,-16,experiment,4,even,21721,NA,NA,NA,NA,NA,50325,49259,3988,NA,NA,50322,50430,3980,50430,50923,KS - Flanker Task,17,10213,17,yes,1024
Congruent,HHHHH,100,100,594.2777778,594.2777778,black,legacy,legacy,legacy,0,uniform,1,undefined,1,h,0,0,0,17,17,0,17,17,0,0,0,17,17,0,17,17,Sat Sep 25 19:46:10 2021,1500,The main experiment item,yes,KS - Flanker Task.osexp,/Users/kaylinsilva/Desktop/Life/Tarleton/Adv Stats,no,mono,no,18,no,white,no,yes,768,legacy,17,17,/Users/kaylinsilva/Desktop/Life/Tarleton/Adv Stats/KS-subject-4.csv,legacy,Lentiform Loewenfeld,3.3.9,0,h,NA,h,NA,NA,h,484,NA,17727,NA,NA,484,2,legacy,1024,2,48000,-16,experiment,4,even,21721,NA,NA,NA,NA,NA,51993,50926,3988,NA,NA,51990,52097,3980,52097,52582,KS - Flanker Task,18,10697,18,yes,1024
Congruent,HHHHH,100,100,589.3684211,589.3684211,black,legacy,legacy,legacy,0,uniform,1,undefined,1,h,0,0,0,18,18,0,18,18,0,0,0,18,18,0,18,18,Sat Sep 25 19:46:10 2021,1500,The main experiment item,yes,KS - Flanker Task.osexp,/Users/kaylinsilva/Desktop/Life/Tarleton/Adv Stats,no,mono,no,18,no,white,no,yes,768,legacy,18,18,/Users/kaylinsilva/Desktop/Life/Tarleton/Adv Stats/KS-subject-4.csv,legacy,Lentiform Loewenfeld,3.3.9,0,h,NA,h,NA,NA,h,501,NA,17727,NA,NA,501,2,legacy,1024,2,48000,-16,experiment,4,even,21721,NA,NA,NA,NA,NA,53652,52585,3988,NA,NA,53649,53756,3980,53756,54258,KS - Flanker Task,19,11198,19,yes,1024
Congruent,SSSSS,100,100,583.5,583.5,black,legacy,legacy,legacy,0,uniform,1,undefined,1,s,0,0,0,19,19,0,19,19,0,0,0,19,19,0,19,19,Sat Sep 25 19:46:10 2021,1500,The main experiment item,yes,KS - Flanker Task.osexp,/Users/kaylinsilva/Desktop/Life/Tarleton/Adv Stats,no,mono,no,18,no,white,no,yes,768,legacy,19,19,/Users/kaylinsilva/Desktop/Life/Tarleton/Adv Stats/KS-subject-4.csv,legacy,Lentiform Loewenfeld,3.3.9,0,s,NA,h,NA,NA,s,472,NA,17727,NA,NA,472,2,legacy,1024,2,48000,-16,experiment,4,even,21721,NA,NA,NA,NA,NA,55327,54261,3988,NA,NA,55325,55432,3980,55432,55905,KS - Flanker Task,20,11670,20,yes,1024
Incongruent,SSHSS,100,100,583.0952381,583.0952381,black,legacy,legacy,legacy,0,uniform,1,undefined,1,h,0,0,0,20,20,0,20,20,0,0,0,20,20,0,20,20,Sat Sep 25 19:46:10 2021,1500,The main experiment item,yes,KS - Flanker Task.osexp,/Users/kaylinsilva/Desktop/Life/Tarleton/Adv Stats,no,mono,no,18,no,white,no,yes,768,legacy,20,20,/Users/kaylinsilva/Desktop/Life/Tarleton/Adv Stats/KS-subject-4.csv,legacy,Lentiform Loewenfeld,3.3.9,0,h,NA,h,NA,NA,h,575,NA,17727,NA,NA,575,2,legacy,1024,2,48000,-16,experiment,4,even,21721,NA,NA,NA,NA,NA,56975,55908,3988,NA,NA,56972,57079,3980,57079,57655,KS - Flanker Task,21,12245,21,yes,1024
Congruent,HHHHH,100,100,576.4545455,576.4545455,black,legacy,legacy,legacy,0,uniform,1,undefined,1,h,0,0,0,21,21,0,21,21,0,0,0,21,21,0,21,21,Sat Sep 25 19:46:10 2021,1500,The main experiment item,yes,KS - Flanker Task.osexp,/Users/kaylinsilva/Desktop/Life/Tarleton/Adv Stats,no,mono,no,18,no,white,no,yes,768,legacy,21,21,/Users/kaylinsilva/Desktop/Life/Tarleton/Adv Stats/KS-subject-4.csv,legacy,Lentiform Loewenfeld,3.3.9,0,h,NA,h,NA,NA,h,437,NA,17727,NA,NA,437,2,legacy,1024,2,48000,-16,experiment,4,even,21721,NA,NA,NA,NA,NA,58732,57657,3988,NA,NA,58730,58836,3980,58836,59274,KS - Flanker Task,22,12682,22,yes,1024
Congruent,HHHHH,100,100,570.826087,570.826087,black,legacy,legacy,legacy,0,uniform,1,undefined,1,h,0,0,0,22,22,0,22,22,0,0,0,22,22,0,22,22,Sat Sep 25 19:46:10 2021,1500,The main experiment item,yes,KS - Flanker Task.osexp,/Users/kaylinsilva/Desktop/Life/Tarleton/Adv Stats,no,mono,no,18,no,white,no,yes,768,legacy,22,22,/Users/kaylinsilva/Desktop/Life/Tarleton/Adv Stats/KS-subject-4.csv,legacy,Lentiform Loewenfeld,3.3.9,0,h,NA,h,NA,NA,h,447,NA,17727,NA,NA,447,2,legacy,1024,2,48000,-16,experiment,4,even,21721,NA,NA,NA,NA,NA,60344,59277,3988,NA,NA,60341,60448,3980,60448,60896,KS - Flanker Task,23,13129,23,yes,1024
Congruent,SSSSS,100,100,564.125,564.125,black,legacy,legacy,legacy,0,uniform,1,undefined,1,s,0,0,0,23,23,0,23,23,0,0,0,23,23,0,23,23,Sat Sep 25 19:46:10 2021,1500,The main experiment item,yes,KS - Flanker Task.osexp,/Users/kaylinsilva/Desktop/Life/Tarleton/Adv Stats,no,mono,no,18,no,white,no,yes,768,legacy,23,23,/Users/kaylinsilva/Desktop/Life/Tarleton/Adv Stats/KS-subject-4.csv,legacy,Lentiform Loewenfeld,3.3.9,0,s,NA,h,NA,NA,s,410,NA,17727,NA,NA,410,2,legacy,1024,2,48000,-16,experiment,4,even,21721,NA,NA,NA,NA,NA,61965,60899,3988,NA,NA,61962,62070,3980,62070,62481,KS - Flanker Task,24,13539,24,yes,1024
Congruent,HHHHH,100,100,560.64,560.64,black,legacy,legacy,legacy,0,uniform,1,undefined,1,h,0,0,0,24,24,0,24,24,0,0,0,24,24,0,24,24,Sat Sep 25 19:46:10 2021,1500,The main experiment item,yes,KS - Flanker Task.osexp,/Users/kaylinsilva/Desktop/Life/Tarleton/Adv Stats,no,mono,no,18,no,white,no,yes,768,legacy,24,24,/Users/kaylinsilva/Desktop/Life/Tarleton/Adv Stats/KS-subject-4.csv,legacy,Lentiform Loewenfeld,3.3.9,0,h,NA,h,NA,NA,h,477,NA,17727,NA,NA,477,2,legacy,1024,2,48000,-16,experiment,4,even,21721,NA,NA,NA,NA,NA,63551,62484,3988,NA,NA,63548,63655,3980,63655,64133,KS - Flanker Task,25,14016,25,yes,1024
Incongruent,SSHSS,100,100,562.3846154,562.3846154,black,legacy,legacy,legacy,0,uniform,1,undefined,1,h,0,0,0,25,25,0,25,25,0,0,0,25,25,0,25,25,Sat Sep 25 19:46:10 2021,1500,The main experiment item,yes,KS - Flanker Task.osexp,/Users/kaylinsilva/Desktop/Life/Tarleton/Adv Stats,no,mono,no,18,no,white,no,yes,768,legacy,25,25,/Users/kaylinsilva/Desktop/Life/Tarleton/Adv Stats/KS-subject-4.csv,legacy,Lentiform Loewenfeld,3.3.9,0,h,NA,h,NA,NA,h,606,NA,17727,NA,NA,606,2,legacy,1024,2,48000,-16,experiment,4,even,21721,NA,NA,NA,NA,NA,65202,64136,3988,NA,NA,65199,65306,3980,65306,65913,KS - Flanker Task,26,14622,26,yes,1024
Incongruent,HHSHH,100,100,559.8148148,559.8148148,black,legacy,legacy,legacy,0,uniform,1,undefined,1,s,0,0,0,26,26,0,26,26,0,0,0,26,26,0,26,26,Sat Sep 25 19:46:10 2021,1500,The main experiment item,yes,KS - Flanker Task.osexp,/Users/kaylinsilva/Desktop/Life/Tarleton/Adv Stats,no,mono,no,18,no,white,no,yes,768,legacy,26,26,/Users/kaylinsilva/Desktop/Life/Tarleton/Adv Stats/KS-subject-4.csv,legacy,Lentiform Loewenfeld,3.3.9,0,s,NA,h,NA,NA,s,493,NA,17727,NA,NA,493,2,legacy,1024,2,48000,-16,experiment,4,even,21721,NA,NA,NA,NA,NA,66982,65916,3988,NA,NA,66979,67087,3980,67087,67581,KS - Flanker Task,27,15115,27,yes,1024
Incongruent,SSHSS,100,100,557.5357143,557.5357143,black,legacy,legacy,legacy,0,uniform,1,undefined,1,h,0,0,0,27,27,0,27,27,0,0,0,27,27,0,27,27,Sat Sep 25 19:46:10 2021,1500,The main experiment item,yes,KS - Flanker Task.osexp,/Users/kaylinsilva/Desktop/Life/Tarleton/Adv Stats,no,mono,no,18,no,white,no,yes,768,legacy,27,27,/Users/kaylinsilva/Desktop/Life/Tarleton/Adv Stats/KS-subject-4.csv,legacy,Lentiform Loewenfeld,3.3.9,0,h,NA,h,NA,NA,h,496,NA,17727,NA,NA,496,2,legacy,1024,2,48000,-16,experiment,4,even,21721,NA,NA,NA,NA,NA,68651,67584,3988,NA,NA,68648,68755,3980,68755,69252,KS - Flanker Task,28,15611,28,yes,1024
Congruent,SSSSS,100,100,556.1034483,556.1034483,black,legacy,legacy,legacy,0,uniform,1,undefined,1,s,0,0,0,28,28,0,28,28,0,0,0,28,28,0,28,28,Sat Sep 25 19:46:10 2021,1500,The main experiment item,yes,KS - Flanker Task.osexp,/Users/kaylinsilva/Desktop/Life/Tarleton/Adv Stats,no,mono,no,18,no,white,no,yes,768,legacy,28,28,/Users/kaylinsilva/Desktop/Life/Tarleton/Adv Stats/KS-subject-4.csv,legacy,Lentiform Loewenfeld,3.3.9,0,s,NA,h,NA,NA,s,516,NA,17727,NA,NA,516,2,legacy,1024,2,48000,-16,experiment,4,even,21721,NA,NA,NA,NA,NA,70321,69254,3988,NA,NA,70318,70425,3980,70425,70941,KS - Flanker Task,29,16127,29,yes,1024
Congruent,HHHHH,100,100,551.6333333,551.6333333,black,legacy,legacy,legacy,0,uniform,1,undefined,1,h,0,0,0,29,29,0,29,29,0,0,0,29,29,0,29,29,Sat Sep 25 19:46:10 2021,1500,The main experiment item,yes,KS - Flanker Task.osexp,/Users/kaylinsilva/Desktop/Life/Tarleton/Adv Stats,no,mono,no,18,no,white,no,yes,768,legacy,29,29,/Users/kaylinsilva/Desktop/Life/Tarleton/Adv Stats/KS-subject-4.csv,legacy,Lentiform Loewenfeld,3.3.9,0,h,NA,h,NA,NA,h,422,NA,17727,NA,NA,422,2,legacy,1024,2,48000,-16,experiment,4,even,21721,NA,NA,NA,NA,NA,72012,70945,3988,NA,NA,72009,72116,3980,72116,72539,KS - Flanker Task,30,16549,30,yes,1024
Congruent,SSSSS,100,100,549.1935484,549.1935484,black,legacy,legacy,legacy,0,uniform,1,undefined,1,s,0,0,0,30,30,0,30,30,0,0,0,30,30,0,30,30,Sat Sep 25 19:46:10 2021,1500,The main experiment item,yes,KS - Flanker Task.osexp,/Users/kaylinsilva/Desktop/Life/Tarleton/Adv Stats,no,mono,no,18,no,white,no,yes,768,legacy,30,30,/Users/kaylinsilva/Desktop/Life/Tarleton/Adv Stats/KS-subject-4.csv,legacy,Lentiform Loewenfeld,3.3.9,0,s,NA,h,NA,NA,s,476,NA,17727,NA,NA,476,2,legacy,1024,2,48000,-16,experiment,4,even,21721,NA,NA,NA,NA,NA,73609,72542,3988,NA,NA,73606,73713,3980,73713,74190,KS - Flanker Task,31,17025,31,yes,1024
Congruent,SSSSS,100,100,546.75,546.75,black,legacy,legacy,legacy,0,uniform,1,undefined,1,s,0,0,0,31,31,0,31,31,0,0,0,31,31,0,31,31,Sat Sep 25 19:46:10 2021,1500,The main experiment item,yes,KS - Flanker Task.osexp,/Users/kaylinsilva/Desktop/Life/Tarleton/Adv Stats,no,mono,no,18,no,white,no,yes,768,legacy,31,31,/Users/kaylinsilva/Desktop/Life/Tarleton/Adv Stats/KS-subject-4.csv,legacy,Lentiform Loewenfeld,3.3.9,0,s,NA,h,NA,NA,s,471,NA,17727,NA,NA,471,2,legacy,1024,2,48000,-16,experiment,4,even,21721,NA,NA,NA,NA,NA,75261,74193,3988,NA,NA,75257,75365,3980,75365,75837,KS - Flanker Task,32,17496,32,yes,1024
Congruent,HHHHH,100,100,544.1515152,544.1515152,black,legacy,legacy,legacy,0,uniform,1,undefined,1,h,0,0,0,32,32,0,32,32,0,0,0,32,32,0,32,32,Sat Sep 25 19:46:10 2021,1500,The main experiment item,yes,KS - Flanker Task.osexp,/Users/kaylinsilva/Desktop/Life/Tarleton/Adv Stats,no,mono,no,18,no,white,no,yes,768,legacy,32,32,/Users/kaylinsilva/Desktop/Life/Tarleton/Adv Stats/KS-subject-4.csv,legacy,Lentiform Loewenfeld,3.3.9,0,h,NA,h,NA,NA,h,461,NA,17727,NA,NA,461,2,legacy,1024,2,48000,-16,experiment,4,even,21721,NA,NA,NA,NA,NA,76907,75840,3988,NA,NA,76904,77011,3980,77011,77473,KS - Flanker Task,33,17957,33,yes,1024
Incongruent,HHSHH,100,100,540.0882353,540.0882353,black,legacy,legacy,legacy,0,uniform,1,undefined,1,s,0,0,0,33,33,0,33,33,0,0,0,33,33,0,33,33,Sat Sep 25 19:46:10 2021,1500,The main experiment item,yes,KS - Flanker Task.osexp,/Users/kaylinsilva/Desktop/Life/Tarleton/Adv Stats,no,mono,no,18,no,white,no,yes,768,legacy,33,33,/Users/kaylinsilva/Desktop/Life/Tarleton/Adv Stats/KS-subject-4.csv,legacy,Lentiform Loewenfeld,3.3.9,0,s,NA,h,NA,NA,s,406,NA,17727,NA,NA,406,2,legacy,1024,2,48000,-16,experiment,4,even,21721,NA,NA,NA,NA,NA,78542,77476,3988,NA,NA,78540,78647,3980,78647,79053,KS - Flanker Task,34,18363,34,yes,1024
Incongruent,SSHSS,100,100,539.5714286,539.5714286,black,legacy,legacy,legacy,0,uniform,1,undefined,1,h,0,0,0,34,34,0,34,34,0,0,0,34,34,0,34,34,Sat Sep 25 19:46:10 2021,1500,The main experiment item,yes,KS - Flanker Task.osexp,/Users/kaylinsilva/Desktop/Life/Tarleton/Adv Stats,no,mono,no,18,no,white,no,yes,768,legacy,34,34,/Users/kaylinsilva/Desktop/Life/Tarleton/Adv Stats/KS-subject-4.csv,legacy,Lentiform Loewenfeld,3.3.9,0,h,NA,h,NA,NA,h,522,NA,17727,NA,NA,522,2,legacy,1024,2,48000,-16,experiment,4,even,21721,NA,NA,NA,NA,NA,80123,79056,3988,NA,NA,80120,80227,3980,80227,80750,KS - Flanker Task,35,18885,35,yes,1024
Incongruent,HHSHH,100,100,538.3888889,538.3888889,black,legacy,legacy,legacy,0,uniform,1,undefined,1,s,0,0,0,35,35,0,35,35,0,0,0,35,35,0,35,35,Sat Sep 25 19:46:10 2021,1500,The main experiment item,yes,KS - Flanker Task.osexp,/Users/kaylinsilva/Desktop/Life/Tarleton/Adv Stats,no,mono,no,18,no,white,no,yes,768,legacy,35,35,/Users/kaylinsilva/Desktop/Life/Tarleton/Adv Stats/KS-subject-4.csv,legacy,Lentiform Loewenfeld,3.3.9,0,s,NA,h,NA,NA,s,497,NA,17727,NA,NA,497,2,legacy,1024,2,48000,-16,experiment,4,even,21721,NA,NA,NA,NA,NA,81820,80753,3988,NA,NA,81817,81924,3980,81924,82421,KS - Flanker Task,36,19382,36,yes,1024
Incongruent,HHSHH,100,100,538.1621622,538.1621622,black,legacy,legacy,legacy,0,uniform,1,undefined,1,s,0,0,0,36,36,0,36,36,0,0,0,36,36,0,36,36,Sat Sep 25 19:46:10 2021,1500,The main experiment item,yes,KS - Flanker Task.osexp,/Users/kaylinsilva/Desktop/Life/Tarleton/Adv Stats,no,mono,no,18,no,white,no,yes,768,legacy,36,36,/Users/kaylinsilva/Desktop/Life/Tarleton/Adv Stats/KS-subject-4.csv,legacy,Lentiform Loewenfeld,3.3.9,0,s,NA,h,NA,NA,s,530,NA,17727,NA,NA,530,2,legacy,1024,2,48000,-16,experiment,4,even,21721,NA,NA,NA,NA,NA,83491,82424,3988,NA,NA,83488,83595,3980,83595,84125,KS - Flanker Task,37,19912,37,yes,1024
Incongruent,SSHSS,100,100,540.1052632,540.1052632,black,legacy,legacy,legacy,0,uniform,1,undefined,1,h,0,0,0,37,37,0,37,37,0,0,0,37,37,0,37,37,Sat Sep 25 19:46:10 2021,1500,The main experiment item,yes,KS - Flanker Task.osexp,/Users/kaylinsilva/Desktop/Life/Tarleton/Adv Stats,no,mono,no,18,no,white,no,yes,768,legacy,37,37,/Users/kaylinsilva/Desktop/Life/Tarleton/Adv Stats/KS-subject-4.csv,legacy,Lentiform Loewenfeld,3.3.9,0,h,NA,h,NA,NA,h,612,NA,17727,NA,NA,612,2,legacy,1024,2,48000,-16,experiment,4,even,21721,NA,NA,NA,NA,NA,85195,84128,3988,NA,NA,85192,85299,3980,85299,85912,KS - Flanker Task,38,20524,38,yes,1024
Incongruent,HHSHH,100,100,540.4358974,540.4358974,black,legacy,legacy,legacy,0,uniform,1,undefined,1,s,0,0,0,38,38,0,38,38,0,0,0,38,38,0,38,38,Sat Sep 25 19:46:10 2021,1500,The main experiment item,yes,KS - Flanker Task.osexp,/Users/kaylinsilva/Desktop/Life/Tarleton/Adv Stats,no,mono,no,18,no,white,no,yes,768,legacy,38,38,/Users/kaylinsilva/Desktop/Life/Tarleton/Adv Stats/KS-subject-4.csv,legacy,Lentiform Loewenfeld,3.3.9,0,s,NA,h,NA,NA,s,553,NA,17727,NA,NA,553,2,legacy,1024,2,48000,-16,experiment,4,even,21721,NA,NA,NA,NA,NA,86983,85915,3988,NA,NA,86980,87087,3980,87087,87641,KS - Flanker Task,39,21077,39,yes,1024
Incongruent,SSHSS,100,100,540.9,540.9,black,legacy,legacy,legacy,0,uniform,1,undefined,1,h,0,0,0,39,39,0,39,39,0,0,0,39,39,0,39,39,Sat Sep 25 19:46:10 2021,1500,The main experiment item,yes,KS - Flanker Task.osexp,/Users/kaylinsilva/Desktop/Life/Tarleton/Adv Stats,no,mono,no,18,no,white,no,yes,768,legacy,39,39,/Users/kaylinsilva/Desktop/Life/Tarleton/Adv Stats/KS-subject-4.csv,legacy,Lentiform Loewenfeld,3.3.9,0,h,NA,h,NA,NA,h,559,NA,17727,NA,NA,559,2,legacy,1024,2,48000,-16,experiment,4,even,21721,NA,NA,NA,NA,NA,88711,87644,3988,NA,NA,88708,88815,3980,88816,89376,KS - Flanker Task,40,21636,40,yes,1024
Congruent,HHHHH,100,100,545.4634146,545.4634146,black,legacy,legacy,legacy,0,uniform,1,undefined,1,h,0,0,0,40,40,0,40,40,0,0,0,40,40,0,40,40,Sat Sep 25 19:46:10 2021,1500,The main experiment item,yes,KS - Flanker Task.osexp,/Users/kaylinsilva/Desktop/Life/Tarleton/Adv Stats,no,mono,no,18,no,white,no,yes,768,legacy,40,40,/Users/kaylinsilva/Desktop/Life/Tarleton/Adv Stats/KS-subject-4.csv,legacy,Lentiform Loewenfeld,3.3.9,0,h,NA,h,NA,NA,h,728,NA,17727,NA,NA,728,2,legacy,1024,2,48000,-16,experiment,4,even,21721,NA,NA,NA,NA,NA,90446,89379,3988,NA,NA,90443,90550,3980,90550,91279,KS - Flanker Task,41,22364,41,yes,1024
Incongruent,HHSHH,100,100,542.2380952,542.2380952,black,legacy,legacy,legacy,0,uniform,1,undefined,1,s,0,0,0,41,41,0,41,41,0,0,0,41,41,0,41,41,Sat Sep 25 19:46:10 2021,1500,The main experiment item,yes,KS - Flanker Task.osexp,/Users/kaylinsilva/Desktop/Life/Tarleton/Adv Stats,no,mono,no,18,no,white,no,yes,768,legacy,41,41,/Users/kaylinsilva/Desktop/Life/Tarleton/Adv Stats/KS-subject-4.csv,legacy,Lentiform Loewenfeld,3.3.9,0,s,NA,h,NA,NA,s,410,NA,17727,NA,NA,410,2,legacy,1024,2,48000,-16,experiment,4,even,21721,NA,NA,NA,NA,NA,92349,91282,3988,NA,NA,92346,92453,3980,92453,92864,KS - Flanker Task,42,22774,42,yes,1024
Congruent,HHHHH,100,100,539.3953488,539.3953488,black,legacy,legacy,legacy,0,uniform,1,undefined,1,h,0,0,0,42,42,0,42,42,0,0,0,42,42,0,42,42,Sat Sep 25 19:46:10 2021,1500,The main experiment item,yes,KS - Flanker Task.osexp,/Users/kaylinsilva/Desktop/Life/Tarleton/Adv Stats,no,mono,no,18,no,white,no,yes,768,legacy,42,42,/Users/kaylinsilva/Desktop/Life/Tarleton/Adv Stats/KS-subject-4.csv,legacy,Lentiform Loewenfeld,3.3.9,0,h,NA,h,NA,NA,h,420,NA,17727,NA,NA,420,2,legacy,1024,2,48000,-16,experiment,4,even,21721,NA,NA,NA,NA,NA,93948,92867,3988,NA,NA,93944,94052,3980,94052,94473,KS - Flanker Task,43,23194,43,yes,1024
Incongruent,SSHSS,100,100,538.4772727,538.4772727,black,legacy,legacy,legacy,0,uniform,1,undefined,1,h,0,0,0,43,43,0,43,43,0,0,0,43,43,0,43,43,Sat Sep 25 19:46:10 2021,1500,The main experiment item,yes,KS - Flanker Task.osexp,/Users/kaylinsilva/Desktop/Life/Tarleton/Adv Stats,no,mono,no,18,no,white,no,yes,768,legacy,43,43,/Users/kaylinsilva/Desktop/Life/Tarleton/Adv Stats/KS-subject-4.csv,legacy,Lentiform Loewenfeld,3.3.9,0,h,NA,h,NA,NA,h,499,NA,17727,NA,NA,499,2,legacy,1024,2,48000,-16,experiment,4,even,21721,NA,NA,NA,NA,NA,95543,94476,3988,NA,NA,95540,95647,3980,95647,96147,KS - Flanker Task,44,23693,44,yes,1024
Incongruent,SSHSS,100,100,537.2,537.2,black,legacy,legacy,legacy,0,uniform,1,undefined,1,h,0,0,0,44,44,0,44,44,0,0,0,44,44,0,44,44,Sat Sep 25 19:46:10 2021,1500,The main experiment item,yes,KS - Flanker Task.osexp,/Users/kaylinsilva/Desktop/Life/Tarleton/Adv Stats,no,mono,no,18,no,white,no,yes,768,legacy,44,44,/Users/kaylinsilva/Desktop/Life/Tarleton/Adv Stats/KS-subject-4.csv,legacy,Lentiform Loewenfeld,3.3.9,0,h,NA,h,NA,NA,h,481,NA,17727,NA,NA,481,2,legacy,1024,2,48000,-16,experiment,4,even,21721,NA,NA,NA,NA,NA,97217,96150,3988,NA,NA,97214,97321,3980,97321,97803,KS - Flanker Task,45,24174,45,yes,1024
Congruent,SSSSS,100,100,533.9782609,533.9782609,black,legacy,legacy,legacy,0,uniform,1,undefined,1,s,0,0,0,45,45,0,45,45,0,0,0,45,45,0,45,45,Sat Sep 25 19:46:10 2021,1500,The main experiment item,yes,KS - Flanker Task.osexp,/Users/kaylinsilva/Desktop/Life/Tarleton/Adv Stats,no,mono,no,18,no,white,no,yes,768,legacy,45,45,/Users/kaylinsilva/Desktop/Life/Tarleton/Adv Stats/KS-subject-4.csv,legacy,Lentiform Loewenfeld,3.3.9,0,s,NA,h,NA,NA,s,389,NA,17727,NA,NA,389,2,legacy,1024,2,48000,-16,experiment,4,even,21721,NA,NA,NA,NA,NA,98871,97805,3988,NA,NA,98868,98976,3980,98976,99366,KS - Flanker Task,46,24563,46,yes,1024
Congruent,HHHHH,100,100,532.2553191,532.2553191,black,legacy,legacy,legacy,0,uniform,1,undefined,1,h,0,0,0,46,46,0,46,46,0,0,0,46,46,0,46,46,Sat Sep 25 19:46:10 2021,1500,The main experiment item,yes,KS - Flanker Task.osexp,/Users/kaylinsilva/Desktop/Life/Tarleton/Adv Stats,no,mono,no,18,no,white,no,yes,768,legacy,46,46,/Users/kaylinsilva/Desktop/Life/Tarleton/Adv Stats/KS-subject-4.csv,legacy,Lentiform Loewenfeld,3.3.9,0,h,NA,h,NA,NA,h,453,NA,17727,NA,NA,453,2,legacy,1024,2,48000,-16,experiment,4,even,21721,NA,NA,NA,NA,NA,100436,99369,3988,NA,NA,100433,100541,3980,100541,100995,KS - Flanker Task,47,25016,47,yes,1024
Congruent,HHHHH,100,100,531.3125,531.3125,black,legacy,legacy,legacy,0,uniform,1,undefined,1,h,0,0,0,47,47,0,47,47,0,0,0,47,47,0,47,47,Sat Sep 25 19:46:10 2021,1500,The main experiment item,yes,KS - Flanker Task.osexp,/Users/kaylinsilva/Desktop/Life/Tarleton/Adv Stats,no,mono,no,18,no,white,no,yes,768,legacy,47,47,/Users/kaylinsilva/Desktop/Life/Tarleton/Adv Stats/KS-subject-4.csv,legacy,Lentiform Loewenfeld,3.3.9,0,h,NA,h,NA,NA,h,487,NA,17727,NA,NA,487,2,legacy,1024,2,48000,-16,experiment,4,even,21721,NA,NA,NA,NA,NA,102065,100998,3988,NA,NA,102062,102169,3980,102169,102657,KS - Flanker Task,48,25503,48,yes,1024
Congruent,HHHHH,100,100,530.3469388,530.3469388,black,legacy,legacy,legacy,0,uniform,1,undefined,1,h,0,0,0,48,48,0,48,48,0,0,0,48,48,0,48,48,Sat Sep 25 19:46:10 2021,1500,The main experiment item,yes,KS - Flanker Task.osexp,/Users/kaylinsilva/Desktop/Life/Tarleton/Adv Stats,no,mono,no,18,no,white,no,yes,768,legacy,48,48,/Users/kaylinsilva/Desktop/Life/Tarleton/Adv Stats/KS-subject-4.csv,legacy,Lentiform Loewenfeld,3.3.9,0,h,NA,h,NA,NA,h,484,NA,17727,NA,NA,484,2,legacy,1024,2,48000,-16,experiment,4,even,21721,NA,NA,NA,NA,NA,103726,102660,3988,NA,NA,103723,103830,3980,103830,104315,KS - Flanker Task,49,25987,49,yes,1024
Congruent,SSSSS,100,100,529.24,529.24,black,legacy,legacy,legacy,0,uniform,1,undefined,1,s,0,0,0,49,49,0,49,49,0,0,0,49,49,0,49,49,Sat Sep 25 19:46:10 2021,1500,The main experiment item,yes,KS - Flanker Task.osexp,/Users/kaylinsilva/Desktop/Life/Tarleton/Adv Stats,no,mono,no,18,no,white,no,yes,768,legacy,49,49,/Users/kaylinsilva/Desktop/Life/Tarleton/Adv Stats/KS-subject-4.csv,legacy,Lentiform Loewenfeld,3.3.9,0,s,NA,h,NA,NA,s,475,NA,17727,NA,NA,475,2,legacy,1024,2,48000,-16,experiment,4,even,21721,NA,NA,NA,NA,NA,105385,104318,3988,NA,NA,105382,105489,3980,105489,105964,KS - Flanker Task,50,26462,50,yes,1024
Incongruent,SSHSS,100,100,533.5686275,533.5686275,black,legacy,legacy,legacy,0,uniform,1,undefined,1,h,0,0,0,50,50,0,50,50,0,0,0,50,50,0,50,50,Sat Sep 25 19:46:10 2021,1500,The main experiment item,yes,KS - Flanker Task.osexp,/Users/kaylinsilva/Desktop/Life/Tarleton/Adv Stats,no,mono,no,18,no,white,no,yes,768,legacy,50,50,/Users/kaylinsilva/Desktop/Life/Tarleton/Adv Stats/KS-subject-4.csv,legacy,Lentiform Loewenfeld,3.3.9,0,h,NA,h,NA,NA,h,750,NA,17727,NA,NA,750,2,legacy,1024,2,48000,-16,experiment,4,even,21721,NA,NA,NA,NA,NA,107039,105968,3988,NA,NA,107031,107143,3980,107143,107893,KS - Flanker Task,51,27212,51,yes,1024
Incongruent,SSHSS,100,100,532.5769231,532.5769231,black,legacy,legacy,legacy,0,uniform,1,undefined,1,h,0,0,0,51,51,0,51,51,0,0,0,51,51,0,51,51,Sat Sep 25 19:46:10 2021,1500,The main experiment item,yes,KS - Flanker Task.osexp,/Users/kaylinsilva/Desktop/Life/Tarleton/Adv Stats,no,mono,no,18,no,white,no,yes,768,legacy,51,51,/Users/kaylinsilva/Desktop/Life/Tarleton/Adv Stats/KS-subject-4.csv,legacy,Lentiform Loewenfeld,3.3.9,0,h,NA,h,NA,NA,h,482,NA,17727,NA,NA,482,2,legacy,1024,2,48000,-16,experiment,4,even,21721,NA,NA,NA,NA,NA,108963,107896,3988,NA,NA,108960,109067,3980,109067,109550,KS - Flanker Task,52,27694,52,yes,1024
Incongruent,HHSHH,100,100,530.9245283,530.9245283,black,legacy,legacy,legacy,0,uniform,1,undefined,1,s,0,0,0,52,52,0,52,52,0,0,0,52,52,0,52,52,Sat Sep 25 19:46:10 2021,1500,The main experiment item,yes,KS - Flanker Task.osexp,/Users/kaylinsilva/Desktop/Life/Tarleton/Adv Stats,no,mono,no,18,no,white,no,yes,768,legacy,52,52,/Users/kaylinsilva/Desktop/Life/Tarleton/Adv Stats/KS-subject-4.csv,legacy,Lentiform Loewenfeld,3.3.9,0,s,NA,h,NA,NA,s,445,NA,17727,NA,NA,445,2,legacy,1024,2,48000,-16,experiment,4,even,21721,NA,NA,NA,NA,NA,110620,109552,3988,NA,NA,110617,110724,3980,110724,111170,KS - Flanker Task,53,28139,53,yes,1024
Congruent,HHHHH,100,100,531.3703704,531.3703704,black,legacy,legacy,legacy,0,uniform,1,undefined,1,h,0,0,0,53,53,0,53,53,0,0,0,53,53,0,53,53,Sat Sep 25 19:46:10 2021,1500,The main experiment item,yes,KS - Flanker Task.osexp,/Users/kaylinsilva/Desktop/Life/Tarleton/Adv Stats,no,mono,no,18,no,white,no,yes,768,legacy,53,53,/Users/kaylinsilva/Desktop/Life/Tarleton/Adv Stats/KS-subject-4.csv,legacy,Lentiform Loewenfeld,3.3.9,0,h,NA,h,NA,NA,h,555,NA,17727,NA,NA,555,2,legacy,1024,2,48000,-16,experiment,4,even,21721,NA,NA,NA,NA,NA,112241,111172,3988,NA,NA,112237,112345,3980,112345,112901,KS - Flanker Task,54,28694,54,yes,1024
Incongruent,HHSHH,100,100,529.8545455,529.8545455,black,legacy,legacy,legacy,0,uniform,1,undefined,1,s,0,0,0,54,54,0,54,54,0,0,0,54,54,0,54,54,Sat Sep 25 19:46:10 2021,1500,The main experiment item,yes,KS - Flanker Task.osexp,/Users/kaylinsilva/Desktop/Life/Tarleton/Adv Stats,no,mono,no,18,no,white,no,yes,768,legacy,54,54,/Users/kaylinsilva/Desktop/Life/Tarleton/Adv Stats/KS-subject-4.csv,legacy,Lentiform Loewenfeld,3.3.9,0,s,NA,h,NA,NA,s,448,NA,17727,NA,NA,448,2,legacy,1024,2,48000,-16,experiment,4,even,21721,NA,NA,NA,NA,NA,113972,112904,3988,NA,NA,113969,114076,3980,114076,114524,KS - Flanker Task,55,29142,55,yes,1024
Incongruent,HHSHH,100,100,529,529,black,legacy,legacy,legacy,0,uniform,1,undefined,1,s,0,0,0,55,55,0,55,55,0,0,0,55,55,0,55,55,Sat Sep 25 19:46:10 2021,1500,The main experiment item,yes,KS - Flanker Task.osexp,/Users/kaylinsilva/Desktop/Life/Tarleton/Adv Stats,no,mono,no,18,no,white,no,yes,768,legacy,55,55,/Users/kaylinsilva/Desktop/Life/Tarleton/Adv Stats/KS-subject-4.csv,legacy,Lentiform Loewenfeld,3.3.9,0,s,NA,h,NA,NA,s,482,NA,17727,NA,NA,482,2,legacy,1024,2,48000,-16,experiment,4,even,21721,NA,NA,NA,NA,NA,115595,114528,3988,NA,NA,115592,115699,3980,115699,116181,KS - Flanker Task,56,29624,56,yes,1024
Incongruent,SSHSS,100,100,528.2982456,528.2982456,black,legacy,legacy,legacy,0,uniform,1,undefined,1,h,0,0,0,56,56,0,56,56,0,0,0,56,56,0,56,56,Sat Sep 25 19:46:10 2021,1500,The main experiment item,yes,KS - Flanker Task.osexp,/Users/kaylinsilva/Desktop/Life/Tarleton/Adv Stats,no,mono,no,18,no,white,no,yes,768,legacy,56,56,/Users/kaylinsilva/Desktop/Life/Tarleton/Adv Stats/KS-subject-4.csv,legacy,Lentiform Loewenfeld,3.3.9,0,h,NA,h,NA,NA,h,489,NA,17727,NA,NA,489,2,legacy,1024,2,48000,-16,experiment,4,even,21721,NA,NA,NA,NA,NA,117251,116184,3988,NA,NA,117248,117355,3980,117355,117845,KS - Flanker Task,57,30113,57,yes,1024
Congruent,SSSSS,100,100,527.9655172,527.9655172,black,legacy,legacy,legacy,0,uniform,1,undefined,1,s,0,0,0,57,57,0,57,57,0,0,0,57,57,0,57,57,Sat Sep 25 19:46:10 2021,1500,The main experiment item,yes,KS - Flanker Task.osexp,/Users/kaylinsilva/Desktop/Life/Tarleton/Adv Stats,no,mono,no,18,no,white,no,yes,768,legacy,57,57,/Users/kaylinsilva/Desktop/Life/Tarleton/Adv Stats/KS-subject-4.csv,legacy,Lentiform Loewenfeld,3.3.9,0,s,NA,h,NA,NA,s,509,NA,17727,NA,NA,509,2,legacy,1024,2,48000,-16,experiment,4,even,21721,NA,NA,NA,NA,NA,118915,117848,3988,NA,NA,118912,119019,3980,119019,119529,KS - Flanker Task,58,30622,58,yes,1024
Congruent,SSSSS,100,100,526.9830508,526.9830508,black,legacy,legacy,legacy,0,uniform,1,undefined,1,s,0,0,0,58,58,0,58,58,0,0,0,58,58,0,58,58,Sat Sep 25 19:46:10 2021,1500,The main experiment item,yes,KS - Flanker Task.osexp,/Users/kaylinsilva/Desktop/Life/Tarleton/Adv Stats,no,mono,no,18,no,white,no,yes,768,legacy,58,58,/Users/kaylinsilva/Desktop/Life/Tarleton/Adv Stats/KS-subject-4.csv,legacy,Lentiform Loewenfeld,3.3.9,0,s,NA,h,NA,NA,s,470,NA,17727,NA,NA,470,2,legacy,1024,2,48000,-16,experiment,4,even,21721,NA,NA,NA,NA,NA,120598,119532,3988,NA,NA,120595,120702,3980,120702,121172,KS - Flanker Task,59,31092,59,yes,1024
Incongruent,HHSHH,98.33333333,98.33333333,525.7833333,525.7833333,black,legacy,legacy,legacy,0,uniform,0,undefined,0,s,0,0,0,59,59,0,59,59,0,0,0,59,59,0,59,59,Sat Sep 25 19:46:10 2021,1500,The main experiment item,yes,KS - Flanker Task.osexp,/Users/kaylinsilva/Desktop/Life/Tarleton/Adv Stats,no,mono,no,18,no,white,no,yes,768,legacy,59,59,/Users/kaylinsilva/Desktop/Life/Tarleton/Adv Stats/KS-subject-4.csv,legacy,Lentiform Loewenfeld,3.3.9,0,h,NA,h,NA,NA,h,455,NA,17727,NA,NA,455,2,legacy,1024,2,48000,-16,experiment,4,even,21721,NA,NA,NA,NA,NA,122244,121177,3988,NA,NA,122241,122349,3980,122349,122804,KS - Flanker Task,59,31547,60,yes,1024
Congruent,HHHHH,98.36065574,98.36065574,526.0819672,526.0819672,black,legacy,legacy,legacy,0,uniform,1,undefined,1,h,0,0,0,60,60,0,60,60,0,0,0,60,60,0,60,60,Sat Sep 25 19:46:10 2021,1500,The main experiment item,yes,KS - Flanker Task.osexp,/Users/kaylinsilva/Desktop/Life/Tarleton/Adv Stats,no,mono,no,18,no,white,no,yes,768,legacy,60,60,/Users/kaylinsilva/Desktop/Life/Tarleton/Adv Stats/KS-subject-4.csv,legacy,Lentiform Loewenfeld,3.3.9,0,h,NA,h,NA,NA,h,544,NA,17727,NA,NA,544,2,legacy,1024,2,48000,-16,experiment,4,even,21721,NA,NA,122807,NA,NA,124379,123311,3988,NA,NA,124375,124483,3980,124483,125028,KS - Flanker Task,60,32091,61,yes,1024
Incongruent,HHSHH,98.38709677,98.38709677,525.7741935,525.7741935,black,legacy,legacy,legacy,0,uniform,1,undefined,1,s,0,0,0,61,61,0,61,61,0,0,0,61,61,0,61,61,Sat Sep 25 19:46:10 2021,1500,The main experiment item,yes,KS - Flanker Task.osexp,/Users/kaylinsilva/Desktop/Life/Tarleton/Adv Stats,no,mono,no,18,no,white,no,yes,768,legacy,61,61,/Users/kaylinsilva/Desktop/Life/Tarleton/Adv Stats/KS-subject-4.csv,legacy,Lentiform Loewenfeld,3.3.9,0,s,NA,h,NA,NA,s,507,NA,17727,NA,NA,507,2,legacy,1024,2,48000,-16,experiment,4,even,21721,NA,NA,122807,NA,NA,126099,125031,3988,NA,NA,126096,126203,3980,126203,126711,KS - Flanker Task,61,32598,62,yes,1024
Congruent,HHHHH,98.41269841,98.41269841,525.3650794,525.3650794,black,legacy,legacy,legacy,0,uniform,1,undefined,1,h,0,0,0,62,62,0,62,62,0,0,0,62,62,0,62,62,Sat Sep 25 19:46:10 2021,1500,The main experiment item,yes,KS - Flanker Task.osexp,/Users/kaylinsilva/Desktop/Life/Tarleton/Adv Stats,no,mono,no,18,no,white,no,yes,768,legacy,62,62,/Users/kaylinsilva/Desktop/Life/Tarleton/Adv Stats/KS-subject-4.csv,legacy,Lentiform Loewenfeld,3.3.9,0,h,NA,h,NA,NA,h,500,NA,17727,NA,NA,500,2,legacy,1024,2,48000,-16,experiment,4,even,21721,NA,NA,122807,NA,NA,127780,126714,3988,NA,NA,127777,127884,3980,127884,128385,KS - Flanker Task,62,33098,63,yes,1024
Congruent,SSSSS,98.4375,98.4375,523.609375,523.609375,black,legacy,legacy,legacy,0,uniform,1,undefined,1,s,0,0,0,63,63,0,63,63,0,0,0,63,63,0,63,63,Sat Sep 25 19:46:10 2021,1500,The main experiment item,yes,KS - Flanker Task.osexp,/Users/kaylinsilva/Desktop/Life/Tarleton/Adv Stats,no,mono,no,18,no,white,no,yes,768,legacy,63,63,/Users/kaylinsilva/Desktop/Life/Tarleton/Adv Stats/KS-subject-4.csv,legacy,Lentiform Loewenfeld,3.3.9,0,s,NA,h,NA,NA,s,413,NA,17727,NA,NA,413,2,legacy,1024,2,48000,-16,experiment,4,even,21721,NA,NA,122807,NA,NA,129455,128388,3988,NA,NA,129452,129559,3980,129559,129973,KS - Flanker Task,63,33511,64,yes,1024
Incongruent,SSHSS,98.46153846,98.46153846,523.0923077,523.0923077,black,legacy,legacy,legacy,0,uniform,1,undefined,1,h,0,0,0,64,64,0,64,64,0,0,0,64,64,0,64,64,Sat Sep 25 19:46:10 2021,1500,The main experiment item,yes,KS - Flanker Task.osexp,/Users/kaylinsilva/Desktop/Life/Tarleton/Adv Stats,no,mono,no,18,no,white,no,yes,768,legacy,64,64,/Users/kaylinsilva/Desktop/Life/Tarleton/Adv Stats/KS-subject-4.csv,legacy,Lentiform Loewenfeld,3.3.9,0,h,NA,h,NA,NA,h,490,NA,17727,NA,NA,490,2,legacy,1024,2,48000,-16,experiment,4,even,21721,NA,NA,122807,NA,NA,131042,129976,3988,NA,NA,131039,131147,3980,131147,131638,KS - Flanker Task,64,34001,65,yes,1024
Incongruent,SSHSS,98.48484848,98.48484848,524.5151515,524.5151515,black,legacy,legacy,legacy,0,uniform,1,undefined,1,h,0,0,0,65,65,0,65,65,0,0,0,65,65,0,65,65,Sat Sep 25 19:46:10 2021,1500,The main experiment item,yes,KS - Flanker Task.osexp,/Users/kaylinsilva/Desktop/Life/Tarleton/Adv Stats,no,mono,no,18,no,white,no,yes,768,legacy,65,65,/Users/kaylinsilva/Desktop/Life/Tarleton/Adv Stats/KS-subject-4.csv,legacy,Lentiform Loewenfeld,3.3.9,0,h,NA,h,NA,NA,h,617,NA,17727,NA,NA,617,2,legacy,1024,2,48000,-16,experiment,4,even,21721,NA,NA,122807,NA,NA,132709,131642,3988,NA,NA,132706,132813,3980,132813,133431,KS - Flanker Task,65,34618,66,yes,1024
Incongruent,HHSHH,98.50746269,98.50746269,524.8059701,524.8059701,black,legacy,legacy,legacy,0,uniform,1,undefined,1,s,0,0,0,66,66,0,66,66,0,0,0,66,66,0,66,66,Sat Sep 25 19:46:10 2021,1500,The main experiment item,yes,KS - Flanker Task.osexp,/Users/kaylinsilva/Desktop/Life/Tarleton/Adv Stats,no,mono,no,18,no,white,no,yes,768,legacy,66,66,/Users/kaylinsilva/Desktop/Life/Tarleton/Adv Stats/KS-subject-4.csv,legacy,Lentiform Loewenfeld,3.3.9,0,s,NA,h,NA,NA,s,544,NA,17727,NA,NA,544,2,legacy,1024,2,48000,-16,experiment,4,even,21721,NA,NA,122807,NA,NA,134503,133435,3988,NA,NA,134500,134607,3980,134607,135152,KS - Flanker Task,66,35162,67,yes,1024
Congruent,SSSSS,98.52941176,98.52941176,525.2205882,525.2205882,black,legacy,legacy,legacy,0,uniform,1,undefined,1,s,0,0,0,67,67,0,67,67,0,0,0,67,67,0,67,67,Sat Sep 25 19:46:10 2021,1500,The main experiment item,yes,KS - Flanker Task.osexp,/Users/kaylinsilva/Desktop/Life/Tarleton/Adv Stats,no,mono,no,18,no,white,no,yes,768,legacy,67,67,/Users/kaylinsilva/Desktop/Life/Tarleton/Adv Stats/KS-subject-4.csv,legacy,Lentiform Loewenfeld,3.3.9,0,s,NA,h,NA,NA,s,553,NA,17727,NA,NA,553,2,legacy,1024,2,48000,-16,experiment,4,even,21721,NA,NA,122807,NA,NA,136223,135155,3988,NA,NA,136220,136328,3980,136328,136882,KS - Flanker Task,67,35715,68,yes,1024
Congruent,SSSSS,98.55072464,98.55072464,523.6811594,523.6811594,black,legacy,legacy,legacy,0,uniform,1,undefined,1,s,0,0,0,68,68,0,68,68,0,0,0,68,68,0,68,68,Sat Sep 25 19:46:10 2021,1500,The main experiment item,yes,KS - Flanker Task.osexp,/Users/kaylinsilva/Desktop/Life/Tarleton/Adv Stats,no,mono,no,18,no,white,no,yes,768,legacy,68,68,/Users/kaylinsilva/Desktop/Life/Tarleton/Adv Stats/KS-subject-4.csv,legacy,Lentiform Loewenfeld,3.3.9,0,s,NA,h,NA,NA,s,419,NA,17727,NA,NA,419,2,legacy,1024,2,48000,-16,experiment,4,even,21721,NA,NA,122807,NA,NA,137952,136885,3988,NA,NA,137949,138056,3980,138056,138476,KS - Flanker Task,68,36134,69,yes,1024
Congruent,SSSSS,98.57142857,98.57142857,521.8571429,521.8571429,black,legacy,legacy,legacy,0,uniform,1,undefined,1,s,0,0,0,69,69,0,69,69,0,0,0,69,69,0,69,69,Sat Sep 25 19:46:10 2021,1500,The main experiment item,yes,KS - Flanker Task.osexp,/Users/kaylinsilva/Desktop/Life/Tarleton/Adv Stats,no,mono,no,18,no,white,no,yes,768,legacy,69,69,/Users/kaylinsilva/Desktop/Life/Tarleton/Adv Stats/KS-subject-4.csv,legacy,Lentiform Loewenfeld,3.3.9,0,s,NA,h,NA,NA,s,396,NA,17727,NA,NA,396,2,legacy,1024,2,48000,-16,experiment,4,even,21721,NA,NA,122807,NA,NA,139545,138479,3988,NA,NA,139542,139649,3980,139649,140046,KS - Flanker Task,69,36530,70,yes,1024
Congruent,SSSSS,98.5915493,98.5915493,520.4788732,520.4788732,black,legacy,legacy,legacy,0,uniform,1,undefined,1,s,0,0,0,70,70,0,70,70,0,0,0,70,70,0,70,70,Sat Sep 25 19:46:10 2021,1500,The main experiment item,yes,KS - Flanker Task.osexp,/Users/kaylinsilva/Desktop/Life/Tarleton/Adv Stats,no,mono,no,18,no,white,no,yes,768,legacy,70,70,/Users/kaylinsilva/Desktop/Life/Tarleton/Adv Stats/KS-subject-4.csv,legacy,Lentiform Loewenfeld,3.3.9,0,s,NA,h,NA,NA,s,424,NA,17727,NA,NA,424,2,legacy,1024,2,48000,-16,experiment,4,even,21721,NA,NA,122807,NA,NA,141115,140049,3988,NA,NA,141112,141220,3980,141221,141646,KS - Flanker Task,70,36954,71,yes,1024
Incongruent,HHSHH,98.61111111,98.61111111,518.4583333,518.4583333,black,legacy,legacy,legacy,0,uniform,1,undefined,1,s,0,0,0,71,71,0,71,71,0,0,0,71,71,0,71,71,Sat Sep 25 19:46:10 2021,1500,The main experiment item,yes,KS - Flanker Task.osexp,/Users/kaylinsilva/Desktop/Life/Tarleton/Adv Stats,no,mono,no,18,no,white,no,yes,768,legacy,71,71,/Users/kaylinsilva/Desktop/Life/Tarleton/Adv Stats/KS-subject-4.csv,legacy,Lentiform Loewenfeld,3.3.9,0,s,NA,h,NA,NA,s,375,NA,17727,NA,NA,375,2,legacy,1024,2,48000,-16,experiment,4,even,21721,NA,NA,122807,NA,NA,142718,141649,3988,NA,NA,142715,142822,3980,142822,143198,KS - Flanker Task,71,37329,72,yes,1024
Incongruent,HHSHH,98.63013699,98.63013699,517.6027397,517.6027397,black,legacy,legacy,legacy,0,uniform,1,undefined,1,s,0,0,0,72,72,0,72,72,0,0,0,72,72,0,72,72,Sat Sep 25 19:46:10 2021,1500,The main experiment item,yes,KS - Flanker Task.osexp,/Users/kaylinsilva/Desktop/Life/Tarleton/Adv Stats,no,mono,no,18,no,white,no,yes,768,legacy,72,72,/Users/kaylinsilva/Desktop/Life/Tarleton/Adv Stats/KS-subject-4.csv,legacy,Lentiform Loewenfeld,3.3.9,0,s,NA,h,NA,NA,s,456,NA,17727,NA,NA,456,2,legacy,1024,2,48000,-16,experiment,4,even,21721,NA,NA,122807,NA,NA,144268,143201,3988,NA,NA,144265,144372,3980,144372,144828,KS - Flanker Task,72,37785,73,yes,1024
Congruent,HHHHH,98.64864865,98.64864865,517.1621622,517.1621622,black,legacy,legacy,legacy,0,uniform,1,undefined,1,h,0,0,0,73,73,0,73,73,0,0,0,73,73,0,73,73,Sat Sep 25 19:46:10 2021,1500,The main experiment item,yes,KS - Flanker Task.osexp,/Users/kaylinsilva/Desktop/Life/Tarleton/Adv Stats,no,mono,no,18,no,white,no,yes,768,legacy,73,73,/Users/kaylinsilva/Desktop/Life/Tarleton/Adv Stats/KS-subject-4.csv,legacy,Lentiform Loewenfeld,3.3.9,0,h,NA,h,NA,NA,h,485,NA,17727,NA,NA,485,2,legacy,1024,2,48000,-16,experiment,4,even,21721,NA,NA,122807,NA,NA,145898,144831,3988,NA,NA,145895,146002,3980,146002,146487,KS - Flanker Task,73,38270,74,yes,1024
Incongruent,HHSHH,98.66666667,98.66666667,515.32,515.32,black,legacy,legacy,legacy,0,uniform,1,undefined,1,s,0,0,0,74,74,0,74,74,0,0,0,74,74,0,74,74,Sat Sep 25 19:46:10 2021,1500,The main experiment item,yes,KS - Flanker Task.osexp,/Users/kaylinsilva/Desktop/Life/Tarleton/Adv Stats,no,mono,no,18,no,white,no,yes,768,legacy,74,74,/Users/kaylinsilva/Desktop/Life/Tarleton/Adv Stats/KS-subject-4.csv,legacy,Lentiform Loewenfeld,3.3.9,0,s,NA,h,NA,NA,s,379,NA,17727,NA,NA,379,2,legacy,1024,2,48000,-16,experiment,4,even,21721,NA,NA,122807,NA,NA,147557,146490,3988,NA,NA,147554,147661,3980,147661,148041,KS - Flanker Task,74,38649,75,yes,1024
Congruent,HHHHH,98.68421053,98.68421053,515.2763158,515.2763158,black,legacy,legacy,legacy,0,uniform,1,undefined,1,h,0,0,0,75,75,0,75,75,0,0,0,75,75,0,75,75,Sat Sep 25 19:46:10 2021,1500,The main experiment item,yes,KS - Flanker Task.osexp,/Users/kaylinsilva/Desktop/Life/Tarleton/Adv Stats,no,mono,no,18,no,white,no,yes,768,legacy,75,75,/Users/kaylinsilva/Desktop/Life/Tarleton/Adv Stats/KS-subject-4.csv,legacy,Lentiform Loewenfeld,3.3.9,0,h,NA,h,NA,NA,h,512,NA,17727,NA,NA,512,2,legacy,1024,2,48000,-16,experiment,4,even,21721,NA,NA,122807,NA,NA,149111,148044,3988,NA,NA,149108,149215,3980,149215,149727,KS - Flanker Task,75,39161,76,yes,1024
Incongruent,HHSHH,98.7012987,98.7012987,513.7792208,513.7792208,black,legacy,legacy,legacy,0,uniform,1,undefined,1,s,0,0,0,76,76,0,76,76,0,0,0,76,76,0,76,76,Sat Sep 25 19:46:10 2021,1500,The main experiment item,yes,KS - Flanker Task.osexp,/Users/kaylinsilva/Desktop/Life/Tarleton/Adv Stats,no,mono,no,18,no,white,no,yes,768,legacy,76,76,/Users/kaylinsilva/Desktop/Life/Tarleton/Adv Stats/KS-subject-4.csv,legacy,Lentiform Loewenfeld,3.3.9,0,s,NA,h,NA,NA,s,400,NA,17727,NA,NA,400,2,legacy,1024,2,48000,-16,experiment,4,even,21721,NA,NA,122807,NA,NA,150798,149731,3988,NA,NA,150795,150902,3980,150902,151303,KS - Flanker Task,76,39561,77,yes,1024
Congruent,SSSSS,98.71794872,98.71794872,513.1025641,513.1025641,black,legacy,legacy,legacy,0,uniform,1,undefined,1,s,0,0,0,77,77,0,77,77,0,0,0,77,77,0,77,77,Sat Sep 25 19:46:10 2021,1500,The main experiment item,yes,KS - Flanker Task.osexp,/Users/kaylinsilva/Desktop/Life/Tarleton/Adv Stats,no,mono,no,18,no,white,no,yes,768,legacy,77,77,/Users/kaylinsilva/Desktop/Life/Tarleton/Adv Stats/KS-subject-4.csv,legacy,Lentiform Loewenfeld,3.3.9,0,s,NA,h,NA,NA,s,461,NA,17727,NA,NA,461,2,legacy,1024,2,48000,-16,experiment,4,even,21721,NA,NA,122807,NA,NA,152373,151306,3988,NA,NA,152370,152477,3980,152477,152939,KS - Flanker Task,77,40022,78,yes,1024
Incongruent,HHSHH,98.73417722,98.73417722,512.1012658,512.1012658,black,legacy,legacy,legacy,0,uniform,1,undefined,1,s,0,0,0,78,78,0,78,78,0,0,0,78,78,0,78,78,Sat Sep 25 19:46:10 2021,1500,The main experiment item,yes,KS - Flanker Task.osexp,/Users/kaylinsilva/Desktop/Life/Tarleton/Adv Stats,no,mono,no,18,no,white,no,yes,768,legacy,78,78,/Users/kaylinsilva/Desktop/Life/Tarleton/Adv Stats/KS-subject-4.csv,legacy,Lentiform Loewenfeld,3.3.9,0,s,NA,h,NA,NA,s,434,NA,17727,NA,NA,434,2,legacy,1024,2,48000,-16,experiment,4,even,21721,NA,NA,122807,NA,NA,154009,152941,3988,NA,NA,154006,154113,3980,154113,154547,KS - Flanker Task,78,40456,79,yes,1024
Incongruent,SSHSS,98.75,98.75,512.55,512.55,black,legacy,legacy,legacy,0,uniform,1,undefined,1,h,0,0,0,79,79,0,79,79,0,0,0,79,79,0,79,79,Sat Sep 25 19:46:10 2021,1500,The main experiment item,yes,KS - Flanker Task.osexp,/Users/kaylinsilva/Desktop/Life/Tarleton/Adv Stats,no,mono,no,18,no,white,no,yes,768,legacy,79,79,/Users/kaylinsilva/Desktop/Life/Tarleton/Adv Stats/KS-subject-4.csv,legacy,Lentiform Loewenfeld,3.3.9,0,h,NA,h,NA,NA,h,548,NA,17727,NA,NA,548,2,legacy,1024,2,48000,-16,experiment,4,even,21721,NA,NA,122807,NA,NA,155618,154551,3988,NA,NA,155615,155722,3980,155722,156270,KS - Flanker Task,79,41004,80,yes,1024
Incongruent,SSHSS,98.7654321,98.7654321,514.4691358,514.4691358,black,legacy,legacy,legacy,0,uniform,1,undefined,1,h,0,0,0,80,80,0,80,80,0,0,0,80,80,0,80,80,Sat Sep 25 19:46:10 2021,600,The main experiment item,yes,KS - Flanker Task.osexp,/Users/kaylinsilva/Desktop/Life/Tarleton/Adv Stats,no,mono,no,18,no,white,no,yes,768,legacy,0,79,/Users/kaylinsilva/Desktop/Life/Tarleton/Adv Stats/KS-subject-4.csv,legacy,Lentiform Loewenfeld,3.3.9,0,h,NA,h,h,NA,h,668,NA,17727,14231,NA,668,2,legacy,1024,2,48000,-16,experiment,4,even,21721,171537,NA,122807,NA,NA,171562,156274,3988,157305,NA,171560,171666,3980,171667,172336,KS - Flanker Task,80,41672,81,yes,1024
Incongruent,SSHSS,98.7804878,98.7804878,513.3658537,513.3658537,black,legacy,legacy,legacy,0,uniform,1,undefined,1,h,0,0,0,81,81,0,81,81,0,0,0,81,81,0,81,81,Sat Sep 25 19:46:10 2021,600,The main experiment item,yes,KS - Flanker Task.osexp,/Users/kaylinsilva/Desktop/Life/Tarleton/Adv Stats,no,mono,no,18,no,white,no,yes,768,legacy,1,79,/Users/kaylinsilva/Desktop/Life/Tarleton/Adv Stats/KS-subject-4.csv,legacy,Lentiform Loewenfeld,3.3.9,0,h,NA,h,h,NA,h,424,NA,17727,14231,NA,424,2,legacy,1024,2,48000,-16,experiment,4,even,21721,171537,NA,122807,172339,NA,173910,172843,3988,157305,NA,173907,174014,3980,174014,174439,KS - Flanker Task,81,42096,82,yes,1024
Incongruent,HHSHH,97.59036145,97.59036145,511.3855422,511.3855422,black,legacy,legacy,legacy,0,uniform,0,undefined,0,s,0,0,0,82,82,0,82,82,0,0,0,82,82,0,82,82,Sat Sep 25 19:46:10 2021,600,The main experiment item,yes,KS - Flanker Task.osexp,/Users/kaylinsilva/Desktop/Life/Tarleton/Adv Stats,no,mono,no,18,no,white,no,yes,768,legacy,2,79,/Users/kaylinsilva/Desktop/Life/Tarleton/Adv Stats/KS-subject-4.csv,legacy,Lentiform Loewenfeld,3.3.9,0,h,NA,h,h,NA,h,349,NA,17727,14231,NA,349,2,legacy,1024,2,48000,-16,experiment,4,even,21721,171537,NA,122807,172339,NA,175509,174442,3988,157305,NA,175506,175613,3980,175613,175963,KS - Flanker Task,81,42445,83,yes,1024
Incongruent,HHSHH,97.61904762,97.61904762,510.3809524,510.3809524,black,legacy,legacy,legacy,0,uniform,1,undefined,1,s,0,0,0,83,83,0,83,83,0,0,0,83,83,0,83,83,Sat Sep 25 19:46:10 2021,600,The main experiment item,yes,KS - Flanker Task.osexp,/Users/kaylinsilva/Desktop/Life/Tarleton/Adv Stats,no,mono,no,18,no,white,no,yes,768,legacy,3,79,/Users/kaylinsilva/Desktop/Life/Tarleton/Adv Stats/KS-subject-4.csv,legacy,Lentiform Loewenfeld,3.3.9,0,s,NA,h,h,NA,s,427,NA,17727,14231,NA,427,2,legacy,1024,2,48000,-16,experiment,4,even,21721,171537,NA,175966,172339,NA,177542,176474,3988,157305,NA,177540,177646,3980,177646,178074,KS - Flanker Task,82,42872,84,yes,1024
Incongruent,SSHSS,96.47058824,96.47058824,508.7647059,508.7647059,black,legacy,legacy,legacy,0,uniform,0,undefined,0,h,0,0,0,84,84,0,84,84,0,0,0,84,84,0,84,84,Sat Sep 25 19:46:10 2021,600,The main experiment item,yes,KS - Flanker Task.osexp,/Users/kaylinsilva/Desktop/Life/Tarleton/Adv Stats,no,mono,no,18,no,white,no,yes,768,legacy,4,79,/Users/kaylinsilva/Desktop/Life/Tarleton/Adv Stats/KS-subject-4.csv,legacy,Lentiform Loewenfeld,3.3.9,0,s,NA,h,h,NA,s,373,NA,17727,14231,NA,373,2,legacy,1024,2,48000,-16,experiment,4,even,21721,171537,NA,175966,172339,NA,179144,178077,3988,157305,NA,179141,179248,3980,179248,179622,KS - Flanker Task,82,43245,85,yes,1024
Congruent,HHHHH,96.51162791,96.51162791,507.755814,507.755814,black,legacy,legacy,legacy,0,uniform,1,undefined,1,h,0,0,0,85,85,0,85,85,0,0,0,85,85,0,85,85,Sat Sep 25 19:46:10 2021,600,The main experiment item,yes,KS - Flanker Task.osexp,/Users/kaylinsilva/Desktop/Life/Tarleton/Adv Stats,no,mono,no,18,no,white,no,yes,768,legacy,5,79,/Users/kaylinsilva/Desktop/Life/Tarleton/Adv Stats/KS-subject-4.csv,legacy,Lentiform Loewenfeld,3.3.9,0,h,NA,h,h,NA,h,422,NA,17727,14231,NA,422,2,legacy,1024,2,48000,-16,experiment,4,even,21721,171537,NA,179625,172339,NA,181210,180130,3988,157305,NA,181207,181314,3980,181314,181737,KS - Flanker Task,83,43667,86,yes,1024
Congruent,SSSSS,96.55172414,96.55172414,505.6551724,505.6551724,black,legacy,legacy,legacy,0,uniform,1,undefined,1,s,0,0,0,86,86,0,86,86,0,0,0,86,86,0,86,86,Sat Sep 25 19:46:10 2021,600,The main experiment item,yes,KS - Flanker Task.osexp,/Users/kaylinsilva/Desktop/Life/Tarleton/Adv Stats,no,mono,no,18,no,white,no,yes,768,legacy,6,79,/Users/kaylinsilva/Desktop/Life/Tarleton/Adv Stats/KS-subject-4.csv,legacy,Lentiform Loewenfeld,3.3.9,0,s,NA,h,h,NA,s,325,NA,17727,14231,NA,325,2,legacy,1024,2,48000,-16,experiment,4,even,21721,171537,NA,179625,172339,NA,182807,181740,3988,157305,NA,182804,182911,3980,182911,183237,KS - Flanker Task,84,43992,87,yes,1024
Incongruent,SSHSS,95.45454545,95.45454545,503.5681818,503.5681818,black,legacy,legacy,legacy,0,uniform,0,undefined,0,h,0,0,0,87,87,0,87,87,0,0,0,87,87,0,87,87,Sat Sep 25 19:46:10 2021,600,The main experiment item,yes,KS - Flanker Task.osexp,/Users/kaylinsilva/Desktop/Life/Tarleton/Adv Stats,no,mono,no,18,no,white,no,yes,768,legacy,7,79,/Users/kaylinsilva/Desktop/Life/Tarleton/Adv Stats/KS-subject-4.csv,legacy,Lentiform Loewenfeld,3.3.9,0,s,NA,h,h,NA,s,322,NA,17727,14231,NA,322,2,legacy,1024,2,48000,-16,experiment,4,even,21721,171537,NA,179625,172339,NA,184307,183240,3988,157305,NA,184304,184411,3980,184411,184734,KS - Flanker Task,84,44314,88,yes,1024
Incongruent,HHSHH,95.50561798,95.50561798,503.494382,503.494382,black,legacy,legacy,legacy,0,uniform,1,undefined,1,s,0,0,0,88,88,0,88,88,0,0,0,88,88,0,88,88,Sat Sep 25 19:46:10 2021,600,The main experiment item,yes,KS - Flanker Task.osexp,/Users/kaylinsilva/Desktop/Life/Tarleton/Adv Stats,no,mono,no,18,no,white,no,yes,768,legacy,8,79,/Users/kaylinsilva/Desktop/Life/Tarleton/Adv Stats/KS-subject-4.csv,legacy,Lentiform Loewenfeld,3.3.9,0,s,NA,h,h,NA,s,497,NA,17727,14231,NA,497,2,legacy,1024,2,48000,-16,experiment,4,even,21721,171537,NA,184737,172339,NA,186308,185241,3988,157305,NA,186305,186412,3980,186412,186910,KS - Flanker Task,85,44811,89,yes,1024
Incongruent,SSHSS,95.55555556,95.55555556,503.9555556,503.9555556,black,legacy,legacy,legacy,0,uniform,1,undefined,1,h,0,0,0,89,89,0,89,89,0,0,0,89,89,0,89,89,Sat Sep 25 19:46:10 2021,600,The main experiment item,yes,KS - Flanker Task.osexp,/Users/kaylinsilva/Desktop/Life/Tarleton/Adv Stats,no,mono,no,18,no,white,no,yes,768,legacy,9,79,/Users/kaylinsilva/Desktop/Life/Tarleton/Adv Stats/KS-subject-4.csv,legacy,Lentiform Loewenfeld,3.3.9,0,h,NA,h,h,NA,h,545,NA,17727,14231,NA,545,2,legacy,1024,2,48000,-16,experiment,4,even,21721,171537,NA,184737,172339,NA,187981,186913,3988,157305,NA,187978,188085,3980,188085,188631,KS - Flanker Task,86,45356,90,yes,1024
Congruent,HHHHH,95.6043956,95.6043956,503.2527473,503.2527473,black,legacy,legacy,legacy,0,uniform,1,undefined,1,h,0,0,0,90,90,0,90,90,0,0,0,90,90,0,90,90,Sat Sep 25 19:46:10 2021,600,The main experiment item,yes,KS - Flanker Task.osexp,/Users/kaylinsilva/Desktop/Life/Tarleton/Adv Stats,no,mono,no,18,no,white,no,yes,768,legacy,10,79,/Users/kaylinsilva/Desktop/Life/Tarleton/Adv Stats/KS-subject-4.csv,legacy,Lentiform Loewenfeld,3.3.9,0,h,NA,h,h,NA,h,440,NA,17727,14231,NA,440,2,legacy,1024,2,48000,-16,experiment,4,even,21721,171537,NA,184737,172339,NA,189701,188634,3988,157305,NA,189698,189805,3980,189805,190246,KS - Flanker Task,87,45796,91,yes,1024
Congruent,HHHHH,95.65217391,95.65217391,501.8804348,501.8804348,black,legacy,legacy,legacy,0,uniform,1,undefined,1,h,0,0,0,91,91,0,91,91,0,0,0,91,91,0,91,91,Sat Sep 25 19:46:10 2021,600,The main experiment item,yes,KS - Flanker Task.osexp,/Users/kaylinsilva/Desktop/Life/Tarleton/Adv Stats,no,mono,no,18,no,white,no,yes,768,legacy,11,79,/Users/kaylinsilva/Desktop/Life/Tarleton/Adv Stats/KS-subject-4.csv,legacy,Lentiform Loewenfeld,3.3.9,0,h,NA,h,h,NA,h,377,NA,17727,14231,NA,377,2,legacy,1024,2,48000,-16,experiment,4,even,21721,171537,NA,184737,172339,NA,191317,190249,3988,157305,NA,191314,191421,3980,191422,191800,KS - Flanker Task,88,46173,92,yes,1024
Congruent,SSSSS,95.69892473,95.69892473,501.3333333,501.3333333,black,legacy,legacy,legacy,0,uniform,1,undefined,1,s,0,0,0,92,92,0,92,92,0,0,0,92,92,0,92,92,Sat Sep 25 19:46:10 2021,600,The main experiment item,yes,KS - Flanker Task.osexp,/Users/kaylinsilva/Desktop/Life/Tarleton/Adv Stats,no,mono,no,18,no,white,no,yes,768,legacy,12,79,/Users/kaylinsilva/Desktop/Life/Tarleton/Adv Stats/KS-subject-4.csv,legacy,Lentiform Loewenfeld,3.3.9,0,s,NA,h,h,NA,s,451,NA,17727,14231,NA,451,2,legacy,1024,2,48000,-16,experiment,4,even,21721,171537,NA,184737,172339,NA,192870,191803,3988,157305,NA,192867,192974,3980,192974,193426,KS - Flanker Task,89,46624,93,yes,1024
Congruent,SSSSS,95.74468085,95.74468085,500.106383,500.106383,black,legacy,legacy,legacy,0,uniform,1,undefined,1,s,0,0,0,93,93,0,93,93,0,0,0,93,93,0,93,93,Sat Sep 25 19:46:10 2021,600,The main experiment item,yes,KS - Flanker Task.osexp,/Users/kaylinsilva/Desktop/Life/Tarleton/Adv Stats,no,mono,no,18,no,white,no,yes,768,legacy,13,79,/Users/kaylinsilva/Desktop/Life/Tarleton/Adv Stats/KS-subject-4.csv,legacy,Lentiform Loewenfeld,3.3.9,0,s,NA,h,h,NA,s,386,NA,17727,14231,NA,386,2,legacy,1024,2,48000,-16,experiment,4,even,21721,171537,NA,184737,172339,NA,194496,193429,3988,157305,NA,194493,194600,3980,194600,194986,KS - Flanker Task,90,47010,94,yes,1024
Congruent,HHHHH,95.78947368,95.78947368,499.1368421,499.1368421,black,legacy,legacy,legacy,0,uniform,1,undefined,1,h,0,0,0,94,94,0,94,94,0,0,0,94,94,0,94,94,Sat Sep 25 19:46:10 2021,600,The main experiment item,yes,KS - Flanker Task.osexp,/Users/kaylinsilva/Desktop/Life/Tarleton/Adv Stats,no,mono,no,18,no,white,no,yes,768,legacy,14,79,/Users/kaylinsilva/Desktop/Life/Tarleton/Adv Stats/KS-subject-4.csv,legacy,Lentiform Loewenfeld,3.3.9,0,h,NA,h,h,NA,h,408,NA,17727,14231,NA,408,2,legacy,1024,2,48000,-16,experiment,4,even,21721,171537,NA,184737,172339,NA,196057,194990,3988,157305,NA,196054,196161,3980,196161,196570,KS - Flanker Task,91,47418,95,yes,1024
Incongruent,SSHSS,95.83333333,95.83333333,499.2708333,499.2708333,black,legacy,legacy,legacy,0,uniform,1,undefined,1,h,0,0,0,95,95,0,95,95,0,0,0,95,95,0,95,95,Sat Sep 25 19:46:10 2021,600,The main experiment item,yes,KS - Flanker Task.osexp,/Users/kaylinsilva/Desktop/Life/Tarleton/Adv Stats,no,mono,no,18,no,white,no,yes,768,legacy,15,79,/Users/kaylinsilva/Desktop/Life/Tarleton/Adv Stats/KS-subject-4.csv,legacy,Lentiform Loewenfeld,3.3.9,0,h,NA,h,h,NA,h,512,NA,17727,14231,NA,512,2,legacy,1024,2,48000,-16,experiment,4,even,21721,171537,NA,184737,172339,NA,197640,196573,3988,157305,NA,197637,197744,3980,197744,198257,KS - Flanker Task,92,47930,96,yes,1024
Incongruent,HHSHH,95.87628866,95.87628866,498.3298969,498.3298969,black,legacy,legacy,legacy,0,uniform,1,undefined,1,s,0,0,0,96,96,0,96,96,0,0,0,96,96,0,96,96,Sat Sep 25 19:46:10 2021,600,The main experiment item,yes,KS - Flanker Task.osexp,/Users/kaylinsilva/Desktop/Life/Tarleton/Adv Stats,no,mono,no,18,no,white,no,yes,768,legacy,16,79,/Users/kaylinsilva/Desktop/Life/Tarleton/Adv Stats/KS-subject-4.csv,legacy,Lentiform Loewenfeld,3.3.9,0,s,NA,h,h,NA,s,408,NA,17727,14231,NA,408,2,legacy,1024,2,48000,-16,experiment,4,even,21721,171537,NA,184737,172339,NA,199327,198260,3988,157305,NA,199324,199431,3980,199431,199840,KS - Flanker Task,93,48338,97,yes,1024
Incongruent,HHSHH,95.91836735,95.91836735,498.5918367,498.5918367,black,legacy,legacy,legacy,0,uniform,1,undefined,1,s,0,0,0,97,97,0,97,97,0,0,0,97,97,0,97,97,Sat Sep 25 19:46:10 2021,600,The main experiment item,yes,KS - Flanker Task.osexp,/Users/kaylinsilva/Desktop/Life/Tarleton/Adv Stats,no,mono,no,18,no,white,no,yes,768,legacy,17,79,/Users/kaylinsilva/Desktop/Life/Tarleton/Adv Stats/KS-subject-4.csv,legacy,Lentiform Loewenfeld,3.3.9,0,s,NA,h,h,NA,s,524,NA,17727,14231,NA,524,2,legacy,1024,2,48000,-16,experiment,4,even,21721,171537,NA,184737,172339,NA,200909,199843,3988,157305,NA,200907,201014,3980,201014,201539,KS - Flanker Task,94,48862,98,yes,1024
Incongruent,SSHSS,95.95959596,95.95959596,498.2929293,498.2929293,black,legacy,legacy,legacy,0,uniform,1,undefined,1,h,0,0,0,98,98,0,98,98,0,0,0,98,98,0,98,98,Sat Sep 25 19:46:10 2021,600,The main experiment item,yes,KS - Flanker Task.osexp,/Users/kaylinsilva/Desktop/Life/Tarleton/Adv Stats,no,mono,no,18,no,white,no,yes,768,legacy,18,79,/Users/kaylinsilva/Desktop/Life/Tarleton/Adv Stats/KS-subject-4.csv,legacy,Lentiform Loewenfeld,3.3.9,0,h,NA,h,h,NA,h,469,NA,17727,14231,NA,469,2,legacy,1024,2,48000,-16,experiment,4,even,21721,171537,NA,184737,172339,NA,202610,201542,3988,157305,NA,202606,202714,3980,202714,203184,KS - Flanker Task,95,49331,99,yes,1024
Incongruent,SSHSS,96,96,498.04,498.04,black,legacy,legacy,legacy,0,uniform,1,undefined,1,h,0,0,0,99,99,0,99,99,0,0,0,99,99,0,99,99,Sat Sep 25 19:46:10 2021,600,The main experiment item,yes,KS - Flanker Task.osexp,/Users/kaylinsilva/Desktop/Life/Tarleton/Adv Stats,no,mono,no,18,no,white,no,yes,768,legacy,19,79,/Users/kaylinsilva/Desktop/Life/Tarleton/Adv Stats/KS-subject-4.csv,legacy,Lentiform Loewenfeld,3.3.9,0,h,NA,h,h,NA,h,473,NA,17727,14231,NA,473,2,legacy,1024,2,48000,-16,experiment,4,even,21721,171537,NA,184737,172339,NA,204252,203187,3988,157305,NA,204249,204356,3980,204356,204830,KS - Flanker Task,96,49804,100,yes,1024
Incongruent,SSHSS,96.03960396,96.03960396,496.2475248,496.2475248,black,legacy,legacy,legacy,0,uniform,1,undefined,1,h,0,0,0,100,100,0,100,100,0,0,0,100,100,0,100,100,Sat Sep 25 19:46:10 2021,600,The main experiment item,yes,KS - Flanker Task.osexp,/Users/kaylinsilva/Desktop/Life/Tarleton/Adv Stats,no,mono,no,18,no,white,no,yes,768,legacy,20,79,/Users/kaylinsilva/Desktop/Life/Tarleton/Adv Stats/KS-subject-4.csv,legacy,Lentiform Loewenfeld,3.3.9,0,h,NA,h,h,NA,h,317,NA,17727,14231,NA,317,2,legacy,1024,2,48000,-16,experiment,4,even,21721,171537,NA,184737,172339,NA,205900,204834,3988,157305,NA,205897,206004,3980,206004,206322,KS - Flanker Task,97,50121,101,yes,1024
Incongruent,HHSHH,96.07843137,96.07843137,496.0490196,496.0490196,black,legacy,legacy,legacy,0,uniform,1,undefined,1,s,0,0,0,101,101,0,101,101,0,0,0,101,101,0,101,101,Sat Sep 25 19:46:10 2021,600,The main experiment item,yes,KS - Flanker Task.osexp,/Users/kaylinsilva/Desktop/Life/Tarleton/Adv Stats,no,mono,no,18,no,white,no,yes,768,legacy,21,79,/Users/kaylinsilva/Desktop/Life/Tarleton/Adv Stats/KS-subject-4.csv,legacy,Lentiform Loewenfeld,3.3.9,0,s,NA,h,h,NA,s,476,NA,17727,14231,NA,476,2,legacy,1024,2,48000,-16,experiment,4,even,21721,171537,NA,184737,172339,NA,207392,206325,3988,157305,NA,207389,207496,3980,207496,207973,KS - Flanker Task,98,50597,102,yes,1024
Incongruent,HHSHH,96.11650485,96.11650485,496.9320388,496.9320388,black,legacy,legacy,legacy,0,uniform,1,undefined,1,s,0,0,0,102,102,0,102,102,0,0,0,102,102,0,102,102,Sat Sep 25 19:46:10 2021,600,The main experiment item,yes,KS - Flanker Task.osexp,/Users/kaylinsilva/Desktop/Life/Tarleton/Adv Stats,no,mono,no,18,no,white,no,yes,768,legacy,22,79,/Users/kaylinsilva/Desktop/Life/Tarleton/Adv Stats/KS-subject-4.csv,legacy,Lentiform Loewenfeld,3.3.9,0,s,NA,h,h,NA,s,587,NA,17727,14231,NA,587,2,legacy,1024,2,48000,-16,experiment,4,even,21721,171537,NA,184737,172339,NA,209044,207976,3988,157305,NA,209041,209148,3980,209148,209736,KS - Flanker Task,99,51184,103,yes,1024
Incongruent,SSHSS,96.15384615,96.15384615,496.3846154,496.3846154,black,legacy,legacy,legacy,0,uniform,1,undefined,1,h,0,0,0,103,103,0,103,103,0,0,0,103,103,0,103,103,Sat Sep 25 19:46:10 2021,600,The main experiment item,yes,KS - Flanker Task.osexp,/Users/kaylinsilva/Desktop/Life/Tarleton/Adv Stats,no,mono,no,18,no,white,no,yes,768,legacy,23,79,/Users/kaylinsilva/Desktop/Life/Tarleton/Adv Stats/KS-subject-4.csv,legacy,Lentiform Loewenfeld,3.3.9,0,h,NA,h,h,NA,h,440,NA,17727,14231,NA,440,2,legacy,1024,2,48000,-16,experiment,4,even,21721,171537,NA,184737,172339,NA,210806,209739,3988,157305,NA,210803,210910,3980,210910,211351,KS - Flanker Task,100,51624,104,yes,1024
Congruent,SSSSS,96.19047619,96.19047619,494.6380952,494.6380952,black,legacy,legacy,legacy,0,uniform,1,undefined,1,s,0,0,0,104,104,0,104,104,0,0,0,104,104,0,104,104,Sat Sep 25 19:46:10 2021,600,The main experiment item,yes,KS - Flanker Task.osexp,/Users/kaylinsilva/Desktop/Life/Tarleton/Adv Stats,no,mono,no,18,no,white,no,yes,768,legacy,24,79,/Users/kaylinsilva/Desktop/Life/Tarleton/Adv Stats/KS-subject-4.csv,legacy,Lentiform Loewenfeld,3.3.9,0,s,NA,h,h,NA,s,313,NA,17727,14231,NA,313,2,legacy,1024,2,48000,-16,experiment,4,even,21721,171537,NA,184737,172339,NA,212422,211354,3988,157305,NA,212419,212526,3980,212526,212840,KS - Flanker Task,101,51937,105,yes,1024
Congruent,HHHHH,96.22641509,96.22641509,493.9811321,493.9811321,black,legacy,legacy,legacy,0,uniform,1,undefined,1,h,0,0,0,105,105,0,105,105,0,0,0,105,105,0,105,105,Sat Sep 25 19:46:10 2021,600,The main experiment item,yes,KS - Flanker Task.osexp,/Users/kaylinsilva/Desktop/Life/Tarleton/Adv Stats,no,mono,no,18,no,white,no,yes,768,legacy,25,79,/Users/kaylinsilva/Desktop/Life/Tarleton/Adv Stats/KS-subject-4.csv,legacy,Lentiform Loewenfeld,3.3.9,0,h,NA,h,h,NA,h,425,NA,17727,14231,NA,425,2,legacy,1024,2,48000,-16,experiment,4,even,21721,171537,NA,184737,172339,NA,213910,212843,3988,157305,NA,213907,214014,3980,214014,214440,KS - Flanker Task,102,52362,106,yes,1024
Congruent,HHHHH,96.26168224,96.26168224,493.8411215,493.8411215,black,legacy,legacy,legacy,0,uniform,1,undefined,1,h,0,0,0,106,106,0,106,106,0,0,0,106,106,0,106,106,Sat Sep 25 19:46:10 2021,600,The main experiment item,yes,KS - Flanker Task.osexp,/Users/kaylinsilva/Desktop/Life/Tarleton/Adv Stats,no,mono,no,18,no,white,no,yes,768,legacy,26,79,/Users/kaylinsilva/Desktop/Life/Tarleton/Adv Stats/KS-subject-4.csv,legacy,Lentiform Loewenfeld,3.3.9,0,h,NA,h,h,NA,h,479,NA,17727,14231,NA,479,2,legacy,1024,2,48000,-16,experiment,4,even,21721,171537,NA,184737,172339,NA,215509,214443,3988,157305,NA,215506,215614,3980,215614,216094,KS - Flanker Task,103,52841,107,yes,1024
Congruent,HHHHH,96.2962963,96.2962963,493.1851852,493.1851852,black,legacy,legacy,legacy,0,uniform,1,undefined,1,h,0,0,0,107,107,0,107,107,0,0,0,107,107,0,107,107,Sat Sep 25 19:46:10 2021,600,The main experiment item,yes,KS - Flanker Task.osexp,/Users/kaylinsilva/Desktop/Life/Tarleton/Adv Stats,no,mono,no,18,no,white,no,yes,768,legacy,27,79,/Users/kaylinsilva/Desktop/Life/Tarleton/Adv Stats/KS-subject-4.csv,legacy,Lentiform Loewenfeld,3.3.9,0,h,NA,h,h,NA,h,423,NA,17727,14231,NA,423,2,legacy,1024,2,48000,-16,experiment,4,even,21721,171537,NA,184737,172339,NA,217164,216098,3988,157305,NA,217161,217269,3980,217269,217693,KS - Flanker Task,104,53264,108,yes,1024
Incongruent,HHSHH,96.33027523,96.33027523,492.8807339,492.8807339,black,legacy,legacy,legacy,0,uniform,1,undefined,1,s,0,0,0,108,108,0,108,108,0,0,0,108,108,0,108,108,Sat Sep 25 19:46:10 2021,600,The main experiment item,yes,KS - Flanker Task.osexp,/Users/kaylinsilva/Desktop/Life/Tarleton/Adv Stats,no,mono,no,18,no,white,no,yes,768,legacy,28,79,/Users/kaylinsilva/Desktop/Life/Tarleton/Adv Stats/KS-subject-4.csv,legacy,Lentiform Loewenfeld,3.3.9,0,s,NA,h,h,NA,s,460,NA,17727,14231,NA,460,2,legacy,1024,2,48000,-16,experiment,4,even,21721,171537,NA,184737,172339,NA,218777,217696,3988,157305,NA,218773,218881,3980,218881,219342,KS - Flanker Task,105,53724,109,yes,1024
Incongruent,HHSHH,96.36363636,96.36363636,492.9,492.9,black,legacy,legacy,legacy,0,uniform,1,undefined,1,s,0,0,0,109,109,0,109,109,0,0,0,109,109,0,109,109,Sat Sep 25 19:46:10 2021,600,The main experiment item,yes,KS - Flanker Task.osexp,/Users/kaylinsilva/Desktop/Life/Tarleton/Adv Stats,no,mono,no,18,no,white,no,yes,768,legacy,29,79,/Users/kaylinsilva/Desktop/Life/Tarleton/Adv Stats/KS-subject-4.csv,legacy,Lentiform Loewenfeld,3.3.9,0,s,NA,h,h,NA,s,495,NA,17727,14231,NA,495,2,legacy,1024,2,48000,-16,experiment,4,even,21721,171537,NA,184737,172339,NA,220396,219345,3988,157305,NA,220393,220500,3980,220500,220996,KS - Flanker Task,106,54219,110,yes,1024
Incongruent,SSHSS,96.3963964,96.3963964,492.6666667,492.6666667,black,legacy,legacy,legacy,0,uniform,1,undefined,1,h,0,0,0,110,110,0,110,110,0,0,0,110,110,0,110,110,Sat Sep 25 19:46:10 2021,600,The main experiment item,yes,KS - Flanker Task.osexp,/Users/kaylinsilva/Desktop/Life/Tarleton/Adv Stats,no,mono,no,18,no,white,no,yes,768,legacy,30,79,/Users/kaylinsilva/Desktop/Life/Tarleton/Adv Stats/KS-subject-4.csv,legacy,Lentiform Loewenfeld,3.3.9,0,h,NA,h,h,NA,h,467,NA,17727,14231,NA,467,2,legacy,1024,2,48000,-16,experiment,4,even,21721,171537,NA,184737,172339,NA,222068,221000,3988,157305,NA,222064,222172,3980,222172,222640,KS - Flanker Task,107,54686,111,yes,1024
Congruent,HHHHH,96.42857143,96.42857143,492.4285714,492.4285714,black,legacy,legacy,legacy,0,uniform,1,undefined,1,h,0,0,0,111,111,0,111,111,0,0,0,111,111,0,111,111,Sat Sep 25 19:46:10 2021,600,The main experiment item,yes,KS - Flanker Task.osexp,/Users/kaylinsilva/Desktop/Life/Tarleton/Adv Stats,no,mono,no,18,no,white,no,yes,768,legacy,31,79,/Users/kaylinsilva/Desktop/Life/Tarleton/Adv Stats/KS-subject-4.csv,legacy,Lentiform Loewenfeld,3.3.9,0,h,NA,h,h,NA,h,466,NA,17727,14231,NA,466,2,legacy,1024,2,48000,-16,experiment,4,even,21721,171537,NA,184737,172339,NA,223711,222643,3988,157305,NA,223707,223816,3980,223816,224283,KS - Flanker Task,108,55152,112,yes,1024
Incongruent,HHSHH,96.46017699,96.46017699,491.9292035,491.9292035,black,legacy,legacy,legacy,0,uniform,1,undefined,1,s,0,0,0,112,112,0,112,112,0,0,0,112,112,0,112,112,Sat Sep 25 19:46:10 2021,600,The main experiment item,yes,KS - Flanker Task.osexp,/Users/kaylinsilva/Desktop/Life/Tarleton/Adv Stats,no,mono,no,18,no,white,no,yes,768,legacy,32,79,/Users/kaylinsilva/Desktop/Life/Tarleton/Adv Stats/KS-subject-4.csv,legacy,Lentiform Loewenfeld,3.3.9,0,s,NA,h,h,NA,s,436,NA,17727,14231,NA,436,2,legacy,1024,2,48000,-16,experiment,4,even,21721,171537,NA,184737,172339,NA,225355,224286,3988,157305,NA,225351,225459,3980,225459,225895,KS - Flanker Task,109,55588,113,yes,1024
Congruent,SSSSS,96.49122807,96.49122807,491.2368421,491.2368421,black,legacy,legacy,legacy,0,uniform,1,undefined,1,s,0,0,0,113,113,0,113,113,0,0,0,113,113,0,113,113,Sat Sep 25 19:46:10 2021,600,The main experiment item,yes,KS - Flanker Task.osexp,/Users/kaylinsilva/Desktop/Life/Tarleton/Adv Stats,no,mono,no,18,no,white,no,yes,768,legacy,33,79,/Users/kaylinsilva/Desktop/Life/Tarleton/Adv Stats/KS-subject-4.csv,legacy,Lentiform Loewenfeld,3.3.9,0,s,NA,h,h,NA,s,413,NA,17727,14231,NA,413,2,legacy,1024,2,48000,-16,experiment,4,even,21721,171537,NA,184737,172339,NA,226966,225899,3988,157305,NA,226963,227071,3980,227071,227485,KS - Flanker Task,110,56001,114,yes,1024
Incongruent,SSHSS,96.52173913,96.52173913,491.2956522,491.2956522,black,legacy,legacy,legacy,0,uniform,1,undefined,1,h,0,0,0,114,114,0,114,114,0,0,0,114,114,0,114,114,Sat Sep 25 19:46:10 2021,600,The main experiment item,yes,KS - Flanker Task.osexp,/Users/kaylinsilva/Desktop/Life/Tarleton/Adv Stats,no,mono,no,18,no,white,no,yes,768,legacy,34,79,/Users/kaylinsilva/Desktop/Life/Tarleton/Adv Stats/KS-subject-4.csv,legacy,Lentiform Loewenfeld,3.3.9,0,h,NA,h,h,NA,h,498,NA,17727,14231,NA,498,2,legacy,1024,2,48000,-16,experiment,4,even,21721,171537,NA,184737,172339,NA,228555,227488,3988,157305,NA,228552,228659,3980,228659,229158,KS - Flanker Task,111,56499,115,yes,1024
Congruent,SSSSS,96.55172414,96.55172414,490.4310345,490.4310345,black,legacy,legacy,legacy,0,uniform,1,undefined,1,s,0,0,0,115,115,0,115,115,0,0,0,115,115,0,115,115,Sat Sep 25 19:46:10 2021,600,The main experiment item,yes,KS - Flanker Task.osexp,/Users/kaylinsilva/Desktop/Life/Tarleton/Adv Stats,no,mono,no,18,no,white,no,yes,768,legacy,35,79,/Users/kaylinsilva/Desktop/Life/Tarleton/Adv Stats/KS-subject-4.csv,legacy,Lentiform Loewenfeld,3.3.9,0,s,NA,h,h,NA,s,391,NA,17727,14231,NA,391,2,legacy,1024,2,48000,-16,experiment,4,even,21721,171537,NA,184737,172339,NA,230228,229161,3988,157305,NA,230225,230335,3980,230336,230728,KS - Flanker Task,112,56890,116,yes,1024
Congruent,SSSSS,96.58119658,96.58119658,489.4358974,489.4358974,black,legacy,legacy,legacy,0,uniform,1,undefined,1,s,0,0,0,116,116,0,116,116,0,0,0,116,116,0,116,116,Sat Sep 25 19:46:10 2021,600,The main experiment item,yes,KS - Flanker Task.osexp,/Users/kaylinsilva/Desktop/Life/Tarleton/Adv Stats,no,mono,no,18,no,white,no,yes,768,legacy,36,79,/Users/kaylinsilva/Desktop/Life/Tarleton/Adv Stats/KS-subject-4.csv,legacy,Lentiform Loewenfeld,3.3.9,0,s,NA,h,h,NA,s,374,NA,17727,14231,NA,374,2,legacy,1024,2,48000,-16,experiment,4,even,21721,171537,NA,184737,172339,NA,231798,230731,3988,157305,NA,231795,231902,3980,231902,232277,KS - Flanker Task,113,57264,117,yes,1024
Congruent,HHHHH,96.61016949,96.61016949,488.7966102,488.7966102,black,legacy,legacy,legacy,0,uniform,1,undefined,1,h,0,0,0,117,117,0,117,117,0,0,0,117,117,0,117,117,Sat Sep 25 19:46:10 2021,600,The main experiment item,yes,KS - Flanker Task.osexp,/Users/kaylinsilva/Desktop/Life/Tarleton/Adv Stats,no,mono,no,18,no,white,no,yes,768,legacy,37,79,/Users/kaylinsilva/Desktop/Life/Tarleton/Adv Stats/KS-subject-4.csv,legacy,Lentiform Loewenfeld,3.3.9,0,h,NA,h,h,NA,h,414,NA,17727,14231,NA,414,2,legacy,1024,2,48000,-16,experiment,4,even,21721,171537,NA,184737,172339,NA,233349,232282,3988,157305,NA,233346,233453,3980,233453,233869,KS - Flanker Task,114,57678,118,yes,1024
Incongruent,HHSHH,96.63865546,96.63865546,488.1680672,488.1680672,black,legacy,legacy,legacy,0,uniform,1,undefined,1,s,0,0,0,118,118,0,118,118,0,0,0,118,118,0,118,118,Sat Sep 25 19:46:10 2021,600,The main experiment item,yes,KS - Flanker Task.osexp,/Users/kaylinsilva/Desktop/Life/Tarleton/Adv Stats,no,mono,no,18,no,white,no,yes,768,legacy,38,79,/Users/kaylinsilva/Desktop/Life/Tarleton/Adv Stats/KS-subject-4.csv,legacy,Lentiform Loewenfeld,3.3.9,0,s,NA,h,h,NA,s,414,NA,17727,14231,NA,414,2,legacy,1024,2,48000,-16,experiment,4,even,21721,171537,NA,184737,172339,NA,234939,233872,3988,157305,NA,234936,235043,3980,235043,235459,KS - Flanker Task,115,58092,119,yes,1024
Congruent,SSSSS,96.66666667,96.66666667,487.8333333,487.8333333,black,legacy,legacy,legacy,0,uniform,1,undefined,1,s,0,0,0,119,119,0,119,119,0,0,0,119,119,0,119,119,Sat Sep 25 19:46:10 2021,600,The main experiment item,yes,KS - Flanker Task.osexp,/Users/kaylinsilva/Desktop/Life/Tarleton/Adv Stats,no,mono,no,18,no,white,no,yes,768,legacy,39,79,/Users/kaylinsilva/Desktop/Life/Tarleton/Adv Stats/KS-subject-4.csv,legacy,Lentiform Loewenfeld,3.3.9,0,s,NA,h,h,NA,s,448,NA,17727,14231,NA,448,2,legacy,1024,2,48000,-16,experiment,4,even,21721,171537,NA,184737,172339,NA,236529,235462,3988,157305,NA,236526,236633,3980,236633,237082,KS - Flanker Task,116,58540,120,yes,1024
Congruent,HHHHH,96.69421488,96.69421488,486.9504132,486.9504132,black,legacy,legacy,legacy,0,uniform,1,undefined,1,h,0,0,0,120,120,0,120,120,0,0,0,120,120,0,120,120,Sat Sep 25 19:46:10 2021,600,The main experiment item,yes,KS - Flanker Task.osexp,/Users/kaylinsilva/Desktop/Life/Tarleton/Adv Stats,no,mono,no,18,no,white,no,yes,768,legacy,40,79,/Users/kaylinsilva/Desktop/Life/Tarleton/Adv Stats/KS-subject-4.csv,legacy,Lentiform Loewenfeld,3.3.9,0,h,NA,h,h,NA,h,381,NA,17727,14231,NA,381,2,legacy,1024,2,48000,-16,experiment,4,even,21721,171537,NA,184737,172339,NA,238152,237085,3988,157305,NA,238149,238257,3980,238257,238639,KS - Flanker Task,117,58921,121,yes,1024
Congruent,SSSSS,96.72131148,96.72131148,485.9180328,485.9180328,black,legacy,legacy,legacy,0,uniform,1,undefined,1,s,0,0,0,121,121,0,121,121,0,0,0,121,121,0,121,121,Sat Sep 25 19:46:10 2021,600,The main experiment item,yes,KS - Flanker Task.osexp,/Users/kaylinsilva/Desktop/Life/Tarleton/Adv Stats,no,mono,no,18,no,white,no,yes,768,legacy,41,79,/Users/kaylinsilva/Desktop/Life/Tarleton/Adv Stats/KS-subject-4.csv,legacy,Lentiform Loewenfeld,3.3.9,0,s,NA,h,h,NA,s,361,NA,17727,14231,NA,361,2,legacy,1024,2,48000,-16,experiment,4,even,21721,171537,NA,184737,172339,NA,239709,238642,3988,157305,NA,239706,239813,3980,239813,240175,KS - Flanker Task,118,59282,122,yes,1024
Incongruent,SSHSS,96.74796748,96.74796748,486.1463415,486.1463415,black,legacy,legacy,legacy,0,uniform,1,undefined,1,h,0,0,0,122,122,0,122,122,0,0,0,122,122,0,122,122,Sat Sep 25 19:46:10 2021,600,The main experiment item,yes,KS - Flanker Task.osexp,/Users/kaylinsilva/Desktop/Life/Tarleton/Adv Stats,no,mono,no,18,no,white,no,yes,768,legacy,42,79,/Users/kaylinsilva/Desktop/Life/Tarleton/Adv Stats/KS-subject-4.csv,legacy,Lentiform Loewenfeld,3.3.9,0,h,NA,h,h,NA,h,514,NA,17727,14231,NA,514,2,legacy,1024,2,48000,-16,experiment,4,even,21721,171537,NA,184737,172339,NA,241245,240178,3988,157305,NA,241242,241349,3980,241350,241865,KS - Flanker Task,119,59796,123,yes,1024
Incongruent,HHSHH,96.77419355,96.77419355,485.3387097,485.3387097,black,legacy,legacy,legacy,0,uniform,1,undefined,1,s,0,0,0,123,123,0,123,123,0,0,0,123,123,0,123,123,Sat Sep 25 19:46:10 2021,600,The main experiment item,yes,KS - Flanker Task.osexp,/Users/kaylinsilva/Desktop/Life/Tarleton/Adv Stats,no,mono,no,18,no,white,no,yes,768,legacy,43,79,/Users/kaylinsilva/Desktop/Life/Tarleton/Adv Stats/KS-subject-4.csv,legacy,Lentiform Loewenfeld,3.3.9,0,s,NA,h,h,NA,s,386,NA,17727,14231,NA,386,2,legacy,1024,2,48000,-16,experiment,4,even,21721,171537,NA,184737,172339,NA,242935,241868,3988,157305,NA,242932,243039,3980,243039,243426,KS - Flanker Task,120,60182,124,yes,1024
Incongruent,SSHSS,96.8,96.8,484.136,484.136,black,legacy,legacy,legacy,0,uniform,1,undefined,1,h,0,0,0,124,124,0,124,124,0,0,0,124,124,0,124,124,Sat Sep 25 19:46:10 2021,600,The main experiment item,yes,KS - Flanker Task.osexp,/Users/kaylinsilva/Desktop/Life/Tarleton/Adv Stats,no,mono,no,18,no,white,no,yes,768,legacy,44,79,/Users/kaylinsilva/Desktop/Life/Tarleton/Adv Stats/KS-subject-4.csv,legacy,Lentiform Loewenfeld,3.3.9,0,h,NA,h,h,NA,h,335,NA,17727,14231,NA,335,2,legacy,1024,2,48000,-16,experiment,4,even,21721,171537,NA,184737,172339,NA,244472,243429,3988,157305,NA,244470,244574,3980,244574,244910,KS - Flanker Task,121,60517,125,yes,1024
Congruent,HHHHH,96.82539683,96.82539683,484.1507937,484.1507937,black,legacy,legacy,legacy,0,uniform,1,undefined,1,h,0,0,0,125,125,0,125,125,0,0,0,125,125,0,125,125,Sat Sep 25 19:46:10 2021,600,The main experiment item,yes,KS - Flanker Task.osexp,/Users/kaylinsilva/Desktop/Life/Tarleton/Adv Stats,no,mono,no,18,no,white,no,yes,768,legacy,45,79,/Users/kaylinsilva/Desktop/Life/Tarleton/Adv Stats/KS-subject-4.csv,legacy,Lentiform Loewenfeld,3.3.9,0,h,NA,h,h,NA,h,486,NA,17727,14231,NA,486,2,legacy,1024,2,48000,-16,experiment,4,even,21721,171537,NA,184737,172339,NA,245980,244913,3988,157305,NA,245977,246084,3980,246084,246571,KS - Flanker Task,122,61003,126,yes,1024
Congruent,SSSSS,96.8503937,96.8503937,483.511811,483.511811,black,legacy,legacy,legacy,0,uniform,1,undefined,1,s,0,0,0,126,126,0,126,126,0,0,0,126,126,0,126,126,Sat Sep 25 19:46:10 2021,600,The main experiment item,yes,KS - Flanker Task.osexp,/Users/kaylinsilva/Desktop/Life/Tarleton/Adv Stats,no,mono,no,18,no,white,no,yes,768,legacy,46,79,/Users/kaylinsilva/Desktop/Life/Tarleton/Adv Stats/KS-subject-4.csv,legacy,Lentiform Loewenfeld,3.3.9,0,s,NA,h,h,NA,s,403,NA,17727,14231,NA,403,2,legacy,1024,2,48000,-16,experiment,4,even,21721,171537,NA,184737,172339,NA,247640,246574,3988,157305,NA,247637,247744,3980,247744,248148,KS - Flanker Task,123,61406,127,yes,1024
Congruent,SSSSS,96.875,96.875,483.4453125,483.4453125,black,legacy,legacy,legacy,0,uniform,1,undefined,1,s,0,0,0,127,127,0,127,127,0,0,0,127,127,0,127,127,Sat Sep 25 19:46:10 2021,600,The main experiment item,yes,KS - Flanker Task.osexp,/Users/kaylinsilva/Desktop/Life/Tarleton/Adv Stats,no,mono,no,18,no,white,no,yes,768,legacy,47,79,/Users/kaylinsilva/Desktop/Life/Tarleton/Adv Stats/KS-subject-4.csv,legacy,Lentiform Loewenfeld,3.3.9,0,s,NA,h,h,NA,s,475,NA,17727,14231,NA,475,2,legacy,1024,2,48000,-16,experiment,4,even,21721,171537,NA,184737,172339,NA,249221,248151,3988,157305,NA,249218,249325,3980,249325,249801,KS - Flanker Task,124,61881,128,yes,1024
Congruent,HHHHH,96.89922481,96.89922481,483.4728682,483.4728682,black,legacy,legacy,legacy,0,uniform,1,undefined,1,h,0,0,0,128,128,0,128,128,0,0,0,128,128,0,128,128,Sat Sep 25 19:46:10 2021,600,The main experiment item,yes,KS - Flanker Task.osexp,/Users/kaylinsilva/Desktop/Life/Tarleton/Adv Stats,no,mono,no,18,no,white,no,yes,768,legacy,48,79,/Users/kaylinsilva/Desktop/Life/Tarleton/Adv Stats/KS-subject-4.csv,legacy,Lentiform Loewenfeld,3.3.9,0,h,NA,h,h,NA,h,487,NA,17727,14231,NA,487,2,legacy,1024,2,48000,-16,experiment,4,even,21721,171537,NA,184737,172339,NA,250872,249805,3988,157305,NA,250869,250979,3980,250980,251468,KS - Flanker Task,125,62368,129,yes,1024
Congruent,HHHHH,96.92307692,96.92307692,483.2307692,483.2307692,black,legacy,legacy,legacy,0,uniform,1,undefined,1,h,0,0,0,129,129,0,129,129,0,0,0,129,129,0,129,129,Sat Sep 25 19:46:10 2021,600,The main experiment item,yes,KS - Flanker Task.osexp,/Users/kaylinsilva/Desktop/Life/Tarleton/Adv Stats,no,mono,no,18,no,white,no,yes,768,legacy,49,79,/Users/kaylinsilva/Desktop/Life/Tarleton/Adv Stats/KS-subject-4.csv,legacy,Lentiform Loewenfeld,3.3.9,0,h,NA,h,h,NA,h,452,NA,17727,14231,NA,452,2,legacy,1024,2,48000,-16,experiment,4,even,21721,171537,NA,184737,172339,NA,252539,251471,3988,157305,NA,252536,252643,3980,252643,253097,KS - Flanker Task,126,62820,130,yes,1024
Incongruent,SSHSS,96.94656489,96.94656489,484.0229008,484.0229008,black,legacy,legacy,legacy,0,uniform,1,undefined,1,h,0,0,0,130,130,0,130,130,0,0,0,130,130,0,130,130,Sat Sep 25 19:46:10 2021,600,The main experiment item,yes,KS - Flanker Task.osexp,/Users/kaylinsilva/Desktop/Life/Tarleton/Adv Stats,no,mono,no,18,no,white,no,yes,768,legacy,50,79,/Users/kaylinsilva/Desktop/Life/Tarleton/Adv Stats/KS-subject-4.csv,legacy,Lentiform Loewenfeld,3.3.9,0,h,NA,h,h,NA,h,587,NA,17727,14231,NA,587,2,legacy,1024,2,48000,-16,experiment,4,even,21721,171537,NA,184737,172339,NA,254173,253101,3988,157305,NA,254170,254277,3980,254277,254865,KS - Flanker Task,127,63407,131,yes,1024
Incongruent,HHSHH,96.96969697,96.96969697,483,483,black,legacy,legacy,legacy,0,uniform,1,undefined,1,s,0,0,0,131,131,0,131,131,0,0,0,131,131,0,131,131,Sat Sep 25 19:46:10 2021,600,The main experiment item,yes,KS - Flanker Task.osexp,/Users/kaylinsilva/Desktop/Life/Tarleton/Adv Stats,no,mono,no,18,no,white,no,yes,768,legacy,51,79,/Users/kaylinsilva/Desktop/Life/Tarleton/Adv Stats/KS-subject-4.csv,legacy,Lentiform Loewenfeld,3.3.9,0,s,NA,h,h,NA,s,349,NA,17727,14231,NA,349,2,legacy,1024,2,48000,-16,experiment,4,even,21721,171537,NA,184737,172339,NA,255935,254868,3988,157305,NA,255932,256039,3980,256039,256389,KS - Flanker Task,128,63756,132,yes,1024
Congruent,SSSSS,96.9924812,96.9924812,482.4887218,482.4887218,black,legacy,legacy,legacy,0,uniform,1,undefined,1,s,0,0,0,132,132,0,132,132,0,0,0,132,132,0,132,132,Sat Sep 25 19:46:10 2021,600,The main experiment item,yes,KS - Flanker Task.osexp,/Users/kaylinsilva/Desktop/Life/Tarleton/Adv Stats,no,mono,no,18,no,white,no,yes,768,legacy,52,79,/Users/kaylinsilva/Desktop/Life/Tarleton/Adv Stats/KS-subject-4.csv,legacy,Lentiform Loewenfeld,3.3.9,0,s,NA,h,h,NA,s,415,NA,17727,14231,NA,415,2,legacy,1024,2,48000,-16,experiment,4,even,21721,171537,NA,184737,172339,NA,257460,256393,3988,157305,NA,257457,257565,3980,257565,257981,KS - Flanker Task,129,64171,133,yes,1024
Congruent,HHHHH,97.01492537,97.01492537,481.2462687,481.2462687,black,legacy,legacy,legacy,0,uniform,1,undefined,1,h,0,0,0,133,133,0,133,133,0,0,0,133,133,0,133,133,Sat Sep 25 19:46:10 2021,600,The main experiment item,yes,KS - Flanker Task.osexp,/Users/kaylinsilva/Desktop/Life/Tarleton/Adv Stats,no,mono,no,18,no,white,no,yes,768,legacy,53,79,/Users/kaylinsilva/Desktop/Life/Tarleton/Adv Stats/KS-subject-4.csv,legacy,Lentiform Loewenfeld,3.3.9,0,h,NA,h,h,NA,h,316,NA,17727,14231,NA,316,2,legacy,1024,2,48000,-16,experiment,4,even,21721,171537,NA,184737,172339,NA,259051,257984,3988,157305,NA,259048,259156,3980,259157,259474,KS - Flanker Task,130,64487,134,yes,1024
Congruent,SSSSS,97.03703704,97.03703704,480.2444444,480.2444444,black,legacy,legacy,legacy,0,uniform,1,undefined,1,s,0,0,0,134,134,0,134,134,0,0,0,134,134,0,134,134,Sat Sep 25 19:46:10 2021,600,The main experiment item,yes,KS - Flanker Task.osexp,/Users/kaylinsilva/Desktop/Life/Tarleton/Adv Stats,no,mono,no,18,no,white,no,yes,768,legacy,54,79,/Users/kaylinsilva/Desktop/Life/Tarleton/Adv Stats/KS-subject-4.csv,legacy,Lentiform Loewenfeld,3.3.9,0,s,NA,h,h,NA,s,346,NA,17727,14231,NA,346,2,legacy,1024,2,48000,-16,experiment,4,even,21721,171537,NA,184737,172339,NA,260544,259477,3988,157305,NA,260541,260648,3980,260648,260995,KS - Flanker Task,131,64833,135,yes,1024
Incongruent,HHSHH,97.05882353,97.05882353,479.4779412,479.4779412,black,legacy,legacy,legacy,0,uniform,1,undefined,1,s,0,0,0,135,135,0,135,135,0,0,0,135,135,0,135,135,Sat Sep 25 19:46:10 2021,600,The main experiment item,yes,KS - Flanker Task.osexp,/Users/kaylinsilva/Desktop/Life/Tarleton/Adv Stats,no,mono,no,18,no,white,no,yes,768,legacy,55,79,/Users/kaylinsilva/Desktop/Life/Tarleton/Adv Stats/KS-subject-4.csv,legacy,Lentiform Loewenfeld,3.3.9,0,s,NA,h,h,NA,s,376,NA,17727,14231,NA,376,2,legacy,1024,2,48000,-16,experiment,4,even,21721,171537,NA,184737,172339,NA,262065,260998,3988,157305,NA,262062,262169,3980,262170,262547,KS - Flanker Task,132,65209,136,yes,1024
Congruent,SSSSS,97.08029197,97.08029197,479.4306569,479.4306569,black,legacy,legacy,legacy,0,uniform,1,undefined,1,s,0,0,0,136,136,0,136,136,0,0,0,136,136,0,136,136,Sat Sep 25 19:46:10 2021,600,The main experiment item,yes,KS - Flanker Task.osexp,/Users/kaylinsilva/Desktop/Life/Tarleton/Adv Stats,no,mono,no,18,no,white,no,yes,768,legacy,56,79,/Users/kaylinsilva/Desktop/Life/Tarleton/Adv Stats/KS-subject-4.csv,legacy,Lentiform Loewenfeld,3.3.9,0,s,NA,h,h,NA,s,473,NA,17727,14231,NA,473,2,legacy,1024,2,48000,-16,experiment,4,even,21721,171537,NA,184737,172339,NA,263617,262550,3988,157305,NA,263614,263721,3980,263721,264196,KS - Flanker Task,133,65682,137,yes,1024
Congruent,HHHHH,97.10144928,97.10144928,479.3188406,479.3188406,black,legacy,legacy,legacy,0,uniform,1,undefined,1,h,0,0,0,137,137,0,137,137,0,0,0,137,137,0,137,137,Sat Sep 25 19:46:10 2021,600,The main experiment item,yes,KS - Flanker Task.osexp,/Users/kaylinsilva/Desktop/Life/Tarleton/Adv Stats,no,mono,no,18,no,white,no,yes,768,legacy,57,79,/Users/kaylinsilva/Desktop/Life/Tarleton/Adv Stats/KS-subject-4.csv,legacy,Lentiform Loewenfeld,3.3.9,0,h,NA,h,h,NA,h,464,NA,17727,14231,NA,464,2,legacy,1024,2,48000,-16,experiment,4,even,21721,171537,NA,184737,172339,NA,265266,264199,3988,157305,NA,265263,265370,3980,265370,265835,KS - Flanker Task,134,66146,138,yes,1024
Incongruent,HHSHH,97.12230216,97.12230216,478.3597122,478.3597122,black,legacy,legacy,legacy,0,uniform,1,undefined,1,s,0,0,0,138,138,0,138,138,0,0,0,138,138,0,138,138,Sat Sep 25 19:46:10 2021,600,The main experiment item,yes,KS - Flanker Task.osexp,/Users/kaylinsilva/Desktop/Life/Tarleton/Adv Stats,no,mono,no,18,no,white,no,yes,768,legacy,58,79,/Users/kaylinsilva/Desktop/Life/Tarleton/Adv Stats/KS-subject-4.csv,legacy,Lentiform Loewenfeld,3.3.9,0,s,NA,h,h,NA,s,346,NA,17727,14231,NA,346,2,legacy,1024,2,48000,-16,experiment,4,even,21721,171537,NA,184737,172339,NA,266905,265838,3988,157305,NA,266902,267009,3980,267009,267356,KS - Flanker Task,135,66492,139,yes,1024
Incongruent,HHSHH,97.14285714,97.14285714,478.3785714,478.3785714,black,legacy,legacy,legacy,0,uniform,1,undefined,1,s,0,0,0,139,139,0,139,139,0,0,0,139,139,0,139,139,Sat Sep 25 19:46:10 2021,600,The main experiment item,yes,KS - Flanker Task.osexp,/Users/kaylinsilva/Desktop/Life/Tarleton/Adv Stats,no,mono,no,18,no,white,no,yes,768,legacy,59,79,/Users/kaylinsilva/Desktop/Life/Tarleton/Adv Stats/KS-subject-4.csv,legacy,Lentiform Loewenfeld,3.3.9,0,s,NA,h,h,NA,s,481,NA,17727,14231,NA,481,2,legacy,1024,2,48000,-16,experiment,4,even,21721,171537,NA,184737,172339,NA,268426,267359,3988,157305,NA,268423,268530,3980,268530,269012,KS - Flanker Task,136,66973,140,yes,1024
Incongruent,HHSHH,97.16312057,97.16312057,479.2269504,479.2269504,black,legacy,legacy,legacy,0,uniform,1,undefined,1,s,0,0,0,140,140,0,140,140,0,0,0,140,140,0,140,140,Sat Sep 25 19:46:10 2021,600,The main experiment item,yes,KS - Flanker Task.osexp,/Users/kaylinsilva/Desktop/Life/Tarleton/Adv Stats,no,mono,no,18,no,white,no,yes,768,legacy,60,79,/Users/kaylinsilva/Desktop/Life/Tarleton/Adv Stats/KS-subject-4.csv,legacy,Lentiform Loewenfeld,3.3.9,0,s,NA,h,h,NA,s,598,NA,17727,14231,NA,598,2,legacy,1024,2,48000,-16,experiment,4,even,21721,171537,NA,184737,172339,NA,270082,269015,3988,157305,NA,270079,270186,3980,270186,270785,KS - Flanker Task,137,67571,141,yes,1024
Incongruent,SSHSS,97.18309859,97.18309859,479.5352113,479.5352113,black,legacy,legacy,legacy,0,uniform,1,undefined,1,h,0,0,0,141,141,0,141,141,0,0,0,141,141,0,141,141,Sat Sep 25 19:46:10 2021,600,The main experiment item,yes,KS - Flanker Task.osexp,/Users/kaylinsilva/Desktop/Life/Tarleton/Adv Stats,no,mono,no,18,no,white,no,yes,768,legacy,61,79,/Users/kaylinsilva/Desktop/Life/Tarleton/Adv Stats/KS-subject-4.csv,legacy,Lentiform Loewenfeld,3.3.9,0,h,NA,h,h,NA,h,523,NA,17727,14231,NA,523,2,legacy,1024,2,48000,-16,experiment,4,even,21721,171537,NA,184737,172339,NA,271857,270789,3988,157305,NA,271853,271961,3980,271961,272486,KS - Flanker Task,138,68094,142,yes,1024
Incongruent,SSHSS,97.2027972,97.2027972,479.5104895,479.5104895,black,legacy,legacy,legacy,0,uniform,1,undefined,1,h,0,0,0,142,142,0,142,142,0,0,0,142,142,0,142,142,Sat Sep 25 19:46:10 2021,600,The main experiment item,yes,KS - Flanker Task.osexp,/Users/kaylinsilva/Desktop/Life/Tarleton/Adv Stats,no,mono,no,18,no,white,no,yes,768,legacy,62,79,/Users/kaylinsilva/Desktop/Life/Tarleton/Adv Stats/KS-subject-4.csv,legacy,Lentiform Loewenfeld,3.3.9,0,h,NA,h,h,NA,h,476,NA,17727,14231,NA,476,2,legacy,1024,2,48000,-16,experiment,4,even,21721,171537,NA,184737,172339,NA,273571,272489,3988,157305,NA,273567,273677,3980,273678,274155,KS - Flanker Task,139,68570,143,yes,1024
Congruent,SSSSS,97.22222222,97.22222222,479.5347222,479.5347222,black,legacy,legacy,legacy,0,uniform,1,undefined,1,s,0,0,0,143,143,0,143,143,0,0,0,143,143,0,143,143,Sat Sep 25 19:46:10 2021,600,The main experiment item,yes,KS - Flanker Task.osexp,/Users/kaylinsilva/Desktop/Life/Tarleton/Adv Stats,no,mono,no,18,no,white,no,yes,768,legacy,63,79,/Users/kaylinsilva/Desktop/Life/Tarleton/Adv Stats/KS-subject-4.csv,legacy,Lentiform Loewenfeld,3.3.9,0,s,NA,h,h,NA,s,483,NA,17727,14231,NA,483,2,legacy,1024,2,48000,-16,experiment,4,even,21721,171537,NA,184737,172339,NA,275226,274159,3988,157305,NA,275223,275330,3980,275330,275814,KS - Flanker Task,140,69053,144,yes,1024
Congruent,HHHHH,97.24137931,97.24137931,479.3862069,479.3862069,black,legacy,legacy,legacy,0,uniform,1,undefined,1,h,0,0,0,144,144,0,144,144,0,0,0,144,144,0,144,144,Sat Sep 25 19:46:10 2021,600,The main experiment item,yes,KS - Flanker Task.osexp,/Users/kaylinsilva/Desktop/Life/Tarleton/Adv Stats,no,mono,no,18,no,white,no,yes,768,legacy,64,79,/Users/kaylinsilva/Desktop/Life/Tarleton/Adv Stats/KS-subject-4.csv,legacy,Lentiform Loewenfeld,3.3.9,0,h,NA,h,h,NA,h,458,NA,17727,14231,NA,458,2,legacy,1024,2,48000,-16,experiment,4,even,21721,171537,NA,184737,172339,NA,276884,275817,3988,157305,NA,276881,276988,3980,276988,277447,KS - Flanker Task,141,69511,145,yes,1024
Congruent,SSSSS,97.26027397,97.26027397,478.2739726,478.2739726,black,legacy,legacy,legacy,0,uniform,1,undefined,1,s,0,0,0,145,145,0,145,145,0,0,0,145,145,0,145,145,Sat Sep 25 19:46:10 2021,600,The main experiment item,yes,KS - Flanker Task.osexp,/Users/kaylinsilva/Desktop/Life/Tarleton/Adv Stats,no,mono,no,18,no,white,no,yes,768,legacy,65,79,/Users/kaylinsilva/Desktop/Life/Tarleton/Adv Stats/KS-subject-4.csv,legacy,Lentiform Loewenfeld,3.3.9,0,s,NA,h,h,NA,s,317,NA,17727,14231,NA,317,2,legacy,1024,2,48000,-16,experiment,4,even,21721,171537,NA,184737,172339,NA,278517,277450,3988,157305,NA,278514,278621,3980,278621,278939,KS - Flanker Task,142,69828,146,yes,1024
Congruent,HHHHH,97.27891156,97.27891156,477.6530612,477.6530612,black,legacy,legacy,legacy,0,uniform,1,undefined,1,h,0,0,0,146,146,0,146,146,0,0,0,146,146,0,146,146,Sat Sep 25 19:46:10 2021,600,The main experiment item,yes,KS - Flanker Task.osexp,/Users/kaylinsilva/Desktop/Life/Tarleton/Adv Stats,no,mono,no,18,no,white,no,yes,768,legacy,66,79,/Users/kaylinsilva/Desktop/Life/Tarleton/Adv Stats/KS-subject-4.csv,legacy,Lentiform Loewenfeld,3.3.9,0,h,NA,h,h,NA,h,387,NA,17727,14231,NA,387,2,legacy,1024,2,48000,-16,experiment,4,even,21721,171537,NA,184737,172339,NA,280011,278942,3988,157305,NA,280009,280116,3980,280116,280505,KS - Flanker Task,143,70215,147,yes,1024
Congruent,SSSSS,97.2972973,97.2972973,476.3310811,476.3310811,black,legacy,legacy,legacy,0,uniform,1,undefined,1,s,0,0,0,147,147,0,147,147,0,0,0,147,147,0,147,147,Sat Sep 25 19:46:10 2021,600,The main experiment item,yes,KS - Flanker Task.osexp,/Users/kaylinsilva/Desktop/Life/Tarleton/Adv Stats,no,mono,no,18,no,white,no,yes,768,legacy,67,79,/Users/kaylinsilva/Desktop/Life/Tarleton/Adv Stats/KS-subject-4.csv,legacy,Lentiform Loewenfeld,3.3.9,0,s,NA,h,h,NA,s,282,NA,17727,14231,NA,282,2,legacy,1024,2,48000,-16,experiment,4,even,21721,171537,NA,184737,172339,NA,281575,280508,3988,157305,NA,281572,281679,3980,281679,281962,KS - Flanker Task,144,70497,148,yes,1024
Incongruent,SSHSS,97.31543624,97.31543624,476.2348993,476.2348993,black,legacy,legacy,legacy,0,uniform,1,undefined,1,h,0,0,0,148,148,0,148,148,0,0,0,148,148,0,148,148,Sat Sep 25 19:46:10 2021,600,The main experiment item,yes,KS - Flanker Task.osexp,/Users/kaylinsilva/Desktop/Life/Tarleton/Adv Stats,no,mono,no,18,no,white,no,yes,768,legacy,68,79,/Users/kaylinsilva/Desktop/Life/Tarleton/Adv Stats/KS-subject-4.csv,legacy,Lentiform Loewenfeld,3.3.9,0,h,NA,h,h,NA,h,462,NA,17727,14231,NA,462,2,legacy,1024,2,48000,-16,experiment,4,even,21721,171537,NA,184737,172339,NA,283033,281966,3988,157305,NA,283029,283137,3980,283137,283600,KS - Flanker Task,145,70959,149,yes,1024
Congruent,HHHHH,97.33333333,97.33333333,476.2533333,476.2533333,black,legacy,legacy,legacy,0,uniform,1,undefined,1,h,0,0,0,149,149,0,149,149,0,0,0,149,149,0,149,149,Sat Sep 25 19:46:10 2021,600,The main experiment item,yes,KS - Flanker Task.osexp,/Users/kaylinsilva/Desktop/Life/Tarleton/Adv Stats,no,mono,no,18,no,white,no,yes,768,legacy,69,79,/Users/kaylinsilva/Desktop/Life/Tarleton/Adv Stats/KS-subject-4.csv,legacy,Lentiform Loewenfeld,3.3.9,0,h,NA,h,h,NA,h,479,NA,17727,14231,NA,479,2,legacy,1024,2,48000,-16,experiment,4,even,21721,171537,NA,184737,172339,NA,284673,283603,3988,157305,NA,284669,284777,3980,284777,285257,KS - Flanker Task,146,71438,150,yes,1024
Incongruent,HHSHH,96.68874172,96.68874172,475.5165563,475.5165563,black,legacy,legacy,legacy,0,uniform,0,undefined,0,s,0,0,0,150,150,0,150,150,0,0,0,150,150,0,150,150,Sat Sep 25 19:46:10 2021,600,The main experiment item,yes,KS - Flanker Task.osexp,/Users/kaylinsilva/Desktop/Life/Tarleton/Adv Stats,no,mono,no,18,no,white,no,yes,768,legacy,70,79,/Users/kaylinsilva/Desktop/Life/Tarleton/Adv Stats/KS-subject-4.csv,legacy,Lentiform Loewenfeld,3.3.9,0,h,NA,h,h,NA,h,365,NA,17727,14231,NA,365,2,legacy,1024,2,48000,-16,experiment,4,even,21721,171537,NA,184737,172339,NA,286328,285261,3988,157305,NA,286325,286432,3980,286432,286799,KS - Flanker Task,146,71803,151,yes,1024
Congruent,HHHHH,96.71052632,96.71052632,475.1710526,475.1710526,black,legacy,legacy,legacy,0,uniform,1,undefined,1,h,0,0,0,151,151,0,151,151,0,0,0,151,151,0,151,151,Sat Sep 25 19:46:10 2021,600,The main experiment item,yes,KS - Flanker Task.osexp,/Users/kaylinsilva/Desktop/Life/Tarleton/Adv Stats,no,mono,no,18,no,white,no,yes,768,legacy,71,79,/Users/kaylinsilva/Desktop/Life/Tarleton/Adv Stats/KS-subject-4.csv,legacy,Lentiform Loewenfeld,3.3.9,0,h,NA,h,h,NA,h,423,NA,17727,14231,NA,423,2,legacy,1024,2,48000,-16,experiment,4,even,21721,171537,NA,286802,172339,NA,288373,287306,3988,157305,NA,288370,288477,3980,288477,288901,KS - Flanker Task,147,72226,152,yes,1024
