"acc","accuracy","average_response_time","avg_rt","background","canvas_backend","clock_backend","color_backend","compensation","condition","coordinates","correct","correct_Instructions","correct_keyboard_response","correct_response","count_Block1","count_Block2","count_Block3","count_Finish","count_Fixation","count_ISI","count_Instructions","count_Instructions2","count_Instructions3","count_Sequence","count_Stimulus","count_errorFeedback","count_experiment","count_faster","count_keyboard_response","count_logger","datetime","deadline","description","disable_garbage_collection","experiment_file","experiment_path","font_bold","font_family","font_italic","font_size","font_underline","foreground","form_clicks","fullscreen","height","keyboard_backend","live_row","live_row_Block1","logfile","mouse_backend","opensesame_codename","opensesame_version","repeat_cycle","response","response_Finish","response_Instructions","response_Instructions2","response_Instructions3","response_keyboard_response","response_time","response_time_Finish","response_time_Instructions","response_time_Instructions2","response_time_Instructions3","response_time_keyboard_response","round_decimals","sampler_backend","sound_buf_size","sound_channels","sound_freq","sound_sample_size","start","stimulus","subject_nr","subject_parity","time_Block1","time_Block2","time_Block3","time_Finish","time_Fixation","time_ISI","time_Instructions","time_Instructions2","time_Instructions3","time_Sequence","time_Stimulus","time_errorFeedback","time_experiment","time_faster","time_keyboard_response","time_logger","title","total_correct","total_response_time","total_responses","uniform_coordinates","width"
"100","100","608","608","black","legacy","legacy","legacy","0","incongruent","uniform","1","undefined","1","s","0","0","0","0","0","0","0","0","0","0","0","0","0","0","0","0","09/25/21 22:11:33","1500","The main experiment item","yes","FlankerTask.osexp","C:\Users\Brian\Desktop\College - Graduate\Graduate Work\Advanced Quant","no","mono","no","18","no","white","no","yes","768","legacy","0","0","C:/Users/Brian/Desktop/College - Graduate/Graduate Work/Advanced Quant/BK-subject-2.csv","legacy","Kafkaesque Koffka","3.2.8","0","s","NA","h","NA","NA","s","608","NA","6920","NA","NA","608","2","legacy","1024","2","48000","-16","experiment","hhshh","2","even","9482","NA","NA","NA","9637","NA","2561","NA","NA","9635","9740","NA","2552","NA","9740","10348","Flanker Task","1","608","1","yes","1024"
"100","100","602","602","black","legacy","legacy","legacy","0","incongruent","uniform","1","undefined","1","h","0","0","0","0","1","1","0","0","0","1","1","1","0","1","1","1","09/25/21 22:11:33","1500","The main experiment item","yes","FlankerTask.osexp","C:\Users\Brian\Desktop\College - Graduate\Graduate Work\Advanced Quant","no","mono","no","18","no","white","no","yes","768","legacy","1","1","C:/Users/Brian/Desktop/College - Graduate/Graduate Work/Advanced Quant/BK-subject-2.csv","legacy","Kafkaesque Koffka","3.2.8","0","h","NA","h","NA","NA","h","596","NA","6920","NA","NA","596","2","legacy","1024","2","48000","-16","experiment","sshss","2","even","9482","NA","NA","NA","11433","10357","2561","NA","NA","11430","11534","NA","2552","NA","11534","12131","Flanker Task","2","1204","2","yes","1024"
"66.6666666667","66.6666666667","546","546","black","legacy","legacy","legacy","0","incongruent","uniform","0","undefined","0","h","0","0","0","0","2","2","0","0","0","2","2","2","0","2","2","2","09/25/21 22:11:33","1500","The main experiment item","yes","FlankerTask.osexp","C:\Users\Brian\Desktop\College - Graduate\Graduate Work\Advanced Quant","no","mono","no","18","no","white","no","yes","768","legacy","2","2","C:/Users/Brian/Desktop/College - Graduate/Graduate Work/Advanced Quant/BK-subject-2.csv","legacy","Kafkaesque Koffka","3.2.8","0","s","NA","h","NA","NA","s","434","NA","6920","NA","NA","434","2","legacy","1024","2","48000","-16","experiment","sshss","2","even","9482","NA","NA","NA","13211","12136","2561","NA","NA","13209","13314","NA","2552","NA","13314","13749","Flanker Task","2","1638","3","yes","1024"
"75","75","530.75","530.75","black","legacy","legacy","legacy","0","incongruent","uniform","1","undefined","1","s","0","0","0","0","3","3","0","0","0","3","3","3","0","3","3","3","09/25/21 22:11:33","1500","The main experiment item","yes","FlankerTask.osexp","C:\Users\Brian\Desktop\College - Graduate\Graduate Work\Advanced Quant","no","mono","no","18","no","white","no","yes","768","legacy","3","3","C:/Users/Brian/Desktop/College - Graduate/Graduate Work/Advanced Quant/BK-subject-2.csv","legacy","Kafkaesque Koffka","3.2.8","0","s","NA","h","NA","NA","s","485","NA","6920","NA","NA","485","2","legacy","1024","2","48000","-16","experiment","hhshh","2","even","9482","NA","NA","NA","15332","14260","2561","NA","NA","15330","15435","13757","2552","NA","15435","15920","Flanker Task","3","2123","4","yes","1024"
"80","80","516.4","516.4","black","legacy","legacy","legacy","0","congruent","uniform","1","undefined","1","s","0","0","0","0","4","4","0","0","0","4","4","4","0","4","4","4","09/25/21 22:11:33","1500","The main experiment item","yes","FlankerTask.osexp","C:\Users\Brian\Desktop\College - Graduate\Graduate Work\Advanced Quant","no","mono","no","18","no","white","no","yes","768","legacy","4","4","C:/Users/Brian/Desktop/College - Graduate/Graduate Work/Advanced Quant/BK-subject-2.csv","legacy","Kafkaesque Koffka","3.2.8","0","s","NA","h","NA","NA","s","459","NA","6920","NA","NA","459","2","legacy","1024","2","48000","-16","experiment","sssss","2","even","9482","NA","NA","NA","17000","15928","2561","NA","NA","16998","17104","13757","2552","NA","17104","17563","Flanker Task","4","2582","5","yes","1024"
"66.6666666667","66.6666666667","505","505","black","legacy","legacy","legacy","0","congruent","uniform","0","undefined","0","h","0","0","0","0","5","5","0","0","0","5","5","5","0","5","5","5","09/25/21 22:11:33","1500","The main experiment item","yes","FlankerTask.osexp","C:\Users\Brian\Desktop\College - Graduate\Graduate Work\Advanced Quant","no","mono","no","18","no","white","no","yes","768","legacy","5","5","C:/Users/Brian/Desktop/College - Graduate/Graduate Work/Advanced Quant/BK-subject-2.csv","legacy","Kafkaesque Koffka","3.2.8","0","s","NA","h","NA","NA","s","448","NA","6920","NA","NA","448","2","legacy","1024","2","48000","-16","experiment","hhhhh","2","even","9482","NA","NA","NA","18650","17572","2561","NA","NA","18647","18753","13757","2552","NA","18753","19202","Flanker Task","4","3030","6","yes","1024"
"71.4285714286","71.4285714286","495.142857143","495.142857143","black","legacy","legacy","legacy","0","incongruent","uniform","1","undefined","1","s","0","0","0","0","6","6","0","0","0","6","6","6","0","6","6","6","09/25/21 22:11:33","1500","The main experiment item","yes","FlankerTask.osexp","C:\Users\Brian\Desktop\College - Graduate\Graduate Work\Advanced Quant","no","mono","no","18","no","white","no","yes","768","legacy","6","6","C:/Users/Brian/Desktop/College - Graduate/Graduate Work/Advanced Quant/BK-subject-2.csv","legacy","Kafkaesque Koffka","3.2.8","0","s","NA","h","NA","NA","s","436","NA","6920","NA","NA","436","2","legacy","1024","2","48000","-16","experiment","hhshh","2","even","9482","NA","NA","NA","20781","19711","2561","NA","NA","20779","20882","19210","2552","NA","20882","21318","Flanker Task","5","3466","7","yes","1024"
"75","75","494","494","black","legacy","legacy","legacy","0","congruent","uniform","1","undefined","1","h","0","0","0","0","7","7","0","0","0","7","7","7","0","7","7","7","09/25/21 22:11:33","1500","The main experiment item","yes","FlankerTask.osexp","C:\Users\Brian\Desktop\College - Graduate\Graduate Work\Advanced Quant","no","mono","no","18","no","white","no","yes","768","legacy","7","7","C:/Users/Brian/Desktop/College - Graduate/Graduate Work/Advanced Quant/BK-subject-2.csv","legacy","Kafkaesque Koffka","3.2.8","0","h","NA","h","NA","NA","h","486","NA","6920","NA","NA","486","2","legacy","1024","2","48000","-16","experiment","hhhhh","2","even","9482","NA","NA","NA","22397","21323","2561","NA","NA","22395","22500","19210","2552","NA","22500","22987","Flanker Task","6","3952","8","yes","1024"
"66.6666666667","66.6666666667","477.333333333","477.333333333","black","legacy","legacy","legacy","0","incongruent","uniform","0","undefined","0","h","0","0","0","0","8","8","0","0","0","8","8","8","0","8","8","8","09/25/21 22:11:33","1500","The main experiment item","yes","FlankerTask.osexp","C:\Users\Brian\Desktop\College - Graduate\Graduate Work\Advanced Quant","no","mono","no","18","no","white","no","yes","768","legacy","8","8","C:/Users/Brian/Desktop/College - Graduate/Graduate Work/Advanced Quant/BK-subject-2.csv","legacy","Kafkaesque Koffka","3.2.8","0","s","NA","h","NA","NA","s","344","NA","6920","NA","NA","344","2","legacy","1024","2","48000","-16","experiment","sshss","2","even","9482","NA","NA","NA","24063","22991","2561","NA","NA","24061","24166","19210","2552","NA","24166","24511","Flanker Task","6","4296","9","yes","1024"
"70","70","474.7","474.7","black","legacy","legacy","legacy","0","congruent","uniform","1","undefined","1","s","0","0","0","0","9","9","0","0","0","9","9","9","0","9","9","9","09/25/21 22:11:33","1500","The main experiment item","yes","FlankerTask.osexp","C:\Users\Brian\Desktop\College - Graduate\Graduate Work\Advanced Quant","no","mono","no","18","no","white","no","yes","768","legacy","9","9","C:/Users/Brian/Desktop/College - Graduate/Graduate Work/Advanced Quant/BK-subject-2.csv","legacy","Kafkaesque Koffka","3.2.8","0","s","NA","h","NA","NA","s","451","NA","6920","NA","NA","451","2","legacy","1024","2","48000","-16","experiment","sssss","2","even","9482","NA","NA","NA","26098","25023","2561","NA","NA","26095","26201","24520","2552","NA","26201","26653","Flanker Task","7","4747","10","yes","1024"
"63.6363636364","63.6363636364","472.090909091","472.090909091","black","legacy","legacy","legacy","0","incongruent","uniform","0","undefined","0","s","0","0","0","0","10","10","0","0","0","10","10","10","0","10","10","10","09/25/21 22:11:33","1500","The main experiment item","yes","FlankerTask.osexp","C:\Users\Brian\Desktop\College - Graduate\Graduate Work\Advanced Quant","no","mono","no","18","no","white","no","yes","768","legacy","10","10","C:/Users/Brian/Desktop/College - Graduate/Graduate Work/Advanced Quant/BK-subject-2.csv","legacy","Kafkaesque Koffka","3.2.8","0","h","NA","h","NA","NA","h","446","NA","6920","NA","NA","446","2","legacy","1024","2","48000","-16","experiment","hhshh","2","even","9482","NA","NA","NA","27741","26662","2561","NA","NA","27739","27844","24520","2552","NA","27844","28291","Flanker Task","7","5193","11","yes","1024"
"66.6666666667","66.6666666667","467.916666667","467.916666667","black","legacy","legacy","legacy","0","congruent","uniform","1","undefined","1","h","0","0","0","0","11","11","0","0","0","11","11","11","0","11","11","11","09/25/21 22:11:33","1500","The main experiment item","yes","FlankerTask.osexp","C:\Users\Brian\Desktop\College - Graduate\Graduate Work\Advanced Quant","no","mono","no","18","no","white","no","yes","768","legacy","11","11","C:/Users/Brian/Desktop/College - Graduate/Graduate Work/Advanced Quant/BK-subject-2.csv","legacy","Kafkaesque Koffka","3.2.8","0","h","NA","h","NA","NA","h","422","NA","6920","NA","NA","422","2","legacy","1024","2","48000","-16","experiment","hhhhh","2","even","9482","NA","NA","NA","29877","28801","2561","NA","NA","29875","29980","28299","2552","NA","29980","30403","Flanker Task","8","5615","12","yes","1024"
"61.5384615385","61.5384615385","464.230769231","464.230769231","black","legacy","legacy","legacy","0","congruent","uniform","0","undefined","0","s","0","0","0","0","12","12","0","0","0","12","12","12","0","12","12","12","09/25/21 22:11:33","1500","The main experiment item","yes","FlankerTask.osexp","C:\Users\Brian\Desktop\College - Graduate\Graduate Work\Advanced Quant","no","mono","no","18","no","white","no","yes","768","legacy","12","12","C:/Users/Brian/Desktop/College - Graduate/Graduate Work/Advanced Quant/BK-subject-2.csv","legacy","Kafkaesque Koffka","3.2.8","0","h","NA","h","NA","NA","h","420","NA","6920","NA","NA","420","2","legacy","1024","2","48000","-16","experiment","sssss","2","even","9482","NA","NA","NA","31487","30411","2561","NA","NA","31485","31590","28299","2552","NA","31590","32011","Flanker Task","8","6035","13","yes","1024"
"64.2857142857","64.2857142857","459.571428571","459.571428571","black","legacy","legacy","legacy","0","congruent","uniform","1","undefined","1","s","0","0","0","0","13","13","0","0","0","13","13","13","0","13","13","13","09/25/21 22:11:33","1500","The main experiment item","yes","FlankerTask.osexp","C:\Users\Brian\Desktop\College - Graduate\Graduate Work\Advanced Quant","no","mono","no","18","no","white","no","yes","768","legacy","13","13","C:/Users/Brian/Desktop/College - Graduate/Graduate Work/Advanced Quant/BK-subject-2.csv","legacy","Kafkaesque Koffka","3.2.8","0","s","NA","h","NA","NA","s","399","NA","6920","NA","NA","399","2","legacy","1024","2","48000","-16","experiment","sssss","2","even","9482","NA","NA","NA","33590","32520","2561","NA","NA","33588","33693","32019","2552","NA","33693","34093","Flanker Task","9","6434","14","yes","1024"
"66.6666666667","66.6666666667","459.666666667","459.666666667","black","legacy","legacy","legacy","0","congruent","uniform","1","undefined","1","h","0","0","0","0","14","14","0","0","0","14","14","14","0","14","14","14","09/25/21 22:11:33","1500","The main experiment item","yes","FlankerTask.osexp","C:\Users\Brian\Desktop\College - Graduate\Graduate Work\Advanced Quant","no","mono","no","18","no","white","no","yes","768","legacy","14","14","C:/Users/Brian/Desktop/College - Graduate/Graduate Work/Advanced Quant/BK-subject-2.csv","legacy","Kafkaesque Koffka","3.2.8","0","h","NA","h","NA","NA","h","461","NA","6920","NA","NA","461","2","legacy","1024","2","48000","-16","experiment","hhhhh","2","even","9482","NA","NA","NA","35174","34101","2561","NA","NA","35172","35276","32019","2552","NA","35276","35738","Flanker Task","10","6895","15","yes","1024"
"68.75","68.75","457.75","457.75","black","legacy","legacy","legacy","0","congruent","uniform","1","undefined","1","h","0","0","0","0","15","15","0","0","0","15","15","15","0","15","15","15","09/25/21 22:11:33","1500","The main experiment item","yes","FlankerTask.osexp","C:\Users\Brian\Desktop\College - Graduate\Graduate Work\Advanced Quant","no","mono","no","18","no","white","no","yes","768","legacy","15","15","C:/Users/Brian/Desktop/College - Graduate/Graduate Work/Advanced Quant/BK-subject-2.csv","legacy","Kafkaesque Koffka","3.2.8","0","h","NA","h","NA","NA","h","429","NA","6920","NA","NA","429","2","legacy","1024","2","48000","-16","experiment","hhhhh","2","even","9482","NA","NA","NA","36819","35746","2561","NA","NA","36817","36920","32019","2552","NA","36920","37350","Flanker Task","11","7324","16","yes","1024"
"70.5882352941","70.5882352941","450.235294118","450.235294118","black","legacy","legacy","legacy","0","incongruent","uniform","1","undefined","1","s","0","0","0","0","16","16","0","0","0","16","16","16","0","16","16","16","09/25/21 22:11:33","1500","The main experiment item","yes","FlankerTask.osexp","C:\Users\Brian\Desktop\College - Graduate\Graduate Work\Advanced Quant","no","mono","no","18","no","white","no","yes","768","legacy","16","16","C:/Users/Brian/Desktop/College - Graduate/Graduate Work/Advanced Quant/BK-subject-2.csv","legacy","Kafkaesque Koffka","3.2.8","0","s","NA","h","NA","NA","s","330","NA","6920","NA","NA","330","2","legacy","1024","2","48000","-16","experiment","hhshh","2","even","9482","NA","NA","NA","38435","37359","2561","NA","NA","38433","38538","32019","2552","NA","38538","38869","Flanker Task","12","7654","17","yes","1024"
"72.2222222222","72.2222222222","442.944444444","442.944444444","black","legacy","legacy","legacy","0","incongruent","uniform","1","undefined","1","h","0","0","0","0","17","17","0","0","0","17","17","17","0","17","17","17","09/25/21 22:11:33","1500","The main experiment item","yes","FlankerTask.osexp","C:\Users\Brian\Desktop\College - Graduate\Graduate Work\Advanced Quant","no","mono","no","18","no","white","no","yes","768","legacy","17","17","C:/Users/Brian/Desktop/College - Graduate/Graduate Work/Advanced Quant/BK-subject-2.csv","legacy","Kafkaesque Koffka","3.2.8","0","h","NA","h","NA","NA","h","319","NA","6920","NA","NA","319","2","legacy","1024","2","48000","-16","experiment","sshss","2","even","9482","NA","NA","NA","39956","38877","2561","NA","NA","39954","40059","32019","2552","NA","40059","40379","Flanker Task","13","7973","18","yes","1024"
"68.4210526316","68.4210526316","435","435","black","legacy","legacy","legacy","0","congruent","uniform","0","undefined","0","h","0","0","0","0","18","18","0","0","0","18","18","18","0","18","18","18","09/25/21 22:11:33","1500","The main experiment item","yes","FlankerTask.osexp","C:\Users\Brian\Desktop\College - Graduate\Graduate Work\Advanced Quant","no","mono","no","18","no","white","no","yes","768","legacy","18","18","C:/Users/Brian/Desktop/College - Graduate/Graduate Work/Advanced Quant/BK-subject-2.csv","legacy","Kafkaesque Koffka","3.2.8","0","s","NA","h","NA","NA","s","292","NA","6920","NA","NA","292","2","legacy","1024","2","48000","-16","experiment","hhhhh","2","even","9482","NA","NA","NA","41461","40387","2561","NA","NA","41459","41564","32019","2552","NA","41564","41857","Flanker Task","13","8265","19","yes","1024"
"70","70","431.35","431.35","black","legacy","legacy","legacy","0","incongruent","uniform","1","undefined","1","s","0","0","0","0","19","19","0","0","0","19","19","19","0","19","19","19","09/25/21 22:11:33","1500","The main experiment item","yes","FlankerTask.osexp","C:\Users\Brian\Desktop\College - Graduate\Graduate Work\Advanced Quant","no","mono","no","18","no","white","no","yes","768","legacy","19","19","C:/Users/Brian/Desktop/College - Graduate/Graduate Work/Advanced Quant/BK-subject-2.csv","legacy","Kafkaesque Koffka","3.2.8","0","s","NA","h","NA","NA","s","362","NA","6920","NA","NA","362","2","legacy","1024","2","48000","-16","experiment","hhshh","2","even","9482","NA","NA","NA","43444","42369","2561","NA","NA","43442","43547","41866","2552","NA","43547","43910","Flanker Task","14","8627","20","yes","1024"
"71.4285714286","71.4285714286","432","432","black","legacy","legacy","legacy","0","congruent","uniform","1","undefined","1","s","0","0","0","0","20","20","0","0","0","20","20","20","0","20","20","20","09/25/21 22:11:33","1500","The main experiment item","yes","FlankerTask.osexp","C:\Users\Brian\Desktop\College - Graduate\Graduate Work\Advanced Quant","no","mono","no","18","no","white","no","yes","768","legacy","20","20","C:/Users/Brian/Desktop/College - Graduate/Graduate Work/Advanced Quant/BK-subject-2.csv","legacy","Kafkaesque Koffka","3.2.8","0","s","NA","h","NA","NA","s","445","NA","6920","NA","NA","445","2","legacy","1024","2","48000","-16","experiment","sssss","2","even","9482","NA","NA","NA","44993","43920","2561","NA","NA","44991","45097","41866","2552","NA","45097","45542","Flanker Task","15","9072","21","yes","1024"
"72.7272727273","72.7272727273","431.136363636","431.136363636","black","legacy","legacy","legacy","0","incongruent","uniform","1","undefined","1","s","0","0","0","0","21","21","0","0","0","21","21","21","0","21","21","21","09/25/21 22:11:33","1500","The main experiment item","yes","FlankerTask.osexp","C:\Users\Brian\Desktop\College - Graduate\Graduate Work\Advanced Quant","no","mono","no","18","no","white","no","yes","768","legacy","21","21","C:/Users/Brian/Desktop/College - Graduate/Graduate Work/Advanced Quant/BK-subject-2.csv","legacy","Kafkaesque Koffka","3.2.8","0","s","NA","h","NA","NA","s","413","NA","6920","NA","NA","413","2","legacy","1024","2","48000","-16","experiment","hhshh","2","even","9482","NA","NA","NA","46625","45551","2561","NA","NA","46622","46728","41866","2552","NA","46728","47142","Flanker Task","16","9485","22","yes","1024"
"73.9130434783","73.9130434783","427.304347826","427.304347826","black","legacy","legacy","legacy","0","congruent","uniform","1","undefined","1","h","0","0","0","0","22","22","0","0","0","22","22","22","0","22","22","22","09/25/21 22:11:33","1500","The main experiment item","yes","FlankerTask.osexp","C:\Users\Brian\Desktop\College - Graduate\Graduate Work\Advanced Quant","no","mono","no","18","no","white","no","yes","768","legacy","22","22","C:/Users/Brian/Desktop/College - Graduate/Graduate Work/Advanced Quant/BK-subject-2.csv","legacy","Kafkaesque Koffka","3.2.8","0","h","NA","h","NA","NA","h","343","NA","6920","NA","NA","343","2","legacy","1024","2","48000","-16","experiment","hhhhh","2","even","9482","NA","NA","NA","48230","47150","2561","NA","NA","48228","48333","41866","2552","NA","48333","48677","Flanker Task","17","9828","23","yes","1024"
"70.8333333333","70.8333333333","423.958333333","423.958333333","black","legacy","legacy","legacy","0","congruent","uniform","0","undefined","0","h","0","0","0","0","23","23","0","0","0","23","23","23","0","23","23","23","09/25/21 22:11:33","1500","The main experiment item","yes","FlankerTask.osexp","C:\Users\Brian\Desktop\College - Graduate\Graduate Work\Advanced Quant","no","mono","no","18","no","white","no","yes","768","legacy","23","23","C:/Users/Brian/Desktop/College - Graduate/Graduate Work/Advanced Quant/BK-subject-2.csv","legacy","Kafkaesque Koffka","3.2.8","0","s","NA","h","NA","NA","s","347","NA","6920","NA","NA","347","2","legacy","1024","2","48000","-16","experiment","hhhhh","2","even","9482","NA","NA","NA","49759","48686","2561","NA","NA","49757","49862","41866","2552","NA","49862","50210","Flanker Task","17","10175","24","yes","1024"
"68","68","420.6","420.6","black","legacy","legacy","legacy","0","incongruent","uniform","0","undefined","0","h","0","0","0","0","24","24","0","0","0","24","24","24","0","24","24","24","09/25/21 22:11:33","1500","The main experiment item","yes","FlankerTask.osexp","C:\Users\Brian\Desktop\College - Graduate\Graduate Work\Advanced Quant","no","mono","no","18","no","white","no","yes","768","legacy","24","24","C:/Users/Brian/Desktop/College - Graduate/Graduate Work/Advanced Quant/BK-subject-2.csv","legacy","Kafkaesque Koffka","3.2.8","0","s","NA","h","NA","NA","s","340","NA","6920","NA","NA","340","2","legacy","1024","2","48000","-16","experiment","sshss","2","even","9482","NA","NA","NA","51795","50722","2561","NA","NA","51793","51896","50219","2552","NA","51896","52237","Flanker Task","17","10515","25","yes","1024"
"69.2307692308","69.2307692308","422.653846154","422.653846154","black","legacy","legacy","legacy","0","incongruent","uniform","1","undefined","1","s","0","0","0","0","25","25","0","0","0","25","25","25","0","25","25","25","09/25/21 22:11:33","1500","The main experiment item","yes","FlankerTask.osexp","C:\Users\Brian\Desktop\College - Graduate\Graduate Work\Advanced Quant","no","mono","no","18","no","white","no","yes","768","legacy","25","25","C:/Users/Brian/Desktop/College - Graduate/Graduate Work/Advanced Quant/BK-subject-2.csv","legacy","Kafkaesque Koffka","3.2.8","0","s","NA","h","NA","NA","s","474","NA","6920","NA","NA","474","2","legacy","1024","2","48000","-16","experiment","hhshh","2","even","9482","NA","NA","NA","53822","52748","2561","NA","NA","53820","53923","52245","2552","NA","53923","54398","Flanker Task","18","10989","26","yes","1024"
"70.3703703704","70.3703703704","422.296296296","422.296296296","black","legacy","legacy","legacy","0","incongruent","uniform","1","undefined","1","s","0","0","0","0","26","26","0","0","0","26","26","26","0","26","26","26","09/25/21 22:11:33","1500","The main experiment item","yes","FlankerTask.osexp","C:\Users\Brian\Desktop\College - Graduate\Graduate Work\Advanced Quant","no","mono","no","18","no","white","no","yes","768","legacy","26","26","C:/Users/Brian/Desktop/College - Graduate/Graduate Work/Advanced Quant/BK-subject-2.csv","legacy","Kafkaesque Koffka","3.2.8","0","s","NA","h","NA","NA","s","413","NA","6920","NA","NA","413","2","legacy","1024","2","48000","-16","experiment","hhshh","2","even","9482","NA","NA","NA","55486","54407","2561","NA","NA","55483","55587","52245","2552","NA","55588","56001","Flanker Task","19","11402","27","yes","1024"
"71.4285714286","71.4285714286","423.178571429","423.178571429","black","legacy","legacy","legacy","0","congruent","uniform","1","undefined","1","s","0","0","0","0","27","27","0","0","0","27","27","27","0","27","27","27","09/25/21 22:11:33","1500","The main experiment item","yes","FlankerTask.osexp","C:\Users\Brian\Desktop\College - Graduate\Graduate Work\Advanced Quant","no","mono","no","18","no","white","no","yes","768","legacy","27","27","C:/Users/Brian/Desktop/College - Graduate/Graduate Work/Advanced Quant/BK-subject-2.csv","legacy","Kafkaesque Koffka","3.2.8","0","s","NA","h","NA","NA","s","447","NA","6920","NA","NA","447","2","legacy","1024","2","48000","-16","experiment","sssss","2","even","9482","NA","NA","NA","57081","56010","2561","NA","NA","57079","57184","52245","2552","NA","57184","57632","Flanker Task","20","11849","28","yes","1024"
"72.4137931034","72.4137931034","424.206896552","424.206896552","black","legacy","legacy","legacy","0","congruent","uniform","1","undefined","1","s","0","0","0","0","28","28","0","0","0","28","28","28","0","28","28","28","09/25/21 22:11:33","1500","The main experiment item","yes","FlankerTask.osexp","C:\Users\Brian\Desktop\College - Graduate\Graduate Work\Advanced Quant","no","mono","no","18","no","white","no","yes","768","legacy","28","28","C:/Users/Brian/Desktop/College - Graduate/Graduate Work/Advanced Quant/BK-subject-2.csv","legacy","Kafkaesque Koffka","3.2.8","0","s","NA","h","NA","NA","s","453","NA","6920","NA","NA","453","2","legacy","1024","2","48000","-16","experiment","sssss","2","even","9482","NA","NA","NA","58716","57641","2561","NA","NA","58714","58820","52245","2552","NA","58820","59274","Flanker Task","21","12302","29","yes","1024"
"73.3333333333","73.3333333333","434.833333333","434.833333333","black","legacy","legacy","legacy","0","congruent","uniform","1","undefined","1","s","0","0","0","0","29","29","0","0","0","29","29","29","0","29","29","29","09/25/21 22:11:33","1500","The main experiment item","yes","FlankerTask.osexp","C:\Users\Brian\Desktop\College - Graduate\Graduate Work\Advanced Quant","no","mono","no","18","no","white","no","yes","768","legacy","29","29","C:/Users/Brian/Desktop/College - Graduate/Graduate Work/Advanced Quant/BK-subject-2.csv","legacy","Kafkaesque Koffka","3.2.8","0","s","NA","h","NA","NA","s","743","NA","6920","NA","NA","743","2","legacy","1024","2","48000","-16","experiment","sssss","2","even","9482","NA","NA","NA","60350","59278","2561","NA","NA","60348","60453","52245","2552","NA","60453","61197","Flanker Task","22","13045","30","yes","1024"
"74.1935483871","74.1935483871","431.516129032","431.516129032","black","legacy","legacy","legacy","0","incongruent","uniform","1","undefined","1","h","0","0","0","0","30","30","0","0","0","30","30","30","0","30","30","30","09/25/21 22:11:33","1500","The main experiment item","yes","FlankerTask.osexp","C:\Users\Brian\Desktop\College - Graduate\Graduate Work\Advanced Quant","no","mono","no","18","no","white","no","yes","768","legacy","30","30","C:/Users/Brian/Desktop/College - Graduate/Graduate Work/Advanced Quant/BK-subject-2.csv","legacy","Kafkaesque Koffka","3.2.8","0","h","NA","h","NA","NA","h","332","NA","6920","NA","NA","332","2","legacy","1024","2","48000","-16","experiment","sshss","2","even","9482","NA","NA","NA","62284","61206","2561","NA","NA","62282","62387","52245","2552","NA","62387","62720","Flanker Task","23","13377","31","yes","1024"
"75","75","432.40625","432.40625","black","legacy","legacy","legacy","0","congruent","uniform","1","undefined","1","s","0","0","0","0","31","31","0","0","0","31","31","31","0","31","31","31","09/25/21 22:11:33","1500","The main experiment item","yes","FlankerTask.osexp","C:\Users\Brian\Desktop\College - Graduate\Graduate Work\Advanced Quant","no","mono","no","18","no","white","no","yes","768","legacy","31","31","C:/Users/Brian/Desktop/College - Graduate/Graduate Work/Advanced Quant/BK-subject-2.csv","legacy","Kafkaesque Koffka","3.2.8","0","s","NA","h","NA","NA","s","460","NA","6920","NA","NA","460","2","legacy","1024","2","48000","-16","experiment","sssss","2","even","9482","NA","NA","NA","63799","62729","2561","NA","NA","63797","63903","52245","2552","NA","63903","64363","Flanker Task","24","13837","32","yes","1024"
"72.7272727273","72.7272727273","428.848484848","428.848484848","black","legacy","legacy","legacy","0","incongruent","uniform","0","undefined","0","s","0","0","0","0","32","32","0","0","0","32","32","32","0","32","32","32","09/25/21 22:11:33","1500","The main experiment item","yes","FlankerTask.osexp","C:\Users\Brian\Desktop\College - Graduate\Graduate Work\Advanced Quant","no","mono","no","18","no","white","no","yes","768","legacy","32","32","C:/Users/Brian/Desktop/College - Graduate/Graduate Work/Advanced Quant/BK-subject-2.csv","legacy","Kafkaesque Koffka","3.2.8","0","h","NA","h","NA","NA","h","315","NA","6920","NA","NA","315","2","legacy","1024","2","48000","-16","experiment","hhshh","2","even","9482","NA","NA","NA","65444","64372","2561","NA","NA","65442","65546","52245","2552","NA","65546","65862","Flanker Task","24","14152","33","yes","1024"
"73.5294117647","73.5294117647","428.382352941","428.382352941","black","legacy","legacy","legacy","0","congruent","uniform","1","undefined","1","s","0","0","0","0","33","33","0","0","0","33","33","33","0","33","33","33","09/25/21 22:11:33","1500","The main experiment item","yes","FlankerTask.osexp","C:\Users\Brian\Desktop\College - Graduate\Graduate Work\Advanced Quant","no","mono","no","18","no","white","no","yes","768","legacy","33","33","C:/Users/Brian/Desktop/College - Graduate/Graduate Work/Advanced Quant/BK-subject-2.csv","legacy","Kafkaesque Koffka","3.2.8","0","s","NA","h","NA","NA","s","413","NA","6920","NA","NA","413","2","legacy","1024","2","48000","-16","experiment","sssss","2","even","9482","NA","NA","NA","67442","66372","2561","NA","NA","67440","67545","65870","2552","NA","67545","67959","Flanker Task","25","14565","34","yes","1024"
"74.2857142857","74.2857142857","425.285714286","425.285714286","black","legacy","legacy","legacy","0","congruent","uniform","1","undefined","1","h","0","0","0","0","34","34","0","0","0","34","34","34","0","34","34","34","09/25/21 22:11:33","1500","The main experiment item","yes","FlankerTask.osexp","C:\Users\Brian\Desktop\College - Graduate\Graduate Work\Advanced Quant","no","mono","no","18","no","white","no","yes","768","legacy","34","34","C:/Users/Brian/Desktop/College - Graduate/Graduate Work/Advanced Quant/BK-subject-2.csv","legacy","Kafkaesque Koffka","3.2.8","0","h","NA","h","NA","NA","h","320","NA","6920","NA","NA","320","2","legacy","1024","2","48000","-16","experiment","hhhhh","2","even","9482","NA","NA","NA","69045","67968","2561","NA","NA","69043","69147","65870","2552","NA","69147","69468","Flanker Task","26","14885","35","yes","1024"
"75","75","423.194444444","423.194444444","black","legacy","legacy","legacy","0","congruent","uniform","1","undefined","1","s","0","0","0","0","35","35","0","0","0","35","35","35","0","35","35","35","09/25/21 22:11:33","1500","The main experiment item","yes","FlankerTask.osexp","C:\Users\Brian\Desktop\College - Graduate\Graduate Work\Advanced Quant","no","mono","no","18","no","white","no","yes","768","legacy","35","35","C:/Users/Brian/Desktop/College - Graduate/Graduate Work/Advanced Quant/BK-subject-2.csv","legacy","Kafkaesque Koffka","3.2.8","0","s","NA","h","NA","NA","s","350","NA","6920","NA","NA","350","2","legacy","1024","2","48000","-16","experiment","sssss","2","even","9482","NA","NA","NA","70548","69478","2561","NA","NA","70546","70651","65870","2552","NA","70651","71002","Flanker Task","27","15235","36","yes","1024"
"72.972972973","72.972972973","421.810810811","421.810810811","black","legacy","legacy","legacy","0","incongruent","uniform","0","undefined","0","h","0","0","0","0","36","36","0","0","0","36","36","36","0","36","36","36","09/25/21 22:11:33","1500","The main experiment item","yes","FlankerTask.osexp","C:\Users\Brian\Desktop\College - Graduate\Graduate Work\Advanced Quant","no","mono","no","18","no","white","no","yes","768","legacy","36","36","C:/Users/Brian/Desktop/College - Graduate/Graduate Work/Advanced Quant/BK-subject-2.csv","legacy","Kafkaesque Koffka","3.2.8","0","s","NA","h","NA","NA","s","372","NA","6920","NA","NA","372","2","legacy","1024","2","48000","-16","experiment","sshss","2","even","9482","NA","NA","NA","72091","71011","2561","NA","NA","72089","72192","65870","2552","NA","72193","72566","Flanker Task","27","15607","37","yes","1024"
"73.6842105263","73.6842105263","421.263157895","421.263157895","black","legacy","legacy","legacy","0","congruent","uniform","1","undefined","1","s","0","0","0","0","37","37","0","0","0","37","37","37","0","37","37","37","09/25/21 22:11:33","1500","The main experiment item","yes","FlankerTask.osexp","C:\Users\Brian\Desktop\College - Graduate\Graduate Work\Advanced Quant","no","mono","no","18","no","white","no","yes","768","legacy","37","37","C:/Users/Brian/Desktop/College - Graduate/Graduate Work/Advanced Quant/BK-subject-2.csv","legacy","Kafkaesque Koffka","3.2.8","0","s","NA","h","NA","NA","s","401","NA","6920","NA","NA","401","2","legacy","1024","2","48000","-16","experiment","sssss","2","even","9482","NA","NA","NA","74147","73077","2561","NA","NA","74145","74250","72576","2552","NA","74250","74652","Flanker Task","28","16008","38","yes","1024"
"71.7948717949","71.7948717949","419.102564103","419.102564103","black","legacy","legacy","legacy","0","congruent","uniform","0","undefined","0","s","0","0","0","0","38","38","0","0","0","38","38","38","0","38","38","38","09/25/21 22:11:33","1500","The main experiment item","yes","FlankerTask.osexp","C:\Users\Brian\Desktop\College - Graduate\Graduate Work\Advanced Quant","no","mono","no","18","no","white","no","yes","768","legacy","38","38","C:/Users/Brian/Desktop/College - Graduate/Graduate Work/Advanced Quant/BK-subject-2.csv","legacy","Kafkaesque Koffka","3.2.8","0","h","NA","h","NA","NA","h","337","NA","6920","NA","NA","337","2","legacy","1024","2","48000","-16","experiment","sssss","2","even","9482","NA","NA","NA","75735","74661","2561","NA","NA","75733","75838","72576","2552","NA","75838","76176","Flanker Task","28","16345","39","yes","1024"
"70","70","416.875","416.875","black","legacy","legacy","legacy","0","congruent","uniform","0","undefined","0","h","0","0","0","0","39","39","0","0","0","39","39","39","0","39","39","39","09/25/21 22:11:33","1500","The main experiment item","yes","FlankerTask.osexp","C:\Users\Brian\Desktop\College - Graduate\Graduate Work\Advanced Quant","no","mono","no","18","no","white","no","yes","768","legacy","39","39","C:/Users/Brian/Desktop/College - Graduate/Graduate Work/Advanced Quant/BK-subject-2.csv","legacy","Kafkaesque Koffka","3.2.8","0","s","NA","h","NA","NA","s","330","NA","6920","NA","NA","330","2","legacy","1024","2","48000","-16","experiment","hhhhh","2","even","9482","NA","NA","NA","77760","76688","2561","NA","NA","77758","77862","76185","2552","NA","77862","78193","Flanker Task","28","16675","40","yes","1024"
"70.7317073171","70.7317073171","417.146341463","417.146341463","black","legacy","legacy","legacy","0","congruent","uniform","1","undefined","1","s","0","0","0","0","40","40","0","0","0","40","40","40","0","40","40","40","09/25/21 22:11:33","1500","The main experiment item","yes","FlankerTask.osexp","C:\Users\Brian\Desktop\College - Graduate\Graduate Work\Advanced Quant","no","mono","no","18","no","white","no","yes","768","legacy","40","40","C:/Users/Brian/Desktop/College - Graduate/Graduate Work/Advanced Quant/BK-subject-2.csv","legacy","Kafkaesque Koffka","3.2.8","0","s","NA","h","NA","NA","s","428","NA","6920","NA","NA","428","2","legacy","1024","2","48000","-16","experiment","sssss","2","even","9482","NA","NA","NA","79771","78701","2561","NA","NA","79769","79875","78198","2552","NA","79875","80304","Flanker Task","29","17103","41","yes","1024"
"69.0476190476","69.0476190476","415.30952381","415.30952381","black","legacy","legacy","legacy","0","incongruent","uniform","0","undefined","0","h","0","0","0","0","41","41","0","0","0","41","41","41","0","41","41","41","09/25/21 22:11:33","1500","The main experiment item","yes","FlankerTask.osexp","C:\Users\Brian\Desktop\College - Graduate\Graduate Work\Advanced Quant","no","mono","no","18","no","white","no","yes","768","legacy","41","41","C:/Users/Brian/Desktop/College - Graduate/Graduate Work/Advanced Quant/BK-subject-2.csv","legacy","Kafkaesque Koffka","3.2.8","0","s","NA","h","NA","NA","s","340","NA","6920","NA","NA","340","2","legacy","1024","2","48000","-16","experiment","sshss","2","even","9482","NA","NA","NA","81390","80313","2561","NA","NA","81388","81492","78198","2552","NA","81492","81833","Flanker Task","29","17443","42","yes","1024"
"67.4418604651","67.4418604651","413.604651163","413.604651163","black","legacy","legacy","legacy","0","incongruent","uniform","0","undefined","0","h","0","0","0","0","42","42","0","0","0","42","42","42","0","42","42","42","09/25/21 22:11:33","1500","The main experiment item","yes","FlankerTask.osexp","C:\Users\Brian\Desktop\College - Graduate\Graduate Work\Advanced Quant","no","mono","no","18","no","white","no","yes","768","legacy","42","42","C:/Users/Brian/Desktop/College - Graduate/Graduate Work/Advanced Quant/BK-subject-2.csv","legacy","Kafkaesque Koffka","3.2.8","0","s","NA","h","NA","NA","s","342","NA","6920","NA","NA","342","2","legacy","1024","2","48000","-16","experiment","sshss","2","even","9482","NA","NA","NA","83416","82341","2561","NA","NA","83413","83517","81838","2552","NA","83517","83860","Flanker Task","29","17785","43","yes","1024"
"68.1818181818","68.1818181818","412.272727273","412.272727273","black","legacy","legacy","legacy","0","congruent","uniform","1","undefined","1","s","0","0","0","0","43","43","0","0","0","43","43","43","0","43","43","43","09/25/21 22:11:33","1500","The main experiment item","yes","FlankerTask.osexp","C:\Users\Brian\Desktop\College - Graduate\Graduate Work\Advanced Quant","no","mono","no","18","no","white","no","yes","768","legacy","43","43","C:/Users/Brian/Desktop/College - Graduate/Graduate Work/Advanced Quant/BK-subject-2.csv","legacy","Kafkaesque Koffka","3.2.8","0","s","NA","h","NA","NA","s","355","NA","6920","NA","NA","355","2","legacy","1024","2","48000","-16","experiment","sssss","2","even","9482","NA","NA","NA","85442","84371","2561","NA","NA","85440","85545","83869","2552","NA","85545","85902","Flanker Task","30","18140","44","yes","1024"
"66.6666666667","66.6666666667","412.288888889","412.288888889","black","legacy","legacy","legacy","0","incongruent","uniform","0","undefined","0","s","0","0","0","0","44","44","0","0","0","44","44","44","0","44","44","44","09/25/21 22:11:33","1500","The main experiment item","yes","FlankerTask.osexp","C:\Users\Brian\Desktop\College - Graduate\Graduate Work\Advanced Quant","no","mono","no","18","no","white","no","yes","768","legacy","44","44","C:/Users/Brian/Desktop/College - Graduate/Graduate Work/Advanced Quant/BK-subject-2.csv","legacy","Kafkaesque Koffka","3.2.8","0","h","NA","h","NA","NA","h","413","NA","6920","NA","NA","413","2","legacy","1024","2","48000","-16","experiment","hhshh","2","even","9482","NA","NA","NA","86984","85911","2561","NA","NA","86982","87086","83869","2552","NA","87087","87501","Flanker Task","30","18553","45","yes","1024"
"65.2173913043","65.2173913043","413.565217391","413.565217391","black","legacy","legacy","legacy","0","congruent","uniform","0","undefined","0","h","0","0","0","0","45","45","0","0","0","45","45","45","0","45","45","45","09/25/21 22:11:33","1500","The main experiment item","yes","FlankerTask.osexp","C:\Users\Brian\Desktop\College - Graduate\Graduate Work\Advanced Quant","no","mono","no","18","no","white","no","yes","768","legacy","45","45","C:/Users/Brian/Desktop/College - Graduate/Graduate Work/Advanced Quant/BK-subject-2.csv","legacy","Kafkaesque Koffka","3.2.8","0","s","NA","h","NA","NA","s","471","NA","6920","NA","NA","471","2","legacy","1024","2","48000","-16","experiment","hhhhh","2","even","9482","NA","NA","NA","89087","88013","2561","NA","NA","89084","89190","87510","2552","NA","89190","89662","Flanker Task","30","19024","46","yes","1024"
"65.9574468085","65.9574468085","413.404255319","413.404255319","black","legacy","legacy","legacy","0","incongruent","uniform","1","undefined","1","h","0","0","0","0","46","46","0","0","0","46","46","46","0","46","46","46","09/25/21 22:11:33","1500","The main experiment item","yes","FlankerTask.osexp","C:\Users\Brian\Desktop\College - Graduate\Graduate Work\Advanced Quant","no","mono","no","18","no","white","no","yes","768","legacy","46","46","C:/Users/Brian/Desktop/College - Graduate/Graduate Work/Advanced Quant/BK-subject-2.csv","legacy","Kafkaesque Koffka","3.2.8","0","h","NA","h","NA","NA","h","406","NA","6920","NA","NA","406","2","legacy","1024","2","48000","-16","experiment","sshss","2","even","9482","NA","NA","NA","91245","90173","2561","NA","NA","91243","91347","89670","2552","NA","91347","91754","Flanker Task","31","19430","47","yes","1024"
"66.6666666667","66.6666666667","414.895833333","414.895833333","black","legacy","legacy","legacy","0","incongruent","uniform","1","undefined","1","h","0","0","0","0","47","47","0","0","0","47","47","47","0","47","47","47","09/25/21 22:11:33","1500","The main experiment item","yes","FlankerTask.osexp","C:\Users\Brian\Desktop\College - Graduate\Graduate Work\Advanced Quant","no","mono","no","18","no","white","no","yes","768","legacy","47","47","C:/Users/Brian/Desktop/College - Graduate/Graduate Work/Advanced Quant/BK-subject-2.csv","legacy","Kafkaesque Koffka","3.2.8","0","h","NA","h","NA","NA","h","485","NA","6920","NA","NA","485","2","legacy","1024","2","48000","-16","experiment","sshss","2","even","9482","NA","NA","NA","92837","91762","2561","NA","NA","92835","92940","89670","2552","NA","92940","93426","Flanker Task","32","19915","48","yes","1024"
"67.3469387755","67.3469387755","412.959183673","412.959183673","black","legacy","legacy","legacy","0","incongruent","uniform","1","undefined","1","s","0","0","0","0","48","48","0","0","0","48","48","48","0","48","48","48","09/25/21 22:11:33","1500","The main experiment item","yes","FlankerTask.osexp","C:\Users\Brian\Desktop\College - Graduate\Graduate Work\Advanced Quant","no","mono","no","18","no","white","no","yes","768","legacy","48","48","C:/Users/Brian/Desktop/College - Graduate/Graduate Work/Advanced Quant/BK-subject-2.csv","legacy","Kafkaesque Koffka","3.2.8","0","s","NA","h","NA","NA","s","320","NA","6920","NA","NA","320","2","legacy","1024","2","48000","-16","experiment","hhshh","2","even","9482","NA","NA","NA","94506","93431","2561","NA","NA","94504","94609","89670","2552","NA","94609","94931","Flanker Task","33","20235","49","yes","1024"
"68","68","415.26","415.26","black","legacy","legacy","legacy","0","incongruent","uniform","1","undefined","1","s","0","0","0","0","49","49","0","0","0","49","49","49","0","49","49","49","09/25/21 22:11:33","1500","The main experiment item","yes","FlankerTask.osexp","C:\Users\Brian\Desktop\College - Graduate\Graduate Work\Advanced Quant","no","mono","no","18","no","white","no","yes","768","legacy","49","49","C:/Users/Brian/Desktop/College - Graduate/Graduate Work/Advanced Quant/BK-subject-2.csv","legacy","Kafkaesque Koffka","3.2.8","0","s","NA","h","NA","NA","s","528","NA","6920","NA","NA","528","2","legacy","1024","2","48000","-16","experiment","hhshh","2","even","9482","NA","NA","NA","96017","94940","2561","NA","NA","96014","96119","89670","2552","NA","96119","96648","Flanker Task","34","20763","50","yes","1024"
"66.6666666667","66.6666666667","413.176470588","413.176470588","black","legacy","legacy","legacy","0","congruent","uniform","0","undefined","0","h","0","0","0","0","50","50","0","0","0","50","50","50","0","50","50","50","09/25/21 22:11:33","1500","The main experiment item","yes","FlankerTask.osexp","C:\Users\Brian\Desktop\College - Graduate\Graduate Work\Advanced Quant","no","mono","no","18","no","white","no","yes","768","legacy","50","50","C:/Users/Brian/Desktop/College - Graduate/Graduate Work/Advanced Quant/BK-subject-2.csv","legacy","Kafkaesque Koffka","3.2.8","0","s","NA","h","NA","NA","s","309","NA","6920","NA","NA","309","2","legacy","1024","2","48000","-16","experiment","hhhhh","2","even","9482","NA","NA","NA","97741","96662","2561","NA","NA","97739","97842","89670","2552","NA","97842","98152","Flanker Task","34","21072","51","yes","1024"
"65.3846153846","65.3846153846","413.288461538","413.288461538","black","legacy","legacy","legacy","0","congruent","uniform","0","undefined","0","h","0","0","0","0","51","51","0","0","0","51","51","51","0","51","51","51","09/25/21 22:11:33","1500","The main experiment item","yes","FlankerTask.osexp","C:\Users\Brian\Desktop\College - Graduate\Graduate Work\Advanced Quant","no","mono","no","18","no","white","no","yes","768","legacy","51","51","C:/Users/Brian/Desktop/College - Graduate/Graduate Work/Advanced Quant/BK-subject-2.csv","legacy","Kafkaesque Koffka","3.2.8","0","s","NA","h","NA","NA","s","419","NA","6920","NA","NA","419","2","legacy","1024","2","48000","-16","experiment","hhhhh","2","even","9482","NA","NA","NA","99736","98663","2561","NA","NA","99734","99838","98160","2552","NA","99838","100259","Flanker Task","34","21491","52","yes","1024"
"64.1509433962","64.1509433962","413.773584906","413.773584906","black","legacy","legacy","legacy","0","congruent","uniform","0","undefined","0","h","0","0","0","0","52","52","0","0","0","52","52","52","0","52","52","52","09/25/21 22:11:33","1500","The main experiment item","yes","FlankerTask.osexp","C:\Users\Brian\Desktop\College - Graduate\Graduate Work\Advanced Quant","no","mono","no","18","no","white","no","yes","768","legacy","52","52","C:/Users/Brian/Desktop/College - Graduate/Graduate Work/Advanced Quant/BK-subject-2.csv","legacy","Kafkaesque Koffka","3.2.8","0","s","NA","h","NA","NA","s","439","NA","6920","NA","NA","439","2","legacy","1024","2","48000","-16","experiment","hhhhh","2","even","9482","NA","NA","NA","101837","100766","2561","NA","NA","101835","101940","100263","2552","NA","101940","102380","Flanker Task","34","21930","53","yes","1024"
"62.962962963","62.962962963","414.777777778","414.777777778","black","legacy","legacy","legacy","0","incongruent","uniform","0","undefined","0","h","0","0","0","0","53","53","0","0","0","53","53","53","0","53","53","53","09/25/21 22:11:33","1500","The main experiment item","yes","FlankerTask.osexp","C:\Users\Brian\Desktop\College - Graduate\Graduate Work\Advanced Quant","no","mono","no","18","no","white","no","yes","768","legacy","53","53","C:/Users/Brian/Desktop/College - Graduate/Graduate Work/Advanced Quant/BK-subject-2.csv","legacy","Kafkaesque Koffka","3.2.8","0","s","NA","h","NA","NA","s","468","NA","6920","NA","NA","468","2","legacy","1024","2","48000","-16","experiment","sshss","2","even","9482","NA","NA","NA","103965","102892","2561","NA","NA","103962","104067","102389","2552","NA","104067","104537","Flanker Task","34","22398","54","yes","1024"
"63.6363636364","63.6363636364","415.454545455","415.454545455","black","legacy","legacy","legacy","0","congruent","uniform","1","undefined","1","h","0","0","0","0","54","54","0","0","0","54","54","54","0","54","54","54","09/25/21 22:11:33","1500","The main experiment item","yes","FlankerTask.osexp","C:\Users\Brian\Desktop\College - Graduate\Graduate Work\Advanced Quant","no","mono","no","18","no","white","no","yes","768","legacy","54","54","C:/Users/Brian/Desktop/College - Graduate/Graduate Work/Advanced Quant/BK-subject-2.csv","legacy","Kafkaesque Koffka","3.2.8","0","h","NA","h","NA","NA","h","452","NA","6920","NA","NA","452","2","legacy","1024","2","48000","-16","experiment","hhhhh","2","even","9482","NA","NA","NA","106116","105046","2561","NA","NA","106114","106219","104545","2552","NA","106219","106673","Flanker Task","35","22850","55","yes","1024"
"64.2857142857","64.2857142857","416.053571429","416.053571429","black","legacy","legacy","legacy","0","incongruent","uniform","1","undefined","1","s","0","0","0","0","55","55","0","0","0","55","55","55","0","55","55","55","09/25/21 22:11:33","1500","The main experiment item","yes","FlankerTask.osexp","C:\Users\Brian\Desktop\College - Graduate\Graduate Work\Advanced Quant","no","mono","no","18","no","white","no","yes","768","legacy","55","55","C:/Users/Brian/Desktop/College - Graduate/Graduate Work/Advanced Quant/BK-subject-2.csv","legacy","Kafkaesque Koffka","3.2.8","0","s","NA","h","NA","NA","s","449","NA","6920","NA","NA","449","2","legacy","1024","2","48000","-16","experiment","hhshh","2","even","9482","NA","NA","NA","107763","106682","2561","NA","NA","107761","107866","104545","2552","NA","107866","108316","Flanker Task","36","23299","56","yes","1024"
"64.9122807018","64.9122807018","416.473684211","416.473684211","black","legacy","legacy","legacy","0","incongruent","uniform","1","undefined","1","h","0","0","0","0","56","56","0","0","0","56","56","56","0","56","56","56","09/25/21 22:11:33","1500","The main experiment item","yes","FlankerTask.osexp","C:\Users\Brian\Desktop\College - Graduate\Graduate Work\Advanced Quant","no","mono","no","18","no","white","no","yes","768","legacy","56","56","C:/Users/Brian/Desktop/College - Graduate/Graduate Work/Advanced Quant/BK-subject-2.csv","legacy","Kafkaesque Koffka","3.2.8","0","h","NA","h","NA","NA","h","440","NA","6920","NA","NA","440","2","legacy","1024","2","48000","-16","experiment","sshss","2","even","9482","NA","NA","NA","109396","108319","2561","NA","NA","109393","109498","104545","2552","NA","109498","109939","Flanker Task","37","23739","57","yes","1024"
"65.5172413793","65.5172413793","416.275862069","416.275862069","black","legacy","legacy","legacy","0","congruent","uniform","1","undefined","1","s","0","0","0","0","57","57","0","0","0","57","57","57","0","57","57","57","09/25/21 22:11:33","1500","The main experiment item","yes","FlankerTask.osexp","C:\Users\Brian\Desktop\College - Graduate\Graduate Work\Advanced Quant","no","mono","no","18","no","white","no","yes","768","legacy","57","57","C:/Users/Brian/Desktop/College - Graduate/Graduate Work/Advanced Quant/BK-subject-2.csv","legacy","Kafkaesque Koffka","3.2.8","0","s","NA","h","NA","NA","s","405","NA","6920","NA","NA","405","2","legacy","1024","2","48000","-16","experiment","sssss","2","even","9482","NA","NA","NA","111019","109949","2561","NA","NA","111017","111122","104545","2552","NA","111122","111528","Flanker Task","38","24144","58","yes","1024"
"66.1016949153","66.1016949153","415.694915254","415.694915254","black","legacy","legacy","legacy","0","incongruent","uniform","1","undefined","1","s","0","0","0","0","58","58","0","0","0","58","58","58","0","58","58","58","09/25/21 22:11:33","1500","The main experiment item","yes","FlankerTask.osexp","C:\Users\Brian\Desktop\College - Graduate\Graduate Work\Advanced Quant","no","mono","no","18","no","white","no","yes","768","legacy","58","58","C:/Users/Brian/Desktop/College - Graduate/Graduate Work/Advanced Quant/BK-subject-2.csv","legacy","Kafkaesque Koffka","3.2.8","0","s","NA","h","NA","NA","s","382","NA","6920","NA","NA","382","2","legacy","1024","2","48000","-16","experiment","hhshh","2","even","9482","NA","NA","NA","112611","111537","2561","NA","NA","112609","112714","104545","2552","NA","112714","113097","Flanker Task","39","24526","59","yes","1024"
"65","65","414.583333333","414.583333333","black","legacy","legacy","legacy","0","incongruent","uniform","0","undefined","0","s","0","0","0","0","59","59","0","0","0","59","59","59","0","59","59","59","09/25/21 22:11:33","1500","The main experiment item","yes","FlankerTask.osexp","C:\Users\Brian\Desktop\College - Graduate\Graduate Work\Advanced Quant","no","mono","no","18","no","white","no","yes","768","legacy","59","59","C:/Users/Brian/Desktop/College - Graduate/Graduate Work/Advanced Quant/BK-subject-2.csv","legacy","Kafkaesque Koffka","3.2.8","0","h","NA","h","NA","NA","h","349","NA","6920","NA","NA","349","2","legacy","1024","2","48000","-16","experiment","hhshh","2","even","9482","NA","NA","NA","114180","113106","2561","NA","NA","114178","114281","104545","2552","NA","114281","114631","Flanker Task","39","24875","60","yes","1024"
"65.5737704918","65.5737704918","415.016393443","415.016393443","black","legacy","legacy","legacy","0","incongruent","uniform","1","undefined","1","h","0","0","0","0","60","60","0","0","0","60","60","60","0","60","60","60","09/25/21 22:11:33","1500","The main experiment item","yes","FlankerTask.osexp","C:\Users\Brian\Desktop\College - Graduate\Graduate Work\Advanced Quant","no","mono","no","18","no","white","no","yes","768","legacy","60","60","C:/Users/Brian/Desktop/College - Graduate/Graduate Work/Advanced Quant/BK-subject-2.csv","legacy","Kafkaesque Koffka","3.2.8","0","h","NA","h","NA","NA","h","441","NA","6920","NA","NA","441","2","legacy","1024","2","48000","-16","experiment","sshss","2","even","9482","NA","NA","NA","116212","115141","2561","NA","NA","116210","116315","114639","2552","NA","116315","116757","Flanker Task","40","25316","61","yes","1024"
"66.1290322581","66.1290322581","415.64516129","415.64516129","black","legacy","legacy","legacy","0","congruent","uniform","1","undefined","1","h","0","0","0","0","61","61","0","0","0","61","61","61","0","61","61","61","09/25/21 22:11:33","1500","The main experiment item","yes","FlankerTask.osexp","C:\Users\Brian\Desktop\College - Graduate\Graduate Work\Advanced Quant","no","mono","no","18","no","white","no","yes","768","legacy","61","61","C:/Users/Brian/Desktop/College - Graduate/Graduate Work/Advanced Quant/BK-subject-2.csv","legacy","Kafkaesque Koffka","3.2.8","0","h","NA","h","NA","NA","h","454","NA","6920","NA","NA","454","2","legacy","1024","2","48000","-16","experiment","hhhhh","2","even","9482","NA","NA","NA","117843","116766","2561","NA","NA","117841","117946","114639","2552","NA","117946","118401","Flanker Task","41","25770","62","yes","1024"
"66.6666666667","66.6666666667","418.380952381","418.380952381","black","legacy","legacy","legacy","0","incongruent","uniform","1","undefined","1","h","0","0","0","0","62","62","0","0","0","62","62","62","0","62","62","62","09/25/21 22:11:33","1500","The main experiment item","yes","FlankerTask.osexp","C:\Users\Brian\Desktop\College - Graduate\Graduate Work\Advanced Quant","no","mono","no","18","no","white","no","yes","768","legacy","62","62","C:/Users/Brian/Desktop/College - Graduate/Graduate Work/Advanced Quant/BK-subject-2.csv","legacy","Kafkaesque Koffka","3.2.8","0","h","NA","h","NA","NA","h","588","NA","6920","NA","NA","588","2","legacy","1024","2","48000","-16","experiment","sshss","2","even","9482","NA","NA","NA","119481","118404","2561","NA","NA","119479","119584","114639","2552","NA","119584","120173","Flanker Task","42","26358","63","yes","1024"
"67.1875","67.1875","418.421875","418.421875","black","legacy","legacy","legacy","0","incongruent","uniform","1","undefined","1","h","0","0","0","0","63","63","0","0","0","63","63","63","0","63","63","63","09/25/21 22:11:33","1500","The main experiment item","yes","FlankerTask.osexp","C:\Users\Brian\Desktop\College - Graduate\Graduate Work\Advanced Quant","no","mono","no","18","no","white","no","yes","768","legacy","63","63","C:/Users/Brian/Desktop/College - Graduate/Graduate Work/Advanced Quant/BK-subject-2.csv","legacy","Kafkaesque Koffka","3.2.8","0","h","NA","h","NA","NA","h","421","NA","6920","NA","NA","421","2","legacy","1024","2","48000","-16","experiment","sshss","2","even","9482","NA","NA","NA","121256","120182","2561","NA","NA","121254","121359","114639","2552","NA","121359","121781","Flanker Task","43","26779","64","yes","1024"
"66.1538461538","66.1538461538","418.492307692","418.492307692","black","legacy","legacy","legacy","0","congruent","uniform","0","undefined","0","s","0","0","0","0","64","64","0","0","0","64","64","64","0","64","64","64","09/25/21 22:11:33","1500","The main experiment item","yes","FlankerTask.osexp","C:\Users\Brian\Desktop\College - Graduate\Graduate Work\Advanced Quant","no","mono","no","18","no","white","no","yes","768","legacy","64","64","C:/Users/Brian/Desktop/College - Graduate/Graduate Work/Advanced Quant/BK-subject-2.csv","legacy","Kafkaesque Koffka","3.2.8","0","h","NA","h","NA","NA","h","423","NA","6920","NA","NA","423","2","legacy","1024","2","48000","-16","experiment","sssss","2","even","9482","NA","NA","NA","122869","121790","2561","NA","NA","122867","122972","114639","2552","NA","122972","123396","Flanker Task","43","27202","65","yes","1024"
"66.6666666667","66.6666666667","418.666666667","418.666666667","black","legacy","legacy","legacy","0","incongruent","uniform","1","undefined","1","s","0","0","0","0","65","65","0","0","0","65","65","65","0","65","65","65","09/25/21 22:11:33","1500","The main experiment item","yes","FlankerTask.osexp","C:\Users\Brian\Desktop\College - Graduate\Graduate Work\Advanced Quant","no","mono","no","18","no","white","no","yes","768","legacy","65","65","C:/Users/Brian/Desktop/College - Graduate/Graduate Work/Advanced Quant/BK-subject-2.csv","legacy","Kafkaesque Koffka","3.2.8","0","s","NA","h","NA","NA","s","430","NA","6920","NA","NA","430","2","legacy","1024","2","48000","-16","experiment","hhshh","2","even","9482","NA","NA","NA","124978","123904","2561","NA","NA","124976","125080","123401","2552","NA","125080","125511","Flanker Task","44","27632","66","yes","1024"
"67.1641791045","67.1641791045","418.656716418","418.656716418","black","legacy","legacy","legacy","0","congruent","uniform","1","undefined","1","s","0","0","0","0","66","66","0","0","0","66","66","66","0","66","66","66","09/25/21 22:11:33","1500","The main experiment item","yes","FlankerTask.osexp","C:\Users\Brian\Desktop\College - Graduate\Graduate Work\Advanced Quant","no","mono","no","18","no","white","no","yes","768","legacy","66","66","C:/Users/Brian/Desktop/College - Graduate/Graduate Work/Advanced Quant/BK-subject-2.csv","legacy","Kafkaesque Koffka","3.2.8","0","s","NA","h","NA","NA","s","418","NA","6920","NA","NA","418","2","legacy","1024","2","48000","-16","experiment","sssss","2","even","9482","NA","NA","NA","126598","125519","2561","NA","NA","126596","126701","123401","2552","NA","126701","127121","Flanker Task","45","28050","67","yes","1024"
"67.6470588235","67.6470588235","419.117647059","419.117647059","black","legacy","legacy","legacy","0","congruent","uniform","1","undefined","1","h","0","0","0","0","67","67","0","0","0","67","67","67","0","67","67","67","09/25/21 22:11:33","1500","The main experiment item","yes","FlankerTask.osexp","C:\Users\Brian\Desktop\College - Graduate\Graduate Work\Advanced Quant","no","mono","no","18","no","white","no","yes","768","legacy","67","67","C:/Users/Brian/Desktop/College - Graduate/Graduate Work/Advanced Quant/BK-subject-2.csv","legacy","Kafkaesque Koffka","3.2.8","0","h","NA","h","NA","NA","h","450","NA","6920","NA","NA","450","2","legacy","1024","2","48000","-16","experiment","hhhhh","2","even","9482","NA","NA","NA","128209","127130","2561","NA","NA","128207","128312","123401","2552","NA","128312","128763","Flanker Task","46","28500","68","yes","1024"
"66.6666666667","66.6666666667","418.130434783","418.130434783","black","legacy","legacy","legacy","0","congruent","uniform","0","undefined","0","h","0","0","0","0","68","68","0","0","0","68","68","68","0","68","68","68","09/25/21 22:11:33","1500","The main experiment item","yes","FlankerTask.osexp","C:\Users\Brian\Desktop\College - Graduate\Graduate Work\Advanced Quant","no","mono","no","18","no","white","no","yes","768","legacy","68","68","C:/Users/Brian/Desktop/College - Graduate/Graduate Work/Advanced Quant/BK-subject-2.csv","legacy","Kafkaesque Koffka","3.2.8","0","s","NA","h","NA","NA","s","351","NA","6920","NA","NA","351","2","legacy","1024","2","48000","-16","experiment","hhhhh","2","even","9482","NA","NA","NA","129857","128772","2561","NA","NA","129854","129960","123401","2552","NA","129960","130312","Flanker Task","46","28851","69","yes","1024"
"65.7142857143","65.7142857143","417.4","417.4","black","legacy","legacy","legacy","0","incongruent","uniform","0","undefined","0","h","0","0","0","0","69","69","0","0","0","69","69","69","0","69","69","69","09/25/21 22:11:33","1500","The main experiment item","yes","FlankerTask.osexp","C:\Users\Brian\Desktop\College - Graduate\Graduate Work\Advanced Quant","no","mono","no","18","no","white","no","yes","768","legacy","69","69","C:/Users/Brian/Desktop/College - Graduate/Graduate Work/Advanced Quant/BK-subject-2.csv","legacy","Kafkaesque Koffka","3.2.8","0","s","NA","h","NA","NA","s","367","NA","6920","NA","NA","367","2","legacy","1024","2","48000","-16","experiment","sshss","2","even","9482","NA","NA","NA","131895","130819","2561","NA","NA","131893","131997","130316","2552","NA","131997","132365","Flanker Task","46","29218","70","yes","1024"
"66.1971830986","66.1971830986","418.253521127","418.253521127","black","legacy","legacy","legacy","0","incongruent","uniform","1","undefined","1","s","0","0","0","0","70","70","0","0","0","70","70","70","0","70","70","70","09/25/21 22:11:33","1500","The main experiment item","yes","FlankerTask.osexp","C:\Users\Brian\Desktop\College - Graduate\Graduate Work\Advanced Quant","no","mono","no","18","no","white","no","yes","768","legacy","70","70","C:/Users/Brian/Desktop/College - Graduate/Graduate Work/Advanced Quant/BK-subject-2.csv","legacy","Kafkaesque Koffka","3.2.8","0","s","NA","h","NA","NA","s","478","NA","6920","NA","NA","478","2","legacy","1024","2","48000","-16","experiment","hhshh","2","even","9482","NA","NA","NA","133948","132876","2561","NA","NA","133946","134050","132373","2552","NA","134050","134529","Flanker Task","47","29696","71","yes","1024"
"66.6666666667","66.6666666667","418.916666667","418.916666667","black","legacy","legacy","legacy","0","congruent","uniform","1","undefined","1","s","0","0","0","0","71","71","0","0","0","71","71","71","0","71","71","71","09/25/21 22:11:33","1500","The main experiment item","yes","FlankerTask.osexp","C:\Users\Brian\Desktop\College - Graduate\Graduate Work\Advanced Quant","no","mono","no","18","no","white","no","yes","768","legacy","71","71","C:/Users/Brian/Desktop/College - Graduate/Graduate Work/Advanced Quant/BK-subject-2.csv","legacy","Kafkaesque Koffka","3.2.8","0","s","NA","h","NA","NA","s","466","NA","6920","NA","NA","466","2","legacy","1024","2","48000","-16","experiment","sssss","2","even","9482","NA","NA","NA","135617","134538","2561","NA","NA","135615","135720","132373","2552","NA","135720","136187","Flanker Task","48","30162","72","yes","1024"
"67.1232876712","67.1232876712","419.123287671","419.123287671","black","legacy","legacy","legacy","0","congruent","uniform","1","undefined","1","s","0","0","0","0","72","72","0","0","0","72","72","72","0","72","72","72","09/25/21 22:11:33","1500","The main experiment item","yes","FlankerTask.osexp","C:\Users\Brian\Desktop\College - Graduate\Graduate Work\Advanced Quant","no","mono","no","18","no","white","no","yes","768","legacy","72","72","C:/Users/Brian/Desktop/College - Graduate/Graduate Work/Advanced Quant/BK-subject-2.csv","legacy","Kafkaesque Koffka","3.2.8","0","s","NA","h","NA","NA","s","434","NA","6920","NA","NA","434","2","legacy","1024","2","48000","-16","experiment","sssss","2","even","9482","NA","NA","NA","137268","136191","2561","NA","NA","137266","137371","132373","2552","NA","137371","137806","Flanker Task","49","30596","73","yes","1024"
"67.5675675676","67.5675675676","418.810810811","418.810810811","black","legacy","legacy","legacy","0","congruent","uniform","1","undefined","1","h","0","0","0","0","73","73","0","0","0","73","73","73","0","73","73","73","09/25/21 22:11:33","1500","The main experiment item","yes","FlankerTask.osexp","C:\Users\Brian\Desktop\College - Graduate\Graduate Work\Advanced Quant","no","mono","no","18","no","white","no","yes","768","legacy","73","73","C:/Users/Brian/Desktop/College - Graduate/Graduate Work/Advanced Quant/BK-subject-2.csv","legacy","Kafkaesque Koffka","3.2.8","0","h","NA","h","NA","NA","h","396","NA","6920","NA","NA","396","2","legacy","1024","2","48000","-16","experiment","hhhhh","2","even","9482","NA","NA","NA","138895","137816","2561","NA","NA","138893","138998","132373","2552","NA","138998","139395","Flanker Task","50","30992","74","yes","1024"
"68","68","419.4","419.4","black","legacy","legacy","legacy","0","incongruent","uniform","1","undefined","1","s","0","0","0","0","74","74","0","0","0","74","74","74","0","74","74","74","09/25/21 22:11:33","1500","The main experiment item","yes","FlankerTask.osexp","C:\Users\Brian\Desktop\College - Graduate\Graduate Work\Advanced Quant","no","mono","no","18","no","white","no","yes","768","legacy","74","74","C:/Users/Brian/Desktop/College - Graduate/Graduate Work/Advanced Quant/BK-subject-2.csv","legacy","Kafkaesque Koffka","3.2.8","0","s","NA","h","NA","NA","s","463","NA","6920","NA","NA","463","2","legacy","1024","2","48000","-16","experiment","hhshh","2","even","9482","NA","NA","NA","140481","139404","2561","NA","NA","140479","140584","132373","2552","NA","140584","141048","Flanker Task","51","31455","75","yes","1024"
"67.1052631579","67.1052631579","419.815789474","419.815789474","black","legacy","legacy","legacy","0","incongruent","uniform","0","undefined","0","h","0","0","0","0","75","75","0","0","0","75","75","75","0","75","75","75","09/25/21 22:11:33","1500","The main experiment item","yes","FlankerTask.osexp","C:\Users\Brian\Desktop\College - Graduate\Graduate Work\Advanced Quant","no","mono","no","18","no","white","no","yes","768","legacy","75","75","C:/Users/Brian/Desktop/College - Graduate/Graduate Work/Advanced Quant/BK-subject-2.csv","legacy","Kafkaesque Koffka","3.2.8","0","s","NA","h","NA","NA","s","451","NA","6920","NA","NA","451","2","legacy","1024","2","48000","-16","experiment","sshss","2","even","9482","NA","NA","NA","142131","141056","2561","NA","NA","142129","142234","132373","2552","NA","142234","142687","Flanker Task","51","31906","76","yes","1024"
"66.2337662338","66.2337662338","420.545454545","420.545454545","black","legacy","legacy","legacy","0","incongruent","uniform","0","undefined","0","h","0","0","0","0","76","76","0","0","0","76","76","76","0","76","76","76","09/25/21 22:11:33","1500","The main experiment item","yes","FlankerTask.osexp","C:\Users\Brian\Desktop\College - Graduate\Graduate Work\Advanced Quant","no","mono","no","18","no","white","no","yes","768","legacy","76","76","C:/Users/Brian/Desktop/College - Graduate/Graduate Work/Advanced Quant/BK-subject-2.csv","legacy","Kafkaesque Koffka","3.2.8","0","s","NA","h","NA","NA","s","476","NA","6920","NA","NA","476","2","legacy","1024","2","48000","-16","experiment","sshss","2","even","9482","NA","NA","NA","144272","143199","2561","NA","NA","144269","144375","142696","2552","NA","144375","144852","Flanker Task","51","32382","77","yes","1024"
"66.6666666667","66.6666666667","421.384615385","421.384615385","black","legacy","legacy","legacy","0","incongruent","uniform","1","undefined","1","s","0","0","0","0","77","77","0","0","0","77","77","77","0","77","77","77","09/25/21 22:11:33","1500","The main experiment item","yes","FlankerTask.osexp","C:\Users\Brian\Desktop\College - Graduate\Graduate Work\Advanced Quant","no","mono","no","18","no","white","no","yes","768","legacy","77","77","C:/Users/Brian/Desktop/College - Graduate/Graduate Work/Advanced Quant/BK-subject-2.csv","legacy","Kafkaesque Koffka","3.2.8","0","s","NA","h","NA","NA","s","486","NA","6920","NA","NA","486","2","legacy","1024","2","48000","-16","experiment","hhshh","2","even","9482","NA","NA","NA","146433","145362","2561","NA","NA","146431","146536","144861","2552","NA","146536","147023","Flanker Task","52","32868","78","yes","1024"
"67.0886075949","67.0886075949","421.430379747","421.430379747","black","legacy","legacy","legacy","0","congruent","uniform","1","undefined","1","h","0","0","0","0","78","78","0","0","0","78","78","78","0","78","78","78","09/25/21 22:11:33","1500","The main experiment item","yes","FlankerTask.osexp","C:\Users\Brian\Desktop\College - Graduate\Graduate Work\Advanced Quant","no","mono","no","18","no","white","no","yes","768","legacy","78","78","C:/Users/Brian/Desktop/College - Graduate/Graduate Work/Advanced Quant/BK-subject-2.csv","legacy","Kafkaesque Koffka","3.2.8","0","h","NA","h","NA","NA","h","425","NA","6920","NA","NA","425","2","legacy","1024","2","48000","-16","experiment","hhhhh","2","even","9482","NA","NA","NA","148108","147032","2561","NA","NA","148106","148210","144861","2552","NA","148210","148636","Flanker Task","53","33293","79","yes","1024"
"67.5","67.5","422.125","422.125","black","legacy","legacy","legacy","0","incongruent","uniform","1","undefined","1","h","0","0","0","0","79","79","0","0","0","79","79","79","0","79","79","79","09/25/21 22:11:33","1500","The main experiment item","yes","FlankerTask.osexp","C:\Users\Brian\Desktop\College - Graduate\Graduate Work\Advanced Quant","no","mono","no","18","no","white","no","yes","768","legacy","79","79","C:/Users/Brian/Desktop/College - Graduate/Graduate Work/Advanced Quant/BK-subject-2.csv","legacy","Kafkaesque Koffka","3.2.8","0","h","NA","h","NA","NA","h","477","NA","6920","NA","NA","477","2","legacy","1024","2","48000","-16","experiment","sshss","2","even","9482","NA","NA","NA","149720","148645","2561","NA","NA","149718","149823","144861","2552","NA","149823","150302","Flanker Task","54","33770","80","yes","1024"
"66.6666666667","66.6666666667","422.12345679","422.12345679","black","legacy","legacy","legacy","0","incongruent","uniform","0","undefined","0","h","0","0","0","0","80","80","0","0","0","80","80","80","0","80","80","80","09/25/21 22:11:33","600","The main experiment item","yes","FlankerTask.osexp","C:\Users\Brian\Desktop\College - Graduate\Graduate Work\Advanced Quant","no","mono","no","18","no","white","no","yes","768","legacy","0","79","C:/Users/Brian/Desktop/College - Graduate/Graduate Work/Advanced Quant/BK-subject-2.csv","legacy","Kafkaesque Koffka","3.2.8","0","s","NA","h","h","NA","s","422","NA","6920","2332","NA","422","2","legacy","1024","2","48000","-16","experiment","sshss","2","even","9482","153662","NA","NA","153729","150310","2561","151328","NA","153728","153832","144861","2552","NA","153832","154255","Flanker Task","54","34192","81","yes","1024"
"65.8536585366","65.8536585366","421.341463415","421.341463415","black","legacy","legacy","legacy","0","congruent","uniform","0","undefined","0","h","0","0","0","0","81","81","0","0","0","81","81","81","0","81","81","81","09/25/21 22:11:33","600","The main experiment item","yes","FlankerTask.osexp","C:\Users\Brian\Desktop\College - Graduate\Graduate Work\Advanced Quant","no","mono","no","18","no","white","no","yes","768","legacy","1","79","C:/Users/Brian/Desktop/College - Graduate/Graduate Work/Advanced Quant/BK-subject-2.csv","legacy","Kafkaesque Koffka","3.2.8","0","s","NA","h","h","NA","s","358","NA","6920","2332","NA","358","2","legacy","1024","2","48000","-16","experiment","hhhhh","2","even","9482","153662","NA","NA","155839","154766","2561","151328","NA","155837","155942","154263","2552","NA","155942","156302","Flanker Task","54","34550","82","yes","1024"
"65.0602409639","65.0602409639","421.084337349","421.084337349","black","legacy","legacy","legacy","0","congruent","uniform","0","undefined","0","h","0","0","0","0","82","82","0","0","0","82","82","82","0","82","82","82","09/25/21 22:11:33","600","The main experiment item","yes","FlankerTask.osexp","C:\Users\Brian\Desktop\College - Graduate\Graduate Work\Advanced Quant","no","mono","no","18","no","white","no","yes","768","legacy","2","79","C:/Users/Brian/Desktop/College - Graduate/Graduate Work/Advanced Quant/BK-subject-2.csv","legacy","Kafkaesque Koffka","3.2.8","0","s","NA","h","h","NA","s","400","NA","6920","2332","NA","400","2","legacy","1024","2","48000","-16","experiment","hhhhh","2","even","9482","153662","NA","NA","157888","156814","2561","151328","NA","157886","157991","156310","2552","NA","157991","158393","Flanker Task","54","34950","83","yes","1024"
"65.4761904762","65.4761904762","422.511904762","422.511904762","black","legacy","legacy","legacy","0","incongruent","uniform","1","undefined","1","h","0","0","0","0","83","83","0","0","0","83","83","83","0","83","83","83","09/25/21 22:11:33","600","The main experiment item","yes","FlankerTask.osexp","C:\Users\Brian\Desktop\College - Graduate\Graduate Work\Advanced Quant","no","mono","no","18","no","white","no","yes","768","legacy","3","79","C:/Users/Brian/Desktop/College - Graduate/Graduate Work/Advanced Quant/BK-subject-2.csv","legacy","Kafkaesque Koffka","3.2.8","0","h","NA","h","h","NA","h","541","NA","6920","2332","NA","541","2","legacy","1024","2","48000","-16","experiment","sshss","2","even","9482","153662","NA","NA","159974","158900","2561","151328","NA","159972","160076","158397","2552","NA","160076","160618","Flanker Task","55","35491","84","yes","1024"
"64.7058823529","64.7058823529","421.352941176","421.352941176","black","legacy","legacy","legacy","0","congruent","uniform","0","undefined","0","h","0","0","0","0","84","84","0","0","0","84","84","84","0","84","84","84","09/25/21 22:11:33","600","The main experiment item","yes","FlankerTask.osexp","C:\Users\Brian\Desktop\College - Graduate\Graduate Work\Advanced Quant","no","mono","no","18","no","white","no","yes","768","legacy","4","79","C:/Users/Brian/Desktop/College - Graduate/Graduate Work/Advanced Quant/BK-subject-2.csv","legacy","Kafkaesque Koffka","3.2.8","0","s","NA","h","h","NA","s","324","NA","6920","2332","NA","324","2","legacy","1024","2","48000","-16","experiment","hhhhh","2","even","9482","153662","NA","NA","161699","160623","2561","151328","NA","161697","161801","158397","2552","NA","161801","162127","Flanker Task","55","35815","85","yes","1024"
"65.1162790698","65.1162790698","422","422","black","legacy","legacy","legacy","0","incongruent","uniform","1","undefined","1","h","0","0","0","0","85","85","0","0","0","85","85","85","0","85","85","85","09/25/21 22:11:33","600","The main experiment item","yes","FlankerTask.osexp","C:\Users\Brian\Desktop\College - Graduate\Graduate Work\Advanced Quant","no","mono","no","18","no","white","no","yes","768","legacy","5","79","C:/Users/Brian/Desktop/College - Graduate/Graduate Work/Advanced Quant/BK-subject-2.csv","legacy","Kafkaesque Koffka","3.2.8","0","h","NA","h","h","NA","h","477","NA","6920","2332","NA","477","2","legacy","1024","2","48000","-16","experiment","sshss","2","even","9482","153662","NA","NA","163711","162639","2561","151328","NA","163709","163815","162136","2552","NA","163815","164293","Flanker Task","56","36292","86","yes","1024"
"64.367816092","64.367816092","422.137931034","422.137931034","black","legacy","legacy","legacy","0","incongruent","uniform","0","undefined","0","s","0","0","0","0","86","86","0","0","0","86","86","86","0","86","86","86","09/25/21 22:11:33","600","The main experiment item","yes","FlankerTask.osexp","C:\Users\Brian\Desktop\College - Graduate\Graduate Work\Advanced Quant","no","mono","no","18","no","white","no","yes","768","legacy","6","79","C:/Users/Brian/Desktop/College - Graduate/Graduate Work/Advanced Quant/BK-subject-2.csv","legacy","Kafkaesque Koffka","3.2.8","0","h","NA","h","h","NA","h","434","NA","6920","2332","NA","434","2","legacy","1024","2","48000","-16","experiment","hhshh","2","even","9482","153662","NA","NA","165378","164301","2561","151328","NA","165376","165481","162136","2552","NA","165481","165916","Flanker Task","56","36726","87","yes","1024"
"64.7727272727","64.7727272727","421.011363636","421.011363636","black","legacy","legacy","legacy","0","congruent","uniform","1","undefined","1","s","0","0","0","0","87","87","0","0","0","87","87","87","0","87","87","87","09/25/21 22:11:33","600","The main experiment item","yes","FlankerTask.osexp","C:\Users\Brian\Desktop\College - Graduate\Graduate Work\Advanced Quant","no","mono","no","18","no","white","no","yes","768","legacy","7","79","C:/Users/Brian/Desktop/College - Graduate/Graduate Work/Advanced Quant/BK-subject-2.csv","legacy","Kafkaesque Koffka","3.2.8","0","s","NA","h","h","NA","s","323","NA","6920","2332","NA","323","2","legacy","1024","2","48000","-16","experiment","sssss","2","even","9482","153662","NA","NA","167501","166425","2561","151328","NA","167499","167604","165924","2552","NA","167604","167928","Flanker Task","57","37049","88","yes","1024"
"65.1685393258","65.1685393258","421.741573034","421.741573034","black","legacy","legacy","legacy","0","congruent","uniform","1","undefined","1","s","0","0","0","0","88","88","0","0","0","88","88","88","0","88","88","88","09/25/21 22:11:33","600","The main experiment item","yes","FlankerTask.osexp","C:\Users\Brian\Desktop\College - Graduate\Graduate Work\Advanced Quant","no","mono","no","18","no","white","no","yes","768","legacy","8","79","C:/Users/Brian/Desktop/College - Graduate/Graduate Work/Advanced Quant/BK-subject-2.csv","legacy","Kafkaesque Koffka","3.2.8","0","s","NA","h","h","NA","s","486","NA","6920","2332","NA","486","2","legacy","1024","2","48000","-16","experiment","sssss","2","even","9482","153662","NA","NA","169011","167936","2561","151328","NA","169009","169114","165924","2552","NA","169114","169602","Flanker Task","58","37535","89","yes","1024"
"65.5555555556","65.5555555556","421.755555556","421.755555556","black","legacy","legacy","legacy","0","incongruent","uniform","1","undefined","1","h","0","0","0","0","89","89","0","0","0","89","89","89","0","89","89","89","09/25/21 22:11:33","600","The main experiment item","yes","FlankerTask.osexp","C:\Users\Brian\Desktop\College - Graduate\Graduate Work\Advanced Quant","no","mono","no","18","no","white","no","yes","768","legacy","9","79","C:/Users/Brian/Desktop/College - Graduate/Graduate Work/Advanced Quant/BK-subject-2.csv","legacy","Kafkaesque Koffka","3.2.8","0","h","NA","h","h","NA","h","423","NA","6920","2332","NA","423","2","legacy","1024","2","48000","-16","experiment","sshss","2","even","9482","153662","NA","NA","170688","169611","2561","151328","NA","170686","170791","165924","2552","NA","170791","171216","Flanker Task","59","37958","90","yes","1024"
"65.9340659341","65.9340659341","422.065934066","422.065934066","black","legacy","legacy","legacy","0","congruent","uniform","1","undefined","1","h","0","0","0","0","90","90","0","0","0","90","90","90","0","90","90","90","09/25/21 22:11:33","600","The main experiment item","yes","FlankerTask.osexp","C:\Users\Brian\Desktop\College - Graduate\Graduate Work\Advanced Quant","no","mono","no","18","no","white","no","yes","768","legacy","10","79","C:/Users/Brian/Desktop/College - Graduate/Graduate Work/Advanced Quant/BK-subject-2.csv","legacy","Kafkaesque Koffka","3.2.8","0","h","NA","h","h","NA","h","450","NA","6920","2332","NA","450","2","legacy","1024","2","48000","-16","experiment","hhhhh","2","even","9482","153662","NA","NA","172300","171225","2561","151328","NA","172298","172401","165924","2552","NA","172401","172853","Flanker Task","60","38408","91","yes","1024"
"66.3043478261","66.3043478261","422.141304348","422.141304348","black","legacy","legacy","legacy","0","congruent","uniform","1","undefined","1","s","0","0","0","0","91","91","0","0","0","91","91","91","0","91","91","91","09/25/21 22:11:33","600","The main experiment item","yes","FlankerTask.osexp","C:\Users\Brian\Desktop\College - Graduate\Graduate Work\Advanced Quant","no","mono","no","18","no","white","no","yes","768","legacy","11","79","C:/Users/Brian/Desktop/College - Graduate/Graduate Work/Advanced Quant/BK-subject-2.csv","legacy","Kafkaesque Koffka","3.2.8","0","s","NA","h","h","NA","s","429","NA","6920","2332","NA","429","2","legacy","1024","2","48000","-16","experiment","sssss","2","even","9482","153662","NA","NA","173933","172862","2561","151328","NA","173931","174036","165924","2552","NA","174036","174468","Flanker Task","61","38837","92","yes","1024"
"66.6666666667","66.6666666667","421.247311828","421.247311828","black","legacy","legacy","legacy","0","incongruent","uniform","1","undefined","1","h","0","0","0","0","92","92","0","0","0","92","92","92","0","92","92","92","09/25/21 22:11:33","600","The main experiment item","yes","FlankerTask.osexp","C:\Users\Brian\Desktop\College - Graduate\Graduate Work\Advanced Quant","no","mono","no","18","no","white","no","yes","768","legacy","12","79","C:/Users/Brian/Desktop/College - Graduate/Graduate Work/Advanced Quant/BK-subject-2.csv","legacy","Kafkaesque Koffka","3.2.8","0","h","NA","h","h","NA","h","339","NA","6920","2332","NA","339","2","legacy","1024","2","48000","-16","experiment","sshss","2","even","9482","153662","NA","NA","175551","174477","2561","151328","NA","175548","175654","165924","2552","NA","175654","175995","Flanker Task","62","39176","93","yes","1024"
"67.0212765957","67.0212765957","420.925531915","420.925531915","black","legacy","legacy","legacy","0","incongruent","uniform","1","undefined","1","h","0","0","0","0","93","93","0","0","0","93","93","93","0","93","93","93","09/25/21 22:11:33","600","The main experiment item","yes","FlankerTask.osexp","C:\Users\Brian\Desktop\College - Graduate\Graduate Work\Advanced Quant","no","mono","no","18","no","white","no","yes","768","legacy","13","79","C:/Users/Brian/Desktop/College - Graduate/Graduate Work/Advanced Quant/BK-subject-2.csv","legacy","Kafkaesque Koffka","3.2.8","0","h","NA","h","h","NA","h","391","NA","6920","2332","NA","391","2","legacy","1024","2","48000","-16","experiment","sshss","2","even","9482","153662","NA","NA","177077","176003","2561","151328","NA","177075","177180","165924","2552","NA","177180","177573","Flanker Task","63","39567","94","yes","1024"
"66.3157894737","66.3157894737","419.831578947","419.831578947","black","legacy","legacy","legacy","0","congruent","uniform","0","undefined","0","h","0","0","0","0","94","94","0","0","0","94","94","94","0","94","94","94","09/25/21 22:11:33","600","The main experiment item","yes","FlankerTask.osexp","C:\Users\Brian\Desktop\College - Graduate\Graduate Work\Advanced Quant","no","mono","no","18","no","white","no","yes","768","legacy","14","79","C:/Users/Brian/Desktop/College - Graduate/Graduate Work/Advanced Quant/BK-subject-2.csv","legacy","Kafkaesque Koffka","3.2.8","0","s","NA","h","h","NA","s","317","NA","6920","2332","NA","317","2","legacy","1024","2","48000","-16","experiment","hhhhh","2","even","9482","153662","NA","NA","178655","177581","2561","151328","NA","178652","178759","165924","2552","NA","178759","179078","Flanker Task","63","39884","95","yes","1024"
"66.6666666667","66.6666666667","420.197916667","420.197916667","black","legacy","legacy","legacy","0","congruent","uniform","1","undefined","1","h","0","0","0","0","95","95","0","0","0","95","95","95","0","95","95","95","09/25/21 22:11:33","600","The main experiment item","yes","FlankerTask.osexp","C:\Users\Brian\Desktop\College - Graduate\Graduate Work\Advanced Quant","no","mono","no","18","no","white","no","yes","768","legacy","15","79","C:/Users/Brian/Desktop/College - Graduate/Graduate Work/Advanced Quant/BK-subject-2.csv","legacy","Kafkaesque Koffka","3.2.8","0","h","NA","h","h","NA","h","455","NA","6920","2332","NA","455","2","legacy","1024","2","48000","-16","experiment","hhhhh","2","even","9482","153662","NA","NA","180664","179590","2561","151328","NA","180661","180767","179086","2552","NA","180767","181224","Flanker Task","64","40339","96","yes","1024"
"67.0103092784","67.0103092784","420.18556701","420.18556701","black","legacy","legacy","legacy","0","congruent","uniform","1","undefined","1","s","0","0","0","0","96","96","0","0","0","96","96","96","0","96","96","96","09/25/21 22:11:33","600","The main experiment item","yes","FlankerTask.osexp","C:\Users\Brian\Desktop\College - Graduate\Graduate Work\Advanced Quant","no","mono","no","18","no","white","no","yes","768","legacy","16","79","C:/Users/Brian/Desktop/College - Graduate/Graduate Work/Advanced Quant/BK-subject-2.csv","legacy","Kafkaesque Koffka","3.2.8","0","s","NA","h","h","NA","s","419","NA","6920","2332","NA","419","2","legacy","1024","2","48000","-16","experiment","sssss","2","even","9482","153662","NA","NA","182314","181233","2561","151328","NA","182312","182416","179086","2552","NA","182416","182837","Flanker Task","65","40758","97","yes","1024"
"67.3469387755","67.3469387755","419.724489796","419.724489796","black","legacy","legacy","legacy","0","congruent","uniform","1","undefined","1","h","0","0","0","0","97","97","0","0","0","97","97","97","0","97","97","97","09/25/21 22:11:33","600","The main experiment item","yes","FlankerTask.osexp","C:\Users\Brian\Desktop\College - Graduate\Graduate Work\Advanced Quant","no","mono","no","18","no","white","no","yes","768","legacy","17","79","C:/Users/Brian/Desktop/College - Graduate/Graduate Work/Advanced Quant/BK-subject-2.csv","legacy","Kafkaesque Koffka","3.2.8","0","h","NA","h","h","NA","h","375","NA","6920","2332","NA","375","2","legacy","1024","2","48000","-16","experiment","hhhhh","2","even","9482","153662","NA","NA","183918","182846","2561","151328","NA","183916","184019","179086","2552","NA","184019","184396","Flanker Task","66","41133","98","yes","1024"
"66.6666666667","66.6666666667","420.252525253","420.252525253","black","legacy","legacy","legacy","0","incongruent","uniform","0","undefined","0","s","0","0","0","0","98","98","0","0","0","98","98","98","0","98","98","98","09/25/21 22:11:33","600","The main experiment item","yes","FlankerTask.osexp","C:\Users\Brian\Desktop\College - Graduate\Graduate Work\Advanced Quant","no","mono","no","18","no","white","no","yes","768","legacy","18","79","C:/Users/Brian/Desktop/College - Graduate/Graduate Work/Advanced Quant/BK-subject-2.csv","legacy","Kafkaesque Koffka","3.2.8","0","h","NA","h","h","NA","h","472","NA","6920","2332","NA","472","2","legacy","1024","2","48000","-16","experiment","hhshh","2","even","9482","153662","NA","NA","185477","184404","2561","151328","NA","185475","185580","179086","2552","NA","185580","186054","Flanker Task","66","41605","99","yes","1024"
"67","67","420.59","420.59","black","legacy","legacy","legacy","0","incongruent","uniform","1","undefined","1","s","0","0","0","0","99","99","0","0","0","99","99","99","0","99","99","99","09/25/21 22:11:33","600","The main experiment item","yes","FlankerTask.osexp","C:\Users\Brian\Desktop\College - Graduate\Graduate Work\Advanced Quant","no","mono","no","18","no","white","no","yes","768","legacy","19","79","C:/Users/Brian/Desktop/College - Graduate/Graduate Work/Advanced Quant/BK-subject-2.csv","legacy","Kafkaesque Koffka","3.2.8","0","s","NA","h","h","NA","s","454","NA","6920","2332","NA","454","2","legacy","1024","2","48000","-16","experiment","hhshh","2","even","9482","153662","NA","NA","187637","186566","2561","151328","NA","187635","187740","186062","2552","NA","187740","188196","Flanker Task","67","42059","100","yes","1024"
"67.3267326733","67.3267326733","419.514851485","419.514851485","black","legacy","legacy","legacy","0","congruent","uniform","1","undefined","1","h","0","0","0","0","100","100","0","0","0","100","100","100","0","100","100","100","09/25/21 22:11:33","600","The main experiment item","yes","FlankerTask.osexp","C:\Users\Brian\Desktop\College - Graduate\Graduate Work\Advanced Quant","no","mono","no","18","no","white","no","yes","768","legacy","20","79","C:/Users/Brian/Desktop/College - Graduate/Graduate Work/Advanced Quant/BK-subject-2.csv","legacy","Kafkaesque Koffka","3.2.8","0","h","NA","h","h","NA","h","312","NA","6920","2332","NA","312","2","legacy","1024","2","48000","-16","experiment","hhhhh","2","even","9482","153662","NA","NA","189275","188200","2561","151328","NA","189272","189376","186062","2552","NA","189376","189690","Flanker Task","68","42371","101","yes","1024"
"67.6470588235","67.6470588235","419.225490196","419.225490196","black","legacy","legacy","legacy","0","congruent","uniform","1","undefined","1","s","0","0","0","0","101","101","0","0","0","101","101","101","0","101","101","101","09/25/21 22:11:33","600","The main experiment item","yes","FlankerTask.osexp","C:\Users\Brian\Desktop\College - Graduate\Graduate Work\Advanced Quant","no","mono","no","18","no","white","no","yes","768","legacy","21","79","C:/Users/Brian/Desktop/College - Graduate/Graduate Work/Advanced Quant/BK-subject-2.csv","legacy","Kafkaesque Koffka","3.2.8","0","s","NA","h","h","NA","s","390","NA","6920","2332","NA","390","2","legacy","1024","2","48000","-16","experiment","sssss","2","even","9482","153662","NA","NA","190778","189699","2561","151328","NA","190776","190881","186062","2552","NA","190881","191273","Flanker Task","69","42761","102","yes","1024"
"67.9611650485","67.9611650485","418.446601942","418.446601942","black","legacy","legacy","legacy","0","congruent","uniform","1","undefined","1","h","0","0","0","0","102","102","0","0","0","102","102","102","0","102","102","102","09/25/21 22:11:33","600","The main experiment item","yes","FlankerTask.osexp","C:\Users\Brian\Desktop\College - Graduate\Graduate Work\Advanced Quant","no","mono","no","18","no","white","no","yes","768","legacy","22","79","C:/Users/Brian/Desktop/College - Graduate/Graduate Work/Advanced Quant/BK-subject-2.csv","legacy","Kafkaesque Koffka","3.2.8","0","h","NA","h","h","NA","h","339","NA","6920","2332","NA","339","2","legacy","1024","2","48000","-16","experiment","hhhhh","2","even","9482","153662","NA","NA","192357","191282","2561","151328","NA","192354","192461","186062","2552","NA","192461","192802","Flanker Task","70","43100","103","yes","1024"
"68.2692307692","68.2692307692","418","418","black","legacy","legacy","legacy","0","congruent","uniform","1","undefined","1","s","0","0","0","0","103","103","0","0","0","103","103","103","0","103","103","103","09/25/21 22:11:33","600","The main experiment item","yes","FlankerTask.osexp","C:\Users\Brian\Desktop\College - Graduate\Graduate Work\Advanced Quant","no","mono","no","18","no","white","no","yes","768","legacy","23","79","C:/Users/Brian/Desktop/College - Graduate/Graduate Work/Advanced Quant/BK-subject-2.csv","legacy","Kafkaesque Koffka","3.2.8","0","s","NA","h","h","NA","s","372","NA","6920","2332","NA","372","2","legacy","1024","2","48000","-16","experiment","sssss","2","even","9482","153662","NA","NA","193888","192811","2561","151328","NA","193886","193990","186062","2552","NA","193991","194365","Flanker Task","71","43472","104","yes","1024"
"68.5714285714","68.5714285714","417.4","417.4","black","legacy","legacy","legacy","0","congruent","uniform","1","undefined","1","s","0","0","0","0","104","104","0","0","0","104","104","104","0","104","104","104","09/25/21 22:11:33","600","The main experiment item","yes","FlankerTask.osexp","C:\Users\Brian\Desktop\College - Graduate\Graduate Work\Advanced Quant","no","mono","no","18","no","white","no","yes","768","legacy","24","79","C:/Users/Brian/Desktop/College - Graduate/Graduate Work/Advanced Quant/BK-subject-2.csv","legacy","Kafkaesque Koffka","3.2.8","0","s","NA","h","h","NA","s","355","NA","6920","2332","NA","355","2","legacy","1024","2","48000","-16","experiment","sssss","2","even","9482","153662","NA","NA","195450","194373","2561","151328","NA","195447","195552","186062","2552","NA","195552","195909","Flanker Task","72","43827","105","yes","1024"
"67.9245283019","67.9245283019","417.320754717","417.320754717","black","legacy","legacy","legacy","0","congruent","uniform","0","undefined","0","h","0","0","0","0","105","105","0","0","0","105","105","105","0","105","105","105","09/25/21 22:11:33","600","The main experiment item","yes","FlankerTask.osexp","C:\Users\Brian\Desktop\College - Graduate\Graduate Work\Advanced Quant","no","mono","no","18","no","white","no","yes","768","legacy","25","79","C:/Users/Brian/Desktop/College - Graduate/Graduate Work/Advanced Quant/BK-subject-2.csv","legacy","Kafkaesque Koffka","3.2.8","0","s","NA","h","h","NA","s","409","NA","6920","2332","NA","409","2","legacy","1024","2","48000","-16","experiment","hhhhh","2","even","9482","153662","NA","NA","196988","195918","2561","151328","NA","196986","197091","186062","2552","NA","197091","197502","Flanker Task","72","44236","106","yes","1024"
"67.2897196262","67.2897196262","416.981308411","416.981308411","black","legacy","legacy","legacy","0","incongruent","uniform","0","undefined","0","h","0","0","0","0","106","106","0","0","0","106","106","106","0","106","106","106","09/25/21 22:11:33","600","The main experiment item","yes","FlankerTask.osexp","C:\Users\Brian\Desktop\College - Graduate\Graduate Work\Advanced Quant","no","mono","no","18","no","white","no","yes","768","legacy","26","79","C:/Users/Brian/Desktop/College - Graduate/Graduate Work/Advanced Quant/BK-subject-2.csv","legacy","Kafkaesque Koffka","3.2.8","0","s","NA","h","h","NA","s","381","NA","6920","2332","NA","381","2","legacy","1024","2","48000","-16","experiment","sshss","2","even","9482","153662","NA","NA","199084","198013","2561","151328","NA","199082","199186","197511","2552","NA","199186","199568","Flanker Task","72","44617","107","yes","1024"
"66.6666666667","66.6666666667","417.222222222","417.222222222","black","legacy","legacy","legacy","0","incongruent","uniform","0","undefined","0","s","0","0","0","0","107","107","0","0","0","107","107","107","0","107","107","107","09/25/21 22:11:33","600","The main experiment item","yes","FlankerTask.osexp","C:\Users\Brian\Desktop\College - Graduate\Graduate Work\Advanced Quant","no","mono","no","18","no","white","no","yes","768","legacy","27","79","C:/Users/Brian/Desktop/College - Graduate/Graduate Work/Advanced Quant/BK-subject-2.csv","legacy","Kafkaesque Koffka","3.2.8","0","h","NA","h","h","NA","h","443","NA","6920","2332","NA","443","2","legacy","1024","2","48000","-16","experiment","hhshh","2","even","9482","153662","NA","NA","201152","200079","2561","151328","NA","201150","201255","199576","2552","NA","201255","201700","Flanker Task","72","45060","108","yes","1024"
"66.9724770642","66.9724770642","417.28440367","417.28440367","black","legacy","legacy","legacy","0","incongruent","uniform","1","undefined","1","s","0","0","0","0","108","108","0","0","0","108","108","108","0","108","108","108","09/25/21 22:11:33","600","The main experiment item","yes","FlankerTask.osexp","C:\Users\Brian\Desktop\College - Graduate\Graduate Work\Advanced Quant","no","mono","no","18","no","white","no","yes","768","legacy","28","79","C:/Users/Brian/Desktop/College - Graduate/Graduate Work/Advanced Quant/BK-subject-2.csv","legacy","Kafkaesque Koffka","3.2.8","0","s","NA","h","h","NA","s","424","NA","6920","2332","NA","424","2","legacy","1024","2","48000","-16","experiment","hhshh","2","even","9482","153662","NA","NA","203282","202210","2561","151328","NA","203280","203385","201709","2552","NA","203385","203811","Flanker Task","73","45484","109","yes","1024"
"67.2727272727","67.2727272727","416.336363636","416.336363636","black","legacy","legacy","legacy","0","congruent","uniform","1","undefined","1","h","0","0","0","0","109","109","0","0","0","109","109","109","0","109","109","109","09/25/21 22:11:33","600","The main experiment item","yes","FlankerTask.osexp","C:\Users\Brian\Desktop\College - Graduate\Graduate Work\Advanced Quant","no","mono","no","18","no","white","no","yes","768","legacy","29","79","C:/Users/Brian/Desktop/College - Graduate/Graduate Work/Advanced Quant/BK-subject-2.csv","legacy","Kafkaesque Koffka","3.2.8","0","h","NA","h","h","NA","h","313","NA","6920","2332","NA","313","2","legacy","1024","2","48000","-16","experiment","hhhhh","2","even","9482","153662","NA","NA","204892","203820","2561","151328","NA","204890","204995","201709","2552","NA","204995","205310","Flanker Task","74","45797","110","yes","1024"
"66.6666666667","66.6666666667","416.351351351","416.351351351","black","legacy","legacy","legacy","0","incongruent","uniform","0","undefined","0","h","0","0","0","0","110","110","0","0","0","110","110","110","0","110","110","110","09/25/21 22:11:33","600","The main experiment item","yes","FlankerTask.osexp","C:\Users\Brian\Desktop\College - Graduate\Graduate Work\Advanced Quant","no","mono","no","18","no","white","no","yes","768","legacy","30","79","C:/Users/Brian/Desktop/College - Graduate/Graduate Work/Advanced Quant/BK-subject-2.csv","legacy","Kafkaesque Koffka","3.2.8","0","s","NA","h","h","NA","s","418","NA","6920","2332","NA","418","2","legacy","1024","2","48000","-16","experiment","sshss","2","even","9482","153662","NA","NA","206388","205315","2561","151328","NA","206386","206489","201709","2552","NA","206489","206909","Flanker Task","74","46215","111","yes","1024"
"66.9642857143","66.9642857143","416.6875","416.6875","black","legacy","legacy","legacy","0","congruent","uniform","1","undefined","1","h","0","0","0","0","111","111","0","0","0","111","111","111","0","111","111","111","09/25/21 22:11:33","600","The main experiment item","yes","FlankerTask.osexp","C:\Users\Brian\Desktop\College - Graduate\Graduate Work\Advanced Quant","no","mono","no","18","no","white","no","yes","768","legacy","31","79","C:/Users/Brian/Desktop/College - Graduate/Graduate Work/Advanced Quant/BK-subject-2.csv","legacy","Kafkaesque Koffka","3.2.8","0","h","NA","h","h","NA","h","454","NA","6920","2332","NA","454","2","legacy","1024","2","48000","-16","experiment","hhhhh","2","even","9482","153662","NA","NA","208492","207416","2561","151328","NA","208489","208595","206914","2552","NA","208595","209051","Flanker Task","75","46669","112","yes","1024"
"67.2566371681","67.2566371681","416.238938053","416.238938053","black","legacy","legacy","legacy","0","congruent","uniform","1","undefined","1","s","0","0","0","0","112","112","0","0","0","112","112","112","0","112","112","112","09/25/21 22:11:33","600","The main experiment item","yes","FlankerTask.osexp","C:\Users\Brian\Desktop\College - Graduate\Graduate Work\Advanced Quant","no","mono","no","18","no","white","no","yes","768","legacy","32","79","C:/Users/Brian/Desktop/College - Graduate/Graduate Work/Advanced Quant/BK-subject-2.csv","legacy","Kafkaesque Koffka","3.2.8","0","s","NA","h","h","NA","s","366","NA","6920","2332","NA","366","2","legacy","1024","2","48000","-16","experiment","sssss","2","even","9482","153662","NA","NA","210138","209060","2561","151328","NA","210135","210241","206914","2552","NA","210241","210609","Flanker Task","76","47035","113","yes","1024"
"67.5438596491","67.5438596491","415.842105263","415.842105263","black","legacy","legacy","legacy","0","congruent","uniform","1","undefined","1","h","0","0","0","0","113","113","0","0","0","113","113","113","0","113","113","113","09/25/21 22:11:33","600","The main experiment item","yes","FlankerTask.osexp","C:\Users\Brian\Desktop\College - Graduate\Graduate Work\Advanced Quant","no","mono","no","18","no","white","no","yes","768","legacy","33","79","C:/Users/Brian/Desktop/College - Graduate/Graduate Work/Advanced Quant/BK-subject-2.csv","legacy","Kafkaesque Koffka","3.2.8","0","h","NA","h","h","NA","h","371","NA","6920","2332","NA","371","2","legacy","1024","2","48000","-16","experiment","hhhhh","2","even","9482","153662","NA","NA","211696","210618","2561","151328","NA","211694","211799","206914","2552","NA","211799","212171","Flanker Task","77","47406","114","yes","1024"
