condition,Deadline,Stimulus,acc,accuracy,average_response_time,avg_rt,background,canvas_backend,clock_backend,color_backend,compensation,coordinates,correct,correct_Instructions1,correct_keyboard_response,correct_response,count_Block1,count_Block2,count_Block3,count_ErrorFeedback,count_Faster,count_Finished,count_Fixation,count_ISI,count_Instructions1,count_Instructions2,count_Instructions3,count_Sequence,count_Stimulus,count_experiment,count_keyboard_response,count_logger,datetime,description,disable_garbage_collection,experiment_file,experiment_path,font_bold,font_family,font_italic,font_size,font_underline,foreground,form_clicks,fullscreen,height,keyboard_backend,live_row,live_row_Block1,logfile,mouse_backend,opensesame_codename,opensesame_version,repeat_cycle,response,response_Finished,response_Instructions1,response_Instructions2,response_Instructions3,response_keyboard_response,response_time,response_time_Finished,response_time_Instructions1,response_time_Instructions2,response_time_Instructions3,response_time_keyboard_response,round_decimals,sampler_backend,sound_buf_size,sound_channels,sound_freq,sound_sample_size,start,subject_nr,subject_parity,time_Block1,time_Block2,time_Block3,time_ErrorFeedback,time_Faster,time_Finished,time_Fixation,time_ISI,time_Instructions1,time_Instructions2,time_Instructions3,time_Sequence,time_Stimulus,time_experiment,time_keyboard_response,time_logger,title,total_correct,total_response_time,total_responses,uniform_coordinates,width
Incongruent,1500,HHSHH,0,0,812,812,black,legacy,legacy,legacy,0,uniform,0,undefined,0,s,0,0,0,0,0,0,0,0,0,0,0,0,0,0,0,0,9/14/20 10:59,The main experiment item,yes,FlankerTask.osexp,C:/Users/solom/Desktop,no,mono,no,18,no,white,no,yes,768,legacy,0,0,C:/Users/solom/OneDrive/Documents/School and Fin. Aid/MW-subject-1.csv,legacy,Lentiform Loewenfeld,3.3.3,0,h,NA,s,NA,NA,h,812,NA,16464,NA,NA,812,2,legacy,1024,2,48000,-16,experiment,1,odd,19623,NA,NA,NA,NA,NA,19807,NA,3157,NA,NA,19803,19912,3143,19913,20726,Flanker Task,0,812,1,yes,1024
Incongruent,1500,SSHSS,50,50,705.5,705.5,black,legacy,legacy,legacy,0,uniform,1,undefined,1,h,0,0,0,1,1,0,1,1,0,0,0,1,1,0,1,1,9/14/20 10:59,The main experiment item,yes,FlankerTask.osexp,C:/Users/solom/Desktop,no,mono,no,18,no,white,no,yes,768,legacy,1,1,C:/Users/solom/OneDrive/Documents/School and Fin. Aid/MW-subject-1.csv,legacy,Lentiform Loewenfeld,3.3.3,0,h,NA,s,NA,NA,h,599,NA,16464,NA,NA,599,2,legacy,1024,2,48000,-16,experiment,1,odd,19623,NA,NA,20787,NA,NA,22461,21293,3157,NA,NA,22456,22565,3143,22565,23165,Flanker Task,1,1411,2,yes,1024
Incongruent,1500,HHSHH,66.66666667,66.66666667,669.6666667,669.6666667,black,legacy,legacy,legacy,0,uniform,1,undefined,1,s,0,0,0,2,2,0,2,2,0,0,0,2,2,0,2,2,9/14/20 10:59,The main experiment item,yes,FlankerTask.osexp,C:/Users/solom/Desktop,no,mono,no,18,no,white,no,yes,768,legacy,2,2,C:/Users/solom/OneDrive/Documents/School and Fin. Aid/MW-subject-1.csv,legacy,Lentiform Loewenfeld,3.3.3,0,s,NA,s,NA,NA,s,598,NA,16464,NA,NA,598,2,legacy,1024,2,48000,-16,experiment,1,odd,19623,NA,NA,20787,NA,NA,24358,23192,3157,NA,NA,24354,24463,3143,24463,25062,Flanker Task,2,2009,3,yes,1024
Congruent,1500,HHHHH,75,75,618.5,618.5,black,legacy,legacy,legacy,0,uniform,1,undefined,1,h,0,0,0,3,3,0,3,3,0,0,0,3,3,0,3,3,9/14/20 10:59,The main experiment item,yes,FlankerTask.osexp,C:/Users/solom/Desktop,no,mono,no,18,no,white,no,yes,768,legacy,3,3,C:/Users/solom/OneDrive/Documents/School and Fin. Aid/MW-subject-1.csv,legacy,Lentiform Loewenfeld,3.3.3,0,h,NA,s,NA,NA,h,465,NA,16464,NA,NA,465,2,legacy,1024,2,48000,-16,experiment,1,odd,19623,NA,NA,20787,NA,NA,26258,25093,3157,NA,NA,26253,26363,3143,26364,26830,Flanker Task,3,2474,4,yes,1024
Congruent,1500,HHHHH,80,80,582.8,582.8,black,legacy,legacy,legacy,0,uniform,1,undefined,1,h,0,0,0,4,4,0,4,4,0,0,0,4,4,0,4,4,9/14/20 10:59,The main experiment item,yes,FlankerTask.osexp,C:/Users/solom/Desktop,no,mono,no,18,no,white,no,yes,768,legacy,4,4,C:/Users/solom/OneDrive/Documents/School and Fin. Aid/MW-subject-1.csv,legacy,Lentiform Loewenfeld,3.3.3,0,h,NA,s,NA,NA,h,440,NA,16464,NA,NA,440,2,legacy,1024,2,48000,-16,experiment,1,odd,19623,NA,NA,20787,NA,NA,28026,26863,3157,NA,NA,28021,28131,3143,28132,28573,Flanker Task,4,2914,5,yes,1024
Incongruent,1500,SSHSS,66.66666667,66.66666667,561.8333333,561.8333333,black,legacy,legacy,legacy,0,uniform,0,undefined,0,h,0,0,0,5,5,0,5,5,0,0,0,5,5,0,5,5,9/14/20 10:59,The main experiment item,yes,FlankerTask.osexp,C:/Users/solom/Desktop,no,mono,no,18,no,white,no,yes,768,legacy,5,5,C:/Users/solom/OneDrive/Documents/School and Fin. Aid/MW-subject-1.csv,legacy,Lentiform Loewenfeld,3.3.3,0,s,NA,s,NA,NA,s,457,NA,16464,NA,NA,457,2,legacy,1024,2,48000,-16,experiment,1,odd,19623,NA,NA,20787,NA,NA,29770,28608,3157,NA,NA,29765,29875,3143,29875,30333,Flanker Task,4,3371,6,yes,1024
Incongruent,1500,HHSHH,71.42857143,71.42857143,564.5714286,564.5714286,black,legacy,legacy,legacy,0,uniform,1,undefined,1,s,0,0,0,6,6,0,6,6,0,0,0,6,6,0,6,6,9/14/20 10:59,The main experiment item,yes,FlankerTask.osexp,C:/Users/solom/Desktop,no,mono,no,18,no,white,no,yes,768,legacy,6,6,C:/Users/solom/OneDrive/Documents/School and Fin. Aid/MW-subject-1.csv,legacy,Lentiform Loewenfeld,3.3.3,0,s,NA,s,NA,NA,s,581,NA,16464,NA,NA,581,2,legacy,1024,2,48000,-16,experiment,1,odd,19623,NA,NA,30364,NA,NA,32030,30867,3157,NA,NA,32025,32135,3143,32136,32718,Flanker Task,5,3952,7,yes,1024
Congruent,1500,HHHHH,75,75,550.25,550.25,black,legacy,legacy,legacy,0,uniform,1,undefined,1,h,0,0,0,7,7,0,7,7,0,0,0,7,7,0,7,7,9/14/20 10:59,The main experiment item,yes,FlankerTask.osexp,C:/Users/solom/Desktop,no,mono,no,18,no,white,no,yes,768,legacy,7,7,C:/Users/solom/OneDrive/Documents/School and Fin. Aid/MW-subject-1.csv,legacy,Lentiform Loewenfeld,3.3.3,0,h,NA,s,NA,NA,h,450,NA,16464,NA,NA,450,2,legacy,1024,2,48000,-16,experiment,1,odd,19623,NA,NA,30364,NA,NA,33912,32748,3157,NA,NA,33907,34017,3143,34018,34470,Flanker Task,6,4402,8,yes,1024
Incongruent,1500,HHSHH,77.77777778,77.77777778,544,544,black,legacy,legacy,legacy,0,uniform,1,undefined,1,s,0,0,0,8,8,0,8,8,0,0,0,8,8,0,8,8,9/14/20 10:59,The main experiment item,yes,FlankerTask.osexp,C:/Users/solom/Desktop,no,mono,no,18,no,white,no,yes,768,legacy,8,8,C:/Users/solom/OneDrive/Documents/School and Fin. Aid/MW-subject-1.csv,legacy,Lentiform Loewenfeld,3.3.3,0,s,NA,s,NA,NA,s,494,NA,16464,NA,NA,494,2,legacy,1024,2,48000,-16,experiment,1,odd,19623,NA,NA,30364,NA,NA,35668,34503,3157,NA,NA,35663,35773,3143,35774,36269,Flanker Task,7,4896,9,yes,1024
Incongruent,1500,SSHSS,80,80,546.1,546.1,black,legacy,legacy,legacy,0,uniform,1,undefined,1,h,0,0,0,9,9,0,9,9,0,0,0,9,9,0,9,9,9/14/20 10:59,The main experiment item,yes,FlankerTask.osexp,C:/Users/solom/Desktop,no,mono,no,18,no,white,no,yes,768,legacy,9,9,C:/Users/solom/OneDrive/Documents/School and Fin. Aid/MW-subject-1.csv,legacy,Lentiform Loewenfeld,3.3.3,0,h,NA,s,NA,NA,h,565,NA,16464,NA,NA,565,2,legacy,1024,2,48000,-16,experiment,1,odd,19623,NA,NA,30364,NA,NA,37462,36299,3157,NA,NA,37457,37567,3143,37568,38134,Flanker Task,8,5461,10,yes,1024
Congruent,1500,HHHHH,81.81818182,81.81818182,542.0909091,542.0909091,black,legacy,legacy,legacy,0,uniform,1,undefined,1,h,0,0,0,10,10,0,10,10,0,0,0,10,10,0,10,10,9/14/20 10:59,The main experiment item,yes,FlankerTask.osexp,C:/Users/solom/Desktop,no,mono,no,18,no,white,no,yes,768,legacy,10,10,C:/Users/solom/OneDrive/Documents/School and Fin. Aid/MW-subject-1.csv,legacy,Lentiform Loewenfeld,3.3.3,0,h,NA,s,NA,NA,h,502,NA,16464,NA,NA,502,2,legacy,1024,2,48000,-16,experiment,1,odd,19623,NA,NA,30364,NA,NA,39332,38167,3157,NA,NA,39327,39437,3143,39438,39942,Flanker Task,9,5963,11,yes,1024
Incongruent,1500,HHSHH,83.33333333,83.33333333,540.0833333,540.0833333,black,legacy,legacy,legacy,0,uniform,1,undefined,1,s,0,0,0,11,11,0,11,11,0,0,0,11,11,0,11,11,9/14/20 10:59,The main experiment item,yes,FlankerTask.osexp,C:/Users/solom/Desktop,no,mono,no,18,no,white,no,yes,768,legacy,11,11,C:/Users/solom/OneDrive/Documents/School and Fin. Aid/MW-subject-1.csv,legacy,Lentiform Loewenfeld,3.3.3,0,s,NA,s,NA,NA,s,518,NA,16464,NA,NA,518,2,legacy,1024,2,48000,-16,experiment,1,odd,19623,NA,NA,30364,NA,NA,41133,39972,3157,NA,NA,41128,41238,3143,41239,41758,Flanker Task,10,6481,12,yes,1024
Incongruent,1500,SSHSS,84.61538462,84.61538462,538.0769231,538.0769231,black,legacy,legacy,legacy,0,uniform,1,undefined,1,h,0,0,0,12,12,0,12,12,0,0,0,12,12,0,12,12,9/14/20 10:59,The main experiment item,yes,FlankerTask.osexp,C:/Users/solom/Desktop,no,mono,no,18,no,white,no,yes,768,legacy,12,12,C:/Users/solom/OneDrive/Documents/School and Fin. Aid/MW-subject-1.csv,legacy,Lentiform Loewenfeld,3.3.3,0,h,NA,s,NA,NA,h,514,NA,16464,NA,NA,514,2,legacy,1024,2,48000,-16,experiment,1,odd,19623,NA,NA,30364,NA,NA,42953,41789,3157,NA,NA,42948,43058,3143,43059,43574,Flanker Task,11,6995,13,yes,1024
Congruent,1500,SSSSS,85.71428571,85.71428571,530.9285714,530.9285714,black,legacy,legacy,legacy,0,uniform,1,undefined,1,s,0,0,0,13,13,0,13,13,0,0,0,13,13,0,13,13,9/14/20 10:59,The main experiment item,yes,FlankerTask.osexp,C:/Users/solom/Desktop,no,mono,no,18,no,white,no,yes,768,legacy,13,13,C:/Users/solom/OneDrive/Documents/School and Fin. Aid/MW-subject-1.csv,legacy,Lentiform Loewenfeld,3.3.3,0,s,NA,s,NA,NA,s,438,NA,16464,NA,NA,438,2,legacy,1024,2,48000,-16,experiment,1,odd,19623,NA,NA,30364,NA,NA,44773,43607,3157,NA,NA,44768,44878,3143,44879,45318,Flanker Task,12,7433,14,yes,1024
Congruent,1500,SSSSS,86.66666667,86.66666667,533.9333333,533.9333333,black,legacy,legacy,legacy,0,uniform,1,undefined,1,s,0,0,0,14,14,0,14,14,0,0,0,14,14,0,14,14,9/14/20 10:59,The main experiment item,yes,FlankerTask.osexp,C:/Users/solom/Desktop,no,mono,no,18,no,white,no,yes,768,legacy,14,14,C:/Users/solom/OneDrive/Documents/School and Fin. Aid/MW-subject-1.csv,legacy,Lentiform Loewenfeld,3.3.3,0,s,NA,s,NA,NA,s,576,NA,16464,NA,NA,576,2,legacy,1024,2,48000,-16,experiment,1,odd,19623,NA,NA,30364,NA,NA,46523,45357,3157,NA,NA,46518,46628,3143,46629,47206,Flanker Task,13,8009,15,yes,1024
Incongruent,1500,HHSHH,87.5,87.5,539.3125,539.3125,black,legacy,legacy,legacy,0,uniform,1,undefined,1,s,0,0,0,15,15,0,15,15,0,0,0,15,15,0,15,15,9/14/20 10:59,The main experiment item,yes,FlankerTask.osexp,C:/Users/solom/Desktop,no,mono,no,18,no,white,no,yes,768,legacy,15,15,C:/Users/solom/OneDrive/Documents/School and Fin. Aid/MW-subject-1.csv,legacy,Lentiform Loewenfeld,3.3.3,0,s,NA,s,NA,NA,s,620,NA,16464,NA,NA,620,2,legacy,1024,2,48000,-16,experiment,1,odd,19623,NA,NA,30364,NA,NA,48407,47244,3157,NA,NA,48402,48512,3143,48513,49134,Flanker Task,14,8629,16,yes,1024
Congruent,1500,HHHHH,88.23529412,88.23529412,533.9411765,533.9411765,black,legacy,legacy,legacy,0,uniform,1,undefined,1,h,0,0,0,16,16,0,16,16,0,0,0,16,16,0,16,16,9/14/20 10:59,The main experiment item,yes,FlankerTask.osexp,C:/Users/solom/Desktop,no,mono,no,18,no,white,no,yes,768,legacy,16,16,C:/Users/solom/OneDrive/Documents/School and Fin. Aid/MW-subject-1.csv,legacy,Lentiform Loewenfeld,3.3.3,0,h,NA,s,NA,NA,h,448,NA,16464,NA,NA,448,2,legacy,1024,2,48000,-16,experiment,1,odd,19623,NA,NA,30364,NA,NA,50331,49171,3157,NA,NA,50326,50436,3143,50437,50886,Flanker Task,15,9077,17,yes,1024
Incongruent,1500,SSHSS,88.88888889,88.88888889,535.2777778,535.2777778,black,legacy,legacy,legacy,0,uniform,1,undefined,1,h,0,0,0,17,17,0,17,17,0,0,0,17,17,0,17,17,9/14/20 10:59,The main experiment item,yes,FlankerTask.osexp,C:/Users/solom/Desktop,no,mono,no,18,no,white,no,yes,768,legacy,17,17,C:/Users/solom/OneDrive/Documents/School and Fin. Aid/MW-subject-1.csv,legacy,Lentiform Loewenfeld,3.3.3,0,h,NA,s,NA,NA,h,558,NA,16464,NA,NA,558,2,legacy,1024,2,48000,-16,experiment,1,odd,19623,NA,NA,30364,NA,NA,52084,50920,3157,NA,NA,52078,52189,3143,52190,52750,Flanker Task,16,9635,18,yes,1024
Incongruent,1500,SSHSS,89.47368421,89.47368421,534.2631579,534.2631579,black,legacy,legacy,legacy,0,uniform,1,undefined,1,h,0,0,0,18,18,0,18,18,0,0,0,18,18,0,18,18,9/14/20 10:59,The main experiment item,yes,FlankerTask.osexp,C:/Users/solom/Desktop,no,mono,no,18,no,white,no,yes,768,legacy,18,18,C:/Users/solom/OneDrive/Documents/School and Fin. Aid/MW-subject-1.csv,legacy,Lentiform Loewenfeld,3.3.3,0,h,NA,s,NA,NA,h,516,NA,16464,NA,NA,516,2,legacy,1024,2,48000,-16,experiment,1,odd,19623,NA,NA,30364,NA,NA,53943,52779,3157,NA,NA,53938,54048,3143,54049,54567,Flanker Task,17,10151,19,yes,1024
Incongruent,1500,SSHSS,90,90,531,531,black,legacy,legacy,legacy,0,uniform,1,undefined,1,h,0,0,0,19,19,0,19,19,0,0,0,19,19,0,19,19,9/14/20 10:59,The main experiment item,yes,FlankerTask.osexp,C:/Users/solom/Desktop,no,mono,no,18,no,white,no,yes,768,legacy,19,19,C:/Users/solom/OneDrive/Documents/School and Fin. Aid/MW-subject-1.csv,legacy,Lentiform Loewenfeld,3.3.3,0,h,NA,s,NA,NA,h,469,NA,16464,NA,NA,469,2,legacy,1024,2,48000,-16,experiment,1,odd,19623,NA,NA,30364,NA,NA,55756,54594,3157,NA,NA,55751,55862,3143,55863,56334,Flanker Task,18,10620,20,yes,1024
Incongruent,1500,SSHSS,90.47619048,90.47619048,532.7619048,532.7619048,black,legacy,legacy,legacy,0,uniform,1,undefined,1,h,0,0,0,20,20,0,20,20,0,0,0,20,20,0,20,20,9/14/20 10:59,The main experiment item,yes,FlankerTask.osexp,C:/Users/solom/Desktop,no,mono,no,18,no,white,no,yes,768,legacy,20,20,C:/Users/solom/OneDrive/Documents/School and Fin. Aid/MW-subject-1.csv,legacy,Lentiform Loewenfeld,3.3.3,0,h,NA,s,NA,NA,h,568,NA,16464,NA,NA,568,2,legacy,1024,2,48000,-16,experiment,1,odd,19623,NA,NA,30364,NA,NA,57523,56363,3157,NA,NA,57518,57629,3143,57629,58198,Flanker Task,19,11188,21,yes,1024
Congruent,1500,SSSSS,90.90909091,90.90909091,532.1363636,532.1363636,black,legacy,legacy,legacy,0,uniform,1,undefined,1,s,0,0,0,21,21,0,21,21,0,0,0,21,21,0,21,21,9/14/20 10:59,The main experiment item,yes,FlankerTask.osexp,C:/Users/solom/Desktop,no,mono,no,18,no,white,no,yes,768,legacy,21,21,C:/Users/solom/OneDrive/Documents/School and Fin. Aid/MW-subject-1.csv,legacy,Lentiform Loewenfeld,3.3.3,0,s,NA,s,NA,NA,s,519,NA,16464,NA,NA,519,2,legacy,1024,2,48000,-16,experiment,1,odd,19623,NA,NA,30364,NA,NA,59395,58231,3157,NA,NA,59390,59502,3143,59502,60022,Flanker Task,20,11707,22,yes,1024
Incongruent,1500,HHSHH,86.95652174,86.95652174,529.6086957,529.6086957,black,legacy,legacy,legacy,0,uniform,0,undefined,0,s,0,0,0,22,22,0,22,22,0,0,0,22,22,0,22,22,9/14/20 10:59,The main experiment item,yes,FlankerTask.osexp,C:/Users/solom/Desktop,no,mono,no,18,no,white,no,yes,768,legacy,22,22,C:/Users/solom/OneDrive/Documents/School and Fin. Aid/MW-subject-1.csv,legacy,Lentiform Loewenfeld,3.3.3,0,h,NA,s,NA,NA,h,474,NA,16464,NA,NA,474,2,legacy,1024,2,48000,-16,experiment,1,odd,19623,NA,NA,30364,NA,NA,61216,60053,3157,NA,NA,61211,61321,3143,61322,61798,Flanker Task,20,12181,23,yes,1024
Congruent,1500,HHHHH,87.5,87.5,528.9166667,528.9166667,black,legacy,legacy,legacy,0,uniform,1,undefined,1,h,0,0,0,23,23,0,23,23,0,0,0,23,23,0,23,23,9/14/20 10:59,The main experiment item,yes,FlankerTask.osexp,C:/Users/solom/Desktop,no,mono,no,18,no,white,no,yes,768,legacy,23,23,C:/Users/solom/OneDrive/Documents/School and Fin. Aid/MW-subject-1.csv,legacy,Lentiform Loewenfeld,3.3.3,0,h,NA,s,NA,NA,h,513,NA,16464,NA,NA,513,2,legacy,1024,2,48000,-16,experiment,1,odd,19623,NA,NA,61836,NA,NA,63505,62343,3157,NA,NA,63500,63611,3143,63612,64126,Flanker Task,21,12694,24,yes,1024
Incongruent,1500,HHSHH,88,88,526.04,526.04,black,legacy,legacy,legacy,0,uniform,1,undefined,1,s,0,0,0,24,24,0,24,24,0,0,0,24,24,0,24,24,9/14/20 10:59,The main experiment item,yes,FlankerTask.osexp,C:/Users/solom/Desktop,no,mono,no,18,no,white,no,yes,768,legacy,24,24,C:/Users/solom/OneDrive/Documents/School and Fin. Aid/MW-subject-1.csv,legacy,Lentiform Loewenfeld,3.3.3,0,s,NA,s,NA,NA,s,457,NA,16464,NA,NA,457,2,legacy,1024,2,48000,-16,experiment,1,odd,19623,NA,NA,61836,NA,NA,65322,64158,3157,NA,NA,65317,65427,3143,65428,65886,Flanker Task,22,13151,25,yes,1024
Incongruent,1500,HHSHH,88.46153846,88.46153846,529.5769231,529.5769231,black,legacy,legacy,legacy,0,uniform,1,undefined,1,s,0,0,0,25,25,0,25,25,0,0,0,25,25,0,25,25,9/14/20 10:59,The main experiment item,yes,FlankerTask.osexp,C:/Users/solom/Desktop,no,mono,no,18,no,white,no,yes,768,legacy,25,25,C:/Users/solom/OneDrive/Documents/School and Fin. Aid/MW-subject-1.csv,legacy,Lentiform Loewenfeld,3.3.3,0,s,NA,s,NA,NA,s,618,NA,16464,NA,NA,618,2,legacy,1024,2,48000,-16,experiment,1,odd,19623,NA,NA,61836,NA,NA,67081,65917,3157,NA,NA,67076,67185,3143,67186,67806,Flanker Task,23,13769,26,yes,1024
Congruent,1500,HHHHH,88.88888889,88.88888889,535.1481481,535.1481481,black,legacy,legacy,legacy,0,uniform,1,undefined,1,h,0,0,0,26,26,0,26,26,0,0,0,26,26,0,26,26,9/14/20 10:59,The main experiment item,yes,FlankerTask.osexp,C:/Users/solom/Desktop,no,mono,no,18,no,white,no,yes,768,legacy,26,26,C:/Users/solom/OneDrive/Documents/School and Fin. Aid/MW-subject-1.csv,legacy,Lentiform Loewenfeld,3.3.3,0,h,NA,s,NA,NA,h,680,NA,16464,NA,NA,680,2,legacy,1024,2,48000,-16,experiment,1,odd,19623,NA,NA,61836,NA,NA,69003,67838,3157,NA,NA,68998,69108,3143,69109,69790,Flanker Task,24,14449,27,yes,1024
Incongruent,1500,HHSHH,89.28571429,89.28571429,534.3928571,534.3928571,black,legacy,legacy,legacy,0,uniform,1,undefined,1,s,0,0,0,27,27,0,27,27,0,0,0,27,27,0,27,27,9/14/20 10:59,The main experiment item,yes,FlankerTask.osexp,C:/Users/solom/Desktop,no,mono,no,18,no,white,no,yes,768,legacy,27,27,C:/Users/solom/OneDrive/Documents/School and Fin. Aid/MW-subject-1.csv,legacy,Lentiform Loewenfeld,3.3.3,0,s,NA,s,NA,NA,s,514,NA,16464,NA,NA,514,2,legacy,1024,2,48000,-16,experiment,1,odd,19623,NA,NA,61836,NA,NA,70984,69823,3157,NA,NA,70979,71089,3143,71090,71606,Flanker Task,25,14963,28,yes,1024
Congruent,1500,SSSSS,89.65517241,89.65517241,534.3103448,534.3103448,black,legacy,legacy,legacy,0,uniform,1,undefined,1,s,0,0,0,28,28,0,28,28,0,0,0,28,28,0,28,28,9/14/20 10:59,The main experiment item,yes,FlankerTask.osexp,C:/Users/solom/Desktop,no,mono,no,18,no,white,no,yes,768,legacy,28,28,C:/Users/solom/OneDrive/Documents/School and Fin. Aid/MW-subject-1.csv,legacy,Lentiform Loewenfeld,3.3.3,0,s,NA,s,NA,NA,s,532,NA,16464,NA,NA,532,2,legacy,1024,2,48000,-16,experiment,1,odd,19623,NA,NA,61836,NA,NA,72806,71640,3157,NA,NA,72801,72911,3143,72912,73446,Flanker Task,26,15495,29,yes,1024
Incongruent,1500,SSHSS,90,90,533.8333333,533.8333333,black,legacy,legacy,legacy,0,uniform,1,undefined,1,h,0,0,0,29,29,0,29,29,0,0,0,29,29,0,29,29,9/14/20 10:59,The main experiment item,yes,FlankerTask.osexp,C:/Users/solom/Desktop,no,mono,no,18,no,white,no,yes,768,legacy,29,29,C:/Users/solom/OneDrive/Documents/School and Fin. Aid/MW-subject-1.csv,legacy,Lentiform Loewenfeld,3.3.3,0,h,NA,s,NA,NA,h,520,NA,16464,NA,NA,520,2,legacy,1024,2,48000,-16,experiment,1,odd,19623,NA,NA,61836,NA,NA,74642,73477,3157,NA,NA,74637,74747,3143,74748,75270,Flanker Task,27,16015,30,yes,1024
Congruent,1500,HHHHH,90.32258065,90.32258065,534.1612903,534.1612903,black,legacy,legacy,legacy,0,uniform,1,undefined,1,h,0,0,0,30,30,0,30,30,0,0,0,30,30,0,30,30,9/14/20 10:59,The main experiment item,yes,FlankerTask.osexp,C:/Users/solom/Desktop,no,mono,no,18,no,white,no,yes,768,legacy,30,30,C:/Users/solom/OneDrive/Documents/School and Fin. Aid/MW-subject-1.csv,legacy,Lentiform Loewenfeld,3.3.3,0,h,NA,s,NA,NA,h,544,NA,16464,NA,NA,544,2,legacy,1024,2,48000,-16,experiment,1,odd,19623,NA,NA,61836,NA,NA,76466,75303,3157,NA,NA,76461,76571,3143,76572,77118,Flanker Task,28,16559,31,yes,1024
Incongruent,1500,SSHSS,90.625,90.625,535.53125,535.53125,black,legacy,legacy,legacy,0,uniform,1,undefined,1,h,0,0,0,31,31,0,31,31,0,0,0,31,31,0,31,31,9/14/20 10:59,The main experiment item,yes,FlankerTask.osexp,C:/Users/solom/Desktop,no,mono,no,18,no,white,no,yes,768,legacy,31,31,C:/Users/solom/OneDrive/Documents/School and Fin. Aid/MW-subject-1.csv,legacy,Lentiform Loewenfeld,3.3.3,0,h,NA,s,NA,NA,h,578,NA,16464,NA,NA,578,2,legacy,1024,2,48000,-16,experiment,1,odd,19623,NA,NA,61836,NA,NA,78328,77166,3157,NA,NA,78324,78434,3143,78434,79014,Flanker Task,29,17137,32,yes,1024
Incongruent,1500,HHSHH,90.90909091,90.90909091,535,535,black,legacy,legacy,legacy,0,uniform,1,undefined,1,s,0,0,0,32,32,0,32,32,0,0,0,32,32,0,32,32,9/14/20 10:59,The main experiment item,yes,FlankerTask.osexp,C:/Users/solom/Desktop,no,mono,no,18,no,white,no,yes,768,legacy,32,32,C:/Users/solom/OneDrive/Documents/School and Fin. Aid/MW-subject-1.csv,legacy,Lentiform Loewenfeld,3.3.3,0,s,NA,s,NA,NA,s,518,NA,16464,NA,NA,518,2,legacy,1024,2,48000,-16,experiment,1,odd,19623,NA,NA,61836,NA,NA,80211,79046,3157,NA,NA,80206,80317,3143,80318,80838,Flanker Task,30,17655,33,yes,1024
Congruent,1500,HHHHH,91.17647059,91.17647059,532.0588235,532.0588235,black,legacy,legacy,legacy,0,uniform,1,undefined,1,h,0,0,0,33,33,0,33,33,0,0,0,33,33,0,33,33,9/14/20 10:59,The main experiment item,yes,FlankerTask.osexp,C:/Users/solom/Desktop,no,mono,no,18,no,white,no,yes,768,legacy,33,33,C:/Users/solom/OneDrive/Documents/School and Fin. Aid/MW-subject-1.csv,legacy,Lentiform Loewenfeld,3.3.3,0,h,NA,s,NA,NA,h,435,NA,16464,NA,NA,435,2,legacy,1024,2,48000,-16,experiment,1,odd,19623,NA,NA,61836,NA,NA,82042,80878,3157,NA,NA,82037,82146,3143,82146,82583,Flanker Task,31,18090,34,yes,1024
Incongruent,1500,HHSHH,91.42857143,91.42857143,531.5142857,531.5142857,black,legacy,legacy,legacy,0,uniform,1,undefined,1,s,0,0,0,34,34,0,34,34,0,0,0,34,34,0,34,34,9/14/20 10:59,The main experiment item,yes,FlankerTask.osexp,C:/Users/solom/Desktop,no,mono,no,18,no,white,no,yes,768,legacy,34,34,C:/Users/solom/OneDrive/Documents/School and Fin. Aid/MW-subject-1.csv,legacy,Lentiform Loewenfeld,3.3.3,0,s,NA,s,NA,NA,s,513,NA,16464,NA,NA,513,2,legacy,1024,2,48000,-16,experiment,1,odd,19623,NA,NA,61836,NA,NA,83779,82614,3157,NA,NA,83774,83883,3143,83883,84398,Flanker Task,32,18603,35,yes,1024
Incongruent,1500,HHSHH,91.66666667,91.66666667,531.0555556,531.0555556,black,legacy,legacy,legacy,0,uniform,1,undefined,1,s,0,0,0,35,35,0,35,35,0,0,0,35,35,0,35,35,9/14/20 10:59,The main experiment item,yes,FlankerTask.osexp,C:/Users/solom/Desktop,no,mono,no,18,no,white,no,yes,768,legacy,35,35,C:/Users/solom/OneDrive/Documents/School and Fin. Aid/MW-subject-1.csv,legacy,Lentiform Loewenfeld,3.3.3,0,s,NA,s,NA,NA,s,515,NA,16464,NA,NA,515,2,legacy,1024,2,48000,-16,experiment,1,odd,19623,NA,NA,61836,NA,NA,85610,84449,3157,NA,NA,85605,85713,3143,85713,86230,Flanker Task,33,19118,36,yes,1024
Congruent,1500,SSSSS,91.89189189,91.89189189,529.5135135,529.5135135,black,legacy,legacy,legacy,0,uniform,1,undefined,1,s,0,0,0,36,36,0,36,36,0,0,0,36,36,0,36,36,9/14/20 10:59,The main experiment item,yes,FlankerTask.osexp,C:/Users/solom/Desktop,no,mono,no,18,no,white,no,yes,768,legacy,36,36,C:/Users/solom/OneDrive/Documents/School and Fin. Aid/MW-subject-1.csv,legacy,Lentiform Loewenfeld,3.3.3,0,s,NA,s,NA,NA,s,474,NA,16464,NA,NA,474,2,legacy,1024,2,48000,-16,experiment,1,odd,19623,NA,NA,61836,NA,NA,87424,86264,3157,NA,NA,87419,87529,3143,87530,88006,Flanker Task,34,19592,37,yes,1024
Congruent,1500,SSSSS,92.10526316,92.10526316,528.5526316,528.5526316,black,legacy,legacy,legacy,0,uniform,1,undefined,1,s,0,0,0,37,37,0,37,37,0,0,0,37,37,0,37,37,9/14/20 10:59,The main experiment item,yes,FlankerTask.osexp,C:/Users/solom/Desktop,no,mono,no,18,no,white,no,yes,768,legacy,37,37,C:/Users/solom/OneDrive/Documents/School and Fin. Aid/MW-subject-1.csv,legacy,Lentiform Loewenfeld,3.3.3,0,s,NA,s,NA,NA,s,493,NA,16464,NA,NA,493,2,legacy,1024,2,48000,-16,experiment,1,odd,19623,NA,NA,61836,NA,NA,89206,88044,3157,NA,NA,89201,89311,3143,89312,89807,Flanker Task,35,20085,38,yes,1024
Congruent,1500,SSSSS,92.30769231,92.30769231,526.5641026,526.5641026,black,legacy,legacy,legacy,0,uniform,1,undefined,1,s,0,0,0,38,38,0,38,38,0,0,0,38,38,0,38,38,9/14/20 10:59,The main experiment item,yes,FlankerTask.osexp,C:/Users/solom/Desktop,no,mono,no,18,no,white,no,yes,768,legacy,38,38,C:/Users/solom/OneDrive/Documents/School and Fin. Aid/MW-subject-1.csv,legacy,Lentiform Loewenfeld,3.3.3,0,s,NA,s,NA,NA,s,451,NA,16464,NA,NA,451,2,legacy,1024,2,48000,-16,experiment,1,odd,19623,NA,NA,61836,NA,NA,91007,89841,3157,NA,NA,91002,91113,3143,91113,91566,Flanker Task,36,20536,39,yes,1024
Congruent,1500,HHHHH,92.5,92.5,524.675,524.675,black,legacy,legacy,legacy,0,uniform,1,undefined,1,h,0,0,0,39,39,0,39,39,0,0,0,39,39,0,39,39,9/14/20 10:59,The main experiment item,yes,FlankerTask.osexp,C:/Users/solom/Desktop,no,mono,no,18,no,white,no,yes,768,legacy,39,39,C:/Users/solom/OneDrive/Documents/School and Fin. Aid/MW-subject-1.csv,legacy,Lentiform Loewenfeld,3.3.3,0,h,NA,s,NA,NA,h,451,NA,16464,NA,NA,451,2,legacy,1024,2,48000,-16,experiment,1,odd,19623,NA,NA,61836,NA,NA,92774,91610,3157,NA,NA,92769,92880,3143,92881,93334,Flanker Task,37,20987,40,yes,1024
Congruent,1500,HHHHH,92.68292683,92.68292683,523.6097561,523.6097561,black,legacy,legacy,legacy,0,uniform,1,undefined,1,h,0,0,0,40,40,0,40,40,0,0,0,40,40,0,40,40,9/14/20 10:59,The main experiment item,yes,FlankerTask.osexp,C:/Users/solom/Desktop,no,mono,no,18,no,white,no,yes,768,legacy,40,40,C:/Users/solom/OneDrive/Documents/School and Fin. Aid/MW-subject-1.csv,legacy,Lentiform Loewenfeld,3.3.3,0,h,NA,s,NA,NA,h,481,NA,16464,NA,NA,481,2,legacy,1024,2,48000,-16,experiment,1,odd,19623,NA,NA,61836,NA,NA,94531,93367,3157,NA,NA,94526,94636,3143,94636,95119,Flanker Task,38,21468,41,yes,1024
Incongruent,1500,HHSHH,92.85714286,92.85714286,523.4761905,523.4761905,black,legacy,legacy,legacy,0,uniform,1,undefined,1,s,0,0,0,41,41,0,41,41,0,0,0,41,41,0,41,41,9/14/20 10:59,The main experiment item,yes,FlankerTask.osexp,C:/Users/solom/Desktop,no,mono,no,18,no,white,no,yes,768,legacy,41,41,C:/Users/solom/OneDrive/Documents/School and Fin. Aid/MW-subject-1.csv,legacy,Lentiform Loewenfeld,3.3.3,0,s,NA,s,NA,NA,s,518,NA,16464,NA,NA,518,2,legacy,1024,2,48000,-16,experiment,1,odd,19623,NA,NA,61836,NA,NA,96309,95147,3157,NA,NA,96304,96414,3143,96414,96935,Flanker Task,39,21986,42,yes,1024
Congruent,1500,SSSSS,93.02325581,93.02325581,523.255814,523.255814,black,legacy,legacy,legacy,0,uniform,1,undefined,1,s,0,0,0,42,42,0,42,42,0,0,0,42,42,0,42,42,9/14/20 10:59,The main experiment item,yes,FlankerTask.osexp,C:/Users/solom/Desktop,no,mono,no,18,no,white,no,yes,768,legacy,42,42,C:/Users/solom/OneDrive/Documents/School and Fin. Aid/MW-subject-1.csv,legacy,Lentiform Loewenfeld,3.3.3,0,s,NA,s,NA,NA,s,514,NA,16464,NA,NA,514,2,legacy,1024,2,48000,-16,experiment,1,odd,19623,NA,NA,61836,NA,NA,98128,96964,3157,NA,NA,98124,98234,3143,98234,98751,Flanker Task,40,22500,43,yes,1024
Congruent,1500,HHHHH,93.18181818,93.18181818,523.0681818,523.0681818,black,legacy,legacy,legacy,0,uniform,1,undefined,1,h,0,0,0,43,43,0,43,43,0,0,0,43,43,0,43,43,9/14/20 10:59,The main experiment item,yes,FlankerTask.osexp,C:/Users/solom/Desktop,no,mono,no,18,no,white,no,yes,768,legacy,43,43,C:/Users/solom/OneDrive/Documents/School and Fin. Aid/MW-subject-1.csv,legacy,Lentiform Loewenfeld,3.3.3,0,h,NA,s,NA,NA,h,515,NA,16464,NA,NA,515,2,legacy,1024,2,48000,-16,experiment,1,odd,19623,NA,NA,61836,NA,NA,99943,98781,3157,NA,NA,99938,100048,3143,100049,100567,Flanker Task,41,23015,44,yes,1024
Incongruent,1500,SSHSS,93.33333333,93.33333333,523.9555556,523.9555556,black,legacy,legacy,legacy,0,uniform,1,undefined,1,h,0,0,0,44,44,0,44,44,0,0,0,44,44,0,44,44,9/14/20 10:59,The main experiment item,yes,FlankerTask.osexp,C:/Users/solom/Desktop,no,mono,no,18,no,white,no,yes,768,legacy,44,44,C:/Users/solom/OneDrive/Documents/School and Fin. Aid/MW-subject-1.csv,legacy,Lentiform Loewenfeld,3.3.3,0,h,NA,s,NA,NA,h,563,NA,16464,NA,NA,563,2,legacy,1024,2,48000,-16,experiment,1,odd,19623,NA,NA,61836,NA,NA,101760,100599,3157,NA,NA,101755,101865,3143,101865,102430,Flanker Task,42,23578,45,yes,1024
Congruent,1500,HHHHH,93.47826087,93.47826087,523.7608696,523.7608696,black,legacy,legacy,legacy,0,uniform,1,undefined,1,h,0,0,0,45,45,0,45,45,0,0,0,45,45,0,45,45,9/14/20 10:59,The main experiment item,yes,FlankerTask.osexp,C:/Users/solom/Desktop,no,mono,no,18,no,white,no,yes,768,legacy,45,45,C:/Users/solom/OneDrive/Documents/School and Fin. Aid/MW-subject-1.csv,legacy,Lentiform Loewenfeld,3.3.3,0,h,NA,s,NA,NA,h,515,NA,16464,NA,NA,515,2,legacy,1024,2,48000,-16,experiment,1,odd,19623,NA,NA,61836,NA,NA,103623,102461,3157,NA,NA,103618,103729,3143,103730,104247,Flanker Task,43,24093,46,yes,1024
Incongruent,1500,HHSHH,93.61702128,93.61702128,523.4468085,523.4468085,black,legacy,legacy,legacy,0,uniform,1,undefined,1,s,0,0,0,46,46,0,46,46,0,0,0,46,46,0,46,46,9/14/20 10:59,The main experiment item,yes,FlankerTask.osexp,C:/Users/solom/Desktop,no,mono,no,18,no,white,no,yes,768,legacy,46,46,C:/Users/solom/OneDrive/Documents/School and Fin. Aid/MW-subject-1.csv,legacy,Lentiform Loewenfeld,3.3.3,0,s,NA,s,NA,NA,s,509,NA,16464,NA,NA,509,2,legacy,1024,2,48000,-16,experiment,1,odd,19623,NA,NA,61836,NA,NA,105439,104278,3157,NA,NA,105434,105544,3143,105544,106055,Flanker Task,44,24602,47,yes,1024
Congruent,1500,SSSSS,93.75,93.75,525.8958333,525.8958333,black,legacy,legacy,legacy,0,uniform,1,undefined,1,s,0,0,0,47,47,0,47,47,0,0,0,47,47,0,47,47,9/14/20 10:59,The main experiment item,yes,FlankerTask.osexp,C:/Users/solom/Desktop,no,mono,no,18,no,white,no,yes,768,legacy,47,47,C:/Users/solom/OneDrive/Documents/School and Fin. Aid/MW-subject-1.csv,legacy,Lentiform Loewenfeld,3.3.3,0,s,NA,s,NA,NA,s,641,NA,16464,NA,NA,641,2,legacy,1024,2,48000,-16,experiment,1,odd,19623,NA,NA,61836,NA,NA,107251,106087,3157,NA,NA,107246,107355,3143,107355,107999,Flanker Task,45,25243,48,yes,1024
Incongruent,1500,SSHSS,93.87755102,93.87755102,525.7959184,525.7959184,black,legacy,legacy,legacy,0,uniform,1,undefined,1,h,0,0,0,48,48,0,48,48,0,0,0,48,48,0,48,48,9/14/20 10:59,The main experiment item,yes,FlankerTask.osexp,C:/Users/solom/Desktop,no,mono,no,18,no,white,no,yes,768,legacy,48,48,C:/Users/solom/OneDrive/Documents/School and Fin. Aid/MW-subject-1.csv,legacy,Lentiform Loewenfeld,3.3.3,0,h,NA,s,NA,NA,h,521,NA,16464,NA,NA,521,2,legacy,1024,2,48000,-16,experiment,1,odd,19623,NA,NA,61836,NA,NA,109193,108029,3157,NA,NA,109188,109298,3143,109299,109822,Flanker Task,46,25764,49,yes,1024
Incongruent,1500,SSHSS,94,94,526.86,526.86,black,legacy,legacy,legacy,0,uniform,1,undefined,1,h,0,0,0,49,49,0,49,49,0,0,0,49,49,0,49,49,9/14/20 10:59,The main experiment item,yes,FlankerTask.osexp,C:/Users/solom/Desktop,no,mono,no,18,no,white,no,yes,768,legacy,49,49,C:/Users/solom/OneDrive/Documents/School and Fin. Aid/MW-subject-1.csv,legacy,Lentiform Loewenfeld,3.3.3,0,h,NA,s,NA,NA,h,579,NA,16464,NA,NA,579,2,legacy,1024,2,48000,-16,experiment,1,odd,19623,NA,NA,61836,NA,NA,111016,109851,3157,NA,NA,111011,111121,3143,111122,111703,Flanker Task,47,26343,50,yes,1024
Congruent,1500,HHHHH,94.11764706,94.11764706,529.1568627,529.1568627,black,legacy,legacy,legacy,0,uniform,1,undefined,1,h,0,0,0,50,50,0,50,50,0,0,0,50,50,0,50,50,9/14/20 10:59,The main experiment item,yes,FlankerTask.osexp,C:/Users/solom/Desktop,no,mono,no,18,no,white,no,yes,768,legacy,50,50,C:/Users/solom/OneDrive/Documents/School and Fin. Aid/MW-subject-1.csv,legacy,Lentiform Loewenfeld,3.3.3,0,h,NA,s,NA,NA,h,644,NA,16464,NA,NA,644,2,legacy,1024,2,48000,-16,experiment,1,odd,19623,NA,NA,61836,NA,NA,112902,111738,3157,NA,NA,112897,113007,3143,113008,113654,Flanker Task,48,26987,51,yes,1024
Congruent,1500,SSSSS,94.23076923,94.23076923,526.7692308,526.7692308,black,legacy,legacy,legacy,0,uniform,1,undefined,1,s,0,0,0,51,51,0,51,51,0,0,0,51,51,0,51,51,9/14/20 10:59,The main experiment item,yes,FlankerTask.osexp,C:/Users/solom/Desktop,no,mono,no,18,no,white,no,yes,768,legacy,51,51,C:/Users/solom/OneDrive/Documents/School and Fin. Aid/MW-subject-1.csv,legacy,Lentiform Loewenfeld,3.3.3,0,s,NA,s,NA,NA,s,405,NA,16464,NA,NA,405,2,legacy,1024,2,48000,-16,experiment,1,odd,19623,NA,NA,61836,NA,NA,114853,113686,3157,NA,NA,114848,114958,3143,114959,115367,Flanker Task,49,27392,52,yes,1024
Congruent,1500,SSSSS,94.33962264,94.33962264,524.4339623,524.4339623,black,legacy,legacy,legacy,0,uniform,1,undefined,1,s,0,0,0,52,52,0,52,52,0,0,0,52,52,0,52,52,9/14/20 10:59,The main experiment item,yes,FlankerTask.osexp,C:/Users/solom/Desktop,no,mono,no,18,no,white,no,yes,768,legacy,52,52,C:/Users/solom/OneDrive/Documents/School and Fin. Aid/MW-subject-1.csv,legacy,Lentiform Loewenfeld,3.3.3,0,s,NA,s,NA,NA,s,403,NA,16464,NA,NA,403,2,legacy,1024,2,48000,-16,experiment,1,odd,19623,NA,NA,61836,NA,NA,116563,115398,3157,NA,NA,116557,116666,3143,116666,117071,Flanker Task,50,27795,53,yes,1024
Incongruent,1500,SSHSS,92.59259259,92.59259259,521.3888889,521.3888889,black,legacy,legacy,legacy,0,uniform,0,undefined,0,h,0,0,0,53,53,0,53,53,0,0,0,53,53,0,53,53,9/14/20 10:59,The main experiment item,yes,FlankerTask.osexp,C:/Users/solom/Desktop,no,mono,no,18,no,white,no,yes,768,legacy,53,53,C:/Users/solom/OneDrive/Documents/School and Fin. Aid/MW-subject-1.csv,legacy,Lentiform Loewenfeld,3.3.3,0,s,NA,s,NA,NA,s,360,NA,16464,NA,NA,360,2,legacy,1024,2,48000,-16,experiment,1,odd,19623,NA,NA,61836,NA,NA,118259,117100,3157,NA,NA,118254,118364,3143,118365,118727,Flanker Task,50,28155,54,yes,1024
Congruent,1500,SSSSS,92.72727273,92.72727273,519.7818182,519.7818182,black,legacy,legacy,legacy,0,uniform,1,undefined,1,s,0,0,0,54,54,0,54,54,0,0,0,54,54,0,54,54,9/14/20 10:59,The main experiment item,yes,FlankerTask.osexp,C:/Users/solom/Desktop,no,mono,no,18,no,white,no,yes,768,legacy,54,54,C:/Users/solom/OneDrive/Documents/School and Fin. Aid/MW-subject-1.csv,legacy,Lentiform Loewenfeld,3.3.3,0,s,NA,s,NA,NA,s,433,NA,16464,NA,NA,433,2,legacy,1024,2,48000,-16,experiment,1,odd,19623,NA,NA,118758,NA,NA,120426,119264,3157,NA,NA,120421,120531,3143,120532,120967,Flanker Task,51,28588,55,yes,1024
Congruent,1500,SSSSS,92.85714286,92.85714286,517.9642857,517.9642857,black,legacy,legacy,legacy,0,uniform,1,undefined,1,s,0,0,0,55,55,0,55,55,0,0,0,55,55,0,55,55,9/14/20 10:59,The main experiment item,yes,FlankerTask.osexp,C:/Users/solom/Desktop,no,mono,no,18,no,white,no,yes,768,legacy,55,55,C:/Users/solom/OneDrive/Documents/School and Fin. Aid/MW-subject-1.csv,legacy,Lentiform Loewenfeld,3.3.3,0,s,NA,s,NA,NA,s,418,NA,16464,NA,NA,418,2,legacy,1024,2,48000,-16,experiment,1,odd,19623,NA,NA,118758,NA,NA,122161,121001,3157,NA,NA,122156,122265,3143,122266,122687,Flanker Task,52,29006,56,yes,1024
Congruent,1500,HHHHH,92.98245614,92.98245614,516.0175439,516.0175439,black,legacy,legacy,legacy,0,uniform,1,undefined,1,h,0,0,0,56,56,0,56,56,0,0,0,56,56,0,56,56,9/14/20 10:59,The main experiment item,yes,FlankerTask.osexp,C:/Users/solom/Desktop,no,mono,no,18,no,white,no,yes,768,legacy,56,56,C:/Users/solom/OneDrive/Documents/School and Fin. Aid/MW-subject-1.csv,legacy,Lentiform Loewenfeld,3.3.3,0,h,NA,s,NA,NA,h,407,NA,16464,NA,NA,407,2,legacy,1024,2,48000,-16,experiment,1,odd,19623,NA,NA,118758,NA,NA,123883,122718,3157,NA,NA,123878,123988,3143,123989,124399,Flanker Task,53,29413,57,yes,1024
Incongruent,1500,SSHSS,93.10344828,93.10344828,514.6551724,514.6551724,black,legacy,legacy,legacy,0,uniform,1,undefined,1,h,0,0,0,57,57,0,57,57,0,0,0,57,57,0,57,57,9/14/20 10:59,The main experiment item,yes,FlankerTask.osexp,C:/Users/solom/Desktop,no,mono,no,18,no,white,no,yes,768,legacy,57,57,C:/Users/solom/OneDrive/Documents/School and Fin. Aid/MW-subject-1.csv,legacy,Lentiform Loewenfeld,3.3.3,0,h,NA,s,NA,NA,h,437,NA,16464,NA,NA,437,2,legacy,1024,2,48000,-16,experiment,1,odd,19623,NA,NA,118758,NA,NA,125591,124431,3157,NA,NA,125586,125695,3143,125695,126135,Flanker Task,54,29850,58,yes,1024
Congruent,1500,SSSSS,91.52542373,91.52542373,511.7966102,511.7966102,black,legacy,legacy,legacy,0,uniform,0,undefined,0,s,0,0,0,58,58,0,58,58,0,0,0,58,58,0,58,58,9/14/20 10:59,The main experiment item,yes,FlankerTask.osexp,C:/Users/solom/Desktop,no,mono,no,18,no,white,no,yes,768,legacy,58,58,C:/Users/solom/OneDrive/Documents/School and Fin. Aid/MW-subject-1.csv,legacy,Lentiform Loewenfeld,3.3.3,0,h,NA,s,NA,NA,h,346,NA,16464,NA,NA,346,2,legacy,1024,2,48000,-16,experiment,1,odd,19623,NA,NA,118758,NA,NA,127328,126165,3157,NA,NA,127324,127434,3143,127434,127783,Flanker Task,54,30196,59,yes,1024
Congruent,1500,HHHHH,91.66666667,91.66666667,510.4166667,510.4166667,black,legacy,legacy,legacy,0,uniform,1,undefined,1,h,0,0,0,59,59,0,59,59,0,0,0,59,59,0,59,59,9/14/20 10:59,The main experiment item,yes,FlankerTask.osexp,C:/Users/solom/Desktop,no,mono,no,18,no,white,no,yes,768,legacy,59,59,C:/Users/solom/OneDrive/Documents/School and Fin. Aid/MW-subject-1.csv,legacy,Lentiform Loewenfeld,3.3.3,0,h,NA,s,NA,NA,h,429,NA,16464,NA,NA,429,2,legacy,1024,2,48000,-16,experiment,1,odd,19623,NA,NA,127815,NA,NA,129487,128322,3157,NA,NA,129483,129592,3143,129592,130023,Flanker Task,55,30625,60,yes,1024
Incongruent,1500,HHSHH,91.80327869,91.80327869,510.6393443,510.6393443,black,legacy,legacy,legacy,0,uniform,1,undefined,1,s,0,0,0,60,60,0,60,60,0,0,0,60,60,0,60,60,9/14/20 10:59,The main experiment item,yes,FlankerTask.osexp,C:/Users/solom/Desktop,no,mono,no,18,no,white,no,yes,768,legacy,60,60,C:/Users/solom/OneDrive/Documents/School and Fin. Aid/MW-subject-1.csv,legacy,Lentiform Loewenfeld,3.3.3,0,s,NA,s,NA,NA,s,524,NA,16464,NA,NA,524,2,legacy,1024,2,48000,-16,experiment,1,odd,19623,NA,NA,127815,NA,NA,131215,130053,3157,NA,NA,131210,131320,3143,131321,131848,Flanker Task,56,31149,61,yes,1024
Congruent,1500,SSSSS,91.93548387,91.93548387,509.8225806,509.8225806,black,legacy,legacy,legacy,0,uniform,1,undefined,1,s,0,0,0,61,61,0,61,61,0,0,0,61,61,0,61,61,9/14/20 10:59,The main experiment item,yes,FlankerTask.osexp,C:/Users/solom/Desktop,no,mono,no,18,no,white,no,yes,768,legacy,61,61,C:/Users/solom/OneDrive/Documents/School and Fin. Aid/MW-subject-1.csv,legacy,Lentiform Loewenfeld,3.3.3,0,s,NA,s,NA,NA,s,460,NA,16464,NA,NA,460,2,legacy,1024,2,48000,-16,experiment,1,odd,19623,NA,NA,127815,NA,NA,133038,131878,3157,NA,NA,133033,133144,3143,133144,133607,Flanker Task,57,31609,62,yes,1024
Incongruent,1500,SSHSS,92.06349206,92.06349206,509.6984127,509.6984127,black,legacy,legacy,legacy,0,uniform,1,undefined,1,h,0,0,0,62,62,0,62,62,0,0,0,62,62,0,62,62,9/14/20 10:59,The main experiment item,yes,FlankerTask.osexp,C:/Users/solom/Desktop,no,mono,no,18,no,white,no,yes,768,legacy,62,62,C:/Users/solom/OneDrive/Documents/School and Fin. Aid/MW-subject-1.csv,legacy,Lentiform Loewenfeld,3.3.3,0,h,NA,s,NA,NA,h,502,NA,16464,NA,NA,502,2,legacy,1024,2,48000,-16,experiment,1,odd,19623,NA,NA,127815,NA,NA,134805,133637,3157,NA,NA,134800,134910,3143,134911,135415,Flanker Task,58,32111,63,yes,1024
Incongruent,1500,SSHSS,92.1875,92.1875,508.859375,508.859375,black,legacy,legacy,legacy,0,uniform,1,undefined,1,h,0,0,0,63,63,0,63,63,0,0,0,63,63,0,63,63,9/14/20 10:59,The main experiment item,yes,FlankerTask.osexp,C:/Users/solom/Desktop,no,mono,no,18,no,white,no,yes,768,legacy,63,63,C:/Users/solom/OneDrive/Documents/School and Fin. Aid/MW-subject-1.csv,legacy,Lentiform Loewenfeld,3.3.3,0,h,NA,s,NA,NA,h,456,NA,16464,NA,NA,456,2,legacy,1024,2,48000,-16,experiment,1,odd,19623,NA,NA,127815,NA,NA,136610,135443,3157,NA,NA,136605,136715,3143,136716,137175,Flanker Task,59,32567,64,yes,1024
Incongruent,1500,HHSHH,92.30769231,92.30769231,508.4923077,508.4923077,black,legacy,legacy,legacy,0,uniform,1,undefined,1,s,0,0,0,64,64,0,64,64,0,0,0,64,64,0,64,64,9/14/20 10:59,The main experiment item,yes,FlankerTask.osexp,C:/Users/solom/Desktop,no,mono,no,18,no,white,no,yes,768,legacy,64,64,C:/Users/solom/OneDrive/Documents/School and Fin. Aid/MW-subject-1.csv,legacy,Lentiform Loewenfeld,3.3.3,0,s,NA,s,NA,NA,s,485,NA,16464,NA,NA,485,2,legacy,1024,2,48000,-16,experiment,1,odd,19623,NA,NA,127815,NA,NA,138374,137204,3157,NA,NA,138369,138479,3143,138480,138968,Flanker Task,60,33052,65,yes,1024
Congruent,1500,SSSSS,92.42424242,92.42424242,506.6818182,506.6818182,black,legacy,legacy,legacy,0,uniform,1,undefined,1,s,0,0,0,65,65,0,65,65,0,0,0,65,65,0,65,65,9/14/20 10:59,The main experiment item,yes,FlankerTask.osexp,C:/Users/solom/Desktop,no,mono,no,18,no,white,no,yes,768,legacy,65,65,C:/Users/solom/OneDrive/Documents/School and Fin. Aid/MW-subject-1.csv,legacy,Lentiform Loewenfeld,3.3.3,0,s,NA,s,NA,NA,s,389,NA,16464,NA,NA,389,2,legacy,1024,2,48000,-16,experiment,1,odd,19623,NA,NA,127815,NA,NA,140158,138997,3157,NA,NA,140153,140263,3143,140264,140655,Flanker Task,61,33441,66,yes,1024
Congruent,1500,SSSSS,92.53731343,92.53731343,504.7313433,504.7313433,black,legacy,legacy,legacy,0,uniform,1,undefined,1,s,0,0,0,66,66,0,66,66,0,0,0,66,66,0,66,66,9/14/20 10:59,The main experiment item,yes,FlankerTask.osexp,C:/Users/solom/Desktop,no,mono,no,18,no,white,no,yes,768,legacy,66,66,C:/Users/solom/OneDrive/Documents/School and Fin. Aid/MW-subject-1.csv,legacy,Lentiform Loewenfeld,3.3.3,0,s,NA,s,NA,NA,s,376,NA,16464,NA,NA,376,2,legacy,1024,2,48000,-16,experiment,1,odd,19623,NA,NA,127815,NA,NA,141850,140686,3157,NA,NA,141845,141955,3143,141956,142335,Flanker Task,62,33817,67,yes,1024
Incongruent,1500,HHSHH,91.17647059,91.17647059,504.1764706,504.1764706,black,legacy,legacy,legacy,0,uniform,0,undefined,0,s,0,0,0,67,67,0,67,67,0,0,0,67,67,0,67,67,9/14/20 10:59,The main experiment item,yes,FlankerTask.osexp,C:/Users/solom/Desktop,no,mono,no,18,no,white,no,yes,768,legacy,67,67,C:/Users/solom/OneDrive/Documents/School and Fin. Aid/MW-subject-1.csv,legacy,Lentiform Loewenfeld,3.3.3,0,h,NA,s,NA,NA,h,467,NA,16464,NA,NA,467,2,legacy,1024,2,48000,-16,experiment,1,odd,19623,NA,NA,127815,NA,NA,143530,142365,3157,NA,NA,143525,143633,3143,143634,144104,Flanker Task,62,34284,68,yes,1024
Congruent,1500,HHHHH,91.30434783,91.30434783,503.2898551,503.2898551,black,legacy,legacy,legacy,0,uniform,1,undefined,1,h,0,0,0,68,68,0,68,68,0,0,0,68,68,0,68,68,9/14/20 10:59,The main experiment item,yes,FlankerTask.osexp,C:/Users/solom/Desktop,no,mono,no,18,no,white,no,yes,768,legacy,68,68,C:/Users/solom/OneDrive/Documents/School and Fin. Aid/MW-subject-1.csv,legacy,Lentiform Loewenfeld,3.3.3,0,h,NA,s,NA,NA,h,443,NA,16464,NA,NA,443,2,legacy,1024,2,48000,-16,experiment,1,odd,19623,NA,NA,144137,NA,NA,145809,144643,3157,NA,NA,145804,145914,3143,145914,146360,Flanker Task,63,34727,69,yes,1024
Congruent,1500,SSSSS,91.42857143,91.42857143,502.2714286,502.2714286,black,legacy,legacy,legacy,0,uniform,1,undefined,1,s,0,0,0,69,69,0,69,69,0,0,0,69,69,0,69,69,9/14/20 10:59,The main experiment item,yes,FlankerTask.osexp,C:/Users/solom/Desktop,no,mono,no,18,no,white,no,yes,768,legacy,69,69,C:/Users/solom/OneDrive/Documents/School and Fin. Aid/MW-subject-1.csv,legacy,Lentiform Loewenfeld,3.3.3,0,s,NA,s,NA,NA,s,432,NA,16464,NA,NA,432,2,legacy,1024,2,48000,-16,experiment,1,odd,19623,NA,NA,144137,NA,NA,147557,146391,3157,NA,NA,147551,147661,3143,147661,148096,Flanker Task,64,35159,70,yes,1024
Congruent,1500,SSSSS,91.54929577,91.54929577,500.7042254,500.7042254,black,legacy,legacy,legacy,0,uniform,1,undefined,1,s,0,0,0,70,70,0,70,70,0,0,0,70,70,0,70,70,9/14/20 10:59,The main experiment item,yes,FlankerTask.osexp,C:/Users/solom/Desktop,no,mono,no,18,no,white,no,yes,768,legacy,70,70,C:/Users/solom/OneDrive/Documents/School and Fin. Aid/MW-subject-1.csv,legacy,Lentiform Loewenfeld,3.3.3,0,s,NA,s,NA,NA,s,391,NA,16464,NA,NA,391,2,legacy,1024,2,48000,-16,experiment,1,odd,19623,NA,NA,144137,NA,NA,149284,148125,3157,NA,NA,149279,149389,3143,149390,149784,Flanker Task,65,35550,71,yes,1024
Incongruent,1500,HHSHH,90.27777778,90.27777778,500.0555556,500.0555556,black,legacy,legacy,legacy,0,uniform,0,undefined,0,s,0,0,0,71,71,0,71,71,0,0,0,71,71,0,71,71,9/14/20 10:59,The main experiment item,yes,FlankerTask.osexp,C:/Users/solom/Desktop,no,mono,no,18,no,white,no,yes,768,legacy,71,71,C:/Users/solom/OneDrive/Documents/School and Fin. Aid/MW-subject-1.csv,legacy,Lentiform Loewenfeld,3.3.3,0,h,NA,s,NA,NA,h,454,NA,16464,NA,NA,454,2,legacy,1024,2,48000,-16,experiment,1,odd,19623,NA,NA,144137,NA,NA,150988,149822,3157,NA,NA,150983,151093,3143,151094,151551,Flanker Task,65,36004,72,yes,1024
Incongruent,1500,SSHSS,90.4109589,90.4109589,500.6164384,500.6164384,black,legacy,legacy,legacy,0,uniform,1,undefined,1,h,0,0,0,72,72,0,72,72,0,0,0,72,72,0,72,72,9/14/20 10:59,The main experiment item,yes,FlankerTask.osexp,C:/Users/solom/Desktop,no,mono,no,18,no,white,no,yes,768,legacy,72,72,C:/Users/solom/OneDrive/Documents/School and Fin. Aid/MW-subject-1.csv,legacy,Lentiform Loewenfeld,3.3.3,0,h,NA,s,NA,NA,h,541,NA,16464,NA,NA,541,2,legacy,1024,2,48000,-16,experiment,1,odd,19623,NA,NA,151585,NA,NA,153254,152089,3157,NA,NA,153249,153359,3143,153360,153904,Flanker Task,66,36545,73,yes,1024
Incongruent,1500,SSHSS,90.54054054,90.54054054,500.5,500.5,black,legacy,legacy,legacy,0,uniform,1,undefined,1,h,0,0,0,73,73,0,73,73,0,0,0,73,73,0,73,73,9/14/20 10:59,The main experiment item,yes,FlankerTask.osexp,C:/Users/solom/Desktop,no,mono,no,18,no,white,no,yes,768,legacy,73,73,C:/Users/solom/OneDrive/Documents/School and Fin. Aid/MW-subject-1.csv,legacy,Lentiform Loewenfeld,3.3.3,0,h,NA,s,NA,NA,h,492,NA,16464,NA,NA,492,2,legacy,1024,2,48000,-16,experiment,1,odd,19623,NA,NA,151585,NA,NA,155095,153935,3157,NA,NA,155091,155200,3143,155201,155696,Flanker Task,67,37037,74,yes,1024
Congruent,1500,HHHHH,90.66666667,90.66666667,500.9333333,500.9333333,black,legacy,legacy,legacy,0,uniform,1,undefined,1,h,0,0,0,74,74,0,74,74,0,0,0,74,74,0,74,74,9/14/20 10:59,The main experiment item,yes,FlankerTask.osexp,C:/Users/solom/Desktop,no,mono,no,18,no,white,no,yes,768,legacy,74,74,C:/Users/solom/OneDrive/Documents/School and Fin. Aid/MW-subject-1.csv,legacy,Lentiform Loewenfeld,3.3.3,0,h,NA,s,NA,NA,h,533,NA,16464,NA,NA,533,2,legacy,1024,2,48000,-16,experiment,1,odd,19623,NA,NA,151585,NA,NA,156887,155724,3157,NA,NA,156882,156992,3143,156992,157528,Flanker Task,68,37570,75,yes,1024
Congruent,1500,SSSSS,90.78947368,90.78947368,499.6052632,499.6052632,black,legacy,legacy,legacy,0,uniform,1,undefined,1,s,0,0,0,75,75,0,75,75,0,0,0,75,75,0,75,75,9/14/20 10:59,The main experiment item,yes,FlankerTask.osexp,C:/Users/solom/Desktop,no,mono,no,18,no,white,no,yes,768,legacy,75,75,C:/Users/solom/OneDrive/Documents/School and Fin. Aid/MW-subject-1.csv,legacy,Lentiform Loewenfeld,3.3.3,0,s,NA,s,NA,NA,s,400,NA,16464,NA,NA,400,2,legacy,1024,2,48000,-16,experiment,1,odd,19623,NA,NA,151585,NA,NA,158721,157561,3157,NA,NA,158716,158827,3143,158828,159231,Flanker Task,69,37970,76,yes,1024
Incongruent,1500,HHSHH,90.90909091,90.90909091,500.8701299,500.8701299,black,legacy,legacy,legacy,0,uniform,1,undefined,1,s,0,0,0,76,76,0,76,76,0,0,0,76,76,0,76,76,9/14/20 10:59,The main experiment item,yes,FlankerTask.osexp,C:/Users/solom/Desktop,no,mono,no,18,no,white,no,yes,768,legacy,76,76,C:/Users/solom/OneDrive/Documents/School and Fin. Aid/MW-subject-1.csv,legacy,Lentiform Loewenfeld,3.3.3,0,s,NA,s,NA,NA,s,597,NA,16464,NA,NA,597,2,legacy,1024,2,48000,-16,experiment,1,odd,19623,NA,NA,151585,NA,NA,160421,159261,3157,NA,NA,160416,160526,3143,160527,161127,Flanker Task,70,38567,77,yes,1024
Incongruent,1500,SSHSS,91.02564103,91.02564103,502.1923077,502.1923077,black,legacy,legacy,legacy,0,uniform,1,undefined,1,h,0,0,0,77,77,0,77,77,0,0,0,77,77,0,77,77,9/14/20 10:59,The main experiment item,yes,FlankerTask.osexp,C:/Users/solom/Desktop,no,mono,no,18,no,white,no,yes,768,legacy,77,77,C:/Users/solom/OneDrive/Documents/School and Fin. Aid/MW-subject-1.csv,legacy,Lentiform Loewenfeld,3.3.3,0,h,NA,s,NA,NA,h,604,NA,16464,NA,NA,604,2,legacy,1024,2,48000,-16,experiment,1,odd,19623,NA,NA,151585,NA,NA,162327,161162,3157,NA,NA,162322,162432,3143,162433,163040,Flanker Task,71,39171,78,yes,1024
Congruent,1500,HHHHH,91.13924051,91.13924051,502.1265823,502.1265823,black,legacy,legacy,legacy,0,uniform,1,undefined,1,h,0,0,0,78,78,0,78,78,0,0,0,78,78,0,78,78,9/14/20 10:59,The main experiment item,yes,FlankerTask.osexp,C:/Users/solom/Desktop,no,mono,no,18,no,white,no,yes,768,legacy,78,78,C:/Users/solom/OneDrive/Documents/School and Fin. Aid/MW-subject-1.csv,legacy,Lentiform Loewenfeld,3.3.3,0,h,NA,s,NA,NA,h,497,NA,16464,NA,NA,497,2,legacy,1024,2,48000,-16,experiment,1,odd,19623,NA,NA,151585,NA,NA,164242,163080,3157,NA,NA,164237,164347,3143,164348,164848,Flanker Task,72,39668,79,yes,1024
Congruent,1500,HHHHH,91.25,91.25,501.4,501.4,black,legacy,legacy,legacy,0,uniform,1,undefined,1,h,0,0,0,79,79,0,79,79,0,0,0,79,79,0,79,79,9/14/20 10:59,The main experiment item,yes,FlankerTask.osexp,C:/Users/solom/Desktop,no,mono,no,18,no,white,no,yes,768,legacy,79,79,C:/Users/solom/OneDrive/Documents/School and Fin. Aid/MW-subject-1.csv,legacy,Lentiform Loewenfeld,3.3.3,0,h,NA,s,NA,NA,h,444,NA,16464,NA,NA,444,2,legacy,1024,2,48000,-16,experiment,1,odd,19623,NA,NA,151585,NA,NA,166046,164880,3157,NA,NA,166041,166151,3143,166152,166599,Flanker Task,73,40112,80,yes,1024
Incongruent,600,SSHSS,90.12345679,90.12345679,501.2098765,501.2098765,black,legacy,legacy,legacy,0,uniform,0,undefined,0,h,0,0,0,80,80,0,80,80,0,0,0,80,80,0,80,80,9/14/20 10:59,The main experiment item,yes,FlankerTask.osexp,C:/Users/solom/Desktop,no,mono,no,18,no,white,no,yes,768,legacy,0,79,C:/Users/solom/OneDrive/Documents/School and Fin. Aid/MW-subject-1.csv,legacy,Lentiform Loewenfeld,3.3.3,0,s,NA,s,s,NA,s,486,NA,16464,30809,NA,486,2,legacy,1024,2,48000,-16,experiment,1,odd,19623,198480,NA,151585,NA,NA,198644,166630,3157,167668,NA,198640,198750,3143,198751,199240,Flanker Task,73,40598,81,yes,1024
Congruent,600,HHHHH,90.24390244,90.24390244,501.1463415,501.1463415,black,legacy,legacy,legacy,0,uniform,1,undefined,1,h,0,0,0,81,81,0,81,81,0,0,0,81,81,0,81,81,9/14/20 10:59,The main experiment item,yes,FlankerTask.osexp,C:/Users/solom/Desktop,no,mono,no,18,no,white,no,yes,768,legacy,1,79,C:/Users/solom/OneDrive/Documents/School and Fin. Aid/MW-subject-1.csv,legacy,Lentiform Loewenfeld,3.3.3,0,h,NA,s,s,NA,h,496,NA,16464,30809,NA,496,2,legacy,1024,2,48000,-16,experiment,1,odd,19623,198480,NA,199274,NA,NA,200939,199777,3157,167668,NA,200935,201044,3143,201045,201544,Flanker Task,74,41094,82,yes,1024
Congruent,600,SSSSS,90.36144578,90.36144578,500.746988,500.746988,black,legacy,legacy,legacy,0,uniform,1,undefined,1,s,0,0,0,82,82,0,82,82,0,0,0,82,82,0,82,82,9/14/20 10:59,The main experiment item,yes,FlankerTask.osexp,C:/Users/solom/Desktop,no,mono,no,18,no,white,no,yes,768,legacy,2,79,C:/Users/solom/OneDrive/Documents/School and Fin. Aid/MW-subject-1.csv,legacy,Lentiform Loewenfeld,3.3.3,0,s,NA,s,s,NA,s,468,NA,16464,30809,NA,468,2,legacy,1024,2,48000,-16,experiment,1,odd,19623,198480,NA,199274,NA,NA,202737,201574,3157,167668,NA,202732,202840,3143,202840,203311,Flanker Task,75,41562,83,yes,1024
Incongruent,600,SSHSS,90.47619048,90.47619048,500.5,500.5,black,legacy,legacy,legacy,0,uniform,1,undefined,1,h,0,0,0,83,83,0,83,83,0,0,0,83,83,0,83,83,9/14/20 10:59,The main experiment item,yes,FlankerTask.osexp,C:/Users/solom/Desktop,no,mono,no,18,no,white,no,yes,768,legacy,3,79,C:/Users/solom/OneDrive/Documents/School and Fin. Aid/MW-subject-1.csv,legacy,Lentiform Loewenfeld,3.3.3,0,h,NA,s,s,NA,h,480,NA,16464,30809,NA,480,2,legacy,1024,2,48000,-16,experiment,1,odd,19623,198480,NA,199274,NA,NA,204505,203341,3157,167668,NA,204501,204611,3143,204612,205096,Flanker Task,76,42042,84,yes,1024
Congruent,600,SSSSS,90.58823529,90.58823529,498.6823529,498.6823529,black,legacy,legacy,legacy,0,uniform,1,undefined,1,s,0,0,0,84,84,0,84,84,0,0,0,84,84,0,84,84,9/14/20 10:59,The main experiment item,yes,FlankerTask.osexp,C:/Users/solom/Desktop,no,mono,no,18,no,white,no,yes,768,legacy,4,79,C:/Users/solom/OneDrive/Documents/School and Fin. Aid/MW-subject-1.csv,legacy,Lentiform Loewenfeld,3.3.3,0,s,NA,s,s,NA,s,346,NA,16464,30809,NA,346,2,legacy,1024,2,48000,-16,experiment,1,odd,19623,198480,NA,199274,NA,NA,206288,205125,3157,167668,NA,206284,206394,3143,206394,206744,Flanker Task,77,42388,85,yes,1024
Congruent,600,HHHHH,90.69767442,90.69767442,497.9418605,497.9418605,black,legacy,legacy,legacy,0,uniform,1,undefined,1,h,0,0,0,85,85,0,85,85,0,0,0,85,85,0,85,85,9/14/20 10:59,The main experiment item,yes,FlankerTask.osexp,C:/Users/solom/Desktop,no,mono,no,18,no,white,no,yes,768,legacy,5,79,C:/Users/solom/OneDrive/Documents/School and Fin. Aid/MW-subject-1.csv,legacy,Lentiform Loewenfeld,3.3.3,0,h,NA,s,s,NA,h,435,NA,16464,30809,NA,435,2,legacy,1024,2,48000,-16,experiment,1,odd,19623,198480,NA,199274,NA,NA,207936,206773,3157,167668,NA,207931,208041,3143,208042,208480,Flanker Task,78,42823,86,yes,1024
Incongruent,600,SSHSS,89.65517241,89.65517241,497.2413793,497.2413793,black,legacy,legacy,legacy,0,uniform,0,undefined,0,h,0,0,0,86,86,0,86,86,0,0,0,86,86,0,86,86,9/14/20 10:59,The main experiment item,yes,FlankerTask.osexp,C:/Users/solom/Desktop,no,mono,no,18,no,white,no,yes,768,legacy,6,79,C:/Users/solom/OneDrive/Documents/School and Fin. Aid/MW-subject-1.csv,legacy,Lentiform Loewenfeld,3.3.3,0,s,NA,s,s,NA,s,437,NA,16464,30809,NA,437,2,legacy,1024,2,48000,-16,experiment,1,odd,19623,198480,NA,199274,NA,NA,209670,208510,3157,167668,NA,209665,209774,3143,209775,210216,Flanker Task,78,43260,87,yes,1024
Incongruent,600,HHSHH,89.77272727,89.77272727,497.7045455,497.7045455,black,legacy,legacy,legacy,0,uniform,1,undefined,1,s,0,0,0,87,87,0,87,87,0,0,0,87,87,0,87,87,9/14/20 10:59,The main experiment item,yes,FlankerTask.osexp,C:/Users/solom/Desktop,no,mono,no,18,no,white,no,yes,768,legacy,7,79,C:/Users/solom/OneDrive/Documents/School and Fin. Aid/MW-subject-1.csv,legacy,Lentiform Loewenfeld,3.3.3,0,s,NA,s,s,NA,s,538,NA,16464,30809,NA,538,2,legacy,1024,2,48000,-16,experiment,1,odd,19623,198480,NA,210243,NA,NA,211911,210747,3157,167668,NA,211905,212017,3143,212018,212560,Flanker Task,79,43798,88,yes,1024
Congruent,600,SSSSS,89.88764045,89.88764045,497.1011236,497.1011236,black,legacy,legacy,legacy,0,uniform,1,undefined,1,s,0,0,0,88,88,0,88,88,0,0,0,88,88,0,88,88,9/14/20 10:59,The main experiment item,yes,FlankerTask.osexp,C:/Users/solom/Desktop,no,mono,no,18,no,white,no,yes,768,legacy,8,79,C:/Users/solom/OneDrive/Documents/School and Fin. Aid/MW-subject-1.csv,legacy,Lentiform Loewenfeld,3.3.3,0,s,NA,s,s,NA,s,444,NA,16464,30809,NA,444,2,legacy,1024,2,48000,-16,experiment,1,odd,19623,198480,NA,210243,NA,NA,213759,212594,3157,167668,NA,213754,213864,3143,213864,214312,Flanker Task,80,44242,89,yes,1024
Congruent,600,SSSSS,90,90,496.2666667,496.2666667,black,legacy,legacy,legacy,0,uniform,1,undefined,1,s,0,0,0,89,89,0,89,89,0,0,0,89,89,0,89,89,9/14/20 10:59,The main experiment item,yes,FlankerTask.osexp,C:/Users/solom/Desktop,no,mono,no,18,no,white,no,yes,768,legacy,9,79,C:/Users/solom/OneDrive/Documents/School and Fin. Aid/MW-subject-1.csv,legacy,Lentiform Loewenfeld,3.3.3,0,s,NA,s,s,NA,s,422,NA,16464,30809,NA,422,2,legacy,1024,2,48000,-16,experiment,1,odd,19623,198480,NA,210243,NA,NA,215508,214345,3157,167668,NA,215503,215613,3143,215614,216040,Flanker Task,81,44664,90,yes,1024
Congruent,600,HHHHH,90.10989011,90.10989011,495.3406593,495.3406593,black,legacy,legacy,legacy,0,uniform,1,undefined,1,h,0,0,0,90,90,0,90,90,0,0,0,90,90,0,90,90,9/14/20 10:59,The main experiment item,yes,FlankerTask.osexp,C:/Users/solom/Desktop,no,mono,no,18,no,white,no,yes,768,legacy,10,79,C:/Users/solom/OneDrive/Documents/School and Fin. Aid/MW-subject-1.csv,legacy,Lentiform Loewenfeld,3.3.3,0,h,NA,s,s,NA,h,412,NA,16464,30809,NA,412,2,legacy,1024,2,48000,-16,experiment,1,odd,19623,198480,NA,210243,NA,NA,217239,216070,3157,167668,NA,217234,217344,3143,217344,217759,Flanker Task,82,45076,91,yes,1024
Incongruent,600,SSHSS,89.13043478,89.13043478,494.7282609,494.7282609,black,legacy,legacy,legacy,0,uniform,0,undefined,0,h,0,0,0,91,91,0,91,91,0,0,0,91,91,0,91,91,9/14/20 10:59,The main experiment item,yes,FlankerTask.osexp,C:/Users/solom/Desktop,no,mono,no,18,no,white,no,yes,768,legacy,11,79,C:/Users/solom/OneDrive/Documents/School and Fin. Aid/MW-subject-1.csv,legacy,Lentiform Loewenfeld,3.3.3,0,s,NA,s,s,NA,s,439,NA,16464,30809,NA,439,2,legacy,1024,2,48000,-16,experiment,1,odd,19623,198480,NA,210243,NA,NA,218956,217792,3157,167668,NA,218951,219061,3143,219062,219504,Flanker Task,82,45515,92,yes,1024
Incongruent,600,HHSHH,89.24731183,89.24731183,496,496,black,legacy,legacy,legacy,0,uniform,1,undefined,1,s,0,0,0,92,92,0,92,92,0,0,0,92,92,0,92,92,9/14/20 10:59,The main experiment item,yes,FlankerTask.osexp,C:/Users/solom/Desktop,no,mono,no,18,no,white,no,yes,768,legacy,12,79,C:/Users/solom/OneDrive/Documents/School and Fin. Aid/MW-subject-1.csv,legacy,Lentiform Loewenfeld,3.3.3,0,s,NA,s,s,NA,s,613,NA,16464,30809,NA,613,2,legacy,1024,2,48000,-16,experiment,1,odd,19623,198480,NA,219538,NA,NA,221207,220041,3157,167668,NA,221202,221312,3143,221312,221928,Flanker Task,83,46128,93,yes,1024
Incongruent,600,HHSHH,89.36170213,89.36170213,497.4893617,497.4893617,black,legacy,legacy,legacy,0,uniform,1,undefined,1,s,0,0,0,93,93,0,93,93,0,0,0,93,93,0,93,93,9/14/20 10:59,The main experiment item,yes,FlankerTask.osexp,C:/Users/solom/Desktop,no,mono,no,18,no,white,no,yes,768,legacy,13,79,C:/Users/solom/OneDrive/Documents/School and Fin. Aid/MW-subject-1.csv,legacy,Lentiform Loewenfeld,3.3.3,0,s,NA,s,s,NA,s,636,NA,16464,30809,NA,636,2,legacy,1024,2,48000,-16,experiment,1,odd,19623,198480,NA,219538,221961,NA,223630,222465,3157,167668,NA,223625,223736,3143,223737,224376,Flanker Task,84,46764,94,yes,1024
Incongruent,600,SSHSS,88.42105263,88.42105263,496.2842105,496.2842105,black,legacy,legacy,legacy,0,uniform,0,undefined,0,h,0,0,0,94,94,0,94,94,0,0,0,94,94,0,94,94,9/14/20 10:59,The main experiment item,yes,FlankerTask.osexp,C:/Users/solom/Desktop,no,mono,no,18,no,white,no,yes,768,legacy,14,79,C:/Users/solom/OneDrive/Documents/School and Fin. Aid/MW-subject-1.csv,legacy,Lentiform Loewenfeld,3.3.3,0,s,NA,s,s,NA,s,383,NA,16464,30809,NA,383,2,legacy,1024,2,48000,-16,experiment,1,odd,19623,198480,NA,219538,224406,NA,226075,224911,3157,167668,NA,226070,226180,3143,226181,226568,Flanker Task,84,47147,95,yes,1024
Incongruent,600,HHSHH,88.54166667,88.54166667,495.4479167,495.4479167,black,legacy,legacy,legacy,0,uniform,1,undefined,1,s,0,0,0,95,95,0,95,95,0,0,0,95,95,0,95,95,9/14/20 10:59,The main experiment item,yes,FlankerTask.osexp,C:/Users/solom/Desktop,no,mono,no,18,no,white,no,yes,768,legacy,15,79,C:/Users/solom/OneDrive/Documents/School and Fin. Aid/MW-subject-1.csv,legacy,Lentiform Loewenfeld,3.3.3,0,s,NA,s,s,NA,s,416,NA,16464,30809,NA,416,2,legacy,1024,2,48000,-16,experiment,1,odd,19623,198480,NA,226599,224406,NA,228266,227104,3157,167668,NA,228261,228371,3143,228372,228792,Flanker Task,85,47563,96,yes,1024
Incongruent,600,HHSHH,88.65979381,88.65979381,494.2783505,494.2783505,black,legacy,legacy,legacy,0,uniform,1,undefined,1,s,0,0,0,96,96,0,96,96,0,0,0,96,96,0,96,96,9/14/20 10:59,The main experiment item,yes,FlankerTask.osexp,C:/Users/solom/Desktop,no,mono,no,18,no,white,no,yes,768,legacy,16,79,C:/Users/solom/OneDrive/Documents/School and Fin. Aid/MW-subject-1.csv,legacy,Lentiform Loewenfeld,3.3.3,0,s,NA,s,s,NA,s,382,NA,16464,30809,NA,382,2,legacy,1024,2,48000,-16,experiment,1,odd,19623,198480,NA,226599,224406,NA,229990,228824,3157,167668,NA,229985,230095,3143,230095,230481,Flanker Task,86,47945,97,yes,1024
Congruent,600,SSSSS,88.7755102,88.7755102,493.5408163,493.5408163,black,legacy,legacy,legacy,0,uniform,1,undefined,1,s,0,0,0,97,97,0,97,97,0,0,0,97,97,0,97,97,9/14/20 10:59,The main experiment item,yes,FlankerTask.osexp,C:/Users/solom/Desktop,no,mono,no,18,no,white,no,yes,768,legacy,17,79,C:/Users/solom/OneDrive/Documents/School and Fin. Aid/MW-subject-1.csv,legacy,Lentiform Loewenfeld,3.3.3,0,s,NA,s,s,NA,s,422,NA,16464,30809,NA,422,2,legacy,1024,2,48000,-16,experiment,1,odd,19623,198480,NA,226599,224406,NA,231668,230508,3157,167668,NA,231663,231774,3143,231774,232200,Flanker Task,87,48367,98,yes,1024
Congruent,600,HHHHH,88.88888889,88.88888889,492.5151515,492.5151515,black,legacy,legacy,legacy,0,uniform,1,undefined,1,h,0,0,0,98,98,0,98,98,0,0,0,98,98,0,98,98,9/14/20 10:59,The main experiment item,yes,FlankerTask.osexp,C:/Users/solom/Desktop,no,mono,no,18,no,white,no,yes,768,legacy,18,79,C:/Users/solom/OneDrive/Documents/School and Fin. Aid/MW-subject-1.csv,legacy,Lentiform Loewenfeld,3.3.3,0,h,NA,s,s,NA,h,392,NA,16464,30809,NA,392,2,legacy,1024,2,48000,-16,experiment,1,odd,19623,198480,NA,226599,224406,NA,233394,232230,3157,167668,NA,233389,233499,3143,233500,233896,Flanker Task,88,48759,99,yes,1024
Incongruent,600,SSHSS,89,89,491.93,491.93,black,legacy,legacy,legacy,0,uniform,1,undefined,1,h,0,0,0,99,99,0,99,99,0,0,0,99,99,0,99,99,9/14/20 10:59,The main experiment item,yes,FlankerTask.osexp,C:/Users/solom/Desktop,no,mono,no,18,no,white,no,yes,768,legacy,19,79,C:/Users/solom/OneDrive/Documents/School and Fin. Aid/MW-subject-1.csv,legacy,Lentiform Loewenfeld,3.3.3,0,h,NA,s,s,NA,h,434,NA,16464,30809,NA,434,2,legacy,1024,2,48000,-16,experiment,1,odd,19623,198480,NA,226599,224406,NA,235089,233926,3157,167668,NA,235084,235194,3143,235194,235632,Flanker Task,89,49193,100,yes,1024
Incongruent,600,SSHSS,89.10891089,89.10891089,491.7821782,491.7821782,black,legacy,legacy,legacy,0,uniform,1,undefined,1,h,0,0,0,100,100,0,100,100,0,0,0,100,100,0,100,100,9/14/20 10:59,The main experiment item,yes,FlankerTask.osexp,C:/Users/solom/Desktop,no,mono,no,18,no,white,no,yes,768,legacy,20,79,C:/Users/solom/OneDrive/Documents/School and Fin. Aid/MW-subject-1.csv,legacy,Lentiform Loewenfeld,3.3.3,0,h,NA,s,s,NA,h,477,NA,16464,30809,NA,477,2,legacy,1024,2,48000,-16,experiment,1,odd,19623,198480,NA,226599,224406,NA,236829,235665,3157,167668,NA,236824,236934,3143,236935,237416,Flanker Task,90,49670,101,yes,1024
Congruent,600,SSSSS,89.21568627,89.21568627,490.5294118,490.5294118,black,legacy,legacy,legacy,0,uniform,1,undefined,1,s,0,0,0,101,101,0,101,101,0,0,0,101,101,0,101,101,9/14/20 10:59,The main experiment item,yes,FlankerTask.osexp,C:/Users/solom/Desktop,no,mono,no,18,no,white,no,yes,768,legacy,21,79,C:/Users/solom/OneDrive/Documents/School and Fin. Aid/MW-subject-1.csv,legacy,Lentiform Loewenfeld,3.3.3,0,s,NA,s,s,NA,s,364,NA,16464,30809,NA,364,2,legacy,1024,2,48000,-16,experiment,1,odd,19623,198480,NA,226599,224406,NA,238614,237448,3157,167668,NA,238609,238719,3143,238720,239088,Flanker Task,91,50034,102,yes,1024
Incongruent,600,HHSHH,89.32038835,89.32038835,489.8058252,489.8058252,black,legacy,legacy,legacy,0,uniform,1,undefined,1,s,0,0,0,102,102,0,102,102,0,0,0,102,102,0,102,102,9/14/20 10:59,The main experiment item,yes,FlankerTask.osexp,C:/Users/solom/Desktop,no,mono,no,18,no,white,no,yes,768,legacy,22,79,C:/Users/solom/OneDrive/Documents/School and Fin. Aid/MW-subject-1.csv,legacy,Lentiform Loewenfeld,3.3.3,0,s,NA,s,s,NA,s,416,NA,16464,30809,NA,416,2,legacy,1024,2,48000,-16,experiment,1,odd,19623,198480,NA,226599,224406,NA,240283,239115,3157,167668,NA,240278,240388,3143,240389,240809,Flanker Task,92,50450,103,yes,1024
Congruent,600,SSSSS,89.42307692,89.42307692,488.3365385,488.3365385,black,legacy,legacy,legacy,0,uniform,1,undefined,1,s,0,0,0,103,103,0,103,103,0,0,0,103,103,0,103,103,9/14/20 10:59,The main experiment item,yes,FlankerTask.osexp,C:/Users/solom/Desktop,no,mono,no,18,no,white,no,yes,768,legacy,23,79,C:/Users/solom/OneDrive/Documents/School and Fin. Aid/MW-subject-1.csv,legacy,Lentiform Loewenfeld,3.3.3,0,s,NA,s,s,NA,s,337,NA,16464,30809,NA,337,2,legacy,1024,2,48000,-16,experiment,1,odd,19623,198480,NA,226599,224406,NA,242000,240837,3157,167668,NA,241996,242106,3143,242107,242448,Flanker Task,93,50787,104,yes,1024
Congruent,600,HHHHH,89.52380952,89.52380952,486.9428571,486.9428571,black,legacy,legacy,legacy,0,uniform,1,undefined,1,h,0,0,0,104,104,0,104,104,0,0,0,104,104,0,104,104,9/14/20 10:59,The main experiment item,yes,FlankerTask.osexp,C:/Users/solom/Desktop,no,mono,no,18,no,white,no,yes,768,legacy,24,79,C:/Users/solom/OneDrive/Documents/School and Fin. Aid/MW-subject-1.csv,legacy,Lentiform Loewenfeld,3.3.3,0,h,NA,s,s,NA,h,342,NA,16464,30809,NA,342,2,legacy,1024,2,48000,-16,experiment,1,odd,19623,198480,NA,226599,224406,NA,243644,242478,3157,167668,NA,243639,243749,3143,243750,244096,Flanker Task,94,51129,105,yes,1024
Incongruent,600,HHSHH,89.62264151,89.62264151,485.5943396,485.5943396,black,legacy,legacy,legacy,0,uniform,1,undefined,1,s,0,0,0,105,105,0,105,105,0,0,0,105,105,0,105,105,9/14/20 10:59,The main experiment item,yes,FlankerTask.osexp,C:/Users/solom/Desktop,no,mono,no,18,no,white,no,yes,768,legacy,25,79,C:/Users/solom/OneDrive/Documents/School and Fin. Aid/MW-subject-1.csv,legacy,Lentiform Loewenfeld,3.3.3,0,s,NA,s,s,NA,s,344,NA,16464,30809,NA,344,2,legacy,1024,2,48000,-16,experiment,1,odd,19623,198480,NA,226599,224406,NA,245290,244125,3157,167668,NA,245285,245395,3143,245396,245744,Flanker Task,95,51473,106,yes,1024
Congruent,600,HHHHH,89.71962617,89.71962617,484.7850467,484.7850467,black,legacy,legacy,legacy,0,uniform,1,undefined,1,h,0,0,0,106,106,0,106,106,0,0,0,106,106,0,106,106,9/14/20 10:59,The main experiment item,yes,FlankerTask.osexp,C:/Users/solom/Desktop,no,mono,no,18,no,white,no,yes,768,legacy,26,79,C:/Users/solom/OneDrive/Documents/School and Fin. Aid/MW-subject-1.csv,legacy,Lentiform Loewenfeld,3.3.3,0,h,NA,s,s,NA,h,399,NA,16464,30809,NA,399,2,legacy,1024,2,48000,-16,experiment,1,odd,19623,198480,NA,226599,224406,NA,246940,245776,3157,167668,NA,246935,247045,3143,247045,247448,Flanker Task,96,51872,107,yes,1024
Congruent,600,SSSSS,89.81481481,89.81481481,484.4074074,484.4074074,black,legacy,legacy,legacy,0,uniform,1,undefined,1,s,0,0,0,107,107,0,107,107,0,0,0,107,107,0,107,107,9/14/20 10:59,The main experiment item,yes,FlankerTask.osexp,C:/Users/solom/Desktop,no,mono,no,18,no,white,no,yes,768,legacy,27,79,C:/Users/solom/OneDrive/Documents/School and Fin. Aid/MW-subject-1.csv,legacy,Lentiform Loewenfeld,3.3.3,0,s,NA,s,s,NA,s,444,NA,16464,30809,NA,444,2,legacy,1024,2,48000,-16,experiment,1,odd,19623,198480,NA,226599,224406,NA,248641,247480,3157,167668,NA,248636,248745,3143,248745,249193,Flanker Task,97,52316,108,yes,1024
Congruent,600,SSSSS,88.99082569,88.99082569,482.5504587,482.5504587,black,legacy,legacy,legacy,0,uniform,0,undefined,0,s,0,0,0,108,108,0,108,108,0,0,0,108,108,0,108,108,9/14/20 10:59,The main experiment item,yes,FlankerTask.osexp,C:/Users/solom/Desktop,no,mono,no,18,no,white,no,yes,768,legacy,28,79,C:/Users/solom/OneDrive/Documents/School and Fin. Aid/MW-subject-1.csv,legacy,Lentiform Loewenfeld,3.3.3,0,h,NA,s,s,NA,h,282,NA,16464,30809,NA,282,2,legacy,1024,2,48000,-16,experiment,1,odd,19623,198480,NA,226599,224406,NA,250393,249231,3157,167668,NA,250388,250498,3143,250499,250785,Flanker Task,97,52598,109,yes,1024
Incongruent,600,SSHSS,88.18181818,88.18181818,482.5363636,482.5363636,black,legacy,legacy,legacy,0,uniform,0,undefined,0,h,0,0,0,109,109,0,109,109,0,0,0,109,109,0,109,109,9/14/20 10:59,The main experiment item,yes,FlankerTask.osexp,C:/Users/solom/Desktop,no,mono,no,18,no,white,no,yes,768,legacy,29,79,C:/Users/solom/OneDrive/Documents/School and Fin. Aid/MW-subject-1.csv,legacy,Lentiform Loewenfeld,3.3.3,0,s,NA,s,s,NA,s,481,NA,16464,30809,NA,481,2,legacy,1024,2,48000,-16,experiment,1,odd,19623,198480,NA,250814,224406,NA,252481,251319,3157,167668,NA,252476,252586,3143,252587,253073,Flanker Task,97,53079,110,yes,1024
Incongruent,600,HHSHH,88.28828829,88.28828829,481.9279279,481.9279279,black,legacy,legacy,legacy,0,uniform,1,undefined,1,s,0,0,0,110,110,0,110,110,0,0,0,110,110,0,110,110,9/14/20 10:59,The main experiment item,yes,FlankerTask.osexp,C:/Users/solom/Desktop,no,mono,no,18,no,white,no,yes,768,legacy,30,79,C:/Users/solom/OneDrive/Documents/School and Fin. Aid/MW-subject-1.csv,legacy,Lentiform Loewenfeld,3.3.3,0,s,NA,s,s,NA,s,415,NA,16464,30809,NA,415,2,legacy,1024,2,48000,-16,experiment,1,odd,19623,198480,NA,253103,224406,NA,254771,253607,3157,167668,NA,254766,254876,3143,254877,255296,Flanker Task,98,53494,111,yes,1024
Incongruent,600,SSHSS,87.5,87.5,480.4910714,480.4910714,black,legacy,legacy,legacy,0,uniform,0,undefined,0,h,0,0,0,111,111,0,111,111,0,0,0,111,111,0,111,111,9/14/20 10:59,The main experiment item,yes,FlankerTask.osexp,C:/Users/solom/Desktop,no,mono,no,18,no,white,no,yes,768,legacy,31,79,C:/Users/solom/OneDrive/Documents/School and Fin. Aid/MW-subject-1.csv,legacy,Lentiform Loewenfeld,3.3.3,0,s,NA,s,s,NA,s,321,NA,16464,30809,NA,321,2,legacy,1024,2,48000,-16,experiment,1,odd,19623,198480,NA,253103,224406,NA,256491,255328,3157,167668,NA,256486,256595,3143,256595,256920,Flanker Task,98,53815,112,yes,1024
Congruent,600,SSSSS,87.61061947,87.61061947,480.159292,480.159292,black,legacy,legacy,legacy,0,uniform,1,undefined,1,s,0,0,0,112,112,0,112,112,0,0,0,112,112,0,112,112,9/14/20 10:59,The main experiment item,yes,FlankerTask.osexp,C:/Users/solom/Desktop,no,mono,no,18,no,white,no,yes,768,legacy,32,79,C:/Users/solom/OneDrive/Documents/School and Fin. Aid/MW-subject-1.csv,legacy,Lentiform Loewenfeld,3.3.3,0,s,NA,s,s,NA,s,443,NA,16464,30809,NA,443,2,legacy,1024,2,48000,-16,experiment,1,odd,19623,198480,NA,256949,224406,NA,258616,257454,3157,167668,NA,258611,258721,3143,258722,259169,Flanker Task,99,54258,113,yes,1024
Congruent,600,HHHHH,87.71929825,87.71929825,479.5789474,479.5789474,black,legacy,legacy,legacy,0,uniform,1,undefined,1,h,0,0,0,113,113,0,113,113,0,0,0,113,113,0,113,113,9/14/20 10:59,The main experiment item,yes,FlankerTask.osexp,C:/Users/solom/Desktop,no,mono,no,18,no,white,no,yes,768,legacy,33,79,C:/Users/solom/OneDrive/Documents/School and Fin. Aid/MW-subject-1.csv,legacy,Lentiform Loewenfeld,3.3.3,0,h,NA,s,s,NA,h,414,NA,16464,30809,NA,414,2,legacy,1024,2,48000,-16,experiment,1,odd,19623,198480,NA,256949,224406,NA,260365,259200,3157,167668,NA,260360,260470,3143,260471,260889,Flanker Task,100,54672,114,yes,1024
Congruent,600,HHHHH,87.82608696,87.82608696,478.4956522,478.4956522,black,legacy,legacy,legacy,0,uniform,1,undefined,1,h,0,0,0,114,114,0,114,114,0,0,0,114,114,0,114,114,9/14/20 10:59,The main experiment item,yes,FlankerTask.osexp,C:/Users/solom/Desktop,no,mono,no,18,no,white,no,yes,768,legacy,34,79,C:/Users/solom/OneDrive/Documents/School and Fin. Aid/MW-subject-1.csv,legacy,Lentiform Loewenfeld,3.3.3,0,h,NA,s,s,NA,h,355,NA,16464,30809,NA,355,2,legacy,1024,2,48000,-16,experiment,1,odd,19623,198480,NA,256949,224406,NA,262080,260918,3157,167668,NA,262075,262184,3143,262185,262544,Flanker Task,101,55027,115,yes,1024
Incongruent,600,HHSHH,87.06896552,87.06896552,477.2068966,477.2068966,black,legacy,legacy,legacy,0,uniform,0,undefined,0,s,0,0,0,115,115,0,115,115,0,0,0,115,115,0,115,115,9/14/20 10:59,The main experiment item,yes,FlankerTask.osexp,C:/Users/solom/Desktop,no,mono,no,18,no,white,no,yes,768,legacy,35,79,C:/Users/solom/OneDrive/Documents/School and Fin. Aid/MW-subject-1.csv,legacy,Lentiform Loewenfeld,3.3.3,0,h,NA,s,s,NA,h,329,NA,16464,30809,NA,329,2,legacy,1024,2,48000,-16,experiment,1,odd,19623,198480,NA,256949,224406,NA,263738,262575,3157,167668,NA,263733,263843,3143,263843,264177,Flanker Task,101,55356,116,yes,1024
Incongruent,600,HHSHH,87.17948718,87.17948718,476.3760684,476.3760684,black,legacy,legacy,legacy,0,uniform,1,undefined,1,s,0,0,0,116,116,0,116,116,0,0,0,116,116,0,116,116,9/14/20 10:59,The main experiment item,yes,FlankerTask.osexp,C:/Users/solom/Desktop,no,mono,no,18,no,white,no,yes,768,legacy,36,79,C:/Users/solom/OneDrive/Documents/School and Fin. Aid/MW-subject-1.csv,legacy,Lentiform Loewenfeld,3.3.3,0,s,NA,s,s,NA,s,380,NA,16464,30809,NA,380,2,legacy,1024,2,48000,-16,experiment,1,odd,19623,198480,NA,264206,224406,NA,265873,264711,3157,167668,NA,265868,265976,3143,265976,266360,Flanker Task,102,55736,117,yes,1024
Incongruent,600,HHSHH,87.28813559,87.28813559,477.1779661,477.1779661,black,legacy,legacy,legacy,0,uniform,1,undefined,1,s,0,0,0,117,117,0,117,117,0,0,0,117,117,0,117,117,9/14/20 10:59,The main experiment item,yes,FlankerTask.osexp,C:/Users/solom/Desktop,no,mono,no,18,no,white,no,yes,768,legacy,37,79,C:/Users/solom/OneDrive/Documents/School and Fin. Aid/MW-subject-1.csv,legacy,Lentiform Loewenfeld,3.3.3,0,s,NA,s,s,NA,s,571,NA,16464,30809,NA,571,2,legacy,1024,2,48000,-16,experiment,1,odd,19623,198480,NA,264206,224406,NA,267561,266394,3157,167668,NA,267556,267665,3143,267665,268241,Flanker Task,103,56307,118,yes,1024
Congruent,600,HHHHH,87.39495798,87.39495798,476.8235294,476.8235294,black,legacy,legacy,legacy,0,uniform,1,undefined,1,h,0,0,0,118,118,0,118,118,0,0,0,118,118,0,118,118,9/14/20 10:59,The main experiment item,yes,FlankerTask.osexp,C:/Users/solom/Desktop,no,mono,no,18,no,white,no,yes,768,legacy,38,79,C:/Users/solom/OneDrive/Documents/School and Fin. Aid/MW-subject-1.csv,legacy,Lentiform Loewenfeld,3.3.3,0,h,NA,s,s,NA,h,435,NA,16464,30809,NA,435,2,legacy,1024,2,48000,-16,experiment,1,odd,19623,198480,NA,264206,224406,NA,269432,268270,3157,167668,NA,269427,269537,3143,269538,269977,Flanker Task,104,56742,119,yes,1024
Congruent,600,HHHHH,87.5,87.5,475.6083333,475.6083333,black,legacy,legacy,legacy,0,uniform,1,undefined,1,h,0,0,0,119,119,0,119,119,0,0,0,119,119,0,119,119,9/14/20 10:59,The main experiment item,yes,FlankerTask.osexp,C:/Users/solom/Desktop,no,mono,no,18,no,white,no,yes,768,legacy,39,79,C:/Users/solom/OneDrive/Documents/School and Fin. Aid/MW-subject-1.csv,legacy,Lentiform Loewenfeld,3.3.3,0,h,NA,s,s,NA,h,331,NA,16464,30809,NA,331,2,legacy,1024,2,48000,-16,experiment,1,odd,19623,198480,NA,264206,224406,NA,271175,270009,3157,167668,NA,271170,271280,3143,271281,271616,Flanker Task,105,57073,120,yes,1024
Incongruent,600,SSHSS,86.7768595,86.7768595,474.2892562,474.2892562,black,legacy,legacy,legacy,0,uniform,0,undefined,0,h,0,0,0,120,120,0,120,120,0,0,0,120,120,0,120,120,9/14/20 10:59,The main experiment item,yes,FlankerTask.osexp,C:/Users/solom/Desktop,no,mono,no,18,no,white,no,yes,768,legacy,40,79,C:/Users/solom/OneDrive/Documents/School and Fin. Aid/MW-subject-1.csv,legacy,Lentiform Loewenfeld,3.3.3,0,s,NA,s,s,NA,s,316,NA,16464,30809,NA,316,2,legacy,1024,2,48000,-16,experiment,1,odd,19623,198480,NA,264206,224406,NA,272806,271645,3157,167668,NA,272801,272911,3143,272912,273233,Flanker Task,105,57389,121,yes,1024
Congruent,600,HHHHH,86.8852459,86.8852459,473.5409836,473.5409836,black,legacy,legacy,legacy,0,uniform,1,undefined,1,h,0,0,0,121,121,0,121,121,0,0,0,121,121,0,121,121,9/14/20 10:59,The main experiment item,yes,FlankerTask.osexp,C:/Users/solom/Desktop,no,mono,no,18,no,white,no,yes,768,legacy,41,79,C:/Users/solom/OneDrive/Documents/School and Fin. Aid/MW-subject-1.csv,legacy,Lentiform Loewenfeld,3.3.3,0,h,NA,s,s,NA,h,383,NA,16464,30809,NA,383,2,legacy,1024,2,48000,-16,experiment,1,odd,19623,198480,NA,273263,224406,NA,274932,273766,3157,167668,NA,274927,275037,3143,275038,275425,Flanker Task,106,57772,122,yes,1024
Congruent,600,HHHHH,86.99186992,86.99186992,472.300813,472.300813,black,legacy,legacy,legacy,0,uniform,1,undefined,1,h,0,0,0,122,122,0,122,122,0,0,0,122,122,0,122,122,9/14/20 10:59,The main experiment item,yes,FlankerTask.osexp,C:/Users/solom/Desktop,no,mono,no,18,no,white,no,yes,768,legacy,42,79,C:/Users/solom/OneDrive/Documents/School and Fin. Aid/MW-subject-1.csv,legacy,Lentiform Loewenfeld,3.3.3,0,h,NA,s,s,NA,h,321,NA,16464,30809,NA,321,2,legacy,1024,2,48000,-16,experiment,1,odd,19623,198480,NA,273263,224406,NA,276617,275455,3157,167668,NA,276612,276722,3143,276723,277049,Flanker Task,107,58093,123,yes,1024
Congruent,600,SSSSS,87.09677419,87.09677419,471.3225806,471.3225806,black,legacy,legacy,legacy,0,uniform,1,undefined,1,s,0,0,0,123,123,0,123,123,0,0,0,123,123,0,123,123,9/14/20 10:59,The main experiment item,yes,FlankerTask.osexp,C:/Users/solom/Desktop,no,mono,no,18,no,white,no,yes,768,legacy,43,79,C:/Users/solom/OneDrive/Documents/School and Fin. Aid/MW-subject-1.csv,legacy,Lentiform Loewenfeld,3.3.3,0,s,NA,s,s,NA,s,351,NA,16464,30809,NA,351,2,legacy,1024,2,48000,-16,experiment,1,odd,19623,198480,NA,273263,224406,NA,278243,277080,3157,167668,NA,278238,278349,3143,278349,278705,Flanker Task,108,58444,124,yes,1024
Incongruent,600,SSHSS,87.2,87.2,470.76,470.76,black,legacy,legacy,legacy,0,uniform,1,undefined,1,h,0,0,0,124,124,0,124,124,0,0,0,124,124,0,124,124,9/14/20 10:59,The main experiment item,yes,FlankerTask.osexp,C:/Users/solom/Desktop,no,mono,no,18,no,white,no,yes,768,legacy,44,79,C:/Users/solom/OneDrive/Documents/School and Fin. Aid/MW-subject-1.csv,legacy,Lentiform Loewenfeld,3.3.3,0,h,NA,s,s,NA,h,401,NA,16464,30809,NA,401,2,legacy,1024,2,48000,-16,experiment,1,odd,19623,198480,NA,273263,224406,NA,279892,278731,3157,167668,NA,279887,279996,3143,279996,280401,Flanker Task,109,58845,125,yes,1024
Incongruent,600,HHSHH,87.3015873,87.3015873,469.7857143,469.7857143,black,legacy,legacy,legacy,0,uniform,1,undefined,1,s,0,0,0,125,125,0,125,125,0,0,0,125,125,0,125,125,9/14/20 10:59,The main experiment item,yes,FlankerTask.osexp,C:/Users/solom/Desktop,no,mono,no,18,no,white,no,yes,768,legacy,45,79,C:/Users/solom/OneDrive/Documents/School and Fin. Aid/MW-subject-1.csv,legacy,Lentiform Loewenfeld,3.3.3,0,s,NA,s,s,NA,s,348,NA,16464,30809,NA,348,2,legacy,1024,2,48000,-16,experiment,1,odd,19623,198480,NA,273263,224406,NA,281597,280432,3157,167668,NA,281592,281703,3143,281704,282057,Flanker Task,110,59193,126,yes,1024
Congruent,600,HHHHH,87.4015748,87.4015748,468.488189,468.488189,black,legacy,legacy,legacy,0,uniform,1,undefined,1,h,0,0,0,126,126,0,126,126,0,0,0,126,126,0,126,126,9/14/20 10:59,The main experiment item,yes,FlankerTask.osexp,C:/Users/solom/Desktop,no,mono,no,18,no,white,no,yes,768,legacy,46,79,C:/Users/solom/OneDrive/Documents/School and Fin. Aid/MW-subject-1.csv,legacy,Lentiform Loewenfeld,3.3.3,0,h,NA,s,s,NA,h,305,NA,16464,30809,NA,305,2,legacy,1024,2,48000,-16,experiment,1,odd,19623,198480,NA,273263,224406,NA,283257,282090,3157,167668,NA,283252,283362,3143,283363,283673,Flanker Task,111,59498,127,yes,1024
Congruent,600,HHHHH,87.5,87.5,467.6171875,467.6171875,black,legacy,legacy,legacy,0,uniform,1,undefined,1,h,0,0,0,127,127,0,127,127,0,0,0,127,127,0,127,127,9/14/20 10:59,The main experiment item,yes,FlankerTask.osexp,C:/Users/solom/Desktop,no,mono,no,18,no,white,no,yes,768,legacy,47,79,C:/Users/solom/OneDrive/Documents/School and Fin. Aid/MW-subject-1.csv,legacy,Lentiform Loewenfeld,3.3.3,0,h,NA,s,s,NA,h,357,NA,16464,30809,NA,357,2,legacy,1024,2,48000,-16,experiment,1,odd,19623,198480,NA,273263,224406,NA,284870,283708,3157,167668,NA,284865,284974,3143,284975,285337,Flanker Task,112,59855,128,yes,1024
Incongruent,600,SSHSS,86.82170543,86.82170543,466.5891473,466.5891473,black,legacy,legacy,legacy,0,uniform,0,undefined,0,h,0,0,0,128,128,0,128,128,0,0,0,128,128,0,128,128,9/14/20 10:59,The main experiment item,yes,FlankerTask.osexp,C:/Users/solom/Desktop,no,mono,no,18,no,white,no,yes,768,legacy,48,79,C:/Users/solom/OneDrive/Documents/School and Fin. Aid/MW-subject-1.csv,legacy,Lentiform Loewenfeld,3.3.3,0,s,NA,s,s,NA,s,335,NA,16464,30809,NA,335,2,legacy,1024,2,48000,-16,experiment,1,odd,19623,198480,NA,273263,224406,NA,286531,285366,3157,167668,NA,286526,286636,3143,286637,286977,Flanker Task,112,60190,129,yes,1024
Congruent,600,SSSSS,86.15384615,86.15384615,466.1923077,466.1923077,black,legacy,legacy,legacy,0,uniform,0,undefined,0,s,0,0,0,129,129,0,129,129,0,0,0,129,129,0,129,129,9/14/20 10:59,The main experiment item,yes,FlankerTask.osexp,C:/Users/solom/Desktop,no,mono,no,18,no,white,no,yes,768,legacy,49,79,C:/Users/solom/OneDrive/Documents/School and Fin. Aid/MW-subject-1.csv,legacy,Lentiform Loewenfeld,3.3.3,0,h,NA,s,s,NA,h,415,NA,16464,30809,NA,415,2,legacy,1024,2,48000,-16,experiment,1,odd,19623,198480,NA,287008,224406,NA,288684,287513,3157,167668,NA,288678,288789,3143,288790,289209,Flanker Task,112,60605,130,yes,1024
Congruent,600,HHHHH,86.25954198,86.25954198,465.7709924,465.7709924,black,legacy,legacy,legacy,0,uniform,1,undefined,1,h,0,0,0,130,130,0,130,130,0,0,0,130,130,0,130,130,9/14/20 10:59,The main experiment item,yes,FlankerTask.osexp,C:/Users/solom/Desktop,no,mono,no,18,no,white,no,yes,768,legacy,50,79,C:/Users/solom/OneDrive/Documents/School and Fin. Aid/MW-subject-1.csv,legacy,Lentiform Loewenfeld,3.3.3,0,h,NA,s,s,NA,h,411,NA,16464,30809,NA,411,2,legacy,1024,2,48000,-16,experiment,1,odd,19623,198480,NA,289252,224406,NA,290921,289756,3157,167668,NA,290916,291025,3143,291025,291441,Flanker Task,113,61016,131,yes,1024
Incongruent,600,SSHSS,86.36363636,86.36363636,466.8333333,466.8333333,black,legacy,legacy,legacy,0,uniform,1,undefined,1,h,0,0,0,131,131,0,131,131,0,0,0,131,131,0,131,131,9/14/20 10:59,The main experiment item,yes,FlankerTask.osexp,C:/Users/solom/Desktop,no,mono,no,18,no,white,no,yes,768,legacy,51,79,C:/Users/solom/OneDrive/Documents/School and Fin. Aid/MW-subject-1.csv,legacy,Lentiform Loewenfeld,3.3.3,0,h,NA,s,s,NA,h,606,NA,16464,30809,NA,606,2,legacy,1024,2,48000,-16,experiment,1,odd,19623,198480,NA,289252,224406,NA,292636,291474,3157,167668,NA,292631,292741,3143,292742,293353,Flanker Task,114,61622,132,yes,1024
Congruent,600,SSSSS,86.46616541,86.46616541,466.4135338,466.4135338,black,legacy,legacy,legacy,0,uniform,1,undefined,1,s,0,0,0,132,132,0,132,132,0,0,0,132,132,0,132,132,9/14/20 10:59,The main experiment item,yes,FlankerTask.osexp,C:/Users/solom/Desktop,no,mono,no,18,no,white,no,yes,768,legacy,52,79,C:/Users/solom/OneDrive/Documents/School and Fin. Aid/MW-subject-1.csv,legacy,Lentiform Loewenfeld,3.3.3,0,s,NA,s,s,NA,s,411,NA,16464,30809,NA,411,2,legacy,1024,2,48000,-16,experiment,1,odd,19623,198480,NA,289252,293385,NA,295055,293890,3157,167668,NA,295050,295160,3143,295161,295577,Flanker Task,115,62033,133,yes,1024
Incongruent,600,HHSHH,86.56716418,86.56716418,466.6716418,466.6716418,black,legacy,legacy,legacy,0,uniform,1,undefined,1,s,0,0,0,133,133,0,133,133,0,0,0,133,133,0,133,133,9/14/20 10:59,The main experiment item,yes,FlankerTask.osexp,C:/Users/solom/Desktop,no,mono,no,18,no,white,no,yes,768,legacy,53,79,C:/Users/solom/OneDrive/Documents/School and Fin. Aid/MW-subject-1.csv,legacy,Lentiform Loewenfeld,3.3.3,0,s,NA,s,s,NA,s,501,NA,16464,30809,NA,501,2,legacy,1024,2,48000,-16,experiment,1,odd,19623,198480,NA,289252,293385,NA,296765,295603,3157,167668,NA,296760,296870,3143,296871,297377,Flanker Task,116,62534,134,yes,1024
Incongruent,600,HHSHH,85.92592593,85.92592593,465.3333333,465.3333333,black,legacy,legacy,legacy,0,uniform,0,undefined,0,s,0,0,0,134,134,0,134,134,0,0,0,134,134,0,134,134,9/14/20 10:59,The main experiment item,yes,FlankerTask.osexp,C:/Users/solom/Desktop,no,mono,no,18,no,white,no,yes,768,legacy,54,79,C:/Users/solom/OneDrive/Documents/School and Fin. Aid/MW-subject-1.csv,legacy,Lentiform Loewenfeld,3.3.3,0,h,NA,s,s,NA,h,286,NA,16464,30809,NA,286,2,legacy,1024,2,48000,-16,experiment,1,odd,19623,198480,NA,289252,293385,NA,298572,297409,3157,167668,NA,298567,298677,3143,298678,298969,Flanker Task,116,62820,135,yes,1024
Incongruent,600,SSHSS,86.02941176,86.02941176,465.4191176,465.4191176,black,legacy,legacy,legacy,0,uniform,1,undefined,1,h,0,0,0,135,135,0,135,135,0,0,0,135,135,0,135,135,9/14/20 10:59,The main experiment item,yes,FlankerTask.osexp,C:/Users/solom/Desktop,no,mono,no,18,no,white,no,yes,768,legacy,55,79,C:/Users/solom/OneDrive/Documents/School and Fin. Aid/MW-subject-1.csv,legacy,Lentiform Loewenfeld,3.3.3,0,h,NA,s,s,NA,h,477,NA,16464,30809,NA,477,2,legacy,1024,2,48000,-16,experiment,1,odd,19623,198480,NA,299005,293385,NA,300669,299509,3157,167668,NA,300664,300774,3143,300775,301257,Flanker Task,117,63297,136,yes,1024
Congruent,600,SSSSS,86.13138686,86.13138686,464.6715328,464.6715328,black,legacy,legacy,legacy,0,uniform,1,undefined,1,s,0,0,0,136,136,0,136,136,0,0,0,136,136,0,136,136,9/14/20 10:59,The main experiment item,yes,FlankerTask.osexp,C:/Users/solom/Desktop,no,mono,no,18,no,white,no,yes,768,legacy,56,79,C:/Users/solom/OneDrive/Documents/School and Fin. Aid/MW-subject-1.csv,legacy,Lentiform Loewenfeld,3.3.3,0,s,NA,s,s,NA,s,363,NA,16464,30809,NA,363,2,legacy,1024,2,48000,-16,experiment,1,odd,19623,198480,NA,299005,293385,NA,302456,301288,3157,167668,NA,302451,302561,3143,302562,302929,Flanker Task,118,63660,137,yes,1024
Congruent,600,HHHHH,86.23188406,86.23188406,463.5869565,463.5869565,black,legacy,legacy,legacy,0,uniform,1,undefined,1,h,0,0,0,137,137,0,137,137,0,0,0,137,137,0,137,137,9/14/20 10:59,The main experiment item,yes,FlankerTask.osexp,C:/Users/solom/Desktop,no,mono,no,18,no,white,no,yes,768,legacy,57,79,C:/Users/solom/OneDrive/Documents/School and Fin. Aid/MW-subject-1.csv,legacy,Lentiform Loewenfeld,3.3.3,0,h,NA,s,s,NA,h,315,NA,16464,30809,NA,315,2,legacy,1024,2,48000,-16,experiment,1,odd,19623,198480,NA,299005,293385,NA,304128,302963,3157,167668,NA,304123,304233,3143,304234,304553,Flanker Task,119,63975,138,yes,1024
Incongruent,600,SSHSS,85.61151079,85.61151079,462.9496403,462.9496403,black,legacy,legacy,legacy,0,uniform,0,undefined,0,h,0,0,0,138,138,0,138,138,0,0,0,138,138,0,138,138,9/14/20 10:59,The main experiment item,yes,FlankerTask.osexp,C:/Users/solom/Desktop,no,mono,no,18,no,white,no,yes,768,legacy,58,79,C:/Users/solom/OneDrive/Documents/School and Fin. Aid/MW-subject-1.csv,legacy,Lentiform Loewenfeld,3.3.3,0,s,NA,s,s,NA,s,375,NA,16464,30809,NA,375,2,legacy,1024,2,48000,-16,experiment,1,odd,19623,198480,NA,299005,293385,NA,305748,304586,3157,167668,NA,305743,305853,3143,305853,306233,Flanker Task,119,64350,139,yes,1024
Congruent,600,SSSSS,85.71428571,85.71428571,463.0142857,463.0142857,black,legacy,legacy,legacy,0,uniform,1,undefined,1,s,0,0,0,139,139,0,139,139,0,0,0,139,139,0,139,139,9/14/20 10:59,The main experiment item,yes,FlankerTask.osexp,C:/Users/solom/Desktop,no,mono,no,18,no,white,no,yes,768,legacy,59,79,C:/Users/solom/OneDrive/Documents/School and Fin. Aid/MW-subject-1.csv,legacy,Lentiform Loewenfeld,3.3.3,0,s,NA,s,s,NA,s,472,NA,16464,30809,NA,472,2,legacy,1024,2,48000,-16,experiment,1,odd,19623,198480,NA,306264,293385,NA,307931,306770,3157,167668,NA,307926,308036,3143,308037,308514,Flanker Task,120,64822,140,yes,1024
Incongruent,600,SSHSS,85.81560284,85.81560284,463.2056738,463.2056738,black,legacy,legacy,legacy,0,uniform,1,undefined,1,h,0,0,0,140,140,0,140,140,0,0,0,140,140,0,140,140,9/14/20 10:59,The main experiment item,yes,FlankerTask.osexp,C:/Users/solom/Desktop,no,mono,no,18,no,white,no,yes,768,legacy,60,79,C:/Users/solom/OneDrive/Documents/School and Fin. Aid/MW-subject-1.csv,legacy,Lentiform Loewenfeld,3.3.3,0,h,NA,s,s,NA,h,490,NA,16464,30809,NA,490,2,legacy,1024,2,48000,-16,experiment,1,odd,19623,198480,NA,306264,293385,NA,309705,308541,3157,167668,NA,309700,309810,3143,309811,310306,Flanker Task,121,65312,141,yes,1024
Incongruent,600,SSHSS,85.91549296,85.91549296,462.8943662,462.8943662,black,legacy,legacy,legacy,0,uniform,1,undefined,1,h,0,0,0,141,141,0,141,141,0,0,0,141,141,0,141,141,9/14/20 10:59,The main experiment item,yes,FlankerTask.osexp,C:/Users/solom/Desktop,no,mono,no,18,no,white,no,yes,768,legacy,61,79,C:/Users/solom/OneDrive/Documents/School and Fin. Aid/MW-subject-1.csv,legacy,Lentiform Loewenfeld,3.3.3,0,h,NA,s,s,NA,h,419,NA,16464,30809,NA,419,2,legacy,1024,2,48000,-16,experiment,1,odd,19623,198480,NA,306264,293385,NA,311504,310341,3157,167668,NA,311499,311609,3143,311610,312034,Flanker Task,122,65731,142,yes,1024
Congruent,600,SSSSS,86.01398601,86.01398601,462.5034965,462.5034965,black,legacy,legacy,legacy,0,uniform,1,undefined,1,s,0,0,0,142,142,0,142,142,0,0,0,142,142,0,142,142,9/14/20 10:59,The main experiment item,yes,FlankerTask.osexp,C:/Users/solom/Desktop,no,mono,no,18,no,white,no,yes,768,legacy,62,79,C:/Users/solom/OneDrive/Documents/School and Fin. Aid/MW-subject-1.csv,legacy,Lentiform Loewenfeld,3.3.3,0,s,NA,s,s,NA,s,407,NA,16464,30809,NA,407,2,legacy,1024,2,48000,-16,experiment,1,odd,19623,198480,NA,306264,293385,NA,313243,312077,3157,167668,NA,313238,313348,3143,313349,313761,Flanker Task,123,66138,143,yes,1024
Incongruent,600,HHSHH,85.41666667,85.41666667,462.625,462.625,black,legacy,legacy,legacy,0,uniform,0,undefined,0,s,0,0,0,143,143,0,143,143,0,0,0,143,143,0,143,143,9/14/20 10:59,The main experiment item,yes,FlankerTask.osexp,C:/Users/solom/Desktop,no,mono,no,18,no,white,no,yes,768,legacy,63,79,C:/Users/solom/OneDrive/Documents/School and Fin. Aid/MW-subject-1.csv,legacy,Lentiform Loewenfeld,3.3.3,0,h,NA,s,s,NA,h,480,NA,16464,30809,NA,480,2,legacy,1024,2,48000,-16,experiment,1,odd,19623,198480,NA,306264,293385,NA,314954,313792,3157,167668,NA,314949,315059,3143,315060,315545,Flanker Task,123,66618,144,yes,1024
Incongruent,600,SSHSS,85.51724138,85.51724138,462.4551724,462.4551724,black,legacy,legacy,legacy,0,uniform,1,undefined,1,h,0,0,0,144,144,0,144,144,0,0,0,144,144,0,144,144,9/14/20 10:59,The main experiment item,yes,FlankerTask.osexp,C:/Users/solom/Desktop,no,mono,no,18,no,white,no,yes,768,legacy,64,79,C:/Users/solom/OneDrive/Documents/School and Fin. Aid/MW-subject-1.csv,legacy,Lentiform Loewenfeld,3.3.3,0,h,NA,s,s,NA,h,438,NA,16464,30809,NA,438,2,legacy,1024,2,48000,-16,experiment,1,odd,19623,198480,NA,315575,293385,NA,317244,316081,3157,167668,NA,317239,317349,3143,317350,317793,Flanker Task,124,67056,145,yes,1024
Incongruent,600,HHSHH,84.93150685,84.93150685,462.3835616,462.3835616,black,legacy,legacy,legacy,0,uniform,0,undefined,0,s,0,0,0,145,145,0,145,145,0,0,0,145,145,0,145,145,9/14/20 10:59,The main experiment item,yes,FlankerTask.osexp,C:/Users/solom/Desktop,no,mono,no,18,no,white,no,yes,768,legacy,65,79,C:/Users/solom/OneDrive/Documents/School and Fin. Aid/MW-subject-1.csv,legacy,Lentiform Loewenfeld,3.3.3,0,h,NA,s,s,NA,h,452,NA,16464,30809,NA,452,2,legacy,1024,2,48000,-16,experiment,1,odd,19623,198480,NA,315575,293385,NA,318989,317825,3157,167668,NA,318984,319096,3143,319096,319553,Flanker Task,124,67508,146,yes,1024
Congruent,600,HHHHH,84.3537415,84.3537415,461.2312925,461.2312925,black,legacy,legacy,legacy,0,uniform,0,undefined,0,h,0,0,0,146,146,0,146,146,0,0,0,146,146,0,146,146,9/14/20 10:59,The main experiment item,yes,FlankerTask.osexp,C:/Users/solom/Desktop,no,mono,no,18,no,white,no,yes,768,legacy,66,79,C:/Users/solom/OneDrive/Documents/School and Fin. Aid/MW-subject-1.csv,legacy,Lentiform Loewenfeld,3.3.3,0,s,NA,s,s,NA,s,293,NA,16464,30809,NA,293,2,legacy,1024,2,48000,-16,experiment,1,odd,19623,198480,NA,319582,293385,NA,321253,320086,3157,167668,NA,321248,321359,3143,321360,321658,Flanker Task,124,67801,147,yes,1024
Congruent,600,HHHHH,84.45945946,84.45945946,461,461,black,legacy,legacy,legacy,0,uniform,1,undefined,1,h,0,0,0,147,147,0,147,147,0,0,0,147,147,0,147,147,9/14/20 10:59,The main experiment item,yes,FlankerTask.osexp,C:/Users/solom/Desktop,no,mono,no,18,no,white,no,yes,768,legacy,67,79,C:/Users/solom/OneDrive/Documents/School and Fin. Aid/MW-subject-1.csv,legacy,Lentiform Loewenfeld,3.3.3,0,h,NA,s,s,NA,h,427,NA,16464,30809,NA,427,2,legacy,1024,2,48000,-16,experiment,1,odd,19623,198480,NA,321686,293385,NA,323352,322192,3157,167668,NA,323347,323457,3143,323458,323890,Flanker Task,125,68228,148,yes,1024
Congruent,600,SSSSS,84.56375839,84.56375839,460.885906,460.885906,black,legacy,legacy,legacy,0,uniform,1,undefined,1,s,0,0,0,148,148,0,148,148,0,0,0,148,148,0,148,148,9/14/20 10:59,The main experiment item,yes,FlankerTask.osexp,C:/Users/solom/Desktop,no,mono,no,18,no,white,no,yes,768,legacy,68,79,C:/Users/solom/OneDrive/Documents/School and Fin. Aid/MW-subject-1.csv,legacy,Lentiform Loewenfeld,3.3.3,0,s,NA,s,s,NA,s,444,NA,16464,30809,NA,444,2,legacy,1024,2,48000,-16,experiment,1,odd,19623,198480,NA,321686,293385,NA,325086,323920,3157,167668,NA,325081,325192,3143,325192,325641,Flanker Task,126,68672,149,yes,1024
Incongruent,600,HHSHH,84.66666667,84.66666667,461.5666667,461.5666667,black,legacy,legacy,legacy,0,uniform,1,undefined,1,s,0,0,0,149,149,0,149,149,0,0,0,149,149,0,149,149,9/14/20 10:59,The main experiment item,yes,FlankerTask.osexp,C:/Users/solom/Desktop,no,mono,no,18,no,white,no,yes,768,legacy,69,79,C:/Users/solom/OneDrive/Documents/School and Fin. Aid/MW-subject-1.csv,legacy,Lentiform Loewenfeld,3.3.3,0,s,NA,s,s,NA,s,563,NA,16464,30809,NA,563,2,legacy,1024,2,48000,-16,experiment,1,odd,19623,198480,NA,321686,293385,NA,326847,325679,3157,167668,NA,326842,326952,3143,326953,327521,Flanker Task,127,69235,150,yes,1024
Congruent,600,SSSSS,84.76821192,84.76821192,461.3509934,461.3509934,black,legacy,legacy,legacy,0,uniform,1,undefined,1,s,0,0,0,150,150,0,150,150,0,0,0,150,150,0,150,150,9/14/20 10:59,The main experiment item,yes,FlankerTask.osexp,C:/Users/solom/Desktop,no,mono,no,18,no,white,no,yes,768,legacy,70,79,C:/Users/solom/OneDrive/Documents/School and Fin. Aid/MW-subject-1.csv,legacy,Lentiform Loewenfeld,3.3.3,0,s,NA,s,s,NA,s,429,NA,16464,30809,NA,429,2,legacy,1024,2,48000,-16,experiment,1,odd,19623,198480,NA,321686,293385,NA,328717,327554,3157,167668,NA,328712,328822,3143,328823,329258,Flanker Task,128,69664,151,yes,1024
Incongruent,600,HHSHH,84.86842105,84.86842105,461.1907895,461.1907895,black,legacy,legacy,legacy,0,uniform,1,undefined,1,s,0,0,0,151,151,0,151,151,0,0,0,151,151,0,151,151,9/14/20 10:59,The main experiment item,yes,FlankerTask.osexp,C:/Users/solom/Desktop,no,mono,no,18,no,white,no,yes,768,legacy,71,79,C:/Users/solom/OneDrive/Documents/School and Fin. Aid/MW-subject-1.csv,legacy,Lentiform Loewenfeld,3.3.3,0,s,NA,s,s,NA,s,437,NA,16464,30809,NA,437,2,legacy,1024,2,48000,-16,experiment,1,odd,19623,198480,NA,321686,293385,NA,330452,329288,3157,167668,NA,330447,330558,3143,330559,331001,Flanker Task,129,70101,152,yes,1024
Incongruent,600,HHSHH,84.96732026,84.96732026,460.9411765,460.9411765,black,legacy,legacy,legacy,0,uniform,1,undefined,1,s,0,0,0,152,152,0,152,152,0,0,0,152,152,0,152,152,9/14/20 10:59,The main experiment item,yes,FlankerTask.osexp,C:/Users/solom/Desktop,no,mono,no,18,no,white,no,yes,768,legacy,72,79,C:/Users/solom/OneDrive/Documents/School and Fin. Aid/MW-subject-1.csv,legacy,Lentiform Loewenfeld,3.3.3,0,s,NA,s,s,NA,s,423,NA,16464,30809,NA,423,2,legacy,1024,2,48000,-16,experiment,1,odd,19623,198480,NA,321686,293385,NA,332196,331030,3157,167668,NA,332192,332301,3143,332302,332730,Flanker Task,130,70524,153,yes,1024
Congruent,600,SSSSS,85.06493506,85.06493506,460.8506494,460.8506494,black,legacy,legacy,legacy,0,uniform,1,undefined,1,s,0,0,0,153,153,0,153,153,0,0,0,153,153,0,153,153,9/14/20 10:59,The main experiment item,yes,FlankerTask.osexp,C:/Users/solom/Desktop,no,mono,no,18,no,white,no,yes,768,legacy,73,79,C:/Users/solom/OneDrive/Documents/School and Fin. Aid/MW-subject-1.csv,legacy,Lentiform Loewenfeld,3.3.3,0,s,NA,s,s,NA,s,447,NA,16464,30809,NA,447,2,legacy,1024,2,48000,-16,experiment,1,odd,19623,198480,NA,321686,293385,NA,333917,332756,3157,167668,NA,333912,334021,3143,334021,334473,Flanker Task,131,70971,154,yes,1024
Congruent,600,HHHHH,85.16129032,85.16129032,460.2064516,460.2064516,black,legacy,legacy,legacy,0,uniform,1,undefined,1,h,0,0,0,154,154,0,154,154,0,0,0,154,154,0,154,154,9/14/20 10:59,The main experiment item,yes,FlankerTask.osexp,C:/Users/solom/Desktop,no,mono,no,18,no,white,no,yes,768,legacy,74,79,C:/Users/solom/OneDrive/Documents/School and Fin. Aid/MW-subject-1.csv,legacy,Lentiform Loewenfeld,3.3.3,0,h,NA,s,s,NA,h,361,NA,16464,30809,NA,361,2,legacy,1024,2,48000,-16,experiment,1,odd,19623,198480,NA,321686,293385,NA,335666,334505,3157,167668,NA,335661,335771,3143,335772,336138,Flanker Task,132,71332,155,yes,1024
Incongruent,600,SSHSS,84.61538462,84.61538462,459.6858974,459.6858974,black,legacy,legacy,legacy,0,uniform,0,undefined,0,h,0,0,0,155,155,0,155,155,0,0,0,155,155,0,155,155,9/14/20 10:59,The main experiment item,yes,FlankerTask.osexp,C:/Users/solom/Desktop,no,mono,no,18,no,white,no,yes,768,legacy,75,79,C:/Users/solom/OneDrive/Documents/School and Fin. Aid/MW-subject-1.csv,legacy,Lentiform Loewenfeld,3.3.3,0,s,NA,s,s,NA,s,379,NA,16464,30809,NA,379,2,legacy,1024,2,48000,-16,experiment,1,odd,19623,198480,NA,321686,293385,NA,337335,336171,3157,167668,NA,337330,337440,3143,337441,337826,Flanker Task,132,71711,156,yes,1024
Congruent,600,HHHHH,84.7133758,84.7133758,459.3757962,459.3757962,black,legacy,legacy,legacy,0,uniform,1,undefined,1,h,0,0,0,156,156,0,156,156,0,0,0,156,156,0,156,156,9/14/20 10:59,The main experiment item,yes,FlankerTask.osexp,C:/Users/solom/Desktop,no,mono,no,18,no,white,no,yes,768,legacy,76,79,C:/Users/solom/OneDrive/Documents/School and Fin. Aid/MW-subject-1.csv,legacy,Lentiform Loewenfeld,3.3.3,0,h,NA,s,s,NA,h,411,NA,16464,30809,NA,411,2,legacy,1024,2,48000,-16,experiment,1,odd,19623,198480,NA,337854,293385,NA,339521,338358,3157,167668,NA,339516,339625,3143,339625,340041,Flanker Task,133,72122,157,yes,1024
Incongruent,600,HHSHH,84.81012658,84.81012658,459.5063291,459.5063291,black,legacy,legacy,legacy,0,uniform,1,undefined,1,s,0,0,0,157,157,0,157,157,0,0,0,157,157,0,157,157,9/14/20 10:59,The main experiment item,yes,FlankerTask.osexp,C:/Users/solom/Desktop,no,mono,no,18,no,white,no,yes,768,legacy,77,79,C:/Users/solom/OneDrive/Documents/School and Fin. Aid/MW-subject-1.csv,legacy,Lentiform Loewenfeld,3.3.3,0,s,NA,s,s,NA,s,480,NA,16464,30809,NA,480,2,legacy,1024,2,48000,-16,experiment,1,odd,19623,198480,NA,337854,293385,NA,341235,340072,3157,167668,NA,341230,341340,3143,341341,341826,Flanker Task,134,72602,158,yes,1024
Incongruent,600,SSHSS,84.90566038,84.90566038,460.2012579,460.2012579,black,legacy,legacy,legacy,0,uniform,1,undefined,1,h,0,0,0,158,158,0,158,158,0,0,0,158,158,0,158,158,9/14/20 10:59,The main experiment item,yes,FlankerTask.osexp,C:/Users/solom/Desktop,no,mono,no,18,no,white,no,yes,768,legacy,78,79,C:/Users/solom/OneDrive/Documents/School and Fin. Aid/MW-subject-1.csv,legacy,Lentiform Loewenfeld,3.3.3,0,h,NA,s,s,NA,h,570,NA,16464,30809,NA,570,2,legacy,1024,2,48000,-16,experiment,1,odd,19623,198480,NA,337854,293385,NA,343017,341856,3157,167668,NA,343012,343121,3143,343122,343698,Flanker Task,135,73172,159,yes,1024
Congruent,600,SSSSS,85,85,459.98125,459.98125,black,legacy,legacy,legacy,0,uniform,1,undefined,1,s,0,0,0,159,159,0,159,159,0,0,0,159,159,0,159,159,9/14/20 10:59,The main experiment item,yes,FlankerTask.osexp,C:/Users/solom/Desktop,no,mono,no,18,no,white,no,yes,768,legacy,79,79,C:/Users/solom/OneDrive/Documents/School and Fin. Aid/MW-subject-1.csv,legacy,Lentiform Loewenfeld,3.3.3,0,s,NA,s,s,NA,s,425,NA,16464,30809,NA,425,2,legacy,1024,2,48000,-16,experiment,1,odd,19623,198480,NA,337854,293385,NA,344890,343726,3157,167668,NA,344885,344996,3143,344996,345426,Flanker Task,136,73597,160,yes,1024
Congruent,300,SSSSS,85.0931677,85.0931677,459.7701863,459.7701863,black,legacy,legacy,legacy,0,uniform,1,undefined,1,s,0,0,0,160,160,0,160,160,0,0,0,160,160,0,160,160,9/14/20 10:59,The main experiment item,yes,FlankerTask.osexp,C:/Users/solom/Desktop,no,mono,no,18,no,white,no,yes,768,legacy,0,79,C:/Users/solom/OneDrive/Documents/School and Fin. Aid/MW-subject-1.csv,legacy,Lentiform Loewenfeld,3.3.3,0,s,NA,s,s,h,s,426,NA,16464,30809,12287,426,2,legacy,1024,2,48000,-16,experiment,1,odd,19623,198480,358794,337854,293385,NA,358955,345469,3157,167668,346501,358951,359058,3143,359058,359490,Flanker Task,137,74023,161,yes,1024
Congruent,300,SSSSS,84.56790123,84.56790123,458.9876543,458.9876543,black,legacy,legacy,legacy,0,uniform,0,undefined,0,s,0,0,0,161,161,0,161,161,0,0,0,161,161,0,161,161,9/14/20 10:59,The main experiment item,yes,FlankerTask.osexp,C:/Users/solom/Desktop,no,mono,no,18,no,white,no,yes,768,legacy,1,79,C:/Users/solom/OneDrive/Documents/School and Fin. Aid/MW-subject-1.csv,legacy,Lentiform Loewenfeld,3.3.3,0,h,NA,s,s,h,h,333,NA,16464,30809,12287,333,2,legacy,1024,2,48000,-16,experiment,1,odd,19623,198480,358794,337854,359530,NA,361197,360034,3157,167668,346501,361192,361302,3143,361303,361642,Flanker Task,137,74356,162,yes,1024
Congruent,300,HHHHH,84.04907975,84.04907975,457.8711656,457.8711656,black,legacy,legacy,legacy,0,uniform,0,undefined,0,h,0,0,0,162,162,0,162,162,0,0,0,162,162,0,162,162,9/14/20 10:59,The main experiment item,yes,FlankerTask.osexp,C:/Users/solom/Desktop,no,mono,no,18,no,white,no,yes,768,legacy,2,79,C:/Users/solom/OneDrive/Documents/School and Fin. Aid/MW-subject-1.csv,legacy,Lentiform Loewenfeld,3.3.3,0,s,NA,s,s,h,s,277,NA,16464,30809,12287,277,2,legacy,1024,2,48000,-16,experiment,1,odd,19623,198480,358794,361671,362175,NA,363845,362680,3157,167668,346501,363839,363950,3143,363951,364234,Flanker Task,137,74633,163,yes,1024
