acc,accuracy,average_response_time,avg_rt,background,canvas_backend,clock_backend,color_backend,compensation,condition,coordinates,correct,correct_Instructions1,correct_new_keyboard_response,correct_response,count_Block1,count_Block2,count_Block3,count_ErrorFeedback,count_Faster,count_Finish,count_Fixation,count_ISI,count_Instructions1,count_Instructions2,count_Instructions3,count_Stimulus,count_experiment,count_new_keyboard_response,count_new_logger,count_new_sequence,datetime,deadline,description,disable_garbage_collection,experiment_file,experiment_path,font_bold,font_family,font_italic,font_size,font_underline,foreground,form_clicks,fullscreen,height,keyboard_backend,live_row,live_row_Block1,logfile,mouse_backend,opensesame_codename,opensesame_version,repeat_cycle,response,response_Finish,response_Instructions1,response_Instructions2,response_Instructions3,response_new_keyboard_response,response_time,response_time_Finish,response_time_Instructions1,response_time_Instructions2,response_time_Instructions3,response_time_new_keyboard_response,round_decimals,sampler_backend,sound_buf_size,sound_channels,sound_freq,sound_sample_size,start,stimulus,subject_nr,subject_parity,time_Block1,time_Block2,time_Block3,time_ErrorFeedback,time_Faster,time_Finish,time_Fixation,time_ISI,time_Instructions1,time_Instructions2,time_Instructions3,time_Stimulus,time_experiment,time_new_keyboard_response,time_new_logger,time_new_sequence,title,total_correct,total_response_time,total_responses,uniform_coordinates,width
100,100,670,670,black,xpyriment,legacy,legacy,0,Congruent,uniform,1,undefined,1,h,0,0,0,0,0,0,0,0,0,0,0,0,0,0,0,0,9/26/19 11:20,1500,The main experiment item,yes,FlankerTask.osexp,C:\Users\hosan\Desktop,no,mono,no,18,no,white,no,yes,768,legacy,0,0,C:/Users/hosan/Desktop/TB_subject-04.csv,xpyriment,Kafkaesque Koffka,3.2.8,0,h,NA,s,NA,NA,h,670,NA,2395,NA,NA,670,2,legacy,1024,2,48000,-16,experiment,HHHHH,4,even,14659,NA,NA,NA,NA,NA,16135,NA,12262,NA,NA,16240,12237,16240,16910,16110,Flanker Task ,1,670,1,yes,1024
100,100,590.5,590.5,black,xpyriment,legacy,legacy,0,Incongruent,uniform,1,undefined,1,s,0,0,0,1,1,0,1,1,0,0,0,1,0,1,1,1,9/26/19 11:20,1500,The main experiment item,yes,FlankerTask.osexp,C:\Users\hosan\Desktop,no,mono,no,18,no,white,no,yes,768,legacy,1,1,C:/Users/hosan/Desktop/TB_subject-04.csv,xpyriment,Kafkaesque Koffka,3.2.8,0,s,NA,s,NA,NA,s,511,NA,2395,NA,NA,511,2,legacy,1024,2,48000,-16,experiment,HHSHH,4,even,14659,NA,NA,NA,NA,NA,19497,17096,12262,NA,NA,19606,12237,19606,20117,19473,Flanker Task ,2,1181,2,yes,1024
100,100,556.3333333,556.3333333,black,xpyriment,legacy,legacy,0,Incongruent,uniform,1,undefined,1,h,0,0,0,2,2,0,2,2,0,0,0,2,0,2,2,2,9/26/19 11:20,1500,The main experiment item,yes,FlankerTask.osexp,C:\Users\hosan\Desktop,no,mono,no,18,no,white,no,yes,768,legacy,2,2,C:/Users/hosan/Desktop/TB_subject-04.csv,xpyriment,Kafkaesque Koffka,3.2.8,0,h,NA,s,NA,NA,h,488,NA,2395,NA,NA,488,2,legacy,1024,2,48000,-16,experiment,SSHSS,4,even,14659,NA,NA,NA,NA,NA,22333,20185,12262,NA,NA,22438,12237,22438,22927,22308,Flanker Task ,3,1669,3,yes,1024
100,100,536.75,536.75,black,xpyriment,legacy,legacy,0,Incongruent,uniform,1,undefined,1,s,0,0,0,3,3,0,3,3,0,0,0,3,0,3,3,3,9/26/19 11:20,1500,The main experiment item,yes,FlankerTask.osexp,C:\Users\hosan\Desktop,no,mono,no,18,no,white,no,yes,768,legacy,3,3,C:/Users/hosan/Desktop/TB_subject-04.csv,xpyriment,Kafkaesque Koffka,3.2.8,0,s,NA,s,NA,NA,s,478,NA,2395,NA,NA,478,2,legacy,1024,2,48000,-16,experiment,HHSHH,4,even,14659,NA,NA,NA,NA,NA,25317,23238,12262,NA,NA,25422,12237,25423,25901,25293,Flanker Task ,4,2147,4,yes,1024
100,100,523,523,black,xpyriment,legacy,legacy,0,Incongruent,uniform,1,undefined,1,s,0,0,0,4,4,0,4,4,0,0,0,4,0,4,4,4,9/26/19 11:20,1500,The main experiment item,yes,FlankerTask.osexp,C:\Users\hosan\Desktop,no,mono,no,18,no,white,no,yes,768,legacy,4,4,C:/Users/hosan/Desktop/TB_subject-04.csv,xpyriment,Kafkaesque Koffka,3.2.8,0,s,NA,s,NA,NA,s,468,NA,2395,NA,NA,468,2,legacy,1024,2,48000,-16,experiment,HHSHH,4,even,14659,NA,NA,NA,NA,NA,28407,26283,12262,NA,NA,28513,12237,28513,28981,28384,Flanker Task ,5,2615,5,yes,1024
100,100,495.6666667,495.6666667,black,xpyriment,legacy,legacy,0,Congruent,uniform,1,undefined,1,s,0,0,0,5,5,0,5,5,0,0,0,5,0,5,5,5,9/26/19 11:20,1500,The main experiment item,yes,FlankerTask.osexp,C:\Users\hosan\Desktop,no,mono,no,18,no,white,no,yes,768,legacy,5,5,C:/Users/hosan/Desktop/TB_subject-04.csv,xpyriment,Kafkaesque Koffka,3.2.8,0,s,NA,s,NA,NA,s,359,NA,2395,NA,NA,359,2,legacy,1024,2,48000,-16,experiment,SSSSS,4,even,14659,NA,NA,NA,NA,NA,31263,29144,12262,NA,NA,31369,12237,31369,31728,31240,Flanker Task ,6,2974,6,yes,1024
100,100,495.7142857,495.7142857,black,xpyriment,legacy,legacy,0,Incongruent,uniform,1,undefined,1,h,0,0,0,6,6,0,6,6,0,0,0,6,0,6,6,6,9/26/19 11:20,1500,The main experiment item,yes,FlankerTask.osexp,C:\Users\hosan\Desktop,no,mono,no,18,no,white,no,yes,768,legacy,6,6,C:/Users/hosan/Desktop/TB_subject-04.csv,xpyriment,Kafkaesque Koffka,3.2.8,0,h,NA,s,NA,NA,h,496,NA,2395,NA,NA,496,2,legacy,1024,2,48000,-16,experiment,SSHSS,4,even,14659,NA,NA,NA,NA,NA,34140,32050,12262,NA,NA,34248,12237,34248,34745,34117,Flanker Task ,7,3470,7,yes,1024
100,100,517.125,517.125,black,xpyriment,legacy,legacy,0,Incongruent,uniform,1,undefined,1,s,0,0,0,7,7,0,7,7,0,0,0,7,0,7,7,7,9/26/19 11:20,1500,The main experiment item,yes,FlankerTask.osexp,C:\Users\hosan\Desktop,no,mono,no,18,no,white,no,yes,768,legacy,7,7,C:/Users/hosan/Desktop/TB_subject-04.csv,xpyriment,Kafkaesque Koffka,3.2.8,0,s,NA,s,NA,NA,s,667,NA,2395,NA,NA,667,2,legacy,1024,2,48000,-16,experiment,HHSHH,4,even,14659,NA,NA,NA,NA,NA,37000,34928,12262,NA,NA,37106,12237,37106,37774,36976,Flanker Task ,8,4137,8,yes,1024
88.88888889,88.88888889,543.2222222,543.2222222,black,xpyriment,legacy,legacy,0,Congruent,uniform,0,undefined,0,s,0,0,0,8,8,0,8,8,0,0,0,8,0,8,8,8,9/26/19 11:20,1500,The main experiment item,yes,FlankerTask.osexp,C:\Users\hosan\Desktop,no,mono,no,18,no,white,no,yes,768,legacy,8,8,C:/Users/hosan/Desktop/TB_subject-04.csv,xpyriment,Kafkaesque Koffka,3.2.8,0,h,NA,s,NA,NA,h,752,NA,2395,NA,NA,752,2,legacy,1024,2,48000,-16,experiment,SSSSS,4,even,14659,NA,NA,NA,NA,NA,40077,37816,12262,NA,NA,40182,12237,40182,40934,40052,Flanker Task ,8,4889,9,yes,1024
90,90,545.6,545.6,black,xpyriment,legacy,legacy,0,Congruent,uniform,1,undefined,1,s,0,0,0,9,9,0,9,9,0,0,0,9,0,9,9,9,9/26/19 11:20,1500,The main experiment item,yes,FlankerTask.osexp,C:\Users\hosan\Desktop,no,mono,no,18,no,white,no,yes,768,legacy,9,9,C:/Users/hosan/Desktop/TB_subject-04.csv,xpyriment,Kafkaesque Koffka,3.2.8,0,s,NA,s,NA,NA,s,567,NA,2395,NA,NA,567,2,legacy,1024,2,48000,-16,experiment,SSSSS,4,even,14659,NA,NA,41127,NA,NA,44038,41633,12262,NA,NA,44144,12237,44144,44712,44014,Flanker Task ,9,5456,10,yes,1024
90.90909091,90.90909091,535.9090909,535.9090909,black,xpyriment,legacy,legacy,0,Incongruent,uniform,1,undefined,1,s,0,0,0,10,10,0,10,10,0,0,0,10,0,10,10,10,9/26/19 11:20,1500,The main experiment item,yes,FlankerTask.osexp,C:\Users\hosan\Desktop,no,mono,no,18,no,white,no,yes,768,legacy,10,10,C:/Users/hosan/Desktop/TB_subject-04.csv,xpyriment,Kafkaesque Koffka,3.2.8,0,s,NA,s,NA,NA,s,439,NA,2395,NA,NA,439,2,legacy,1024,2,48000,-16,experiment,HHSHH,4,even,14659,NA,NA,41127,NA,NA,46886,44791,12262,NA,NA,46991,12237,46991,47431,46862,Flanker Task ,10,5895,11,yes,1024
91.66666667,91.66666667,531,531,black,xpyriment,legacy,legacy,0,Incongruent,uniform,1,undefined,1,s,0,0,0,11,11,0,11,11,0,0,0,11,0,11,11,11,9/26/19 11:20,1500,The main experiment item,yes,FlankerTask.osexp,C:\Users\hosan\Desktop,no,mono,no,18,no,white,no,yes,768,legacy,11,11,C:/Users/hosan/Desktop/TB_subject-04.csv,xpyriment,Kafkaesque Koffka,3.2.8,0,s,NA,s,NA,NA,s,477,NA,2395,NA,NA,477,2,legacy,1024,2,48000,-16,experiment,HHSHH,4,even,14659,NA,NA,41127,NA,NA,50144,47781,12262,NA,NA,50251,12237,50251,50729,50119,Flanker Task ,11,6372,12,yes,1024
92.30769231,92.30769231,523.4615385,523.4615385,black,xpyriment,legacy,legacy,0,Incongruent,uniform,1,undefined,1,h,0,0,0,12,12,0,12,12,0,0,0,12,0,12,12,12,9/26/19 11:20,1500,The main experiment item,yes,FlankerTask.osexp,C:\Users\hosan\Desktop,no,mono,no,18,no,white,no,yes,768,legacy,12,12,C:/Users/hosan/Desktop/TB_subject-04.csv,xpyriment,Kafkaesque Koffka,3.2.8,0,h,NA,s,NA,NA,h,433,NA,2395,NA,NA,433,2,legacy,1024,2,48000,-16,experiment,SSHSS,4,even,14659,NA,NA,41127,NA,NA,53354,50948,12262,NA,NA,53459,12237,53459,53893,53329,Flanker Task ,12,6805,13,yes,1024
92.85714286,92.85714286,518.0714286,518.0714286,black,xpyriment,legacy,legacy,0,Congruent,uniform,1,undefined,1,s,0,0,0,13,13,0,13,13,0,0,0,13,0,13,13,13,9/26/19 11:20,1500,The main experiment item,yes,FlankerTask.osexp,C:\Users\hosan\Desktop,no,mono,no,18,no,white,no,yes,768,legacy,13,13,C:/Users/hosan/Desktop/TB_subject-04.csv,xpyriment,Kafkaesque Koffka,3.2.8,0,s,NA,s,NA,NA,s,448,NA,2395,NA,NA,448,2,legacy,1024,2,48000,-16,experiment,SSSSS,4,even,14659,NA,NA,41127,NA,NA,56210,54076,12262,NA,NA,56315,12237,56315,56763,56187,Flanker Task ,13,7253,14,yes,1024
93.33333333,93.33333333,512.9333333,512.9333333,black,xpyriment,legacy,legacy,0,Incongruent,uniform,1,undefined,1,h,0,0,0,14,14,0,14,14,0,0,0,14,0,14,14,14,9/26/19 11:20,1500,The main experiment item,yes,FlankerTask.osexp,C:\Users\hosan\Desktop,no,mono,no,18,no,white,no,yes,768,legacy,14,14,C:/Users/hosan/Desktop/TB_subject-04.csv,xpyriment,Kafkaesque Koffka,3.2.8,0,h,NA,s,NA,NA,h,441,NA,2395,NA,NA,441,2,legacy,1024,2,48000,-16,experiment,SSHSS,4,even,14659,NA,NA,41127,NA,NA,59402,57046,12262,NA,NA,59507,12237,59508,59950,59378,Flanker Task ,14,7694,15,yes,1024
93.75,93.75,513.875,513.875,black,xpyriment,legacy,legacy,0,Congruent,uniform,1,undefined,1,h,0,0,0,15,15,0,15,15,0,0,0,15,0,15,15,15,9/26/19 11:20,1500,The main experiment item,yes,FlankerTask.osexp,C:\Users\hosan\Desktop,no,mono,no,18,no,white,no,yes,768,legacy,15,15,C:/Users/hosan/Desktop/TB_subject-04.csv,xpyriment,Kafkaesque Koffka,3.2.8,0,h,NA,s,NA,NA,h,528,NA,2395,NA,NA,528,2,legacy,1024,2,48000,-16,experiment,HHHHH,4,even,14659,NA,NA,41127,NA,NA,62555,60246,12262,NA,NA,62661,12237,62662,63190,62531,Flanker Task ,15,8222,16,yes,1024
94.11764706,94.11764706,512.6470588,512.6470588,black,xpyriment,legacy,legacy,0,Congruent,uniform,1,undefined,1,s,0,0,0,16,16,0,16,16,0,0,0,16,0,16,16,16,9/26/19 11:20,1500,The main experiment item,yes,FlankerTask.osexp,C:\Users\hosan\Desktop,no,mono,no,18,no,white,no,yes,768,legacy,16,16,C:/Users/hosan/Desktop/TB_subject-04.csv,xpyriment,Kafkaesque Koffka,3.2.8,0,s,NA,s,NA,NA,s,493,NA,2395,NA,NA,493,2,legacy,1024,2,48000,-16,experiment,SSSSS,4,even,14659,NA,NA,41127,NA,NA,65519,63322,12262,NA,NA,65625,12237,65625,66119,65494,Flanker Task ,16,8715,17,yes,1024
94.44444444,94.44444444,506.8333333,506.8333333,black,xpyriment,legacy,legacy,0,Congruent,uniform,1,undefined,1,h,0,0,0,17,17,0,17,17,0,0,0,17,0,17,17,17,9/26/19 11:20,1500,The main experiment item,yes,FlankerTask.osexp,C:\Users\hosan\Desktop,no,mono,no,18,no,white,no,yes,768,legacy,17,17,C:/Users/hosan/Desktop/TB_subject-04.csv,xpyriment,Kafkaesque Koffka,3.2.8,0,h,NA,s,NA,NA,h,408,NA,2395,NA,NA,408,2,legacy,1024,2,48000,-16,experiment,HHHHH,4,even,14659,NA,NA,41127,NA,NA,68530,66184,12262,NA,NA,68636,12237,68636,69045,68506,Flanker Task ,17,9123,18,yes,1024
94.73684211,94.73684211,502.3157895,502.3157895,black,xpyriment,legacy,legacy,0,Congruent,uniform,1,undefined,1,s,0,0,0,18,18,0,18,18,0,0,0,18,0,18,18,18,9/26/19 11:20,1500,The main experiment item,yes,FlankerTask.osexp,C:\Users\hosan\Desktop,no,mono,no,18,no,white,no,yes,768,legacy,18,18,C:/Users/hosan/Desktop/TB_subject-04.csv,xpyriment,Kafkaesque Koffka,3.2.8,0,s,NA,s,NA,NA,s,421,NA,2395,NA,NA,421,2,legacy,1024,2,48000,-16,experiment,SSSSS,4,even,14659,NA,NA,41127,NA,NA,71330,69156,12262,NA,NA,71438,12237,71438,71860,71305,Flanker Task ,18,9544,19,yes,1024
95,95,509.15,509.15,black,xpyriment,legacy,legacy,0,Incongruent,uniform,1,undefined,1,s,0,0,0,19,19,0,19,19,0,0,0,19,0,19,19,19,9/26/19 11:20,1500,The main experiment item,yes,FlankerTask.osexp,C:\Users\hosan\Desktop,no,mono,no,18,no,white,no,yes,768,legacy,19,19,C:/Users/hosan/Desktop/TB_subject-04.csv,xpyriment,Kafkaesque Koffka,3.2.8,0,s,NA,s,NA,NA,s,639,NA,2395,NA,NA,639,2,legacy,1024,2,48000,-16,experiment,HHSHH,4,even,14659,NA,NA,41127,NA,NA,74299,72258,12262,NA,NA,74408,12237,74409,75048,74276,Flanker Task ,19,10183,20,yes,1024
95.23809524,95.23809524,507.5238095,507.5238095,black,xpyriment,legacy,legacy,0,Incongruent,uniform,1,undefined,1,h,0,0,0,20,20,0,20,20,0,0,0,20,0,20,20,20,9/26/19 11:20,1500,The main experiment item,yes,FlankerTask.osexp,C:\Users\hosan\Desktop,no,mono,no,18,no,white,no,yes,768,legacy,20,20,C:/Users/hosan/Desktop/TB_subject-04.csv,xpyriment,Kafkaesque Koffka,3.2.8,0,h,NA,s,NA,NA,h,475,NA,2395,NA,NA,475,2,legacy,1024,2,48000,-16,experiment,SSHSS,4,even,14659,NA,NA,41127,NA,NA,77449,75400,12262,NA,NA,77557,12237,77558,78034,77427,Flanker Task ,20,10658,21,yes,1024
95.45454545,95.45454545,506.1818182,506.1818182,black,xpyriment,legacy,legacy,0,Congruent,uniform,1,undefined,1,h,0,0,0,21,21,0,21,21,0,0,0,21,0,21,21,21,9/26/19 11:20,1500,The main experiment item,yes,FlankerTask.osexp,C:\Users\hosan\Desktop,no,mono,no,18,no,white,no,yes,768,legacy,21,21,C:/Users/hosan/Desktop/TB_subject-04.csv,xpyriment,Kafkaesque Koffka,3.2.8,0,h,NA,s,NA,NA,h,478,NA,2395,NA,NA,478,2,legacy,1024,2,48000,-16,experiment,HHHHH,4,even,14659,NA,NA,41127,NA,NA,80438,78279,12262,NA,NA,80546,12237,80546,81025,80413,Flanker Task ,21,11136,22,yes,1024
95.65217391,95.65217391,505.5217391,505.5217391,black,xpyriment,legacy,legacy,0,Incongruent,uniform,1,undefined,1,s,0,0,0,22,22,0,22,22,0,0,0,22,0,22,22,22,9/26/19 11:20,1500,The main experiment item,yes,FlankerTask.osexp,C:\Users\hosan\Desktop,no,mono,no,18,no,white,no,yes,768,legacy,22,22,C:/Users/hosan/Desktop/TB_subject-04.csv,xpyriment,Kafkaesque Koffka,3.2.8,0,s,NA,s,NA,NA,s,491,NA,2395,NA,NA,491,2,legacy,1024,2,48000,-16,experiment,HHSHH,4,even,14659,NA,NA,41127,NA,NA,83374,81334,12262,NA,NA,83481,12237,83481,83972,83352,Flanker Task ,22,11627,23,yes,1024
95.83333333,95.83333333,507.5416667,507.5416667,black,xpyriment,legacy,legacy,0,Congruent,uniform,1,undefined,1,h,0,0,0,23,23,0,23,23,0,0,0,23,0,23,23,23,9/26/19 11:20,1500,The main experiment item,yes,FlankerTask.osexp,C:\Users\hosan\Desktop,no,mono,no,18,no,white,no,yes,768,legacy,23,23,C:/Users/hosan/Desktop/TB_subject-04.csv,xpyriment,Kafkaesque Koffka,3.2.8,0,h,NA,s,NA,NA,h,554,NA,2395,NA,NA,554,2,legacy,1024,2,48000,-16,experiment,HHHHH,4,even,14659,NA,NA,41127,NA,NA,86290,84267,12262,NA,NA,86397,12237,86397,86952,86266,Flanker Task ,23,12181,24,yes,1024
96,96,508.56,508.56,black,xpyriment,legacy,legacy,0,Incongruent,uniform,1,undefined,1,h,0,0,0,24,24,0,24,24,0,0,0,24,0,24,24,24,9/26/19 11:20,1500,The main experiment item,yes,FlankerTask.osexp,C:\Users\hosan\Desktop,no,mono,no,18,no,white,no,yes,768,legacy,24,24,C:/Users/hosan/Desktop/TB_subject-04.csv,xpyriment,Kafkaesque Koffka,3.2.8,0,h,NA,s,NA,NA,h,533,NA,2395,NA,NA,533,2,legacy,1024,2,48000,-16,experiment,SSHSS,4,even,14659,NA,NA,41127,NA,NA,89372,87219,12262,NA,NA,89479,12237,89480,90013,89349,Flanker Task ,24,12714,25,yes,1024
96.15384615,96.15384615,506.5769231,506.5769231,black,xpyriment,legacy,legacy,0,Incongruent,uniform,1,undefined,1,s,0,0,0,25,25,0,25,25,0,0,0,25,0,25,25,25,9/26/19 11:20,1500,The main experiment item,yes,FlankerTask.osexp,C:\Users\hosan\Desktop,no,mono,no,18,no,white,no,yes,768,legacy,25,25,C:/Users/hosan/Desktop/TB_subject-04.csv,xpyriment,Kafkaesque Koffka,3.2.8,0,s,NA,s,NA,NA,s,457,NA,2395,NA,NA,457,2,legacy,1024,2,48000,-16,experiment,HHSHH,4,even,14659,NA,NA,41127,NA,NA,92467,90271,12262,NA,NA,92572,12237,92572,93030,92443,Flanker Task ,25,13171,26,yes,1024
96.2962963,96.2962963,507.8518519,507.8518519,black,xpyriment,legacy,legacy,0,Congruent,uniform,1,undefined,1,s,0,0,0,26,26,0,26,26,0,0,0,26,0,26,26,26,9/26/19 11:20,1500,The main experiment item,yes,FlankerTask.osexp,C:\Users\hosan\Desktop,no,mono,no,18,no,white,no,yes,768,legacy,26,26,C:/Users/hosan/Desktop/TB_subject-04.csv,xpyriment,Kafkaesque Koffka,3.2.8,0,s,NA,s,NA,NA,s,541,NA,2395,NA,NA,541,2,legacy,1024,2,48000,-16,experiment,SSSSS,4,even,14659,NA,NA,41127,NA,NA,95304,93195,12262,NA,NA,95409,12237,95409,95950,95279,Flanker Task ,26,13712,27,yes,1024
96.42857143,96.42857143,507.7142857,507.7142857,black,xpyriment,legacy,legacy,0,Incongruent,uniform,1,undefined,1,h,0,0,0,27,27,0,27,27,0,0,0,27,0,27,27,27,9/26/19 11:20,1500,The main experiment item,yes,FlankerTask.osexp,C:\Users\hosan\Desktop,no,mono,no,18,no,white,no,yes,768,legacy,27,27,C:/Users/hosan/Desktop/TB_subject-04.csv,xpyriment,Kafkaesque Koffka,3.2.8,0,h,NA,s,NA,NA,h,504,NA,2395,NA,NA,504,2,legacy,1024,2,48000,-16,experiment,SSHSS,4,even,14659,NA,NA,41127,NA,NA,98314,96179,12262,NA,NA,98421,12237,98421,98926,98289,Flanker Task ,27,14216,28,yes,1024
96.55172414,96.55172414,502.4827586,502.4827586,black,xpyriment,legacy,legacy,0,Congruent,uniform,1,undefined,1,h,0,0,0,28,28,0,28,28,0,0,0,28,0,28,28,28,9/26/19 11:20,1500,The main experiment item,yes,FlankerTask.osexp,C:\Users\hosan\Desktop,no,mono,no,18,no,white,no,yes,768,legacy,28,28,C:/Users/hosan/Desktop/TB_subject-04.csv,xpyriment,Kafkaesque Koffka,3.2.8,0,h,NA,s,NA,NA,h,356,NA,2395,NA,NA,356,2,legacy,1024,2,48000,-16,experiment,HHHHH,4,even,14659,NA,NA,41127,NA,NA,101303,99007,12262,NA,NA,101410,12237,101410,101767,101279,Flanker Task ,28,14572,29,yes,1024
96.66666667,96.66666667,497.3666667,497.3666667,black,xpyriment,legacy,legacy,0,Incongruent,uniform,1,undefined,1,h,0,0,0,29,29,0,29,29,0,0,0,29,0,29,29,29,9/26/19 11:20,1500,The main experiment item,yes,FlankerTask.osexp,C:\Users\hosan\Desktop,no,mono,no,18,no,white,no,yes,768,legacy,29,29,C:/Users/hosan/Desktop/TB_subject-04.csv,xpyriment,Kafkaesque Koffka,3.2.8,0,h,NA,s,NA,NA,h,349,NA,2395,NA,NA,349,2,legacy,1024,2,48000,-16,experiment,SSHSS,4,even,14659,NA,NA,41127,NA,NA,104056,101806,12262,NA,NA,104163,12237,104163,104513,104033,Flanker Task ,29,14921,30,yes,1024
96.77419355,96.77419355,492.8709677,492.8709677,black,xpyriment,legacy,legacy,0,Incongruent,uniform,1,undefined,1,s,0,0,0,30,30,0,30,30,0,0,0,30,0,30,30,30,9/26/19 11:20,1500,The main experiment item,yes,FlankerTask.osexp,C:\Users\hosan\Desktop,no,mono,no,18,no,white,no,yes,768,legacy,30,30,C:/Users/hosan/Desktop/TB_subject-04.csv,xpyriment,Kafkaesque Koffka,3.2.8,0,s,NA,s,NA,NA,s,358,NA,2395,NA,NA,358,2,legacy,1024,2,48000,-16,experiment,HHSHH,4,even,14659,NA,NA,41127,NA,NA,106753,104578,12262,NA,NA,106859,12237,106859,107218,106728,Flanker Task ,30,15279,31,yes,1024
96.875,96.875,490.75,490.75,black,xpyriment,legacy,legacy,0,Congruent,uniform,1,undefined,1,h,0,0,0,31,31,0,31,31,0,0,0,31,0,31,31,31,9/26/19 11:20,1500,The main experiment item,yes,FlankerTask.osexp,C:\Users\hosan\Desktop,no,mono,no,18,no,white,no,yes,768,legacy,31,31,C:/Users/hosan/Desktop/TB_subject-04.csv,xpyriment,Kafkaesque Koffka,3.2.8,0,h,NA,s,NA,NA,h,425,NA,2395,NA,NA,425,2,legacy,1024,2,48000,-16,experiment,HHHHH,4,even,14659,NA,NA,41127,NA,NA,109590,107536,12262,NA,NA,109696,12237,109696,110122,109567,Flanker Task ,31,15704,32,yes,1024
96.96969697,96.96969697,490.030303,490.030303,black,xpyriment,legacy,legacy,0,Incongruent,uniform,1,undefined,1,h,0,0,0,32,32,0,32,32,0,0,0,32,0,32,32,32,9/26/19 11:20,1500,The main experiment item,yes,FlankerTask.osexp,C:\Users\hosan\Desktop,no,mono,no,18,no,white,no,yes,768,legacy,32,32,C:/Users/hosan/Desktop/TB_subject-04.csv,xpyriment,Kafkaesque Koffka,3.2.8,0,h,NA,s,NA,NA,h,467,NA,2395,NA,NA,467,2,legacy,1024,2,48000,-16,experiment,SSHSS,4,even,14659,NA,NA,41127,NA,NA,112613,110204,12262,NA,NA,112718,12237,112718,113186,112588,Flanker Task ,32,16171,33,yes,1024
97.05882353,97.05882353,488.4411765,488.4411765,black,xpyriment,legacy,legacy,0,Incongruent,uniform,1,undefined,1,s,0,0,0,33,33,0,33,33,0,0,0,33,0,33,33,33,9/26/19 11:20,1500,The main experiment item,yes,FlankerTask.osexp,C:\Users\hosan\Desktop,no,mono,no,18,no,white,no,yes,768,legacy,33,33,C:/Users/hosan/Desktop/TB_subject-04.csv,xpyriment,Kafkaesque Koffka,3.2.8,0,s,NA,s,NA,NA,s,436,NA,2395,NA,NA,436,2,legacy,1024,2,48000,-16,experiment,HHSHH,4,even,14659,NA,NA,41127,NA,NA,115521,113437,12262,NA,NA,115630,12237,115630,116067,115496,Flanker Task ,33,16607,34,yes,1024
97.14285714,97.14285714,486.5714286,486.5714286,black,xpyriment,legacy,legacy,0,Congruent,uniform,1,undefined,1,h,0,0,0,34,34,0,34,34,0,0,0,34,0,34,34,34,9/26/19 11:20,1500,The main experiment item,yes,FlankerTask.osexp,C:\Users\hosan\Desktop,no,mono,no,18,no,white,no,yes,768,legacy,34,34,C:/Users/hosan/Desktop/TB_subject-04.csv,xpyriment,Kafkaesque Koffka,3.2.8,0,h,NA,s,NA,NA,h,423,NA,2395,NA,NA,423,2,legacy,1024,2,48000,-16,experiment,HHHHH,4,even,14659,NA,NA,41127,NA,NA,118244,116191,12262,NA,NA,118351,12237,118351,118774,118220,Flanker Task ,34,17030,35,yes,1024
97.22222222,97.22222222,483.4722222,483.4722222,black,xpyriment,legacy,legacy,0,Congruent,uniform,1,undefined,1,h,0,0,0,35,35,0,35,35,0,0,0,35,0,35,35,35,9/26/19 11:20,1500,The main experiment item,yes,FlankerTask.osexp,C:\Users\hosan\Desktop,no,mono,no,18,no,white,no,yes,768,legacy,35,35,C:/Users/hosan/Desktop/TB_subject-04.csv,xpyriment,Kafkaesque Koffka,3.2.8,0,h,NA,s,NA,NA,h,375,NA,2395,NA,NA,375,2,legacy,1024,2,48000,-16,experiment,HHHHH,4,even,14659,NA,NA,41127,NA,NA,121289,119204,12262,NA,NA,121395,12237,121395,121771,121265,Flanker Task ,35,17405,36,yes,1024
97.2972973,97.2972973,483.0810811,483.0810811,black,xpyriment,legacy,legacy,0,Incongruent,uniform,1,undefined,1,s,0,0,0,36,36,0,36,36,0,0,0,36,0,36,36,36,9/26/19 11:20,1500,The main experiment item,yes,FlankerTask.osexp,C:\Users\hosan\Desktop,no,mono,no,18,no,white,no,yes,768,legacy,36,36,C:/Users/hosan/Desktop/TB_subject-04.csv,xpyriment,Kafkaesque Koffka,3.2.8,0,s,NA,s,NA,NA,s,469,NA,2395,NA,NA,469,2,legacy,1024,2,48000,-16,experiment,HHSHH,4,even,14659,NA,NA,41127,NA,NA,123947,121921,12262,NA,NA,124053,12237,124053,124524,123923,Flanker Task ,36,17874,37,yes,1024
97.36842105,97.36842105,482.2368421,482.2368421,black,xpyriment,legacy,legacy,0,Incongruent,uniform,1,undefined,1,h,0,0,0,37,37,0,37,37,0,0,0,37,0,37,37,37,9/26/19 11:20,1500,The main experiment item,yes,FlankerTask.osexp,C:\Users\hosan\Desktop,no,mono,no,18,no,white,no,yes,768,legacy,37,37,C:/Users/hosan/Desktop/TB_subject-04.csv,xpyriment,Kafkaesque Koffka,3.2.8,0,h,NA,s,NA,NA,h,451,NA,2395,NA,NA,451,2,legacy,1024,2,48000,-16,experiment,SSHSS,4,even,14659,NA,NA,41127,NA,NA,126968,124707,12262,NA,NA,127074,12237,127074,127526,126944,Flanker Task ,37,18325,38,yes,1024
97.43589744,97.43589744,479.974359,479.974359,black,xpyriment,legacy,legacy,0,Congruent,uniform,1,undefined,1,h,0,0,0,38,38,0,38,38,0,0,0,38,0,38,38,38,9/26/19 11:20,1500,The main experiment item,yes,FlankerTask.osexp,C:\Users\hosan\Desktop,no,mono,no,18,no,white,no,yes,768,legacy,38,38,C:/Users/hosan/Desktop/TB_subject-04.csv,xpyriment,Kafkaesque Koffka,3.2.8,0,h,NA,s,NA,NA,h,394,NA,2395,NA,NA,394,2,legacy,1024,2,48000,-16,experiment,HHHHH,4,even,14659,NA,NA,41127,NA,NA,129819,127689,12262,NA,NA,129925,12237,129925,130320,129795,Flanker Task ,38,18719,39,yes,1024
97.5,97.5,479.7,479.7,black,xpyriment,legacy,legacy,0,Incongruent,uniform,1,undefined,1,s,0,0,0,39,39,0,39,39,0,0,0,39,0,39,39,39,9/26/19 11:20,1500,The main experiment item,yes,FlankerTask.osexp,C:\Users\hosan\Desktop,no,mono,no,18,no,white,no,yes,768,legacy,39,39,C:/Users/hosan/Desktop/TB_subject-04.csv,xpyriment,Kafkaesque Koffka,3.2.8,0,s,NA,s,NA,NA,s,469,NA,2395,NA,NA,469,2,legacy,1024,2,48000,-16,experiment,HHSHH,4,even,14659,NA,NA,41127,NA,NA,133068,130629,12262,NA,NA,133173,12237,133174,133644,133044,Flanker Task ,39,19188,40,yes,1024
97.56097561,97.56097561,478.3414634,478.3414634,black,xpyriment,legacy,legacy,0,Congruent,uniform,1,undefined,1,s,0,0,0,40,40,0,40,40,0,0,0,40,0,40,40,40,9/26/19 11:20,1500,The main experiment item,yes,FlankerTask.osexp,C:\Users\hosan\Desktop,no,mono,no,18,no,white,no,yes,768,legacy,40,40,C:/Users/hosan/Desktop/TB_subject-04.csv,xpyriment,Kafkaesque Koffka,3.2.8,0,s,NA,s,NA,NA,s,424,NA,2395,NA,NA,424,2,legacy,1024,2,48000,-16,experiment,SSSSS,4,even,14659,NA,NA,41127,NA,NA,136026,133981,12262,NA,NA,136132,12237,136133,136558,136003,Flanker Task ,40,19612,41,yes,1024
97.61904762,97.61904762,477.7857143,477.7857143,black,xpyriment,legacy,legacy,0,Congruent,uniform,1,undefined,1,s,0,0,0,41,41,0,41,41,0,0,0,41,0,41,41,41,9/26/19 11:20,1500,The main experiment item,yes,FlankerTask.osexp,C:\Users\hosan\Desktop,no,mono,no,18,no,white,no,yes,768,legacy,41,41,C:/Users/hosan/Desktop/TB_subject-04.csv,xpyriment,Kafkaesque Koffka,3.2.8,0,s,NA,s,NA,NA,s,455,NA,2395,NA,NA,455,2,legacy,1024,2,48000,-16,experiment,SSSSS,4,even,14659,NA,NA,41127,NA,NA,139118,137005,12262,NA,NA,139225,12237,139225,139680,139094,Flanker Task ,41,20067,42,yes,1024
97.6744186,97.6744186,487.255814,487.255814,black,xpyriment,legacy,legacy,0,Incongruent,uniform,1,undefined,1,s,0,0,0,42,42,0,42,42,0,0,0,42,0,42,42,42,9/26/19 11:20,1500,The main experiment item,yes,FlankerTask.osexp,C:\Users\hosan\Desktop,no,mono,no,18,no,white,no,yes,768,legacy,42,42,C:/Users/hosan/Desktop/TB_subject-04.csv,xpyriment,Kafkaesque Koffka,3.2.8,0,s,NA,s,NA,NA,s,885,NA,2395,NA,NA,885,2,legacy,1024,2,48000,-16,experiment,HHSHH,4,even,14659,NA,NA,41127,NA,NA,142000,139920,12262,NA,NA,142107,12237,142107,142993,141977,Flanker Task ,42,20952,43,yes,1024
95.45454545,95.45454545,485,485,black,xpyriment,legacy,legacy,0,Incongruent,uniform,0,undefined,0,h,0,0,0,43,43,0,43,43,0,0,0,43,0,43,43,43,9/26/19 11:20,1500,The main experiment item,yes,FlankerTask.osexp,C:\Users\hosan\Desktop,no,mono,no,18,no,white,no,yes,768,legacy,43,43,C:/Users/hosan/Desktop/TB_subject-04.csv,xpyriment,Kafkaesque Koffka,3.2.8,0,s,NA,s,NA,NA,s,388,NA,2395,NA,NA,388,2,legacy,1024,2,48000,-16,experiment,SSHSS,4,even,14659,NA,NA,41127,NA,NA,145215,143040,12262,NA,NA,145320,12237,145320,145709,145190,Flanker Task ,42,21340,44,yes,1024
95.55555556,95.55555556,486.6222222,486.6222222,black,xpyriment,legacy,legacy,0,Incongruent,uniform,1,undefined,1,s,0,0,0,44,44,0,44,44,0,0,0,44,0,44,44,44,9/26/19 11:20,1500,The main experiment item,yes,FlankerTask.osexp,C:\Users\hosan\Desktop,no,mono,no,18,no,white,no,yes,768,legacy,44,44,C:/Users/hosan/Desktop/TB_subject-04.csv,xpyriment,Kafkaesque Koffka,3.2.8,0,s,NA,s,NA,NA,s,558,NA,2395,NA,NA,558,2,legacy,1024,2,48000,-16,experiment,HHSHH,4,even,14659,NA,NA,145817,NA,NA,148492,146323,12262,NA,NA,148599,12237,148599,149158,148468,Flanker Task ,43,21898,45,yes,1024
95.65217391,95.65217391,486.0217391,486.0217391,black,xpyriment,legacy,legacy,0,Congruent,uniform,1,undefined,1,s,0,0,0,45,45,0,45,45,0,0,0,45,0,45,45,45,9/26/19 11:20,1500,The main experiment item,yes,FlankerTask.osexp,C:\Users\hosan\Desktop,no,mono,no,18,no,white,no,yes,768,legacy,45,45,C:/Users/hosan/Desktop/TB_subject-04.csv,xpyriment,Kafkaesque Koffka,3.2.8,0,s,NA,s,NA,NA,s,459,NA,2395,NA,NA,459,2,legacy,1024,2,48000,-16,experiment,SSSSS,4,even,14659,NA,NA,145817,NA,NA,151522,149357,12262,NA,NA,151630,12237,151630,152090,151499,Flanker Task ,44,22357,46,yes,1024
95.74468085,95.74468085,485.5957447,485.5957447,black,xpyriment,legacy,legacy,0,Incongruent,uniform,1,undefined,1,s,0,0,0,46,46,0,46,46,0,0,0,46,0,46,46,46,9/26/19 11:20,1500,The main experiment item,yes,FlankerTask.osexp,C:\Users\hosan\Desktop,no,mono,no,18,no,white,no,yes,768,legacy,46,46,C:/Users/hosan/Desktop/TB_subject-04.csv,xpyriment,Kafkaesque Koffka,3.2.8,0,s,NA,s,NA,NA,s,466,NA,2395,NA,NA,466,2,legacy,1024,2,48000,-16,experiment,HHSHH,4,even,14659,NA,NA,145817,NA,NA,154558,152414,12262,NA,NA,154663,12237,154663,155130,154534,Flanker Task ,45,22823,47,yes,1024
95.83333333,95.83333333,484.0625,484.0625,black,xpyriment,legacy,legacy,0,Congruent,uniform,1,undefined,1,s,0,0,0,47,47,0,47,47,0,0,0,47,0,47,47,47,9/26/19 11:20,1500,The main experiment item,yes,FlankerTask.osexp,C:\Users\hosan\Desktop,no,mono,no,18,no,white,no,yes,768,legacy,47,47,C:/Users/hosan/Desktop/TB_subject-04.csv,xpyriment,Kafkaesque Koffka,3.2.8,0,s,NA,s,NA,NA,s,412,NA,2395,NA,NA,412,2,legacy,1024,2,48000,-16,experiment,SSSSS,4,even,14659,NA,NA,145817,NA,NA,157503,155424,12262,NA,NA,157608,12237,157608,158021,157479,Flanker Task ,46,23235,48,yes,1024
95.91836735,95.91836735,483.9591837,483.9591837,black,xpyriment,legacy,legacy,0,Incongruent,uniform,1,undefined,1,h,0,0,0,48,48,0,48,48,0,0,0,48,0,48,48,48,9/26/19 11:20,1500,The main experiment item,yes,FlankerTask.osexp,C:\Users\hosan\Desktop,no,mono,no,18,no,white,no,yes,768,legacy,48,48,C:/Users/hosan/Desktop/TB_subject-04.csv,xpyriment,Kafkaesque Koffka,3.2.8,0,h,NA,s,NA,NA,h,479,NA,2395,NA,NA,479,2,legacy,1024,2,48000,-16,experiment,SSHSS,4,even,14659,NA,NA,145817,NA,NA,160702,158250,12262,NA,NA,160810,12237,160810,161290,160679,Flanker Task ,47,23714,49,yes,1024
96,96,484.16,484.16,black,xpyriment,legacy,legacy,0,Congruent,uniform,1,undefined,1,h,0,0,0,49,49,0,49,49,0,0,0,49,0,49,49,49,9/26/19 11:20,1500,The main experiment item,yes,FlankerTask.osexp,C:\Users\hosan\Desktop,no,mono,no,18,no,white,no,yes,768,legacy,49,49,C:/Users/hosan/Desktop/TB_subject-04.csv,xpyriment,Kafkaesque Koffka,3.2.8,0,h,NA,s,NA,NA,h,494,NA,2395,NA,NA,494,2,legacy,1024,2,48000,-16,experiment,HHHHH,4,even,14659,NA,NA,145817,NA,NA,163500,161450,12262,NA,NA,163606,12237,163606,164100,163477,Flanker Task ,48,24208,50,yes,1024
96.07843137,96.07843137,483.2941176,483.2941176,black,xpyriment,legacy,legacy,0,Congruent,uniform,1,undefined,1,s,0,0,0,50,50,0,50,50,0,0,0,50,0,50,50,50,9/26/19 11:20,1500,The main experiment item,yes,FlankerTask.osexp,C:\Users\hosan\Desktop,no,mono,no,18,no,white,no,yes,768,legacy,50,50,C:/Users/hosan/Desktop/TB_subject-04.csv,xpyriment,Kafkaesque Koffka,3.2.8,0,s,NA,s,NA,NA,s,440,NA,2395,NA,NA,440,2,legacy,1024,2,48000,-16,experiment,SSSSS,4,even,14659,NA,NA,145817,NA,NA,166396,164345,12262,NA,NA,166504,12237,166504,166945,166371,Flanker Task ,49,24648,51,yes,1024
96.15384615,96.15384615,482.25,482.25,black,xpyriment,legacy,legacy,0,Congruent,uniform,1,undefined,1,s,0,0,0,51,51,0,51,51,0,0,0,51,0,51,51,51,9/26/19 11:20,1500,The main experiment item,yes,FlankerTask.osexp,C:\Users\hosan\Desktop,no,mono,no,18,no,white,no,yes,768,legacy,51,51,C:/Users/hosan/Desktop/TB_subject-04.csv,xpyriment,Kafkaesque Koffka,3.2.8,0,s,NA,s,NA,NA,s,429,NA,2395,NA,NA,429,2,legacy,1024,2,48000,-16,experiment,SSSSS,4,even,14659,NA,NA,145817,NA,NA,169346,167330,12262,NA,NA,169453,12237,169453,169883,169322,Flanker Task ,50,25077,52,yes,1024
96.22641509,96.22641509,484.6603774,484.6603774,black,xpyriment,legacy,legacy,0,Incongruent,uniform,1,undefined,1,s,0,0,0,52,52,0,52,52,0,0,0,52,0,52,52,52,9/26/19 11:20,1500,The main experiment item,yes,FlankerTask.osexp,C:\Users\hosan\Desktop,no,mono,no,18,no,white,no,yes,768,legacy,52,52,C:/Users/hosan/Desktop/TB_subject-04.csv,xpyriment,Kafkaesque Koffka,3.2.8,0,s,NA,s,NA,NA,s,610,NA,2395,NA,NA,610,2,legacy,1024,2,48000,-16,experiment,HHSHH,4,even,14659,NA,NA,145817,NA,NA,172231,170215,12262,NA,NA,172339,12237,172339,172950,172206,Flanker Task ,51,25687,53,yes,1024
96.2962963,96.2962963,487.6666667,487.6666667,black,xpyriment,legacy,legacy,0,Congruent,uniform,1,undefined,1,h,0,0,0,53,53,0,53,53,0,0,0,53,0,53,53,53,9/26/19 11:20,1500,The main experiment item,yes,FlankerTask.osexp,C:\Users\hosan\Desktop,no,mono,no,18,no,white,no,yes,768,legacy,53,53,C:/Users/hosan/Desktop/TB_subject-04.csv,xpyriment,Kafkaesque Koffka,3.2.8,0,h,NA,s,NA,NA,h,647,NA,2395,NA,NA,647,2,legacy,1024,2,48000,-16,experiment,HHHHH,4,even,14659,NA,NA,145817,NA,NA,175812,173247,12262,NA,NA,175919,12237,175919,176567,175787,Flanker Task ,52,26334,54,yes,1024
96.36363636,96.36363636,486.8545455,486.8545455,black,xpyriment,legacy,legacy,0,Congruent,uniform,1,undefined,1,h,0,0,0,54,54,0,54,54,0,0,0,54,0,54,54,54,9/26/19 11:20,1500,The main experiment item,yes,FlankerTask.osexp,C:\Users\hosan\Desktop,no,mono,no,18,no,white,no,yes,768,legacy,54,54,C:/Users/hosan/Desktop/TB_subject-04.csv,xpyriment,Kafkaesque Koffka,3.2.8,0,h,NA,s,NA,NA,h,443,NA,2395,NA,NA,443,2,legacy,1024,2,48000,-16,experiment,HHHHH,4,even,14659,NA,NA,145817,NA,NA,178987,176694,12262,NA,NA,179094,12237,179094,179538,178961,Flanker Task ,53,26777,55,yes,1024
96.42857143,96.42857143,487.2857143,487.2857143,black,xpyriment,legacy,legacy,0,Congruent,uniform,1,undefined,1,h,0,0,0,55,55,0,55,55,0,0,0,55,0,55,55,55,9/26/19 11:20,1500,The main experiment item,yes,FlankerTask.osexp,C:\Users\hosan\Desktop,no,mono,no,18,no,white,no,yes,768,legacy,55,55,C:/Users/hosan/Desktop/TB_subject-04.csv,xpyriment,Kafkaesque Koffka,3.2.8,0,h,NA,s,NA,NA,h,511,NA,2395,NA,NA,511,2,legacy,1024,2,48000,-16,experiment,HHHHH,4,even,14659,NA,NA,145817,NA,NA,181824,179786,12262,NA,NA,181932,12237,181932,182444,181800,Flanker Task ,54,27288,56,yes,1024
96.49122807,96.49122807,487,487,black,xpyriment,legacy,legacy,0,Incongruent,uniform,1,undefined,1,h,0,0,0,56,56,0,56,56,0,0,0,56,0,56,56,56,9/26/19 11:20,1500,The main experiment item,yes,FlankerTask.osexp,C:\Users\hosan\Desktop,no,mono,no,18,no,white,no,yes,768,legacy,56,56,C:/Users/hosan/Desktop/TB_subject-04.csv,xpyriment,Kafkaesque Koffka,3.2.8,0,h,NA,s,NA,NA,h,471,NA,2395,NA,NA,471,2,legacy,1024,2,48000,-16,experiment,SSHSS,4,even,14659,NA,NA,145817,NA,NA,184915,182725,12262,NA,NA,185022,12237,185022,185494,184892,Flanker Task ,55,27759,57,yes,1024
96.55172414,96.55172414,486.6896552,486.6896552,black,xpyriment,legacy,legacy,0,Incongruent,uniform,1,undefined,1,h,0,0,0,57,57,0,57,57,0,0,0,57,0,57,57,57,9/26/19 11:20,1500,The main experiment item,yes,FlankerTask.osexp,C:\Users\hosan\Desktop,no,mono,no,18,no,white,no,yes,768,legacy,57,57,C:/Users/hosan/Desktop/TB_subject-04.csv,xpyriment,Kafkaesque Koffka,3.2.8,0,h,NA,s,NA,NA,h,469,NA,2395,NA,NA,469,2,legacy,1024,2,48000,-16,experiment,SSHSS,4,even,14659,NA,NA,145817,NA,NA,187705,185704,12262,NA,NA,187812,12237,187812,188282,187681,Flanker Task ,56,28228,58,yes,1024
96.61016949,96.61016949,488.2542373,488.2542373,black,xpyriment,legacy,legacy,0,Congruent,uniform,1,undefined,1,h,0,0,0,58,58,0,58,58,0,0,0,58,0,58,58,58,9/26/19 11:20,1500,The main experiment item,yes,FlankerTask.osexp,C:\Users\hosan\Desktop,no,mono,no,18,no,white,no,yes,768,legacy,58,58,C:/Users/hosan/Desktop/TB_subject-04.csv,xpyriment,Kafkaesque Koffka,3.2.8,0,h,NA,s,NA,NA,h,579,NA,2395,NA,NA,579,2,legacy,1024,2,48000,-16,experiment,HHHHH,4,even,14659,NA,NA,145817,NA,NA,190714,188651,12262,NA,NA,190820,12237,190820,191400,190690,Flanker Task ,57,28807,59,yes,1024
96.66666667,96.66666667,487.5666667,487.5666667,black,xpyriment,legacy,legacy,0,Congruent,uniform,1,undefined,1,h,0,0,0,59,59,0,59,59,0,0,0,59,0,59,59,59,9/26/19 11:20,1500,The main experiment item,yes,FlankerTask.osexp,C:\Users\hosan\Desktop,no,mono,no,18,no,white,no,yes,768,legacy,59,59,C:/Users/hosan/Desktop/TB_subject-04.csv,xpyriment,Kafkaesque Koffka,3.2.8,0,h,NA,s,NA,NA,h,447,NA,2395,NA,NA,447,2,legacy,1024,2,48000,-16,experiment,HHHHH,4,even,14659,NA,NA,145817,NA,NA,193791,191758,12262,NA,NA,193897,12237,193897,194345,193767,Flanker Task ,58,29254,60,yes,1024
96.72131148,96.72131148,489.9508197,489.9508197,black,xpyriment,legacy,legacy,0,Incongruent,uniform,1,undefined,1,s,0,0,0,60,60,0,60,60,0,0,0,60,0,60,60,60,9/26/19 11:20,1500,The main experiment item,yes,FlankerTask.osexp,C:\Users\hosan\Desktop,no,mono,no,18,no,white,no,yes,768,legacy,60,60,C:/Users/hosan/Desktop/TB_subject-04.csv,xpyriment,Kafkaesque Koffka,3.2.8,0,s,NA,s,NA,NA,s,633,NA,2395,NA,NA,633,2,legacy,1024,2,48000,-16,experiment,HHSHH,4,even,14659,NA,NA,145817,NA,NA,196762,194722,12262,NA,NA,196868,12237,196869,197503,196739,Flanker Task ,59,29887,61,yes,1024
96.77419355,96.77419355,489.6774194,489.6774194,black,xpyriment,legacy,legacy,0,Congruent,uniform,1,undefined,1,s,0,0,0,61,61,0,61,61,0,0,0,61,0,61,61,61,9/26/19 11:20,1500,The main experiment item,yes,FlankerTask.osexp,C:\Users\hosan\Desktop,no,mono,no,18,no,white,no,yes,768,legacy,61,61,C:/Users/hosan/Desktop/TB_subject-04.csv,xpyriment,Kafkaesque Koffka,3.2.8,0,s,NA,s,NA,NA,s,473,NA,2395,NA,NA,473,2,legacy,1024,2,48000,-16,experiment,SSSSS,4,even,14659,NA,NA,145817,NA,NA,199861,197824,12262,NA,NA,199967,12237,199967,200442,199837,Flanker Task ,60,30360,62,yes,1024
96.82539683,96.82539683,488,488,black,xpyriment,legacy,legacy,0,Congruent,uniform,1,undefined,1,s,0,0,0,62,62,0,62,62,0,0,0,62,0,62,62,62,9/26/19 11:20,1500,The main experiment item,yes,FlankerTask.osexp,C:\Users\hosan\Desktop,no,mono,no,18,no,white,no,yes,768,legacy,62,62,C:/Users/hosan/Desktop/TB_subject-04.csv,xpyriment,Kafkaesque Koffka,3.2.8,0,s,NA,s,NA,NA,s,384,NA,2395,NA,NA,384,2,legacy,1024,2,48000,-16,experiment,SSSSS,4,even,14659,NA,NA,145817,NA,NA,202572,200548,12262,NA,NA,202679,12237,202679,203064,202547,Flanker Task ,61,30744,63,yes,1024
96.875,96.875,487.25,487.25,black,xpyriment,legacy,legacy,0,Incongruent,uniform,1,undefined,1,h,0,0,0,63,63,0,63,63,0,0,0,63,0,63,63,63,9/26/19 11:20,1500,The main experiment item,yes,FlankerTask.osexp,C:\Users\hosan\Desktop,no,mono,no,18,no,white,no,yes,768,legacy,63,63,C:/Users/hosan/Desktop/TB_subject-04.csv,xpyriment,Kafkaesque Koffka,3.2.8,0,h,NA,s,NA,NA,h,440,NA,2395,NA,NA,440,2,legacy,1024,2,48000,-16,experiment,SSHSS,4,even,14659,NA,NA,145817,NA,NA,205563,203515,12262,NA,NA,205670,12237,205670,206112,205540,Flanker Task ,62,31184,64,yes,1024
96.92307692,96.92307692,485.9384615,485.9384615,black,xpyriment,legacy,legacy,0,Congruent,uniform,1,undefined,1,s,0,0,0,64,64,0,64,64,0,0,0,64,0,64,64,64,9/26/19 11:20,1500,The main experiment item,yes,FlankerTask.osexp,C:\Users\hosan\Desktop,no,mono,no,18,no,white,no,yes,768,legacy,64,64,C:/Users/hosan/Desktop/TB_subject-04.csv,xpyriment,Kafkaesque Koffka,3.2.8,0,s,NA,s,NA,NA,s,402,NA,2395,NA,NA,402,2,legacy,1024,2,48000,-16,experiment,SSSSS,4,even,14659,NA,NA,145817,NA,NA,208219,206169,12262,NA,NA,208326,12237,208326,208729,208196,Flanker Task ,63,31586,65,yes,1024
96.96969697,96.96969697,485.6212121,485.6212121,black,xpyriment,legacy,legacy,0,Congruent,uniform,1,undefined,1,s,0,0,0,65,65,0,65,65,0,0,0,65,0,65,65,65,9/26/19 11:20,1500,The main experiment item,yes,FlankerTask.osexp,C:\Users\hosan\Desktop,no,mono,no,18,no,white,no,yes,768,legacy,65,65,C:/Users/hosan/Desktop/TB_subject-04.csv,xpyriment,Kafkaesque Koffka,3.2.8,0,s,NA,s,NA,NA,s,465,NA,2395,NA,NA,465,2,legacy,1024,2,48000,-16,experiment,SSSSS,4,even,14659,NA,NA,145817,NA,NA,211011,208930,12262,NA,NA,211117,12237,211117,211584,210986,Flanker Task ,64,32051,66,yes,1024
97.01492537,97.01492537,484.6268657,484.6268657,black,xpyriment,legacy,legacy,0,Incongruent,uniform,1,undefined,1,h,0,0,0,66,66,0,66,66,0,0,0,66,0,66,66,66,9/26/19 11:20,1500,The main experiment item,yes,FlankerTask.osexp,C:\Users\hosan\Desktop,no,mono,no,18,no,white,no,yes,768,legacy,66,66,C:/Users/hosan/Desktop/TB_subject-04.csv,xpyriment,Kafkaesque Koffka,3.2.8,0,h,NA,s,NA,NA,h,419,NA,2395,NA,NA,419,2,legacy,1024,2,48000,-16,experiment,SSHSS,4,even,14659,NA,NA,145817,NA,NA,214105,211939,12262,NA,NA,214212,12237,214212,214633,214080,Flanker Task ,65,32470,67,yes,1024
97.05882353,97.05882353,483.4117647,483.4117647,black,xpyriment,legacy,legacy,0,Incongruent,uniform,1,undefined,1,h,0,0,0,67,67,0,67,67,0,0,0,67,0,67,67,67,9/26/19 11:20,1500,The main experiment item,yes,FlankerTask.osexp,C:\Users\hosan\Desktop,no,mono,no,18,no,white,no,yes,768,legacy,67,67,C:/Users/hosan/Desktop/TB_subject-04.csv,xpyriment,Kafkaesque Koffka,3.2.8,0,h,NA,s,NA,NA,h,402,NA,2395,NA,NA,402,2,legacy,1024,2,48000,-16,experiment,SSHSS,4,even,14659,NA,NA,145817,NA,NA,217039,214918,12262,NA,NA,217145,12237,217145,217548,217016,Flanker Task ,66,32872,68,yes,1024
97.10144928,97.10144928,482.6086957,482.6086957,black,xpyriment,legacy,legacy,0,Congruent,uniform,1,undefined,1,h,0,0,0,68,68,0,68,68,0,0,0,68,0,68,68,68,9/26/19 11:20,1500,The main experiment item,yes,FlankerTask.osexp,C:\Users\hosan\Desktop,no,mono,no,18,no,white,no,yes,768,legacy,68,68,C:/Users/hosan/Desktop/TB_subject-04.csv,xpyriment,Kafkaesque Koffka,3.2.8,0,h,NA,s,NA,NA,h,428,NA,2395,NA,NA,428,2,legacy,1024,2,48000,-16,experiment,HHHHH,4,even,14659,NA,NA,145817,NA,NA,220026,217597,12262,NA,NA,220133,12237,220133,220563,220001,Flanker Task ,67,33300,69,yes,1024
97.14285714,97.14285714,484.5285714,484.5285714,black,xpyriment,legacy,legacy,0,Incongruent,uniform,1,undefined,1,s,0,0,0,69,69,0,69,69,0,0,0,69,0,69,69,69,9/26/19 11:20,1500,The main experiment item,yes,FlankerTask.osexp,C:\Users\hosan\Desktop,no,mono,no,18,no,white,no,yes,768,legacy,69,69,C:/Users/hosan/Desktop/TB_subject-04.csv,xpyriment,Kafkaesque Koffka,3.2.8,0,s,NA,s,NA,NA,s,617,NA,2395,NA,NA,617,2,legacy,1024,2,48000,-16,experiment,HHSHH,4,even,14659,NA,NA,145817,NA,NA,223061,220826,12262,NA,NA,223166,12237,223167,223786,223036,Flanker Task ,68,33917,70,yes,1024
97.18309859,97.18309859,483.4788732,483.4788732,black,xpyriment,legacy,legacy,0,Congruent,uniform,1,undefined,1,s,0,0,0,70,70,0,70,70,0,0,0,70,0,70,70,70,9/26/19 11:20,1500,The main experiment item,yes,FlankerTask.osexp,C:\Users\hosan\Desktop,no,mono,no,18,no,white,no,yes,768,legacy,70,70,C:/Users/hosan/Desktop/TB_subject-04.csv,xpyriment,Kafkaesque Koffka,3.2.8,0,s,NA,s,NA,NA,s,410,NA,2395,NA,NA,410,2,legacy,1024,2,48000,-16,experiment,SSSSS,4,even,14659,NA,NA,145817,NA,NA,226123,223911,12262,NA,NA,226230,12237,226230,226642,226099,Flanker Task ,69,34327,71,yes,1024
97.22222222,97.22222222,483.3611111,483.3611111,black,xpyriment,legacy,legacy,0,Incongruent,uniform,1,undefined,1,h,0,0,0,71,71,0,71,71,0,0,0,71,0,71,71,71,9/26/19 11:20,1500,The main experiment item,yes,FlankerTask.osexp,C:\Users\hosan\Desktop,no,mono,no,18,no,white,no,yes,768,legacy,71,71,C:/Users/hosan/Desktop/TB_subject-04.csv,xpyriment,Kafkaesque Koffka,3.2.8,0,h,NA,s,NA,NA,h,475,NA,2395,NA,NA,475,2,legacy,1024,2,48000,-16,experiment,SSHSS,4,even,14659,NA,NA,145817,NA,NA,228850,226695,12262,NA,NA,228957,12237,228957,229433,228826,Flanker Task ,70,34802,72,yes,1024
97.26027397,97.26027397,482.2876712,482.2876712,black,xpyriment,legacy,legacy,0,Congruent,uniform,1,undefined,1,h,0,0,0,72,72,0,72,72,0,0,0,72,0,72,72,72,9/26/19 11:20,1500,The main experiment item,yes,FlankerTask.osexp,C:\Users\hosan\Desktop,no,mono,no,18,no,white,no,yes,768,legacy,72,72,C:/Users/hosan/Desktop/TB_subject-04.csv,xpyriment,Kafkaesque Koffka,3.2.8,0,h,NA,s,NA,NA,h,405,NA,2395,NA,NA,405,2,legacy,1024,2,48000,-16,experiment,HHHHH,4,even,14659,NA,NA,145817,NA,NA,231782,229594,12262,NA,NA,231889,12237,231889,232295,231757,Flanker Task ,71,35207,73,yes,1024
97.2972973,97.2972973,481.9054054,481.9054054,black,xpyriment,legacy,legacy,0,Incongruent,uniform,1,undefined,1,h,0,0,0,73,73,0,73,73,0,0,0,73,0,73,73,73,9/26/19 11:20,1500,The main experiment item,yes,FlankerTask.osexp,C:\Users\hosan\Desktop,no,mono,no,18,no,white,no,yes,768,legacy,73,73,C:/Users/hosan/Desktop/TB_subject-04.csv,xpyriment,Kafkaesque Koffka,3.2.8,0,h,NA,s,NA,NA,h,454,NA,2395,NA,NA,454,2,legacy,1024,2,48000,-16,experiment,SSHSS,4,even,14659,NA,NA,145817,NA,NA,234677,232556,12262,NA,NA,234784,12237,234784,235239,234652,Flanker Task ,72,35661,74,yes,1024
97.33333333,97.33333333,481.28,481.28,black,xpyriment,legacy,legacy,0,Congruent,uniform,1,undefined,1,h,0,0,0,74,74,0,74,74,0,0,0,74,0,74,74,74,9/26/19 11:20,1500,The main experiment item,yes,FlankerTask.osexp,C:\Users\hosan\Desktop,no,mono,no,18,no,white,no,yes,768,legacy,74,74,C:/Users/hosan/Desktop/TB_subject-04.csv,xpyriment,Kafkaesque Koffka,3.2.8,0,h,NA,s,NA,NA,h,435,NA,2395,NA,NA,435,2,legacy,1024,2,48000,-16,experiment,HHHHH,4,even,14659,NA,NA,145817,NA,NA,237689,235511,12262,NA,NA,237796,12237,237796,238233,237665,Flanker Task ,73,36096,75,yes,1024
97.36842105,97.36842105,480.6973684,480.6973684,black,xpyriment,legacy,legacy,0,Incongruent,uniform,1,undefined,1,s,0,0,0,75,75,0,75,75,0,0,0,75,0,75,75,75,9/26/19 11:20,1500,The main experiment item,yes,FlankerTask.osexp,C:\Users\hosan\Desktop,no,mono,no,18,no,white,no,yes,768,legacy,75,75,C:/Users/hosan/Desktop/TB_subject-04.csv,xpyriment,Kafkaesque Koffka,3.2.8,0,s,NA,s,NA,NA,s,437,NA,2395,NA,NA,437,2,legacy,1024,2,48000,-16,experiment,HHSHH,4,even,14659,NA,NA,145817,NA,NA,240451,238316,12262,NA,NA,240557,12237,240557,240995,240426,Flanker Task ,74,36533,76,yes,1024
97.4025974,97.4025974,480.3246753,480.3246753,black,xpyriment,legacy,legacy,0,Congruent,uniform,1,undefined,1,s,0,0,0,76,76,0,76,76,0,0,0,76,0,76,76,76,9/26/19 11:20,1500,The main experiment item,yes,FlankerTask.osexp,C:\Users\hosan\Desktop,no,mono,no,18,no,white,no,yes,768,legacy,76,76,C:/Users/hosan/Desktop/TB_subject-04.csv,xpyriment,Kafkaesque Koffka,3.2.8,0,s,NA,s,NA,NA,s,452,NA,2395,NA,NA,452,2,legacy,1024,2,48000,-16,experiment,SSSSS,4,even,14659,NA,NA,145817,NA,NA,243127,241031,12262,NA,NA,243234,12237,243234,243688,243102,Flanker Task ,75,36985,77,yes,1024
97.43589744,97.43589744,479.5769231,479.5769231,black,xpyriment,legacy,legacy,0,Congruent,uniform,1,undefined,1,s,0,0,0,77,77,0,77,77,0,0,0,77,0,77,77,77,9/26/19 11:20,1500,The main experiment item,yes,FlankerTask.osexp,C:\Users\hosan\Desktop,no,mono,no,18,no,white,no,yes,768,legacy,77,77,C:/Users/hosan/Desktop/TB_subject-04.csv,xpyriment,Kafkaesque Koffka,3.2.8,0,s,NA,s,NA,NA,s,422,NA,2395,NA,NA,422,2,legacy,1024,2,48000,-16,experiment,SSSSS,4,even,14659,NA,NA,145817,NA,NA,245982,243847,12262,NA,NA,246088,12237,246088,246511,245957,Flanker Task ,76,37407,78,yes,1024
97.46835443,97.46835443,478.7848101,478.7848101,black,xpyriment,legacy,legacy,0,Congruent,uniform,1,undefined,1,h,0,0,0,78,78,0,78,78,0,0,0,78,0,78,78,78,9/26/19 11:20,1500,The main experiment item,yes,FlankerTask.osexp,C:\Users\hosan\Desktop,no,mono,no,18,no,white,no,yes,768,legacy,78,78,C:/Users/hosan/Desktop/TB_subject-04.csv,xpyriment,Kafkaesque Koffka,3.2.8,0,h,NA,s,NA,NA,h,417,NA,2395,NA,NA,417,2,legacy,1024,2,48000,-16,experiment,HHHHH,4,even,14659,NA,NA,145817,NA,NA,248753,246565,12262,NA,NA,248859,12237,248859,249277,248728,Flanker Task ,77,37824,79,yes,1024
97.5,97.5,477.825,477.825,black,xpyriment,legacy,legacy,0,Incongruent,uniform,1,undefined,1,h,0,0,0,79,79,0,79,79,0,0,0,79,0,79,79,79,9/26/19 11:20,1500,The main experiment item,yes,FlankerTask.osexp,C:\Users\hosan\Desktop,no,mono,no,18,no,white,no,yes,768,legacy,79,79,C:/Users/hosan/Desktop/TB_subject-04.csv,xpyriment,Kafkaesque Koffka,3.2.8,0,h,NA,s,NA,NA,h,402,NA,2395,NA,NA,402,2,legacy,1024,2,48000,-16,experiment,SSHSS,4,even,14659,NA,NA,145817,NA,NA,251397,249310,12262,NA,NA,251502,12237,251503,251907,251372,Flanker Task ,78,38226,80,yes,1024
97.5308642,97.5308642,478.1851852,478.1851852,black,xpyriment,legacy,legacy,0,Incongruent,uniform,1,undefined,1,h,0,0,0,80,80,0,80,80,0,0,0,80,0,80,80,80,9/26/19 11:20,600,The main experiment item,yes,FlankerTask.osexp,C:\Users\hosan\Desktop,no,mono,no,18,no,white,no,yes,768,legacy,0,79,C:/Users/hosan/Desktop/TB_subject-04.csv,xpyriment,Kafkaesque Koffka,3.2.8,0,h,NA,s,s,NA,h,507,NA,2395,1927,NA,507,2,legacy,1024,2,48000,-16,experiment,SSHSS,4,even,14659,254946,NA,145817,NA,NA,256021,251957,12262,253018,NA,256128,12237,256128,256636,255997,Flanker Task ,79,38733,81,yes,1024
97.56097561,97.56097561,477.8536585,477.8536585,black,xpyriment,legacy,legacy,0,Incongruent,uniform,1,undefined,1,h,0,0,0,81,81,0,81,81,0,0,0,81,0,81,81,81,9/26/19 11:20,600,The main experiment item,yes,FlankerTask.osexp,C:\Users\hosan\Desktop,no,mono,no,18,no,white,no,yes,768,legacy,1,79,C:/Users/hosan/Desktop/TB_subject-04.csv,xpyriment,Kafkaesque Koffka,3.2.8,0,h,NA,s,s,NA,h,451,NA,2395,1927,NA,451,2,legacy,1024,2,48000,-16,experiment,SSHSS,4,even,14659,254946,NA,145817,NA,NA,258801,256672,12262,253018,NA,258908,12237,258908,259360,258777,Flanker Task ,80,39184,82,yes,1024
97.59036145,97.59036145,477.9759036,477.9759036,black,xpyriment,legacy,legacy,0,Incongruent,uniform,1,undefined,1,s,0,0,0,82,82,0,82,82,0,0,0,82,0,82,82,82,9/26/19 11:20,600,The main experiment item,yes,FlankerTask.osexp,C:\Users\hosan\Desktop,no,mono,no,18,no,white,no,yes,768,legacy,2,79,C:/Users/hosan/Desktop/TB_subject-04.csv,xpyriment,Kafkaesque Koffka,3.2.8,0,s,NA,s,s,NA,s,488,NA,2395,1927,NA,488,2,legacy,1024,2,48000,-16,experiment,HHSHH,4,even,14659,254946,NA,145817,NA,NA,261479,259395,12262,253018,NA,261586,12237,261586,262076,261453,Flanker Task ,81,39672,83,yes,1024
97.61904762,97.61904762,477.4166667,477.4166667,black,xpyriment,legacy,legacy,0,Incongruent,uniform,1,undefined,1,h,0,0,0,83,83,0,83,83,0,0,0,83,0,83,83,83,9/26/19 11:20,600,The main experiment item,yes,FlankerTask.osexp,C:\Users\hosan\Desktop,no,mono,no,18,no,white,no,yes,768,legacy,3,79,C:/Users/hosan/Desktop/TB_subject-04.csv,xpyriment,Kafkaesque Koffka,3.2.8,0,h,NA,s,s,NA,h,431,NA,2395,1927,NA,431,2,legacy,1024,2,48000,-16,experiment,SSHSS,4,even,14659,254946,NA,145817,NA,NA,264261,262130,12262,253018,NA,264367,12237,264368,264800,264237,Flanker Task ,82,40103,84,yes,1024
97.64705882,97.64705882,476.6352941,476.6352941,black,xpyriment,legacy,legacy,0,Congruent,uniform,1,undefined,1,h,0,0,0,84,84,0,84,84,0,0,0,84,0,84,84,84,9/26/19 11:20,600,The main experiment item,yes,FlankerTask.osexp,C:\Users\hosan\Desktop,no,mono,no,18,no,white,no,yes,768,legacy,4,79,C:/Users/hosan/Desktop/TB_subject-04.csv,xpyriment,Kafkaesque Koffka,3.2.8,0,h,NA,s,s,NA,h,411,NA,2395,1927,NA,411,2,legacy,1024,2,48000,-16,experiment,HHHHH,4,even,14659,254946,NA,145817,NA,NA,266979,264831,12262,253018,NA,267086,12237,267086,267499,266955,Flanker Task ,83,40514,85,yes,1024
97.6744186,97.6744186,484.6860465,484.6860465,black,xpyriment,legacy,legacy,0,Incongruent,uniform,1,undefined,1,h,0,0,0,85,85,0,85,85,0,0,0,85,0,85,85,85,9/26/19 11:20,600,The main experiment item,yes,FlankerTask.osexp,C:\Users\hosan\Desktop,no,mono,no,18,no,white,no,yes,768,legacy,5,79,C:/Users/hosan/Desktop/TB_subject-04.csv,xpyriment,Kafkaesque Koffka,3.2.8,0,h,NA,s,s,NA,h,1169,NA,2395,1927,NA,1169,2,legacy,1024,2,48000,-16,experiment,SSHSS,4,even,14659,254946,NA,145817,NA,NA,269622,267533,12262,253018,NA,269729,12237,269729,270899,269597,Flanker Task ,84,41683,86,yes,1024
96.55172414,96.55172414,483.4482759,483.4482759,black,xpyriment,legacy,legacy,0,Congruent,uniform,0,undefined,0,h,0,0,0,86,86,0,86,86,0,0,0,86,0,86,86,86,9/26/19 11:20,600,The main experiment item,yes,FlankerTask.osexp,C:\Users\hosan\Desktop,no,mono,no,18,no,white,no,yes,768,legacy,6,79,C:/Users/hosan/Desktop/TB_subject-04.csv,xpyriment,Kafkaesque Koffka,3.2.8,0,s,NA,s,s,NA,s,377,NA,2395,1927,NA,377,2,legacy,1024,2,48000,-16,experiment,HHHHH,4,even,14659,254946,NA,145817,270931,NA,273541,271437,12262,253018,NA,273648,12237,273648,274028,273517,Flanker Task ,84,42060,87,yes,1024
96.59090909,96.59090909,484.625,484.625,black,xpyriment,legacy,legacy,0,Incongruent,uniform,1,undefined,1,s,0,0,0,87,87,0,87,87,0,0,0,87,0,87,87,87,9/26/19 11:20,600,The main experiment item,yes,FlankerTask.osexp,C:\Users\hosan\Desktop,no,mono,no,18,no,white,no,yes,768,legacy,7,79,C:/Users/hosan/Desktop/TB_subject-04.csv,xpyriment,Kafkaesque Koffka,3.2.8,0,s,NA,s,s,NA,s,587,NA,2395,1927,NA,587,2,legacy,1024,2,48000,-16,experiment,HHSHH,4,even,14659,254946,NA,274160,270931,NA,276833,274666,12262,253018,NA,276940,12237,276940,277528,276808,Flanker Task ,85,42647,88,yes,1024
96.62921348,96.62921348,485,485,black,xpyriment,legacy,legacy,0,Incongruent,uniform,1,undefined,1,h,0,0,0,88,88,0,88,88,0,0,0,88,0,88,88,88,9/26/19 11:20,600,The main experiment item,yes,FlankerTask.osexp,C:\Users\hosan\Desktop,no,mono,no,18,no,white,no,yes,768,legacy,8,79,C:/Users/hosan/Desktop/TB_subject-04.csv,xpyriment,Kafkaesque Koffka,3.2.8,0,h,NA,s,s,NA,h,518,NA,2395,1927,NA,518,2,legacy,1024,2,48000,-16,experiment,SSHSS,4,even,14659,254946,NA,274160,270931,NA,279721,277595,12262,253018,NA,279828,12237,279828,280347,279697,Flanker Task ,86,43165,89,yes,1024
96.66666667,96.66666667,484.8888889,484.8888889,black,xpyriment,legacy,legacy,0,Congruent,uniform,1,undefined,1,s,0,0,0,89,89,0,89,89,0,0,0,89,0,89,89,89,9/26/19 11:20,600,The main experiment item,yes,FlankerTask.osexp,C:\Users\hosan\Desktop,no,mono,no,18,no,white,no,yes,768,legacy,9,79,C:/Users/hosan/Desktop/TB_subject-04.csv,xpyriment,Kafkaesque Koffka,3.2.8,0,s,NA,s,s,NA,s,475,NA,2395,1927,NA,475,2,legacy,1024,2,48000,-16,experiment,SSSSS,4,even,14659,254946,NA,274160,270931,NA,282585,280417,12262,253018,NA,282692,12237,282692,283169,282560,Flanker Task ,87,43640,90,yes,1024
95.6043956,95.6043956,484.3406593,484.3406593,black,xpyriment,legacy,legacy,0,Incongruent,uniform,0,undefined,0,s,0,0,0,90,90,0,90,90,0,0,0,90,0,90,90,90,9/26/19 11:20,600,The main experiment item,yes,FlankerTask.osexp,C:\Users\hosan\Desktop,no,mono,no,18,no,white,no,yes,768,legacy,10,79,C:/Users/hosan/Desktop/TB_subject-04.csv,xpyriment,Kafkaesque Koffka,3.2.8,0,h,NA,s,s,NA,h,435,NA,2395,1927,NA,435,2,legacy,1024,2,48000,-16,experiment,HHSHH,4,even,14659,254946,NA,274160,270931,NA,285419,283240,12262,253018,NA,285526,12237,285526,285963,285394,Flanker Task ,87,44075,91,yes,1024
95.65217391,95.65217391,483.923913,483.923913,black,xpyriment,legacy,legacy,0,Congruent,uniform,1,undefined,1,s,0,0,0,91,91,0,91,91,0,0,0,91,0,91,91,91,9/26/19 11:20,600,The main experiment item,yes,FlankerTask.osexp,C:\Users\hosan\Desktop,no,mono,no,18,no,white,no,yes,768,legacy,11,79,C:/Users/hosan/Desktop/TB_subject-04.csv,xpyriment,Kafkaesque Koffka,3.2.8,0,s,NA,s,s,NA,s,446,NA,2395,1927,NA,446,2,legacy,1024,2,48000,-16,experiment,SSSSS,4,even,14659,254946,NA,286042,270931,NA,288664,286548,12262,253018,NA,288770,12237,288770,289217,288639,Flanker Task ,88,44521,92,yes,1024
95.69892473,95.69892473,484.1290323,484.1290323,black,xpyriment,legacy,legacy,0,Incongruent,uniform,1,undefined,1,h,0,0,0,92,92,0,92,92,0,0,0,92,0,92,92,92,9/26/19 11:20,600,The main experiment item,yes,FlankerTask.osexp,C:\Users\hosan\Desktop,no,mono,no,18,no,white,no,yes,768,legacy,12,79,C:/Users/hosan/Desktop/TB_subject-04.csv,xpyriment,Kafkaesque Koffka,3.2.8,0,h,NA,s,s,NA,h,503,NA,2395,1927,NA,503,2,legacy,1024,2,48000,-16,experiment,SSHSS,4,even,14659,254946,NA,286042,270931,NA,291370,289251,12262,253018,NA,291476,12237,291476,291981,291344,Flanker Task ,89,45024,93,yes,1024
95.74468085,95.74468085,484.0212766,484.0212766,black,xpyriment,legacy,legacy,0,Incongruent,uniform,1,undefined,1,s,0,0,0,93,93,0,93,93,0,0,0,93,0,93,93,93,9/26/19 11:20,600,The main experiment item,yes,FlankerTask.osexp,C:\Users\hosan\Desktop,no,mono,no,18,no,white,no,yes,768,legacy,13,79,C:/Users/hosan/Desktop/TB_subject-04.csv,xpyriment,Kafkaesque Koffka,3.2.8,0,s,NA,s,s,NA,s,474,NA,2395,1927,NA,474,2,legacy,1024,2,48000,-16,experiment,HHSHH,4,even,14659,254946,NA,286042,270931,NA,294129,292020,12262,253018,NA,294236,12237,294236,294711,294103,Flanker Task ,90,45498,94,yes,1024
94.73684211,94.73684211,483.6947368,483.6947368,black,xpyriment,legacy,legacy,0,Congruent,uniform,0,undefined,0,s,0,0,0,94,94,0,94,94,0,0,0,94,0,94,94,94,9/26/19 11:20,600,The main experiment item,yes,FlankerTask.osexp,C:\Users\hosan\Desktop,no,mono,no,18,no,white,no,yes,768,legacy,14,79,C:/Users/hosan/Desktop/TB_subject-04.csv,xpyriment,Kafkaesque Koffka,3.2.8,0,h,NA,s,s,NA,h,453,NA,2395,1927,NA,453,2,legacy,1024,2,48000,-16,experiment,SSSSS,4,even,14659,254946,NA,286042,270931,NA,296853,294743,12262,253018,NA,296959,12237,296959,297413,296829,Flanker Task ,90,45951,95,yes,1024
94.79166667,94.79166667,483.3229167,483.3229167,black,xpyriment,legacy,legacy,0,Incongruent,uniform,1,undefined,1,s,0,0,0,95,95,0,95,95,0,0,0,95,0,95,95,95,9/26/19 11:20,600,The main experiment item,yes,FlankerTask.osexp,C:\Users\hosan\Desktop,no,mono,no,18,no,white,no,yes,768,legacy,15,79,C:/Users/hosan/Desktop/TB_subject-04.csv,xpyriment,Kafkaesque Koffka,3.2.8,0,s,NA,s,s,NA,s,448,NA,2395,1927,NA,448,2,legacy,1024,2,48000,-16,experiment,HHSHH,4,even,14659,254946,NA,297443,270931,NA,300082,297949,12262,253018,NA,300188,12237,300188,300637,300055,Flanker Task ,91,46399,96,yes,1024
94.84536082,94.84536082,482.8247423,482.8247423,black,xpyriment,legacy,legacy,0,Incongruent,uniform,1,undefined,1,h,0,0,0,96,96,0,96,96,0,0,0,96,0,96,96,96,9/26/19 11:20,600,The main experiment item,yes,FlankerTask.osexp,C:\Users\hosan\Desktop,no,mono,no,18,no,white,no,yes,768,legacy,16,79,C:/Users/hosan/Desktop/TB_subject-04.csv,xpyriment,Kafkaesque Koffka,3.2.8,0,h,NA,s,s,NA,h,435,NA,2395,1927,NA,435,2,legacy,1024,2,48000,-16,experiment,SSHSS,4,even,14659,254946,NA,297443,270931,NA,302825,300742,12262,253018,NA,302931,12237,302931,303369,302800,Flanker Task ,92,46834,97,yes,1024
94.89795918,94.89795918,483.7244898,483.7244898,black,xpyriment,legacy,legacy,0,Incongruent,uniform,1,undefined,1,s,0,0,0,97,97,0,97,97,0,0,0,97,0,97,97,97,9/26/19 11:20,600,The main experiment item,yes,FlankerTask.osexp,C:\Users\hosan\Desktop,no,mono,no,18,no,white,no,yes,768,legacy,17,79,C:/Users/hosan/Desktop/TB_subject-04.csv,xpyriment,Kafkaesque Koffka,3.2.8,0,s,NA,s,s,NA,s,571,NA,2395,1927,NA,571,2,legacy,1024,2,48000,-16,experiment,HHSHH,4,even,14659,254946,NA,297443,270931,NA,305661,303443,12262,253018,NA,305768,12237,305768,306341,305635,Flanker Task ,93,47405,98,yes,1024
94.94949495,94.94949495,483.3737374,483.3737374,black,xpyriment,legacy,legacy,0,Congruent,uniform,1,undefined,1,s,0,0,0,98,98,0,98,98,0,0,0,98,0,98,98,98,9/26/19 11:20,600,The main experiment item,yes,FlankerTask.osexp,C:\Users\hosan\Desktop,no,mono,no,18,no,white,no,yes,768,legacy,18,79,C:/Users/hosan/Desktop/TB_subject-04.csv,xpyriment,Kafkaesque Koffka,3.2.8,0,s,NA,s,s,NA,s,449,NA,2395,1927,NA,449,2,legacy,1024,2,48000,-16,experiment,SSSSS,4,even,14659,254946,NA,297443,270931,NA,308497,306389,12262,253018,NA,308604,12237,308604,309056,308472,Flanker Task ,94,47854,99,yes,1024
95,95,483.01,483.01,black,xpyriment,legacy,legacy,0,Incongruent,uniform,1,undefined,1,h,0,0,0,99,99,0,99,99,0,0,0,99,0,99,99,99,9/26/19 11:20,600,The main experiment item,yes,FlankerTask.osexp,C:\Users\hosan\Desktop,no,mono,no,18,no,white,no,yes,768,legacy,19,79,C:/Users/hosan/Desktop/TB_subject-04.csv,xpyriment,Kafkaesque Koffka,3.2.8,0,h,NA,s,s,NA,h,447,NA,2395,1927,NA,447,2,legacy,1024,2,48000,-16,experiment,SSHSS,4,even,14659,254946,NA,297443,270931,NA,311231,309089,12262,253018,NA,311338,12237,311338,311787,311206,Flanker Task ,95,48301,100,yes,1024
95.04950495,95.04950495,482.6534653,482.6534653,black,xpyriment,legacy,legacy,0,Incongruent,uniform,1,undefined,1,s,0,0,0,100,100,0,100,100,0,0,0,100,0,100,100,100,9/26/19 11:20,600,The main experiment item,yes,FlankerTask.osexp,C:\Users\hosan\Desktop,no,mono,no,18,no,white,no,yes,768,legacy,20,79,C:/Users/hosan/Desktop/TB_subject-04.csv,xpyriment,Kafkaesque Koffka,3.2.8,0,s,NA,s,s,NA,s,447,NA,2395,1927,NA,447,2,legacy,1024,2,48000,-16,experiment,HHSHH,4,even,14659,254946,NA,297443,270931,NA,313989,311851,12262,253018,NA,314095,12237,314095,314543,313963,Flanker Task ,96,48748,101,yes,1024
95.09803922,95.09803922,481.8039216,481.8039216,black,xpyriment,legacy,legacy,0,Incongruent,uniform,1,undefined,1,h,0,0,0,101,101,0,101,101,0,0,0,101,0,101,101,101,9/26/19 11:20,600,The main experiment item,yes,FlankerTask.osexp,C:\Users\hosan\Desktop,no,mono,no,18,no,white,no,yes,768,legacy,21,79,C:/Users/hosan/Desktop/TB_subject-04.csv,xpyriment,Kafkaesque Koffka,3.2.8,0,h,NA,s,s,NA,h,396,NA,2395,1927,NA,396,2,legacy,1024,2,48000,-16,experiment,SSHSS,4,even,14659,254946,NA,297443,270931,NA,316716,314601,12262,253018,NA,316822,12237,316823,317221,316692,Flanker Task ,97,49144,102,yes,1024
95.14563107,95.14563107,482.4951456,482.4951456,black,xpyriment,legacy,legacy,0,Congruent,uniform,1,undefined,1,h,0,0,0,102,102,0,102,102,0,0,0,102,0,102,102,102,9/26/19 11:20,600,The main experiment item,yes,FlankerTask.osexp,C:\Users\hosan\Desktop,no,mono,no,18,no,white,no,yes,768,legacy,22,79,C:/Users/hosan/Desktop/TB_subject-04.csv,xpyriment,Kafkaesque Koffka,3.2.8,0,h,NA,s,s,NA,h,553,NA,2395,1927,NA,553,2,legacy,1024,2,48000,-16,experiment,HHHHH,4,even,14659,254946,NA,297443,270931,NA,319506,317302,12262,253018,NA,319613,12237,319613,320168,319481,Flanker Task ,98,49697,103,yes,1024
95.19230769,95.19230769,481.6442308,481.6442308,black,xpyriment,legacy,legacy,0,Congruent,uniform,1,undefined,1,h,0,0,0,103,103,0,103,103,0,0,0,103,0,103,103,103,9/26/19 11:20,600,The main experiment item,yes,FlankerTask.osexp,C:\Users\hosan\Desktop,no,mono,no,18,no,white,no,yes,768,legacy,23,79,C:/Users/hosan/Desktop/TB_subject-04.csv,xpyriment,Kafkaesque Koffka,3.2.8,0,h,NA,s,s,NA,h,394,NA,2395,1927,NA,394,2,legacy,1024,2,48000,-16,experiment,HHHHH,4,even,14659,254946,NA,297443,270931,NA,322363,320249,12262,253018,NA,322470,12237,322470,322866,322338,Flanker Task ,99,50091,104,yes,1024
95.23809524,95.23809524,481.6285714,481.6285714,black,xpyriment,legacy,legacy,0,Congruent,uniform,1,undefined,1,s,0,0,0,104,104,0,104,104,0,0,0,104,0,104,104,104,9/26/19 11:20,600,The main experiment item,yes,FlankerTask.osexp,C:\Users\hosan\Desktop,no,mono,no,18,no,white,no,yes,768,legacy,24,79,C:/Users/hosan/Desktop/TB_subject-04.csv,xpyriment,Kafkaesque Koffka,3.2.8,0,s,NA,s,s,NA,s,480,NA,2395,1927,NA,480,2,legacy,1024,2,48000,-16,experiment,SSSSS,4,even,14659,254946,NA,297443,270931,NA,325439,322951,12262,253018,NA,325545,12237,325545,326028,325412,Flanker Task ,100,50571,105,yes,1024
95.28301887,95.28301887,481.1415094,481.1415094,black,xpyriment,legacy,legacy,0,Congruent,uniform,1,undefined,1,h,0,0,0,105,105,0,105,105,0,0,0,105,0,105,105,105,9/26/19 11:20,600,The main experiment item,yes,FlankerTask.osexp,C:\Users\hosan\Desktop,no,mono,no,18,no,white,no,yes,768,legacy,25,79,C:/Users/hosan/Desktop/TB_subject-04.csv,xpyriment,Kafkaesque Koffka,3.2.8,0,h,NA,s,s,NA,h,430,NA,2395,1927,NA,430,2,legacy,1024,2,48000,-16,experiment,HHHHH,4,even,14659,254946,NA,297443,270931,NA,328484,326060,12262,253018,NA,328592,12237,328592,329024,328459,Flanker Task ,101,51001,106,yes,1024
95.3271028,95.3271028,480.3084112,480.3084112,black,xpyriment,legacy,legacy,0,Congruent,uniform,1,undefined,1,h,0,0,0,106,106,0,106,106,0,0,0,106,0,106,106,106,9/26/19 11:20,600,The main experiment item,yes,FlankerTask.osexp,C:\Users\hosan\Desktop,no,mono,no,18,no,white,no,yes,768,legacy,26,79,C:/Users/hosan/Desktop/TB_subject-04.csv,xpyriment,Kafkaesque Koffka,3.2.8,0,h,NA,s,s,NA,h,392,NA,2395,1927,NA,392,2,legacy,1024,2,48000,-16,experiment,HHHHH,4,even,14659,254946,NA,297443,270931,NA,331484,329058,12262,253018,NA,331592,12237,331592,331986,331458,Flanker Task ,102,51393,107,yes,1024
95.37037037,95.37037037,482.287037,482.287037,black,xpyriment,legacy,legacy,0,Incongruent,uniform,1,undefined,1,h,0,0,0,107,107,0,107,107,0,0,0,107,0,107,107,107,9/26/19 11:20,600,The main experiment item,yes,FlankerTask.osexp,C:\Users\hosan\Desktop,no,mono,no,18,no,white,no,yes,768,legacy,27,79,C:/Users/hosan/Desktop/TB_subject-04.csv,xpyriment,Kafkaesque Koffka,3.2.8,0,h,NA,s,s,NA,h,694,NA,2395,1927,NA,694,2,legacy,1024,2,48000,-16,experiment,SSHSS,4,even,14659,254946,NA,297443,270931,NA,334154,332059,12262,253018,NA,334261,12237,334261,334957,334129,Flanker Task ,103,52087,108,yes,1024
95.41284404,95.41284404,482.6146789,482.6146789,black,xpyriment,legacy,legacy,0,Congruent,uniform,1,undefined,1,s,0,0,0,108,108,0,108,108,0,0,0,108,0,108,108,108,9/26/19 11:20,600,The main experiment item,yes,FlankerTask.osexp,C:\Users\hosan\Desktop,no,mono,no,18,no,white,no,yes,768,legacy,28,79,C:/Users/hosan/Desktop/TB_subject-04.csv,xpyriment,Kafkaesque Koffka,3.2.8,0,s,NA,s,s,NA,s,518,NA,2395,1927,NA,518,2,legacy,1024,2,48000,-16,experiment,SSSSS,4,even,14659,254946,NA,297443,335038,NA,337644,335544,12262,253018,NA,337751,12237,337751,338271,337620,Flanker Task ,104,52605,109,yes,1024
95.45454545,95.45454545,481.3,481.3,black,xpyriment,legacy,legacy,0,Congruent,uniform,1,undefined,1,s,0,0,0,109,109,0,109,109,0,0,0,109,0,109,109,109,9/26/19 11:20,600,The main experiment item,yes,FlankerTask.osexp,C:\Users\hosan\Desktop,no,mono,no,18,no,white,no,yes,768,legacy,29,79,C:/Users/hosan/Desktop/TB_subject-04.csv,xpyriment,Kafkaesque Koffka,3.2.8,0,s,NA,s,s,NA,s,338,NA,2395,1927,NA,338,2,legacy,1024,2,48000,-16,experiment,SSSSS,4,even,14659,254946,NA,297443,335038,NA,340507,338303,12262,253018,NA,340613,12237,340613,340952,340481,Flanker Task ,105,52943,110,yes,1024
95.4954955,95.4954955,479.7747748,479.7747748,black,xpyriment,legacy,legacy,0,Incongruent,uniform,1,undefined,1,s,0,0,0,110,110,0,110,110,0,0,0,110,0,110,110,110,9/26/19 11:20,600,The main experiment item,yes,FlankerTask.osexp,C:\Users\hosan\Desktop,no,mono,no,18,no,white,no,yes,768,legacy,30,79,C:/Users/hosan/Desktop/TB_subject-04.csv,xpyriment,Kafkaesque Koffka,3.2.8,0,s,NA,s,s,NA,s,312,NA,2395,1927,NA,312,2,legacy,1024,2,48000,-16,experiment,HHSHH,4,even,14659,254946,NA,297443,335038,NA,343099,341015,12262,253018,NA,343206,12237,343206,343520,343074,Flanker Task ,106,53255,111,yes,1024
95.53571429,95.53571429,479.0892857,479.0892857,black,xpyriment,legacy,legacy,0,Incongruent,uniform,1,undefined,1,h,0,0,0,111,111,0,111,111,0,0,0,111,0,111,111,111,9/26/19 11:20,600,The main experiment item,yes,FlankerTask.osexp,C:\Users\hosan\Desktop,no,mono,no,18,no,white,no,yes,768,legacy,31,79,C:/Users/hosan/Desktop/TB_subject-04.csv,xpyriment,Kafkaesque Koffka,3.2.8,0,h,NA,s,s,NA,h,403,NA,2395,1927,NA,403,2,legacy,1024,2,48000,-16,experiment,SSHSS,4,even,14659,254946,NA,297443,335038,NA,345780,343684,12262,253018,NA,345885,12237,345885,346291,345755,Flanker Task ,107,53658,112,yes,1024
95.57522124,95.57522124,478.7964602,478.7964602,black,xpyriment,legacy,legacy,0,Incongruent,uniform,1,undefined,1,s,0,0,0,112,112,0,112,112,0,0,0,112,0,112,112,112,9/26/19 11:20,600,The main experiment item,yes,FlankerTask.osexp,C:\Users\hosan\Desktop,no,mono,no,18,no,white,no,yes,768,legacy,32,79,C:/Users/hosan/Desktop/TB_subject-04.csv,xpyriment,Kafkaesque Koffka,3.2.8,0,s,NA,s,s,NA,s,446,NA,2395,1927,NA,446,2,legacy,1024,2,48000,-16,experiment,HHSHH,4,even,14659,254946,NA,297443,335038,NA,348605,346484,12262,253018,NA,348711,12237,348711,349160,348580,Flanker Task ,108,54104,113,yes,1024
95.61403509,95.61403509,479.1403509,479.1403509,black,xpyriment,legacy,legacy,0,Congruent,uniform,1,undefined,1,s,0,0,0,113,113,0,113,113,0,0,0,113,0,113,113,113,9/26/19 11:20,600,The main experiment item,yes,FlankerTask.osexp,C:\Users\hosan\Desktop,no,mono,no,18,no,white,no,yes,768,legacy,33,79,C:/Users/hosan/Desktop/TB_subject-04.csv,xpyriment,Kafkaesque Koffka,3.2.8,0,s,NA,s,s,NA,s,518,NA,2395,1927,NA,518,2,legacy,1024,2,48000,-16,experiment,SSSSS,4,even,14659,254946,NA,297443,335038,NA,351324,349209,12262,253018,NA,351430,12237,351430,351950,351300,Flanker Task ,109,54622,114,yes,1024
95.65217391,95.65217391,479.9826087,479.9826087,black,xpyriment,legacy,legacy,0,Incongruent,uniform,1,undefined,1,s,0,0,0,114,114,0,114,114,0,0,0,114,0,114,114,114,9/26/19 11:20,600,The main experiment item,yes,FlankerTask.osexp,C:\Users\hosan\Desktop,no,mono,no,18,no,white,no,yes,768,legacy,34,79,C:/Users/hosan/Desktop/TB_subject-04.csv,xpyriment,Kafkaesque Koffka,3.2.8,0,s,NA,s,s,NA,s,576,NA,2395,1927,NA,576,2,legacy,1024,2,48000,-16,experiment,HHSHH,4,even,14659,254946,NA,297443,335038,NA,354060,351985,12262,253018,NA,354166,12237,354166,354743,354034,Flanker Task ,110,55198,115,yes,1024
95.68965517,95.68965517,480.4655172,480.4655172,black,xpyriment,legacy,legacy,0,Incongruent,uniform,1,undefined,1,h,0,0,0,115,115,0,115,115,0,0,0,115,0,115,115,115,9/26/19 11:20,600,The main experiment item,yes,FlankerTask.osexp,C:\Users\hosan\Desktop,no,mono,no,18,no,white,no,yes,768,legacy,35,79,C:/Users/hosan/Desktop/TB_subject-04.csv,xpyriment,Kafkaesque Koffka,3.2.8,0,h,NA,s,s,NA,h,536,NA,2395,1927,NA,536,2,legacy,1024,2,48000,-16,experiment,SSHSS,4,even,14659,254946,NA,297443,335038,NA,356862,354780,12262,253018,NA,356968,12237,356968,357506,356834,Flanker Task ,111,55734,116,yes,1024
95.72649573,95.72649573,481.7264957,481.7264957,black,xpyriment,legacy,legacy,0,Incongruent,uniform,1,undefined,1,h,0,0,0,116,116,0,116,116,0,0,0,116,0,116,116,116,9/26/19 11:20,600,The main experiment item,yes,FlankerTask.osexp,C:\Users\hosan\Desktop,no,mono,no,18,no,white,no,yes,768,legacy,36,79,C:/Users/hosan/Desktop/TB_subject-04.csv,xpyriment,Kafkaesque Koffka,3.2.8,0,h,NA,s,s,NA,h,628,NA,2395,1927,NA,628,2,legacy,1024,2,48000,-16,experiment,SSHSS,4,even,14659,254946,NA,297443,335038,NA,359630,357542,12262,253018,NA,359736,12237,359736,360367,359606,Flanker Task ,112,56362,117,yes,1024
95.76271186,95.76271186,481.4152542,481.4152542,black,xpyriment,legacy,legacy,0,Incongruent,uniform,1,undefined,1,h,0,0,0,117,117,0,117,117,0,0,0,117,0,117,117,117,9/26/19 11:20,600,The main experiment item,yes,FlankerTask.osexp,C:\Users\hosan\Desktop,no,mono,no,18,no,white,no,yes,768,legacy,37,79,C:/Users/hosan/Desktop/TB_subject-04.csv,xpyriment,Kafkaesque Koffka,3.2.8,0,h,NA,s,s,NA,h,445,NA,2395,1927,NA,445,2,legacy,1024,2,48000,-16,experiment,SSHSS,4,even,14659,254946,NA,297443,360457,NA,363151,360963,12262,253018,NA,363258,12237,363258,363704,363127,Flanker Task ,113,56807,118,yes,1024
95.79831933,95.79831933,481.1344538,481.1344538,black,xpyriment,legacy,legacy,0,Incongruent,uniform,1,undefined,1,h,0,0,0,118,118,0,118,118,0,0,0,118,0,118,118,118,9/26/19 11:20,600,The main experiment item,yes,FlankerTask.osexp,C:\Users\hosan\Desktop,no,mono,no,18,no,white,no,yes,768,legacy,38,79,C:/Users/hosan/Desktop/TB_subject-04.csv,xpyriment,Kafkaesque Koffka,3.2.8,0,h,NA,s,s,NA,h,448,NA,2395,1927,NA,448,2,legacy,1024,2,48000,-16,experiment,SSHSS,4,even,14659,254946,NA,297443,360457,NA,365881,363786,12262,253018,NA,365987,12237,365987,366438,365856,Flanker Task ,114,57255,119,yes,1024
95.83333333,95.83333333,482.1916667,482.1916667,black,xpyriment,legacy,legacy,0,Incongruent,uniform,1,undefined,1,s,0,0,0,119,119,0,119,119,0,0,0,119,0,119,119,119,9/26/19 11:20,600,The main experiment item,yes,FlankerTask.osexp,C:\Users\hosan\Desktop,no,mono,no,18,no,white,no,yes,768,legacy,39,79,C:/Users/hosan/Desktop/TB_subject-04.csv,xpyriment,Kafkaesque Koffka,3.2.8,0,s,NA,s,s,NA,s,608,NA,2395,1927,NA,608,2,legacy,1024,2,48000,-16,experiment,HHSHH,4,even,14659,254946,NA,297443,360457,NA,368635,366521,12262,253018,NA,368742,12237,368742,369352,368611,Flanker Task ,115,57863,120,yes,1024
95.8677686,95.8677686,481.7520661,481.7520661,black,xpyriment,legacy,legacy,0,Congruent,uniform,1,undefined,1,h,0,0,0,120,120,0,120,120,0,0,0,120,0,120,120,120,9/26/19 11:20,600,The main experiment item,yes,FlankerTask.osexp,C:\Users\hosan\Desktop,no,mono,no,18,no,white,no,yes,768,legacy,40,79,C:/Users/hosan/Desktop/TB_subject-04.csv,xpyriment,Kafkaesque Koffka,3.2.8,0,h,NA,s,s,NA,h,429,NA,2395,1927,NA,429,2,legacy,1024,2,48000,-16,experiment,HHHHH,4,even,14659,254946,NA,297443,369410,NA,371997,369916,12262,253018,NA,372103,12237,372104,372536,371972,Flanker Task ,116,58292,121,yes,1024
95.08196721,95.08196721,481.3032787,481.3032787,black,xpyriment,legacy,legacy,0,Incongruent,uniform,0,undefined,0,s,0,0,0,121,121,0,121,121,0,0,0,121,0,121,121,121,9/26/19 11:20,600,The main experiment item,yes,FlankerTask.osexp,C:\Users\hosan\Desktop,no,mono,no,18,no,white,no,yes,768,legacy,41,79,C:/Users/hosan/Desktop/TB_subject-04.csv,xpyriment,Kafkaesque Koffka,3.2.8,0,h,NA,s,s,NA,h,427,NA,2395,1927,NA,427,2,legacy,1024,2,48000,-16,experiment,HHSHH,4,even,14659,254946,NA,297443,369410,NA,374653,372576,12262,253018,NA,374760,12237,374760,375189,374628,Flanker Task ,116,58719,122,yes,1024
95.12195122,95.12195122,480.0243902,480.0243902,black,xpyriment,legacy,legacy,0,Congruent,uniform,1,undefined,1,s,0,0,0,122,122,0,122,122,0,0,0,122,0,122,122,122,9/26/19 11:20,600,The main experiment item,yes,FlankerTask.osexp,C:\Users\hosan\Desktop,no,mono,no,18,no,white,no,yes,768,legacy,42,79,C:/Users/hosan/Desktop/TB_subject-04.csv,xpyriment,Kafkaesque Koffka,3.2.8,0,s,NA,s,s,NA,s,324,NA,2395,1927,NA,324,2,legacy,1024,2,48000,-16,experiment,SSSSS,4,even,14659,254946,NA,375222,369410,NA,377938,375728,12262,253018,NA,378044,12237,378044,378370,377913,Flanker Task ,117,59043,123,yes,1024
95.16129032,95.16129032,479.5241935,479.5241935,black,xpyriment,legacy,legacy,0,Congruent,uniform,1,undefined,1,h,0,0,0,123,123,0,123,123,0,0,0,123,0,123,123,123,9/26/19 11:20,600,The main experiment item,yes,FlankerTask.osexp,C:\Users\hosan\Desktop,no,mono,no,18,no,white,no,yes,768,legacy,43,79,C:/Users/hosan/Desktop/TB_subject-04.csv,xpyriment,Kafkaesque Koffka,3.2.8,0,h,NA,s,s,NA,h,418,NA,2395,1927,NA,418,2,legacy,1024,2,48000,-16,experiment,HHHHH,4,even,14659,254946,NA,375222,369410,NA,380598,378443,12262,253018,NA,380705,12237,380705,381126,380572,Flanker Task ,118,59461,124,yes,1024
95.2,95.2,478.928,478.928,black,xpyriment,legacy,legacy,0,Congruent,uniform,1,undefined,1,s,0,0,0,124,124,0,124,124,0,0,0,124,0,124,124,124,9/26/19 11:20,600,The main experiment item,yes,FlankerTask.osexp,C:\Users\hosan\Desktop,no,mono,no,18,no,white,no,yes,768,legacy,44,79,C:/Users/hosan/Desktop/TB_subject-04.csv,xpyriment,Kafkaesque Koffka,3.2.8,0,s,NA,s,s,NA,s,405,NA,2395,1927,NA,405,2,legacy,1024,2,48000,-16,experiment,SSSSS,4,even,14659,254946,NA,375222,369410,NA,383548,381189,12262,253018,NA,383653,12237,383654,384062,383523,Flanker Task ,119,59866,125,yes,1024
95.23809524,95.23809524,478,478,black,xpyriment,legacy,legacy,0,Congruent,uniform,1,undefined,1,s,0,0,0,125,125,0,125,125,0,0,0,125,0,125,125,125,9/26/19 11:20,600,The main experiment item,yes,FlankerTask.osexp,C:\Users\hosan\Desktop,no,mono,no,18,no,white,no,yes,768,legacy,45,79,C:/Users/hosan/Desktop/TB_subject-04.csv,xpyriment,Kafkaesque Koffka,3.2.8,0,s,NA,s,s,NA,s,362,NA,2395,1927,NA,362,2,legacy,1024,2,48000,-16,experiment,SSSSS,4,even,14659,254946,NA,375222,369410,NA,386325,384137,12262,253018,NA,386431,12237,386431,386796,386299,Flanker Task ,120,60228,126,yes,1024
95.27559055,95.27559055,478.1023622,478.1023622,black,xpyriment,legacy,legacy,0,Incongruent,uniform,1,undefined,1,s,0,0,0,126,126,0,126,126,0,0,0,126,0,126,126,126,9/26/19 11:20,600,The main experiment item,yes,FlankerTask.osexp,C:\Users\hosan\Desktop,no,mono,no,18,no,white,no,yes,768,legacy,46,79,C:/Users/hosan/Desktop/TB_subject-04.csv,xpyriment,Kafkaesque Koffka,3.2.8,0,s,NA,s,s,NA,s,491,NA,2395,1927,NA,491,2,legacy,1024,2,48000,-16,experiment,HHSHH,4,even,14659,254946,NA,375222,369410,NA,389043,386861,12262,253018,NA,389149,12237,389149,389641,389018,Flanker Task ,121,60719,127,yes,1024
95.3125,95.3125,477.4921875,477.4921875,black,xpyriment,legacy,legacy,0,Congruent,uniform,1,undefined,1,s,0,0,0,127,127,0,127,127,0,0,0,127,0,127,127,127,9/26/19 11:20,600,The main experiment item,yes,FlankerTask.osexp,C:\Users\hosan\Desktop,no,mono,no,18,no,white,no,yes,768,legacy,47,79,C:/Users/hosan/Desktop/TB_subject-04.csv,xpyriment,Kafkaesque Koffka,3.2.8,0,s,NA,s,s,NA,s,400,NA,2395,1927,NA,400,2,legacy,1024,2,48000,-16,experiment,SSSSS,4,even,14659,254946,NA,375222,369410,NA,391902,389711,12262,253018,NA,392009,12237,392009,392411,391876,Flanker Task ,122,61119,128,yes,1024
95.34883721,95.34883721,478.0930233,478.0930233,black,xpyriment,legacy,legacy,0,Incongruent,uniform,1,undefined,1,s,0,0,0,128,128,0,128,128,0,0,0,128,0,128,128,128,9/26/19 11:20,600,The main experiment item,yes,FlankerTask.osexp,C:\Users\hosan\Desktop,no,mono,no,18,no,white,no,yes,768,legacy,48,79,C:/Users/hosan/Desktop/TB_subject-04.csv,xpyriment,Kafkaesque Koffka,3.2.8,0,s,NA,s,s,NA,s,555,NA,2395,1927,NA,555,2,legacy,1024,2,48000,-16,experiment,HHSHH,4,even,14659,254946,NA,375222,369410,NA,394637,392468,12262,253018,NA,394744,12237,394744,395301,394612,Flanker Task ,123,61674,129,yes,1024
95.38461538,95.38461538,477.7923077,477.7923077,black,xpyriment,legacy,legacy,0,Congruent,uniform,1,undefined,1,h,0,0,0,129,129,0,129,129,0,0,0,129,0,129,129,129,9/26/19 11:20,600,The main experiment item,yes,FlankerTask.osexp,C:\Users\hosan\Desktop,no,mono,no,18,no,white,no,yes,768,legacy,49,79,C:/Users/hosan/Desktop/TB_subject-04.csv,xpyriment,Kafkaesque Koffka,3.2.8,0,h,NA,s,s,NA,h,439,NA,2395,1927,NA,439,2,legacy,1024,2,48000,-16,experiment,HHHHH,4,even,14659,254946,NA,375222,369410,NA,397695,395476,12262,253018,NA,397801,12237,397801,398243,397670,Flanker Task ,124,62113,130,yes,1024
95.41984733,95.41984733,478.0916031,478.0916031,black,xpyriment,legacy,legacy,0,Incongruent,uniform,1,undefined,1,s,0,0,0,130,130,0,130,130,0,0,0,130,0,130,130,130,9/26/19 11:20,600,The main experiment item,yes,FlankerTask.osexp,C:\Users\hosan\Desktop,no,mono,no,18,no,white,no,yes,768,legacy,50,79,C:/Users/hosan/Desktop/TB_subject-04.csv,xpyriment,Kafkaesque Koffka,3.2.8,0,s,NA,s,s,NA,s,517,NA,2395,1927,NA,517,2,legacy,1024,2,48000,-16,experiment,HHSHH,4,even,14659,254946,NA,375222,369410,NA,400398,398292,12262,253018,NA,400504,12237,400505,401024,400373,Flanker Task ,125,62630,131,yes,1024
95.45454545,95.45454545,477.8484848,477.8484848,black,xpyriment,legacy,legacy,0,Incongruent,uniform,1,undefined,1,s,0,0,0,131,131,0,131,131,0,0,0,131,0,131,131,131,9/26/19 11:20,600,The main experiment item,yes,FlankerTask.osexp,C:\Users\hosan\Desktop,no,mono,no,18,no,white,no,yes,768,legacy,51,79,C:/Users/hosan/Desktop/TB_subject-04.csv,xpyriment,Kafkaesque Koffka,3.2.8,0,s,NA,s,s,NA,s,446,NA,2395,1927,NA,446,2,legacy,1024,2,48000,-16,experiment,HHSHH,4,even,14659,254946,NA,375222,369410,NA,403189,401073,12262,253018,NA,403296,12237,403296,403744,403164,Flanker Task ,126,63076,132,yes,1024
95.4887218,95.4887218,477.3609023,477.3609023,black,xpyriment,legacy,legacy,0,Incongruent,uniform,1,undefined,1,s,0,0,0,132,132,0,132,132,0,0,0,132,0,132,132,132,9/26/19 11:20,600,The main experiment item,yes,FlankerTask.osexp,C:\Users\hosan\Desktop,no,mono,no,18,no,white,no,yes,768,legacy,52,79,C:/Users/hosan/Desktop/TB_subject-04.csv,xpyriment,Kafkaesque Koffka,3.2.8,0,s,NA,s,s,NA,s,413,NA,2395,1927,NA,413,2,legacy,1024,2,48000,-16,experiment,HHSHH,4,even,14659,254946,NA,375222,369410,NA,405883,403782,12262,253018,NA,405990,12237,405990,406406,405858,Flanker Task ,127,63489,133,yes,1024
95.52238806,95.52238806,477,477,black,xpyriment,legacy,legacy,0,Congruent,uniform,1,undefined,1,s,0,0,0,133,133,0,133,133,0,0,0,133,0,133,133,133,9/26/19 11:20,600,The main experiment item,yes,FlankerTask.osexp,C:\Users\hosan\Desktop,no,mono,no,18,no,white,no,yes,768,legacy,53,79,C:/Users/hosan/Desktop/TB_subject-04.csv,xpyriment,Kafkaesque Koffka,3.2.8,0,s,NA,s,s,NA,s,429,NA,2395,1927,NA,429,2,legacy,1024,2,48000,-16,experiment,SSSSS,4,even,14659,254946,NA,375222,369410,NA,408637,406554,12262,253018,NA,408743,12237,408743,409175,408611,Flanker Task ,128,63918,134,yes,1024
95.55555556,95.55555556,477.3333333,477.3333333,black,xpyriment,legacy,legacy,0,Incongruent,uniform,1,undefined,1,h,0,0,0,134,134,0,134,134,0,0,0,134,0,134,134,134,9/26/19 11:20,600,The main experiment item,yes,FlankerTask.osexp,C:\Users\hosan\Desktop,no,mono,no,18,no,white,no,yes,768,legacy,54,79,C:/Users/hosan/Desktop/TB_subject-04.csv,xpyriment,Kafkaesque Koffka,3.2.8,0,h,NA,s,s,NA,h,522,NA,2395,1927,NA,522,2,legacy,1024,2,48000,-16,experiment,SSHSS,4,even,14659,254946,NA,375222,369410,NA,411324,409218,12262,253018,NA,411431,12237,411431,411956,411299,Flanker Task ,129,64440,135,yes,1024
95.58823529,95.58823529,477.6617647,477.6617647,black,xpyriment,legacy,legacy,0,Congruent,uniform,1,undefined,1,h,0,0,0,135,135,0,135,135,0,0,0,135,0,135,135,135,9/26/19 11:20,600,The main experiment item,yes,FlankerTask.osexp,C:\Users\hosan\Desktop,no,mono,no,18,no,white,no,yes,768,legacy,55,79,C:/Users/hosan/Desktop/TB_subject-04.csv,xpyriment,Kafkaesque Koffka,3.2.8,0,h,NA,s,s,NA,h,522,NA,2395,1927,NA,522,2,legacy,1024,2,48000,-16,experiment,HHHHH,4,even,14659,254946,NA,375222,369410,NA,414077,411985,12262,253018,NA,414183,12237,414183,414707,414051,Flanker Task ,130,64962,136,yes,1024
95.62043796,95.62043796,477.7591241,477.7591241,black,xpyriment,legacy,legacy,0,Congruent,uniform,1,undefined,1,h,0,0,0,136,136,0,136,136,0,0,0,136,0,136,136,136,9/26/19 11:20,600,The main experiment item,yes,FlankerTask.osexp,C:\Users\hosan\Desktop,no,mono,no,18,no,white,no,yes,768,legacy,56,79,C:/Users/hosan/Desktop/TB_subject-04.csv,xpyriment,Kafkaesque Koffka,3.2.8,0,h,NA,s,s,NA,h,491,NA,2395,1927,NA,491,2,legacy,1024,2,48000,-16,experiment,HHHHH,4,even,14659,254946,NA,375222,369410,NA,416830,414730,12262,253018,NA,416935,12237,416935,417428,416805,Flanker Task ,131,65453,137,yes,1024
95.65217391,95.65217391,478.6956522,478.6956522,black,xpyriment,legacy,legacy,0,Congruent,uniform,1,undefined,1,h,0,0,0,137,137,0,137,137,0,0,0,137,0,137,137,137,9/26/19 11:20,600,The main experiment item,yes,FlankerTask.osexp,C:\Users\hosan\Desktop,no,mono,no,18,no,white,no,yes,768,legacy,57,79,C:/Users/hosan/Desktop/TB_subject-04.csv,xpyriment,Kafkaesque Koffka,3.2.8,0,h,NA,s,s,NA,h,607,NA,2395,1927,NA,607,2,legacy,1024,2,48000,-16,experiment,HHHHH,4,even,14659,254946,NA,375222,369410,NA,419534,417452,12262,253018,NA,419641,12237,419641,420250,419509,Flanker Task ,132,66060,138,yes,1024
95.68345324,95.68345324,478.8489209,478.8489209,black,xpyriment,legacy,legacy,0,Incongruent,uniform,1,undefined,1,h,0,0,0,138,138,0,138,138,0,0,0,138,0,138,138,138,9/26/19 11:20,600,The main experiment item,yes,FlankerTask.osexp,C:\Users\hosan\Desktop,no,mono,no,18,no,white,no,yes,768,legacy,58,79,C:/Users/hosan/Desktop/TB_subject-04.csv,xpyriment,Kafkaesque Koffka,3.2.8,0,h,NA,s,s,NA,h,500,NA,2395,1927,NA,500,2,legacy,1024,2,48000,-16,experiment,SSHSS,4,even,14659,254946,NA,375222,420287,NA,422876,420793,12262,253018,NA,422983,12237,422983,423485,422851,Flanker Task ,133,66560,139,yes,1024
95.71428571,95.71428571,478.9857143,478.9857143,black,xpyriment,legacy,legacy,0,Congruent,uniform,1,undefined,1,s,0,0,0,139,139,0,139,139,0,0,0,139,0,139,139,139,9/26/19 11:20,600,The main experiment item,yes,FlankerTask.osexp,C:\Users\hosan\Desktop,no,mono,no,18,no,white,no,yes,768,legacy,59,79,C:/Users/hosan/Desktop/TB_subject-04.csv,xpyriment,Kafkaesque Koffka,3.2.8,0,s,NA,s,s,NA,s,498,NA,2395,1927,NA,498,2,legacy,1024,2,48000,-16,experiment,SSSSS,4,even,14659,254946,NA,375222,420287,NA,425662,423542,12262,253018,NA,425768,12237,425768,426269,425637,Flanker Task ,134,67058,140,yes,1024
95.74468085,95.74468085,479.0780142,479.0780142,black,xpyriment,legacy,legacy,0,Incongruent,uniform,1,undefined,1,s,0,0,0,140,140,0,140,140,0,0,0,140,0,140,140,140,9/26/19 11:20,600,The main experiment item,yes,FlankerTask.osexp,C:\Users\hosan\Desktop,no,mono,no,18,no,white,no,yes,768,legacy,60,79,C:/Users/hosan/Desktop/TB_subject-04.csv,xpyriment,Kafkaesque Koffka,3.2.8,0,s,NA,s,s,NA,s,492,NA,2395,1927,NA,492,2,legacy,1024,2,48000,-16,experiment,HHSHH,4,even,14659,254946,NA,375222,420287,NA,428459,426354,12262,253018,NA,428565,12237,428566,429060,428435,Flanker Task ,135,67550,141,yes,1024
95.77464789,95.77464789,478.6549296,478.6549296,black,xpyriment,legacy,legacy,0,Congruent,uniform,1,undefined,1,h,0,0,0,141,141,0,141,141,0,0,0,141,0,141,141,141,9/26/19 11:20,600,The main experiment item,yes,FlankerTask.osexp,C:\Users\hosan\Desktop,no,mono,no,18,no,white,no,yes,768,legacy,61,79,C:/Users/hosan/Desktop/TB_subject-04.csv,xpyriment,Kafkaesque Koffka,3.2.8,0,h,NA,s,s,NA,h,419,NA,2395,1927,NA,419,2,legacy,1024,2,48000,-16,experiment,HHHHH,4,even,14659,254946,NA,375222,420287,NA,431239,429133,12262,253018,NA,431344,12237,431345,431767,431215,Flanker Task ,136,67969,142,yes,1024
95.8041958,95.8041958,478.1538462,478.1538462,black,xpyriment,legacy,legacy,0,Incongruent,uniform,1,undefined,1,s,0,0,0,142,142,0,142,142,0,0,0,142,0,142,142,142,9/26/19 11:20,600,The main experiment item,yes,FlankerTask.osexp,C:\Users\hosan\Desktop,no,mono,no,18,no,white,no,yes,768,legacy,62,79,C:/Users/hosan/Desktop/TB_subject-04.csv,xpyriment,Kafkaesque Koffka,3.2.8,0,s,NA,s,s,NA,s,407,NA,2395,1927,NA,407,2,legacy,1024,2,48000,-16,experiment,HHSHH,4,even,14659,254946,NA,375222,420287,NA,433976,431844,12262,253018,NA,434082,12237,434083,434493,433951,Flanker Task ,137,68376,143,yes,1024
95.13888889,95.13888889,477.9930556,477.9930556,black,xpyriment,legacy,legacy,0,Congruent,uniform,0,undefined,0,h,0,0,0,143,143,0,143,143,0,0,0,143,0,143,143,143,9/26/19 11:20,600,The main experiment item,yes,FlankerTask.osexp,C:\Users\hosan\Desktop,no,mono,no,18,no,white,no,yes,768,legacy,63,79,C:/Users/hosan/Desktop/TB_subject-04.csv,xpyriment,Kafkaesque Koffka,3.2.8,0,s,NA,s,s,NA,s,455,NA,2395,1927,NA,455,2,legacy,1024,2,48000,-16,experiment,HHHHH,4,even,14659,254946,NA,375222,420287,NA,436677,434567,12262,253018,NA,436783,12237,436783,437239,436652,Flanker Task ,137,68831,144,yes,1024
95.17241379,95.17241379,478.6482759,478.6482759,black,xpyriment,legacy,legacy,0,Congruent,uniform,1,undefined,1,s,0,0,0,144,144,0,144,144,0,0,0,144,0,144,144,144,9/26/19 11:20,600,The main experiment item,yes,FlankerTask.osexp,C:\Users\hosan\Desktop,no,mono,no,18,no,white,no,yes,768,legacy,64,79,C:/Users/hosan/Desktop/TB_subject-04.csv,xpyriment,Kafkaesque Koffka,3.2.8,0,s,NA,s,s,NA,s,573,NA,2395,1927,NA,573,2,legacy,1024,2,48000,-16,experiment,SSSSS,4,even,14659,254946,NA,437311,420287,NA,439914,437817,12262,253018,NA,440020,12237,440020,440596,439888,Flanker Task ,138,69404,145,yes,1024
95.20547945,95.20547945,478.1575342,478.1575342,black,xpyriment,legacy,legacy,0,Congruent,uniform,1,undefined,1,h,0,0,0,145,145,0,145,145,0,0,0,145,0,145,145,145,9/26/19 11:20,600,The main experiment item,yes,FlankerTask.osexp,C:\Users\hosan\Desktop,no,mono,no,18,no,white,no,yes,768,legacy,65,79,C:/Users/hosan/Desktop/TB_subject-04.csv,xpyriment,Kafkaesque Koffka,3.2.8,0,h,NA,s,s,NA,h,407,NA,2395,1927,NA,407,2,legacy,1024,2,48000,-16,experiment,HHHHH,4,even,14659,254946,NA,437311,420287,NA,442728,440623,12262,253018,NA,442835,12237,442835,443244,442703,Flanker Task ,139,69811,146,yes,1024
95.23809524,95.23809524,477.7142857,477.7142857,black,xpyriment,legacy,legacy,0,Congruent,uniform,1,undefined,1,h,0,0,0,146,146,0,146,146,0,0,0,146,0,146,146,146,9/26/19 11:20,600,The main experiment item,yes,FlankerTask.osexp,C:\Users\hosan\Desktop,no,mono,no,18,no,white,no,yes,768,legacy,66,79,C:/Users/hosan/Desktop/TB_subject-04.csv,xpyriment,Kafkaesque Koffka,3.2.8,0,h,NA,s,s,NA,h,413,NA,2395,1927,NA,413,2,legacy,1024,2,48000,-16,experiment,HHHHH,4,even,14659,254946,NA,437311,420287,NA,445360,443268,12262,253018,NA,445467,12237,445467,445883,445335,Flanker Task ,140,70224,147,yes,1024
95.27027027,95.27027027,478.4391892,478.4391892,black,xpyriment,legacy,legacy,0,Incongruent,uniform,1,undefined,1,h,0,0,0,147,147,0,147,147,0,0,0,147,0,147,147,147,9/26/19 11:20,600,The main experiment item,yes,FlankerTask.osexp,C:\Users\hosan\Desktop,no,mono,no,18,no,white,no,yes,768,legacy,67,79,C:/Users/hosan/Desktop/TB_subject-04.csv,xpyriment,Kafkaesque Koffka,3.2.8,0,h,NA,s,s,NA,h,585,NA,2395,1927,NA,585,2,legacy,1024,2,48000,-16,experiment,SSHSS,4,even,14659,254946,NA,437311,420287,NA,448045,445952,12262,253018,NA,448151,12237,448151,448739,448020,Flanker Task ,141,70809,148,yes,1024
95.30201342,95.30201342,478.1409396,478.1409396,black,xpyriment,legacy,legacy,0,Congruent,uniform,1,undefined,1,s,0,0,0,148,148,0,148,148,0,0,0,148,0,148,148,148,9/26/19 11:20,600,The main experiment item,yes,FlankerTask.osexp,C:\Users\hosan\Desktop,no,mono,no,18,no,white,no,yes,768,legacy,68,79,C:/Users/hosan/Desktop/TB_subject-04.csv,xpyriment,Kafkaesque Koffka,3.2.8,0,s,NA,s,s,NA,s,434,NA,2395,1927,NA,434,2,legacy,1024,2,48000,-16,experiment,SSSSS,4,even,14659,254946,NA,437311,420287,NA,450853,448771,12262,253018,NA,450960,12237,450960,451397,450828,Flanker Task ,142,71243,149,yes,1024
95.33333333,95.33333333,477.9066667,477.9066667,black,xpyriment,legacy,legacy,0,Congruent,uniform,1,undefined,1,s,0,0,0,149,149,0,149,149,0,0,0,149,0,149,149,149,9/26/19 11:20,600,The main experiment item,yes,FlankerTask.osexp,C:\Users\hosan\Desktop,no,mono,no,18,no,white,no,yes,768,legacy,69,79,C:/Users/hosan/Desktop/TB_subject-04.csv,xpyriment,Kafkaesque Koffka,3.2.8,0,s,NA,s,s,NA,s,443,NA,2395,1927,NA,443,2,legacy,1024,2,48000,-16,experiment,SSSSS,4,even,14659,254946,NA,437311,420287,NA,453615,451428,12262,253018,NA,453721,12237,453721,454166,453589,Flanker Task ,143,71686,150,yes,1024
95.36423841,95.36423841,477.6821192,477.6821192,black,xpyriment,legacy,legacy,0,Incongruent,uniform,1,undefined,1,h,0,0,0,150,150,0,150,150,0,0,0,150,0,150,150,150,9/26/19 11:20,600,The main experiment item,yes,FlankerTask.osexp,C:\Users\hosan\Desktop,no,mono,no,18,no,white,no,yes,768,legacy,70,79,C:/Users/hosan/Desktop/TB_subject-04.csv,xpyriment,Kafkaesque Koffka,3.2.8,0,h,NA,s,s,NA,h,444,NA,2395,1927,NA,444,2,legacy,1024,2,48000,-16,experiment,SSHSS,4,even,14659,254946,NA,437311,420287,NA,456279,454195,12262,253018,NA,456385,12237,456386,456834,456254,Flanker Task ,144,72130,151,yes,1024
95.39473684,95.39473684,477.1052632,477.1052632,black,xpyriment,legacy,legacy,0,Congruent,uniform,1,undefined,1,h,0,0,0,151,151,0,151,151,0,0,0,151,0,151,151,151,9/26/19 11:20,600,The main experiment item,yes,FlankerTask.osexp,C:\Users\hosan\Desktop,no,mono,no,18,no,white,no,yes,768,legacy,71,79,C:/Users/hosan/Desktop/TB_subject-04.csv,xpyriment,Kafkaesque Koffka,3.2.8,0,h,NA,s,s,NA,h,390,NA,2395,1927,NA,390,2,legacy,1024,2,48000,-16,experiment,HHHHH,4,even,14659,254946,NA,437311,420287,NA,458986,456864,12262,253018,NA,459092,12237,459092,459484,458961,Flanker Task ,145,72520,152,yes,1024
95.4248366,95.4248366,477.0980392,477.0980392,black,xpyriment,legacy,legacy,0,Incongruent,uniform,1,undefined,1,h,0,0,0,152,152,0,152,152,0,0,0,152,0,152,152,152,9/26/19 11:20,600,The main experiment item,yes,FlankerTask.osexp,C:\Users\hosan\Desktop,no,mono,no,18,no,white,no,yes,768,legacy,72,79,C:/Users/hosan/Desktop/TB_subject-04.csv,xpyriment,Kafkaesque Koffka,3.2.8,0,h,NA,s,s,NA,h,476,NA,2395,1927,NA,476,2,legacy,1024,2,48000,-16,experiment,SSHSS,4,even,14659,254946,NA,437311,420287,NA,461626,459553,12262,253018,NA,461732,12237,461732,462211,461600,Flanker Task ,146,72996,153,yes,1024
95.45454545,95.45454545,476.6558442,476.6558442,black,xpyriment,legacy,legacy,0,Congruent,uniform,1,undefined,1,h,0,0,0,153,153,0,153,153,0,0,0,153,0,153,153,153,9/26/19 11:20,600,The main experiment item,yes,FlankerTask.osexp,C:\Users\hosan\Desktop,no,mono,no,18,no,white,no,yes,768,legacy,73,79,C:/Users/hosan/Desktop/TB_subject-04.csv,xpyriment,Kafkaesque Koffka,3.2.8,0,h,NA,s,s,NA,h,409,NA,2395,1927,NA,409,2,legacy,1024,2,48000,-16,experiment,HHHHH,4,even,14659,254946,NA,437311,420287,NA,464346,462277,12262,253018,NA,464451,12237,464452,464864,464322,Flanker Task ,147,73405,154,yes,1024
95.48387097,95.48387097,476.0451613,476.0451613,black,xpyriment,legacy,legacy,0,Congruent,uniform,1,undefined,1,h,0,0,0,154,154,0,154,154,0,0,0,154,0,154,154,154,9/26/19 11:20,600,The main experiment item,yes,FlankerTask.osexp,C:\Users\hosan\Desktop,no,mono,no,18,no,white,no,yes,768,legacy,74,79,C:/Users/hosan/Desktop/TB_subject-04.csv,xpyriment,Kafkaesque Koffka,3.2.8,0,h,NA,s,s,NA,h,382,NA,2395,1927,NA,382,2,legacy,1024,2,48000,-16,experiment,HHHHH,4,even,14659,254946,NA,437311,420287,NA,467127,465015,12262,253018,NA,467234,12237,467234,467620,467102,Flanker Task ,148,73787,155,yes,1024
95.51282051,95.51282051,475.6987179,475.6987179,black,xpyriment,legacy,legacy,0,Congruent,uniform,1,undefined,1,s,0,0,0,155,155,0,155,155,0,0,0,155,0,155,155,155,9/26/19 11:20,600,The main experiment item,yes,FlankerTask.osexp,C:\Users\hosan\Desktop,no,mono,no,18,no,white,no,yes,768,legacy,75,79,C:/Users/hosan/Desktop/TB_subject-04.csv,xpyriment,Kafkaesque Koffka,3.2.8,0,s,NA,s,s,NA,s,422,NA,2395,1927,NA,422,2,legacy,1024,2,48000,-16,experiment,SSSSS,4,even,14659,254946,NA,437311,420287,NA,469917,467734,12262,253018,NA,470023,12237,470023,470447,469893,Flanker Task ,149,74209,156,yes,1024
95.54140127,95.54140127,475.6751592,475.6751592,black,xpyriment,legacy,legacy,0,Congruent,uniform,1,undefined,1,h,0,0,0,156,156,0,156,156,0,0,0,156,0,156,156,156,9/26/19 11:20,600,The main experiment item,yes,FlankerTask.osexp,C:\Users\hosan\Desktop,no,mono,no,18,no,white,no,yes,768,legacy,76,79,C:/Users/hosan/Desktop/TB_subject-04.csv,xpyriment,Kafkaesque Koffka,3.2.8,0,h,NA,s,s,NA,h,472,NA,2395,1927,NA,472,2,legacy,1024,2,48000,-16,experiment,HHHHH,4,even,14659,254946,NA,437311,420287,NA,472578,470480,12262,253018,NA,472684,12237,472684,473159,472554,Flanker Task ,150,74681,157,yes,1024
95.56962025,95.56962025,475.8860759,475.8860759,black,xpyriment,legacy,legacy,0,Congruent,uniform,1,undefined,1,s,0,0,0,157,157,0,157,157,0,0,0,157,0,157,157,157,9/26/19 11:20,600,The main experiment item,yes,FlankerTask.osexp,C:\Users\hosan\Desktop,no,mono,no,18,no,white,no,yes,768,legacy,77,79,C:/Users/hosan/Desktop/TB_subject-04.csv,xpyriment,Kafkaesque Koffka,3.2.8,0,s,NA,s,s,NA,s,509,NA,2395,1927,NA,509,2,legacy,1024,2,48000,-16,experiment,SSSSS,4,even,14659,254946,NA,437311,420287,NA,475397,473334,12262,253018,NA,475504,12237,475504,476017,475374,Flanker Task ,151,75190,158,yes,1024
95.59748428,95.59748428,475.4528302,475.4528302,black,xpyriment,legacy,legacy,0,Congruent,uniform,1,undefined,1,s,0,0,0,158,158,0,158,158,0,0,0,158,0,158,158,158,9/26/19 11:20,600,The main experiment item,yes,FlankerTask.osexp,C:\Users\hosan\Desktop,no,mono,no,18,no,white,no,yes,768,legacy,78,79,C:/Users/hosan/Desktop/TB_subject-04.csv,xpyriment,Kafkaesque Koffka,3.2.8,0,s,NA,s,s,NA,s,407,NA,2395,1927,NA,407,2,legacy,1024,2,48000,-16,experiment,SSSSS,4,even,14659,254946,NA,437311,420287,NA,478165,476072,12262,253018,NA,478272,12237,478272,478681,478140,Flanker Task ,152,75597,159,yes,1024
95.625,95.625,476.725,476.725,black,xpyriment,legacy,legacy,0,Incongruent,uniform,1,undefined,1,s,0,0,0,159,159,0,159,159,0,0,0,159,0,159,159,159,9/26/19 11:20,600,The main experiment item,yes,FlankerTask.osexp,C:\Users\hosan\Desktop,no,mono,no,18,no,white,no,yes,768,legacy,79,79,C:/Users/hosan/Desktop/TB_subject-04.csv,xpyriment,Kafkaesque Koffka,3.2.8,0,s,NA,s,s,NA,s,679,NA,2395,1927,NA,679,2,legacy,1024,2,48000,-16,experiment,HHSHH,4,even,14659,254946,NA,437311,420287,NA,480869,478714,12262,253018,NA,480976,12237,480976,481657,480845,Flanker Task ,153,76276,160,yes,1024
95.0310559,95.0310559,476.8695652,476.8695652,black,xpyriment,legacy,legacy,0,Incongruent,uniform,0,undefined,0,s,0,0,0,160,160,0,160,160,0,0,0,160,0,160,160,160,9/26/19 11:20,300,The main experiment item,yes,FlankerTask.osexp,C:\Users\hosan\Desktop,no,mono,no,18,no,white,no,yes,768,legacy,0,79,C:/Users/hosan/Desktop/TB_subject-04.csv,xpyriment,Kafkaesque Koffka,3.2.8,0,h,NA,s,s,s,h,500,NA,2395,1927,232717,500,2,legacy,1024,2,48000,-16,experiment,HHSHH,4,even,14659,254946,716000,437311,481700,NA,717081,482206,12262,253018,483279,717191,12237,717191,717693,717051,Flanker Task ,153,76776,161,yes,1024
95.0617284,95.0617284,475.8024691,475.8024691,black,xpyriment,legacy,legacy,0,Congruent,uniform,1,undefined,1,s,0,0,0,161,161,0,161,161,0,0,0,161,0,161,161,161,9/26/19 11:20,300,The main experiment item,yes,FlankerTask.osexp,C:\Users\hosan\Desktop,no,mono,no,18,no,white,no,yes,768,legacy,1,79,C:/Users/hosan/Desktop/TB_subject-04.csv,xpyriment,Kafkaesque Koffka,3.2.8,0,s,NA,s,s,s,s,304,NA,2395,1927,232717,304,2,legacy,1024,2,48000,-16,experiment,SSSSS,4,even,14659,254946,716000,717717,718223,NA,720779,718729,12262,253018,483279,720886,12237,720886,721192,720756,Flanker Task ,154,77080,162,yes,1024
95.09202454,95.09202454,475.3742331,475.3742331,black,xpyriment,legacy,legacy,0,Incongruent,uniform,1,undefined,1,h,0,0,0,162,162,0,162,162,0,0,0,162,0,162,162,162,9/26/19 11:20,300,The main experiment item,yes,FlankerTask.osexp,C:\Users\hosan\Desktop,no,mono,no,18,no,white,no,yes,768,legacy,2,79,C:/Users/hosan/Desktop/TB_subject-04.csv,xpyriment,Kafkaesque Koffka,3.2.8,0,h,NA,s,s,s,h,406,NA,2395,1927,232717,406,2,legacy,1024,2,48000,-16,experiment,SSHSS,4,even,14659,254946,716000,717717,721274,NA,723863,721780,12262,253018,483279,723970,12237,723970,724378,723839,Flanker Task ,155,77486,163,yes,1024
95.12195122,95.12195122,475.5182927,475.5182927,black,xpyriment,legacy,legacy,0,Incongruent,uniform,1,undefined,1,s,0,0,0,163,163,0,163,163,0,0,0,163,0,163,163,163,9/26/19 11:20,300,The main experiment item,yes,FlankerTask.osexp,C:\Users\hosan\Desktop,no,mono,no,18,no,white,no,yes,768,legacy,3,79,C:/Users/hosan/Desktop/TB_subject-04.csv,xpyriment,Kafkaesque Koffka,3.2.8,0,s,NA,s,s,s,s,499,NA,2395,1927,232717,499,2,legacy,1024,2,48000,-16,experiment,HHSHH,4,even,14659,254946,716000,717717,724453,NA,727011,724960,12262,253018,483279,727118,12237,727118,727619,726987,Flanker Task ,156,77985,164,yes,1024
95.15151515,95.15151515,474.6242424,474.6242424,black,xpyriment,legacy,legacy,0,Congruent,uniform,1,undefined,1,h,0,0,0,164,164,0,164,164,0,0,0,164,0,164,164,164,9/26/19 11:20,300,The main experiment item,yes,FlankerTask.osexp,C:\Users\hosan\Desktop,no,mono,no,18,no,white,no,yes,768,legacy,4,79,C:/Users/hosan/Desktop/TB_subject-04.csv,xpyriment,Kafkaesque Koffka,3.2.8,0,h,NA,s,s,s,h,328,NA,2395,1927,232717,328,2,legacy,1024,2,48000,-16,experiment,HHHHH,4,even,14659,254946,716000,717717,727654,NA,730199,728160,12262,253018,483279,730305,12237,730305,730635,730175,Flanker Task ,157,78313,165,yes,1024
95.18072289,95.18072289,474.0180723,474.0180723,black,xpyriment,legacy,legacy,0,Incongruent,uniform,1,undefined,1,s,0,0,0,165,165,0,165,165,0,0,0,165,0,165,165,165,9/26/19 11:20,300,The main experiment item,yes,FlankerTask.osexp,C:\Users\hosan\Desktop,no,mono,no,18,no,white,no,yes,768,legacy,5,79,C:/Users/hosan/Desktop/TB_subject-04.csv,xpyriment,Kafkaesque Koffka,3.2.8,0,s,NA,s,s,s,s,374,NA,2395,1927,232717,374,2,legacy,1024,2,48000,-16,experiment,HHSHH,4,even,14659,254946,716000,717717,730703,NA,733258,731209,12262,253018,483279,733364,12237,733365,733741,733234,Flanker Task ,158,78687,166,yes,1024
95.20958084,95.20958084,473.5149701,473.5149701,black,xpyriment,legacy,legacy,0,Incongruent,uniform,1,undefined,1,s,0,0,0,166,166,0,166,166,0,0,0,166,0,166,166,166,9/26/19 11:20,300,The main experiment item,yes,FlankerTask.osexp,C:\Users\hosan\Desktop,no,mono,no,18,no,white,no,yes,768,legacy,6,79,C:/Users/hosan/Desktop/TB_subject-04.csv,xpyriment,Kafkaesque Koffka,3.2.8,0,s,NA,s,s,s,s,390,NA,2395,1927,232717,390,2,legacy,1024,2,48000,-16,experiment,HHSHH,4,even,14659,254946,716000,717717,733824,NA,736374,734331,12262,253018,483279,736480,12237,736480,736872,736350,Flanker Task ,159,79077,167,yes,1024
94.64285714,94.64285714,472.0357143,472.0357143,black,xpyriment,legacy,legacy,0,Incongruent,uniform,0,undefined,0,s,0,0,0,167,167,0,167,167,0,0,0,167,0,167,167,167,9/26/19 11:20,300,The main experiment item,yes,FlankerTask.osexp,C:\Users\hosan\Desktop,no,mono,no,18,no,white,no,yes,768,legacy,7,79,C:/Users/hosan/Desktop/TB_subject-04.csv,xpyriment,Kafkaesque Koffka,3.2.8,0,h,NA,s,s,s,h,225,NA,2395,1927,232717,225,2,legacy,1024,2,48000,-16,experiment,HHSHH,4,even,14659,254946,716000,717717,736948,NA,739493,737454,12262,253018,483279,739598,12237,739598,739825,739469,Flanker Task ,159,79302,168,yes,1024
94.67455621,94.67455621,470.6449704,470.6449704,black,xpyriment,legacy,legacy,0,Incongruent,uniform,1,undefined,1,s,0,0,0,168,168,0,168,168,0,0,0,168,0,168,168,168,9/26/19 11:20,300,The main experiment item,yes,FlankerTask.osexp,C:\Users\hosan\Desktop,no,mono,no,18,no,white,no,yes,768,legacy,8,79,C:/Users/hosan/Desktop/TB_subject-04.csv,xpyriment,Kafkaesque Koffka,3.2.8,0,s,NA,s,s,s,s,237,NA,2395,1927,232717,237,2,legacy,1024,2,48000,-16,experiment,HHSHH,4,even,14659,254946,716000,739895,736948,NA,742466,740402,12262,253018,483279,742572,12237,742573,742812,742441,Flanker Task ,160,79539,169,yes,1024
