acc,accuracy,average_response_time,avg_rt,background,canvas_backend,clock_backend,color_backend,compensation,condition,coordinates,correct,correct_Instructions1,correct_keyboard_response,correct_response,count_Faster,count_ISI,count_Instructions1,count_Instructions2,count_Instructions3,count_Stimulus,count_block1,count_block2,count_block3,count_errorFeedback,count_experiment,count_finish,count_fixation,count_keyboard_response,count_new_logger,count_sequence,datetime,deadline,description,disable_garbage_collection,experiment_file,experiment_path,font_bold,font_family,font_italic,font_size,font_underline,foreground,form_clicks,fullscreen,height,keyboard_backend,live_row,live_row_block1,logfile,mouse_backend,opensesame_codename,opensesame_version,repeat_cycle,response,response_Instructions1,response_Instructions2,response_Instructions3,response_finish,response_keyboard_response,response_time,response_time_Instructions1,response_time_Instructions2,response_time_Instructions3,response_time_finish,response_time_keyboard_response,round_decimals,sampler_backend,sound_buf_size,sound_channels,sound_freq,sound_sample_size,start,stimulus,subject_nr,subject_parity,time_Faster,time_ISI,time_Instructions1,time_Instructions2,time_Instructions3,time_Stimulus,time_block1,time_block2,time_block3,time_errorFeedback,time_experiment,time_finish,time_fixation,time_keyboard_response,time_new_logger,time_sequence,title,total_correct,total_response_time,total_responses,uniform_coordinates,width
0,0,735,735,black,legacy,legacy,legacy,0,incongruent,uniform,0,undefined,0,h,0,0,0,0,0,0,0,0,0,0,0,0,0,0,0,0,9/29/19 16:45,1500,The main experiment item,yes,FlankerTask.osexp,C:\Users\Jeanette\Desktop\Jeanette Master's\AQM&ED,no,mono,no,18,no,white,no,yes,768,legacy,0,0,C:/Users/Jeanette/Desktop/Jeanette Master's/AQM&ED/jh-subject-4.csv,legacy,Kafkaesque Koffka,3.2.8,0,s,h,NA,NA,NA,s,735,15066,NA,NA,NA,735,2,legacy,1024,2,48000,-16,experiment,SSHSS,4,even,NA,NA,5265,NA,NA,20763,20332,NA,NA,NA,5261,NA,20658,20763,21499,20655,Flanker Task,0,735,1,yes,1024
50,50,604.5,604.5,black,legacy,legacy,legacy,0,incongruent,uniform,1,undefined,1,h,1,1,0,0,0,1,0,0,0,1,0,0,1,1,1,1,9/29/19 16:45,1500,The main experiment item,yes,FlankerTask.osexp,C:\Users\Jeanette\Desktop\Jeanette Master's\AQM&ED,no,mono,no,18,no,white,no,yes,768,legacy,1,1,C:/Users/Jeanette/Desktop/Jeanette Master's/AQM&ED/jh-subject-4.csv,legacy,Kafkaesque Koffka,3.2.8,0,h,h,NA,NA,NA,h,474,15066,NA,NA,NA,474,2,legacy,1024,2,48000,-16,experiment,SSHSS,4,even,NA,22059,5265,NA,NA,23255,20332,NA,NA,21552,5261,NA,23150,23256,23731,23147,Flanker Task,1,1209,2,yes,1024
33.33333333,33.33333333,525.6666667,525.6666667,black,legacy,legacy,legacy,0,congruent,uniform,0,undefined,0,h,2,2,0,0,0,2,0,0,0,2,0,0,2,2,2,2,9/29/19 16:45,1500,The main experiment item,yes,FlankerTask.osexp,C:\Users\Jeanette\Desktop\Jeanette Master's\AQM&ED,no,mono,no,18,no,white,no,yes,768,legacy,2,2,C:/Users/Jeanette/Desktop/Jeanette Master's/AQM&ED/jh-subject-4.csv,legacy,Kafkaesque Koffka,3.2.8,0,s,h,NA,NA,NA,s,368,15066,NA,NA,NA,368,2,legacy,1024,2,48000,-16,experiment,HHHHH,4,even,NA,23749,5265,NA,NA,24955,20332,NA,NA,21552,5261,NA,24850,24955,25323,24847,Flanker Task,1,1577,3,yes,1024
50,50,485,485,black,legacy,legacy,legacy,0,congruent,uniform,1,undefined,1,h,3,3,0,0,0,3,0,0,0,3,0,0,3,3,3,3,9/29/19 16:45,1500,The main experiment item,yes,FlankerTask.osexp,C:\Users\Jeanette\Desktop\Jeanette Master's\AQM&ED,no,mono,no,18,no,white,no,yes,768,legacy,3,3,C:/Users/Jeanette/Desktop/Jeanette Master's/AQM&ED/jh-subject-4.csv,legacy,Kafkaesque Koffka,3.2.8,0,h,h,NA,NA,NA,h,363,15066,NA,NA,NA,363,2,legacy,1024,2,48000,-16,experiment,HHHHH,4,even,NA,25850,5265,NA,NA,27055,20332,NA,NA,25344,5261,NA,26950,27055,27419,26947,Flanker Task,2,1940,4,yes,1024
40,40,473.4,473.4,black,legacy,legacy,legacy,0,incongruent,uniform,0,undefined,0,h,4,4,0,0,0,4,0,0,0,4,0,0,4,4,4,4,9/29/19 16:45,1500,The main experiment item,yes,FlankerTask.osexp,C:\Users\Jeanette\Desktop\Jeanette Master's\AQM&ED,no,mono,no,18,no,white,no,yes,768,legacy,4,4,C:/Users/Jeanette/Desktop/Jeanette Master's/AQM&ED/jh-subject-4.csv,legacy,Kafkaesque Koffka,3.2.8,0,s,h,NA,NA,NA,s,427,15066,NA,NA,NA,427,2,legacy,1024,2,48000,-16,experiment,SSHSS,4,even,NA,27433,5265,NA,NA,28624,20332,NA,NA,25344,5261,NA,28519,28624,29051,28516,Flanker Task,2,2367,5,yes,1024
50,50,469.6666667,469.6666667,black,legacy,legacy,legacy,0,congruent,uniform,1,undefined,1,s,5,5,0,0,0,5,0,0,0,5,0,0,5,5,5,5,9/29/19 16:45,1500,The main experiment item,yes,FlankerTask.osexp,C:\Users\Jeanette\Desktop\Jeanette Master's\AQM&ED,no,mono,no,18,no,white,no,yes,768,legacy,5,5,C:/Users/Jeanette/Desktop/Jeanette Master's/AQM&ED/jh-subject-4.csv,legacy,Kafkaesque Koffka,3.2.8,0,s,h,NA,NA,NA,s,451,15066,NA,NA,NA,451,2,legacy,1024,2,48000,-16,experiment,SSSSS,4,even,NA,29583,5265,NA,NA,30783,20332,NA,NA,29078,5261,NA,30678,30783,31235,30675,Flanker Task,3,2818,6,yes,1024
57.14285714,57.14285714,473,473,black,legacy,legacy,legacy,0,incongruent,uniform,1,undefined,1,h,6,6,0,0,0,6,0,0,0,6,0,0,6,6,6,6,9/29/19 16:45,1500,The main experiment item,yes,FlankerTask.osexp,C:\Users\Jeanette\Desktop\Jeanette Master's\AQM&ED,no,mono,no,18,no,white,no,yes,768,legacy,6,6,C:/Users/Jeanette/Desktop/Jeanette Master's/AQM&ED/jh-subject-4.csv,legacy,Kafkaesque Koffka,3.2.8,0,h,h,NA,NA,NA,h,493,15066,NA,NA,NA,493,2,legacy,1024,2,48000,-16,experiment,SSHSS,4,even,NA,31261,5265,NA,NA,32461,20332,NA,NA,29078,5261,NA,32356,32461,32955,32353,Flanker Task,4,3311,7,yes,1024
62.5,62.5,479.25,479.25,black,legacy,legacy,legacy,0,congruent,uniform,1,undefined,1,s,7,7,0,0,0,7,0,0,0,7,0,0,7,7,7,7,9/29/19 16:45,1500,The main experiment item,yes,FlankerTask.osexp,C:\Users\Jeanette\Desktop\Jeanette Master's\AQM&ED,no,mono,no,18,no,white,no,yes,768,legacy,7,7,C:/Users/Jeanette/Desktop/Jeanette Master's/AQM&ED/jh-subject-4.csv,legacy,Kafkaesque Koffka,3.2.8,0,s,h,NA,NA,NA,s,523,15066,NA,NA,NA,523,2,legacy,1024,2,48000,-16,experiment,SSSSS,4,even,NA,32975,5265,NA,NA,34175,20332,NA,NA,29078,5261,NA,34070,34175,34699,34067,Flanker Task,5,3834,8,yes,1024
66.66666667,66.66666667,470.7777778,470.7777778,black,legacy,legacy,legacy,0,congruent,uniform,1,undefined,1,s,8,8,0,0,0,8,0,0,0,8,0,0,8,8,8,8,9/29/19 16:45,1500,The main experiment item,yes,FlankerTask.osexp,C:\Users\Jeanette\Desktop\Jeanette Master's\AQM&ED,no,mono,no,18,no,white,no,yes,768,legacy,8,8,C:/Users/Jeanette/Desktop/Jeanette Master's/AQM&ED/jh-subject-4.csv,legacy,Kafkaesque Koffka,3.2.8,0,s,h,NA,NA,NA,s,403,15066,NA,NA,NA,403,2,legacy,1024,2,48000,-16,experiment,SSSSS,4,even,NA,34737,5265,NA,NA,35943,20332,NA,NA,29078,5261,NA,35838,35943,36347,35835,Flanker Task,6,4237,9,yes,1024
70,70,464.6,464.6,black,legacy,legacy,legacy,0,congruent,uniform,1,undefined,1,s,9,9,0,0,0,9,0,0,0,9,0,0,9,9,9,9,9/29/19 16:45,1500,The main experiment item,yes,FlankerTask.osexp,C:\Users\Jeanette\Desktop\Jeanette Master's\AQM&ED,no,mono,no,18,no,white,no,yes,768,legacy,9,9,C:/Users/Jeanette/Desktop/Jeanette Master's/AQM&ED/jh-subject-4.csv,legacy,Kafkaesque Koffka,3.2.8,0,s,h,NA,NA,NA,s,409,15066,NA,NA,NA,409,2,legacy,1024,2,48000,-16,experiment,SSSSS,4,even,NA,36375,5265,NA,NA,37586,20332,NA,NA,29078,5261,NA,37481,37586,37995,37478,Flanker Task,7,4646,10,yes,1024
72.72727273,72.72727273,456.9090909,456.9090909,black,legacy,legacy,legacy,0,incongruent,uniform,1,undefined,1,s,10,10,0,0,0,10,0,0,0,10,0,0,10,10,10,10,9/29/19 16:45,1500,The main experiment item,yes,FlankerTask.osexp,C:\Users\Jeanette\Desktop\Jeanette Master's\AQM&ED,no,mono,no,18,no,white,no,yes,768,legacy,10,10,C:/Users/Jeanette/Desktop/Jeanette Master's/AQM&ED/jh-subject-4.csv,legacy,Kafkaesque Koffka,3.2.8,0,s,h,NA,NA,NA,s,380,15066,NA,NA,NA,380,2,legacy,1024,2,48000,-16,experiment,HHSHH,4,even,NA,38026,5265,NA,NA,39238,20332,NA,NA,29078,5261,NA,39133,39238,39619,39131,Flanker Task,8,5026,11,yes,1024
66.66666667,66.66666667,444.5,444.5,black,legacy,legacy,legacy,0,congruent,uniform,0,undefined,0,h,11,11,0,0,0,11,0,0,0,11,0,0,11,11,11,11,9/29/19 16:45,1500,The main experiment item,yes,FlankerTask.osexp,C:\Users\Jeanette\Desktop\Jeanette Master's\AQM&ED,no,mono,no,18,no,white,no,yes,768,legacy,11,11,C:/Users/Jeanette/Desktop/Jeanette Master's/AQM&ED/jh-subject-4.csv,legacy,Kafkaesque Koffka,3.2.8,0,s,h,NA,NA,NA,s,308,15066,NA,NA,NA,308,2,legacy,1024,2,48000,-16,experiment,HHHHH,4,even,NA,39638,5265,NA,NA,40862,20332,NA,NA,29078,5261,NA,40757,40862,41171,40754,Flanker Task,8,5334,12,yes,1024
69.23076923,69.23076923,449.5384615,449.5384615,black,legacy,legacy,legacy,0,incongruent,uniform,1,undefined,1,s,12,12,0,0,0,12,0,0,0,12,0,0,12,12,12,12,9/29/19 16:45,1500,The main experiment item,yes,FlankerTask.osexp,C:\Users\Jeanette\Desktop\Jeanette Master's\AQM&ED,no,mono,no,18,no,white,no,yes,768,legacy,12,12,C:/Users/Jeanette/Desktop/Jeanette Master's/AQM&ED/jh-subject-4.csv,legacy,Kafkaesque Koffka,3.2.8,0,s,h,NA,NA,NA,s,510,15066,NA,NA,NA,510,2,legacy,1024,2,48000,-16,experiment,HHSHH,4,even,NA,41704,5265,NA,NA,42924,20332,NA,NA,41198,5261,NA,42819,42924,43435,42816,Flanker Task,9,5844,13,yes,1024
71.42857143,71.42857143,456.0714286,456.0714286,black,legacy,legacy,legacy,0,incongruent,uniform,1,undefined,1,s,13,13,0,0,0,13,0,0,0,13,0,0,13,13,13,13,9/29/19 16:45,1500,The main experiment item,yes,FlankerTask.osexp,C:\Users\Jeanette\Desktop\Jeanette Master's\AQM&ED,no,mono,no,18,no,white,no,yes,768,legacy,13,13,C:/Users/Jeanette/Desktop/Jeanette Master's/AQM&ED/jh-subject-4.csv,legacy,Kafkaesque Koffka,3.2.8,0,s,h,NA,NA,NA,s,541,15066,NA,NA,NA,541,2,legacy,1024,2,48000,-16,experiment,HHSHH,4,even,NA,43455,5265,NA,NA,44654,20332,NA,NA,41198,5261,NA,44549,44654,45195,44546,Flanker Task,10,6385,14,yes,1024
73.33333333,73.33333333,458.6666667,458.6666667,black,legacy,legacy,legacy,0,congruent,uniform,1,undefined,1,h,14,14,0,0,0,14,0,0,0,14,0,0,14,14,14,14,9/29/19 16:45,1500,The main experiment item,yes,FlankerTask.osexp,C:\Users\Jeanette\Desktop\Jeanette Master's\AQM&ED,no,mono,no,18,no,white,no,yes,768,legacy,14,14,C:/Users/Jeanette/Desktop/Jeanette Master's/AQM&ED/jh-subject-4.csv,legacy,Kafkaesque Koffka,3.2.8,0,h,h,NA,NA,NA,h,495,15066,NA,NA,NA,495,2,legacy,1024,2,48000,-16,experiment,HHHHH,4,even,NA,45226,5265,NA,NA,46451,20332,NA,NA,41198,5261,NA,46346,46451,46947,46343,Flanker Task,11,6880,15,yes,1024
68.75,68.75,461.625,461.625,black,legacy,legacy,legacy,0,incongruent,uniform,0,undefined,0,h,15,15,0,0,0,15,0,0,0,15,0,0,15,15,15,15,9/29/19 16:45,1500,The main experiment item,yes,FlankerTask.osexp,C:\Users\Jeanette\Desktop\Jeanette Master's\AQM&ED,no,mono,no,18,no,white,no,yes,768,legacy,15,15,C:/Users/Jeanette/Desktop/Jeanette Master's/AQM&ED/jh-subject-4.csv,legacy,Kafkaesque Koffka,3.2.8,0,s,h,NA,NA,NA,s,506,15066,NA,NA,NA,506,2,legacy,1024,2,48000,-16,experiment,SSHSS,4,even,NA,46972,5265,NA,NA,48160,20332,NA,NA,41198,5261,NA,48054,48160,48667,48051,Flanker Task,11,7386,16,yes,1024
70.58823529,70.58823529,458.9411765,458.9411765,black,legacy,legacy,legacy,0,congruent,uniform,1,undefined,1,h,16,16,0,0,0,16,0,0,0,16,0,0,16,16,16,16,9/29/19 16:45,1500,The main experiment item,yes,FlankerTask.osexp,C:\Users\Jeanette\Desktop\Jeanette Master's\AQM&ED,no,mono,no,18,no,white,no,yes,768,legacy,16,16,C:/Users/Jeanette/Desktop/Jeanette Master's/AQM&ED/jh-subject-4.csv,legacy,Kafkaesque Koffka,3.2.8,0,h,h,NA,NA,NA,h,416,15066,NA,NA,NA,416,2,legacy,1024,2,48000,-16,experiment,HHHHH,4,even,NA,49194,5265,NA,NA,50379,20332,NA,NA,48689,5261,NA,50274,50379,50795,50271,Flanker Task,12,7802,17,yes,1024
72.22222222,72.22222222,462.6666667,462.6666667,black,legacy,legacy,legacy,0,incongruent,uniform,1,undefined,1,h,17,17,0,0,0,17,0,0,0,17,0,0,17,17,17,17,9/29/19 16:45,1500,The main experiment item,yes,FlankerTask.osexp,C:\Users\Jeanette\Desktop\Jeanette Master's\AQM&ED,no,mono,no,18,no,white,no,yes,768,legacy,17,17,C:/Users/Jeanette/Desktop/Jeanette Master's/AQM&ED/jh-subject-4.csv,legacy,Kafkaesque Koffka,3.2.8,0,h,h,NA,NA,NA,h,526,15066,NA,NA,NA,526,2,legacy,1024,2,48000,-16,experiment,SSHSS,4,even,NA,50814,5265,NA,NA,52037,20332,NA,NA,48689,5261,NA,51932,52037,52563,51926,Flanker Task,13,8328,18,yes,1024
73.68421053,73.68421053,463.5789474,463.5789474,black,legacy,legacy,legacy,0,incongruent,uniform,1,undefined,1,s,18,18,0,0,0,18,0,0,0,18,0,0,18,18,18,18,9/29/19 16:45,1500,The main experiment item,yes,FlankerTask.osexp,C:\Users\Jeanette\Desktop\Jeanette Master's\AQM&ED,no,mono,no,18,no,white,no,yes,768,legacy,18,18,C:/Users/Jeanette/Desktop/Jeanette Master's/AQM&ED/jh-subject-4.csv,legacy,Kafkaesque Koffka,3.2.8,0,s,h,NA,NA,NA,s,480,15066,NA,NA,NA,480,2,legacy,1024,2,48000,-16,experiment,HHSHH,4,even,NA,52586,5265,NA,NA,53770,20332,NA,NA,48689,5261,NA,53665,53770,54251,53662,Flanker Task,14,8808,19,yes,1024
75,75,463.7,463.7,black,legacy,legacy,legacy,0,incongruent,uniform,1,undefined,1,s,19,19,0,0,0,19,0,0,0,19,0,0,19,19,19,19,9/29/19 16:45,1500,The main experiment item,yes,FlankerTask.osexp,C:\Users\Jeanette\Desktop\Jeanette Master's\AQM&ED,no,mono,no,18,no,white,no,yes,768,legacy,19,19,C:/Users/Jeanette/Desktop/Jeanette Master's/AQM&ED/jh-subject-4.csv,legacy,Kafkaesque Koffka,3.2.8,0,s,h,NA,NA,NA,s,466,15066,NA,NA,NA,466,2,legacy,1024,2,48000,-16,experiment,HHSHH,4,even,NA,54273,5265,NA,NA,55480,20332,NA,NA,48689,5261,NA,55375,55480,55947,55372,Flanker Task,15,9274,20,yes,1024
76.19047619,76.19047619,461.4285714,461.4285714,black,legacy,legacy,legacy,0,incongruent,uniform,1,undefined,1,s,20,20,0,0,0,20,0,0,0,20,0,0,20,20,20,20,9/29/19 16:45,1500,The main experiment item,yes,FlankerTask.osexp,C:\Users\Jeanette\Desktop\Jeanette Master's\AQM&ED,no,mono,no,18,no,white,no,yes,768,legacy,20,20,C:/Users/Jeanette/Desktop/Jeanette Master's/AQM&ED/jh-subject-4.csv,legacy,Kafkaesque Koffka,3.2.8,0,s,h,NA,NA,NA,s,416,15066,NA,NA,NA,416,2,legacy,1024,2,48000,-16,experiment,HHSHH,4,even,NA,55978,5265,NA,NA,57186,20332,NA,NA,48689,5261,NA,57081,57186,57602,57078,Flanker Task,16,9690,21,yes,1024
77.27272727,77.27272727,462.7272727,462.7272727,black,legacy,legacy,legacy,0,congruent,uniform,1,undefined,1,s,21,21,0,0,0,21,0,0,0,21,0,0,21,21,21,21,9/29/19 16:45,1500,The main experiment item,yes,FlankerTask.osexp,C:\Users\Jeanette\Desktop\Jeanette Master's\AQM&ED,no,mono,no,18,no,white,no,yes,768,legacy,21,21,C:/Users/Jeanette/Desktop/Jeanette Master's/AQM&ED/jh-subject-4.csv,legacy,Kafkaesque Koffka,3.2.8,0,s,h,NA,NA,NA,s,490,15066,NA,NA,NA,490,2,legacy,1024,2,48000,-16,experiment,SSSSS,4,even,NA,57627,5265,NA,NA,58840,20332,NA,NA,48689,5261,NA,58735,58840,59331,58732,Flanker Task,17,10180,22,yes,1024
78.26086957,78.26086957,464.0869565,464.0869565,black,legacy,legacy,legacy,0,congruent,uniform,1,undefined,1,h,22,22,0,0,0,22,0,0,0,22,0,0,22,22,22,22,9/29/19 16:45,1500,The main experiment item,yes,FlankerTask.osexp,C:\Users\Jeanette\Desktop\Jeanette Master's\AQM&ED,no,mono,no,18,no,white,no,yes,768,legacy,22,22,C:/Users/Jeanette/Desktop/Jeanette Master's/AQM&ED/jh-subject-4.csv,legacy,Kafkaesque Koffka,3.2.8,0,h,h,NA,NA,NA,h,494,15066,NA,NA,NA,494,2,legacy,1024,2,48000,-16,experiment,HHHHH,4,even,NA,59357,5265,NA,NA,60572,20332,NA,NA,48689,5261,NA,60467,60572,61066,60464,Flanker Task,18,10674,23,yes,1024
79.16666667,79.16666667,475.8333333,475.8333333,black,legacy,legacy,legacy,0,congruent,uniform,1,undefined,1,s,23,23,0,0,0,23,0,0,0,23,0,0,23,23,23,23,9/29/19 16:45,1500,The main experiment item,yes,FlankerTask.osexp,C:\Users\Jeanette\Desktop\Jeanette Master's\AQM&ED,no,mono,no,18,no,white,no,yes,768,legacy,23,23,C:/Users/Jeanette/Desktop/Jeanette Master's/AQM&ED/jh-subject-4.csv,legacy,Kafkaesque Koffka,3.2.8,0,s,h,NA,NA,NA,s,746,15066,NA,NA,NA,746,2,legacy,1024,2,48000,-16,experiment,SSSSS,4,even,NA,61090,5265,NA,NA,62281,20332,NA,NA,48689,5261,NA,62176,62281,63027,62173,Flanker Task,19,11420,24,yes,1024
80,80,477.76,477.76,black,legacy,legacy,legacy,0,incongruent,uniform,1,undefined,1,h,24,24,0,0,0,24,0,0,0,24,0,0,24,24,24,24,9/29/19 16:45,1500,The main experiment item,yes,FlankerTask.osexp,C:\Users\Jeanette\Desktop\Jeanette Master's\AQM&ED,no,mono,no,18,no,white,no,yes,768,legacy,24,24,C:/Users/Jeanette/Desktop/Jeanette Master's/AQM&ED/jh-subject-4.csv,legacy,Kafkaesque Koffka,3.2.8,0,h,h,NA,NA,NA,h,524,15066,NA,NA,NA,524,2,legacy,1024,2,48000,-16,experiment,SSHSS,4,even,NA,63062,5265,NA,NA,64262,20332,NA,NA,48689,5261,NA,64156,64262,64786,64153,Flanker Task,20,11944,25,yes,1024
80.76923077,80.76923077,484.5384615,484.5384615,black,legacy,legacy,legacy,0,incongruent,uniform,1,undefined,1,s,25,25,0,0,0,25,0,0,0,25,0,0,25,25,25,25,9/29/19 16:45,1500,The main experiment item,yes,FlankerTask.osexp,C:\Users\Jeanette\Desktop\Jeanette Master's\AQM&ED,no,mono,no,18,no,white,no,yes,768,legacy,25,25,C:/Users/Jeanette/Desktop/Jeanette Master's/AQM&ED/jh-subject-4.csv,legacy,Kafkaesque Koffka,3.2.8,0,s,h,NA,NA,NA,s,654,15066,NA,NA,NA,654,2,legacy,1024,2,48000,-16,experiment,HHSHH,4,even,NA,64807,5265,NA,NA,66004,20332,NA,NA,48689,5261,NA,65899,66005,66659,65896,Flanker Task,21,12598,26,yes,1024
81.48148148,81.48148148,482.5555556,482.5555556,black,legacy,legacy,legacy,0,congruent,uniform,1,undefined,1,h,26,26,0,0,0,26,0,0,0,26,0,0,26,26,26,26,9/29/19 16:45,1500,The main experiment item,yes,FlankerTask.osexp,C:\Users\Jeanette\Desktop\Jeanette Master's\AQM&ED,no,mono,no,18,no,white,no,yes,768,legacy,26,26,C:/Users/Jeanette/Desktop/Jeanette Master's/AQM&ED/jh-subject-4.csv,legacy,Kafkaesque Koffka,3.2.8,0,h,h,NA,NA,NA,h,431,15066,NA,NA,NA,431,2,legacy,1024,2,48000,-16,experiment,HHHHH,4,even,NA,66687,5265,NA,NA,67890,20332,NA,NA,48689,5261,NA,67785,67891,68323,67782,Flanker Task,22,13029,27,yes,1024
82.14285714,82.14285714,484,484,black,legacy,legacy,legacy,0,incongruent,uniform,1,undefined,1,h,27,27,0,0,0,27,0,0,0,27,0,0,27,27,27,27,9/29/19 16:45,1500,The main experiment item,yes,FlankerTask.osexp,C:\Users\Jeanette\Desktop\Jeanette Master's\AQM&ED,no,mono,no,18,no,white,no,yes,768,legacy,27,27,C:/Users/Jeanette/Desktop/Jeanette Master's/AQM&ED/jh-subject-4.csv,legacy,Kafkaesque Koffka,3.2.8,0,h,h,NA,NA,NA,h,523,15066,NA,NA,NA,523,2,legacy,1024,2,48000,-16,experiment,SSHSS,4,even,NA,68354,5265,NA,NA,69567,20332,NA,NA,48689,5261,NA,69462,69567,70091,69459,Flanker Task,23,13552,28,yes,1024
82.75862069,82.75862069,482.1034483,482.1034483,black,legacy,legacy,legacy,0,congruent,uniform,1,undefined,1,h,28,28,0,0,0,28,0,0,0,28,0,0,28,28,28,28,9/29/19 16:45,1500,The main experiment item,yes,FlankerTask.osexp,C:\Users\Jeanette\Desktop\Jeanette Master's\AQM&ED,no,mono,no,18,no,white,no,yes,768,legacy,28,28,C:/Users/Jeanette/Desktop/Jeanette Master's/AQM&ED/jh-subject-4.csv,legacy,Kafkaesque Koffka,3.2.8,0,h,h,NA,NA,NA,h,429,15066,NA,NA,NA,429,2,legacy,1024,2,48000,-16,experiment,HHHHH,4,even,NA,70121,5265,NA,NA,71317,20332,NA,NA,48689,5261,NA,71212,71317,71747,71209,Flanker Task,24,13981,29,yes,1024
83.33333333,83.33333333,481.3,481.3,black,legacy,legacy,legacy,0,incongruent,uniform,1,undefined,1,h,29,29,0,0,0,29,0,0,0,29,0,0,29,29,29,29,9/29/19 16:45,1500,The main experiment item,yes,FlankerTask.osexp,C:\Users\Jeanette\Desktop\Jeanette Master's\AQM&ED,no,mono,no,18,no,white,no,yes,768,legacy,29,29,C:/Users/Jeanette/Desktop/Jeanette Master's/AQM&ED/jh-subject-4.csv,legacy,Kafkaesque Koffka,3.2.8,0,h,h,NA,NA,NA,h,458,15066,NA,NA,NA,458,2,legacy,1024,2,48000,-16,experiment,SSHSS,4,even,NA,71775,5265,NA,NA,72992,20332,NA,NA,48689,5261,NA,72887,72992,73451,72884,Flanker Task,25,14439,30,yes,1024
83.87096774,83.87096774,482.1935484,482.1935484,black,legacy,legacy,legacy,0,incongruent,uniform,1,undefined,1,h,30,30,0,0,0,30,0,0,0,30,0,0,30,30,30,30,9/29/19 16:45,1500,The main experiment item,yes,FlankerTask.osexp,C:\Users\Jeanette\Desktop\Jeanette Master's\AQM&ED,no,mono,no,18,no,white,no,yes,768,legacy,30,30,C:/Users/Jeanette/Desktop/Jeanette Master's/AQM&ED/jh-subject-4.csv,legacy,Kafkaesque Koffka,3.2.8,0,h,h,NA,NA,NA,h,509,15066,NA,NA,NA,509,2,legacy,1024,2,48000,-16,experiment,SSHSS,4,even,NA,73479,5265,NA,NA,74709,20332,NA,NA,48689,5261,NA,74604,74709,75219,74601,Flanker Task,26,14948,31,yes,1024
84.375,84.375,480.65625,480.65625,black,legacy,legacy,legacy,0,incongruent,uniform,1,undefined,1,s,31,31,0,0,0,31,0,0,0,31,0,0,31,31,31,31,9/29/19 16:45,1500,The main experiment item,yes,FlankerTask.osexp,C:\Users\Jeanette\Desktop\Jeanette Master's\AQM&ED,no,mono,no,18,no,white,no,yes,768,legacy,31,31,C:/Users/Jeanette/Desktop/Jeanette Master's/AQM&ED/jh-subject-4.csv,legacy,Kafkaesque Koffka,3.2.8,0,s,h,NA,NA,NA,s,433,15066,NA,NA,NA,433,2,legacy,1024,2,48000,-16,experiment,HHSHH,4,even,NA,75246,5265,NA,NA,76449,20332,NA,NA,48689,5261,NA,76344,76449,76883,76341,Flanker Task,27,15381,32,yes,1024
84.84848485,84.84848485,481.9090909,481.9090909,black,legacy,legacy,legacy,0,congruent,uniform,1,undefined,1,s,32,32,0,0,0,32,0,0,0,32,0,0,32,32,32,32,9/29/19 16:45,1500,The main experiment item,yes,FlankerTask.osexp,C:\Users\Jeanette\Desktop\Jeanette Master's\AQM&ED,no,mono,no,18,no,white,no,yes,768,legacy,32,32,C:/Users/Jeanette/Desktop/Jeanette Master's/AQM&ED/jh-subject-4.csv,legacy,Kafkaesque Koffka,3.2.8,0,s,h,NA,NA,NA,s,522,15066,NA,NA,NA,522,2,legacy,1024,2,48000,-16,experiment,SSSSS,4,even,NA,76913,5265,NA,NA,78120,20332,NA,NA,48689,5261,NA,78015,78120,78643,78012,Flanker Task,28,15903,33,yes,1024
85.29411765,85.29411765,481.8235294,481.8235294,black,legacy,legacy,legacy,0,incongruent,uniform,1,undefined,1,s,33,33,0,0,0,33,0,0,0,33,0,0,33,33,33,33,9/29/19 16:45,1500,The main experiment item,yes,FlankerTask.osexp,C:\Users\Jeanette\Desktop\Jeanette Master's\AQM&ED,no,mono,no,18,no,white,no,yes,768,legacy,33,33,C:/Users/Jeanette/Desktop/Jeanette Master's/AQM&ED/jh-subject-4.csv,legacy,Kafkaesque Koffka,3.2.8,0,s,h,NA,NA,NA,s,479,15066,NA,NA,NA,479,2,legacy,1024,2,48000,-16,experiment,HHSHH,4,even,NA,78668,5265,NA,NA,79883,20332,NA,NA,48689,5261,NA,79778,79883,80362,79775,Flanker Task,29,16382,34,yes,1024
85.71428571,85.71428571,482.6285714,482.6285714,black,legacy,legacy,legacy,0,congruent,uniform,1,undefined,1,s,34,34,0,0,0,34,0,0,0,34,0,0,34,34,34,34,9/29/19 16:45,1500,The main experiment item,yes,FlankerTask.osexp,C:\Users\Jeanette\Desktop\Jeanette Master's\AQM&ED,no,mono,no,18,no,white,no,yes,768,legacy,34,34,C:/Users/Jeanette/Desktop/Jeanette Master's/AQM&ED/jh-subject-4.csv,legacy,Kafkaesque Koffka,3.2.8,0,s,h,NA,NA,NA,s,510,15066,NA,NA,NA,510,2,legacy,1024,2,48000,-16,experiment,SSSSS,4,even,NA,80384,5265,NA,NA,81580,20332,NA,NA,48689,5261,NA,81475,81580,82091,81472,Flanker Task,30,16892,35,yes,1024
86.11111111,86.11111111,485.0555556,485.0555556,black,legacy,legacy,legacy,0,incongruent,uniform,1,undefined,1,s,35,35,0,0,0,35,0,0,0,35,0,0,35,35,35,35,9/29/19 16:45,1500,The main experiment item,yes,FlankerTask.osexp,C:\Users\Jeanette\Desktop\Jeanette Master's\AQM&ED,no,mono,no,18,no,white,no,yes,768,legacy,35,35,C:/Users/Jeanette/Desktop/Jeanette Master's/AQM&ED/jh-subject-4.csv,legacy,Kafkaesque Koffka,3.2.8,0,s,h,NA,NA,NA,s,570,15066,NA,NA,NA,570,2,legacy,1024,2,48000,-16,experiment,HHSHH,4,even,NA,82114,5265,NA,NA,83296,20332,NA,NA,48689,5261,NA,83191,83296,83867,83188,Flanker Task,31,17462,36,yes,1024
86.48648649,86.48648649,485.6486486,485.6486486,black,legacy,legacy,legacy,0,congruent,uniform,1,undefined,1,h,36,36,0,0,0,36,0,0,0,36,0,0,36,36,36,36,9/29/19 16:45,1500,The main experiment item,yes,FlankerTask.osexp,C:\Users\Jeanette\Desktop\Jeanette Master's\AQM&ED,no,mono,no,18,no,white,no,yes,768,legacy,36,36,C:/Users/Jeanette/Desktop/Jeanette Master's/AQM&ED/jh-subject-4.csv,legacy,Kafkaesque Koffka,3.2.8,0,h,h,NA,NA,NA,h,507,15066,NA,NA,NA,507,2,legacy,1024,2,48000,-16,experiment,HHHHH,4,even,NA,83893,5265,NA,NA,85111,20332,NA,NA,48689,5261,NA,85006,85111,85619,85003,Flanker Task,32,17969,37,yes,1024
86.84210526,86.84210526,488.7105263,488.7105263,black,legacy,legacy,legacy,0,congruent,uniform,1,undefined,1,s,37,37,0,0,0,37,0,0,0,37,0,0,37,37,37,37,9/29/19 16:45,1500,The main experiment item,yes,FlankerTask.osexp,C:\Users\Jeanette\Desktop\Jeanette Master's\AQM&ED,no,mono,no,18,no,white,no,yes,768,legacy,37,37,C:/Users/Jeanette/Desktop/Jeanette Master's/AQM&ED/jh-subject-4.csv,legacy,Kafkaesque Koffka,3.2.8,0,s,h,NA,NA,NA,s,602,15066,NA,NA,NA,602,2,legacy,1024,2,48000,-16,experiment,SSSSS,4,even,NA,85643,5265,NA,NA,86856,20332,NA,NA,48689,5261,NA,86751,86856,87459,86747,Flanker Task,33,18571,38,yes,1024
87.17948718,87.17948718,488.3846154,488.3846154,black,legacy,legacy,legacy,0,congruent,uniform,1,undefined,1,h,38,38,0,0,0,38,0,0,0,38,0,0,38,38,38,38,9/29/19 16:45,1500,The main experiment item,yes,FlankerTask.osexp,C:\Users\Jeanette\Desktop\Jeanette Master's\AQM&ED,no,mono,no,18,no,white,no,yes,768,legacy,38,38,C:/Users/Jeanette/Desktop/Jeanette Master's/AQM&ED/jh-subject-4.csv,legacy,Kafkaesque Koffka,3.2.8,0,h,h,NA,NA,NA,h,476,15066,NA,NA,NA,476,2,legacy,1024,2,48000,-16,experiment,HHHHH,4,even,NA,87485,5265,NA,NA,88718,20332,NA,NA,48689,5261,NA,88613,88718,89194,88610,Flanker Task,34,19047,39,yes,1024
87.5,87.5,488.85,488.85,black,legacy,legacy,legacy,0,incongruent,uniform,1,undefined,1,s,39,39,0,0,0,39,0,0,0,39,0,0,39,39,39,39,9/29/19 16:45,1500,The main experiment item,yes,FlankerTask.osexp,C:\Users\Jeanette\Desktop\Jeanette Master's\AQM&ED,no,mono,no,18,no,white,no,yes,768,legacy,39,39,C:/Users/Jeanette/Desktop/Jeanette Master's/AQM&ED/jh-subject-4.csv,legacy,Kafkaesque Koffka,3.2.8,0,s,h,NA,NA,NA,s,507,15066,NA,NA,NA,507,2,legacy,1024,2,48000,-16,experiment,HHSHH,4,even,NA,89222,5265,NA,NA,90423,20332,NA,NA,48689,5261,NA,90318,90423,90931,90315,Flanker Task,35,19554,40,yes,1024
87.80487805,87.80487805,488.1463415,488.1463415,black,legacy,legacy,legacy,0,incongruent,uniform,1,undefined,1,s,40,40,0,0,0,40,0,0,0,40,0,0,40,40,40,40,9/29/19 16:45,1500,The main experiment item,yes,FlankerTask.osexp,C:\Users\Jeanette\Desktop\Jeanette Master's\AQM&ED,no,mono,no,18,no,white,no,yes,768,legacy,40,40,C:/Users/Jeanette/Desktop/Jeanette Master's/AQM&ED/jh-subject-4.csv,legacy,Kafkaesque Koffka,3.2.8,0,s,h,NA,NA,NA,s,460,15066,NA,NA,NA,460,2,legacy,1024,2,48000,-16,experiment,HHSHH,4,even,NA,90956,5265,NA,NA,92166,20332,NA,NA,48689,5261,NA,92061,92166,92627,92058,Flanker Task,36,20014,41,yes,1024
88.0952381,88.0952381,488.0952381,488.0952381,black,legacy,legacy,legacy,0,incongruent,uniform,1,undefined,1,h,41,41,0,0,0,41,0,0,0,41,0,0,41,41,41,41,9/29/19 16:45,1500,The main experiment item,yes,FlankerTask.osexp,C:\Users\Jeanette\Desktop\Jeanette Master's\AQM&ED,no,mono,no,18,no,white,no,yes,768,legacy,41,41,C:/Users/Jeanette/Desktop/Jeanette Master's/AQM&ED/jh-subject-4.csv,legacy,Kafkaesque Koffka,3.2.8,0,h,h,NA,NA,NA,h,486,15066,NA,NA,NA,486,2,legacy,1024,2,48000,-16,experiment,SSHSS,4,even,NA,92652,5265,NA,NA,93867,20332,NA,NA,48689,5261,NA,93762,93867,94354,93759,Flanker Task,37,20500,42,yes,1024
88.37209302,88.37209302,488.2093023,488.2093023,black,legacy,legacy,legacy,0,congruent,uniform,1,undefined,1,s,42,42,0,0,0,42,0,0,0,42,0,0,42,42,42,42,9/29/19 16:45,1500,The main experiment item,yes,FlankerTask.osexp,C:\Users\Jeanette\Desktop\Jeanette Master's\AQM&ED,no,mono,no,18,no,white,no,yes,768,legacy,42,42,C:/Users/Jeanette/Desktop/Jeanette Master's/AQM&ED/jh-subject-4.csv,legacy,Kafkaesque Koffka,3.2.8,0,s,h,NA,NA,NA,s,493,15066,NA,NA,NA,493,2,legacy,1024,2,48000,-16,experiment,SSSSS,4,even,NA,94389,5265,NA,NA,95597,20332,NA,NA,48689,5261,NA,95492,95597,96091,95488,Flanker Task,38,20993,43,yes,1024
88.63636364,88.63636364,488.75,488.75,black,legacy,legacy,legacy,0,incongruent,uniform,1,undefined,1,s,43,43,0,0,0,43,0,0,0,43,0,0,43,43,43,43,9/29/19 16:45,1500,The main experiment item,yes,FlankerTask.osexp,C:\Users\Jeanette\Desktop\Jeanette Master's\AQM&ED,no,mono,no,18,no,white,no,yes,768,legacy,43,43,C:/Users/Jeanette/Desktop/Jeanette Master's/AQM&ED/jh-subject-4.csv,legacy,Kafkaesque Koffka,3.2.8,0,s,h,NA,NA,NA,s,512,15066,NA,NA,NA,512,2,legacy,1024,2,48000,-16,experiment,HHSHH,4,even,NA,96111,5265,NA,NA,97298,20332,NA,NA,48689,5261,NA,97193,97298,97811,97191,Flanker Task,39,21505,44,yes,1024
88.88888889,88.88888889,487.6666667,487.6666667,black,legacy,legacy,legacy,0,incongruent,uniform,1,undefined,1,s,44,44,0,0,0,44,0,0,0,44,0,0,44,44,44,44,9/29/19 16:45,1500,The main experiment item,yes,FlankerTask.osexp,C:\Users\Jeanette\Desktop\Jeanette Master's\AQM&ED,no,mono,no,18,no,white,no,yes,768,legacy,44,44,C:/Users/Jeanette/Desktop/Jeanette Master's/AQM&ED/jh-subject-4.csv,legacy,Kafkaesque Koffka,3.2.8,0,s,h,NA,NA,NA,s,440,15066,NA,NA,NA,440,2,legacy,1024,2,48000,-16,experiment,HHSHH,4,even,NA,97831,5265,NA,NA,99034,20332,NA,NA,48689,5261,NA,98928,99034,99475,98925,Flanker Task,40,21945,45,yes,1024
89.13043478,89.13043478,486.4565217,486.4565217,black,legacy,legacy,legacy,0,incongruent,uniform,1,undefined,1,s,45,45,0,0,0,45,0,0,0,45,0,0,45,45,45,45,9/29/19 16:45,1500,The main experiment item,yes,FlankerTask.osexp,C:\Users\Jeanette\Desktop\Jeanette Master's\AQM&ED,no,mono,no,18,no,white,no,yes,768,legacy,45,45,C:/Users/Jeanette/Desktop/Jeanette Master's/AQM&ED/jh-subject-4.csv,legacy,Kafkaesque Koffka,3.2.8,0,s,h,NA,NA,NA,s,432,15066,NA,NA,NA,432,2,legacy,1024,2,48000,-16,experiment,HHSHH,4,even,NA,99494,5265,NA,NA,100698,20332,NA,NA,48689,5261,NA,100593,100698,101131,100590,Flanker Task,41,22377,46,yes,1024
89.36170213,89.36170213,486.6595745,486.6595745,black,legacy,legacy,legacy,0,incongruent,uniform,1,undefined,1,h,46,46,0,0,0,46,0,0,0,46,0,0,46,46,46,46,9/29/19 16:45,1500,The main experiment item,yes,FlankerTask.osexp,C:\Users\Jeanette\Desktop\Jeanette Master's\AQM&ED,no,mono,no,18,no,white,no,yes,768,legacy,46,46,C:/Users/Jeanette/Desktop/Jeanette Master's/AQM&ED/jh-subject-4.csv,legacy,Kafkaesque Koffka,3.2.8,0,h,h,NA,NA,NA,h,496,15066,NA,NA,NA,496,2,legacy,1024,2,48000,-16,experiment,SSHSS,4,even,NA,101157,5265,NA,NA,102362,20332,NA,NA,48689,5261,NA,102257,102362,102859,102254,Flanker Task,42,22873,47,yes,1024
89.58333333,89.58333333,488.125,488.125,black,legacy,legacy,legacy,0,congruent,uniform,1,undefined,1,s,47,47,0,0,0,47,0,0,0,47,0,0,47,47,47,47,9/29/19 16:45,1500,The main experiment item,yes,FlankerTask.osexp,C:\Users\Jeanette\Desktop\Jeanette Master's\AQM&ED,no,mono,no,18,no,white,no,yes,768,legacy,47,47,C:/Users/Jeanette/Desktop/Jeanette Master's/AQM&ED/jh-subject-4.csv,legacy,Kafkaesque Koffka,3.2.8,0,s,h,NA,NA,NA,s,557,15066,NA,NA,NA,557,2,legacy,1024,2,48000,-16,experiment,SSSSS,4,even,NA,102878,5265,NA,NA,104077,20332,NA,NA,48689,5261,NA,103973,104077,104634,103971,Flanker Task,43,23430,48,yes,1024
89.79591837,89.79591837,488.6734694,488.6734694,black,legacy,legacy,legacy,0,congruent,uniform,1,undefined,1,h,48,48,0,0,0,48,0,0,0,48,0,0,48,48,48,48,9/29/19 16:45,1500,The main experiment item,yes,FlankerTask.osexp,C:\Users\Jeanette\Desktop\Jeanette Master's\AQM&ED,no,mono,no,18,no,white,no,yes,768,legacy,48,48,C:/Users/Jeanette/Desktop/Jeanette Master's/AQM&ED/jh-subject-4.csv,legacy,Kafkaesque Koffka,3.2.8,0,h,h,NA,NA,NA,h,515,15066,NA,NA,NA,515,2,legacy,1024,2,48000,-16,experiment,HHHHH,4,even,NA,104653,5265,NA,NA,105830,20332,NA,NA,48689,5261,NA,105728,105830,106346,105725,Flanker Task,44,23945,49,yes,1024
90,90,492.3,492.3,black,legacy,legacy,legacy,0,congruent,uniform,1,undefined,1,s,49,49,0,0,0,49,0,0,0,49,0,0,49,49,49,49,9/29/19 16:45,1500,The main experiment item,yes,FlankerTask.osexp,C:\Users\Jeanette\Desktop\Jeanette Master's\AQM&ED,no,mono,no,18,no,white,no,yes,768,legacy,49,49,C:/Users/Jeanette/Desktop/Jeanette Master's/AQM&ED/jh-subject-4.csv,legacy,Kafkaesque Koffka,3.2.8,0,s,h,NA,NA,NA,s,670,15066,NA,NA,NA,670,2,legacy,1024,2,48000,-16,experiment,SSSSS,4,even,NA,106370,5265,NA,NA,107580,20332,NA,NA,48689,5261,NA,107475,107580,108251,107472,Flanker Task,45,24615,50,yes,1024
90.19607843,90.19607843,493.7843137,493.7843137,black,legacy,legacy,legacy,0,incongruent,uniform,1,undefined,1,s,50,50,0,0,0,50,0,0,0,50,0,0,50,50,50,50,9/29/19 16:45,1500,The main experiment item,yes,FlankerTask.osexp,C:\Users\Jeanette\Desktop\Jeanette Master's\AQM&ED,no,mono,no,18,no,white,no,yes,768,legacy,50,50,C:/Users/Jeanette/Desktop/Jeanette Master's/AQM&ED/jh-subject-4.csv,legacy,Kafkaesque Koffka,3.2.8,0,s,h,NA,NA,NA,s,568,15066,NA,NA,NA,568,2,legacy,1024,2,48000,-16,experiment,HHSHH,4,even,NA,108281,5265,NA,NA,109490,20332,NA,NA,48689,5261,NA,109387,109490,110059,109384,Flanker Task,46,25183,51,yes,1024
90.38461538,90.38461538,497.3076923,497.3076923,black,legacy,legacy,legacy,0,congruent,uniform,1,undefined,1,h,51,51,0,0,0,51,0,0,0,51,0,0,51,51,51,51,9/29/19 16:45,1500,The main experiment item,yes,FlankerTask.osexp,C:\Users\Jeanette\Desktop\Jeanette Master's\AQM&ED,no,mono,no,18,no,white,no,yes,768,legacy,51,51,C:/Users/Jeanette/Desktop/Jeanette Master's/AQM&ED/jh-subject-4.csv,legacy,Kafkaesque Koffka,3.2.8,0,h,h,NA,NA,NA,h,677,15066,NA,NA,NA,677,2,legacy,1024,2,48000,-16,experiment,HHHHH,4,even,NA,110083,5265,NA,NA,111276,20332,NA,NA,48689,5261,NA,111171,111276,111954,111168,Flanker Task,47,25860,52,yes,1024
90.56603774,90.56603774,499.509434,499.509434,black,legacy,legacy,legacy,0,incongruent,uniform,1,undefined,1,s,52,52,0,0,0,52,0,0,0,52,0,0,52,52,52,52,9/29/19 16:45,1500,The main experiment item,yes,FlankerTask.osexp,C:\Users\Jeanette\Desktop\Jeanette Master's\AQM&ED,no,mono,no,18,no,white,no,yes,768,legacy,52,52,C:/Users/Jeanette/Desktop/Jeanette Master's/AQM&ED/jh-subject-4.csv,legacy,Kafkaesque Koffka,3.2.8,0,s,h,NA,NA,NA,s,614,15066,NA,NA,NA,614,2,legacy,1024,2,48000,-16,experiment,HHSHH,4,even,NA,111978,5265,NA,NA,113195,20332,NA,NA,48689,5261,NA,113090,113195,113810,113087,Flanker Task,48,26474,53,yes,1024
90.74074074,90.74074074,499.3333333,499.3333333,black,legacy,legacy,legacy,0,congruent,uniform,1,undefined,1,h,53,53,0,0,0,53,0,0,0,53,0,0,53,53,53,53,9/29/19 16:45,1500,The main experiment item,yes,FlankerTask.osexp,C:\Users\Jeanette\Desktop\Jeanette Master's\AQM&ED,no,mono,no,18,no,white,no,yes,768,legacy,53,53,C:/Users/Jeanette/Desktop/Jeanette Master's/AQM&ED/jh-subject-4.csv,legacy,Kafkaesque Koffka,3.2.8,0,h,h,NA,NA,NA,h,490,15066,NA,NA,NA,490,2,legacy,1024,2,48000,-16,experiment,HHHHH,4,even,NA,113833,5265,NA,NA,115056,20332,NA,NA,48689,5261,NA,114950,115056,115547,114947,Flanker Task,49,26964,54,yes,1024
90.90909091,90.90909091,500.3454545,500.3454545,black,legacy,legacy,legacy,0,incongruent,uniform,1,undefined,1,h,54,54,0,0,0,54,0,0,0,54,0,0,54,54,54,54,9/29/19 16:45,1500,The main experiment item,yes,FlankerTask.osexp,C:\Users\Jeanette\Desktop\Jeanette Master's\AQM&ED,no,mono,no,18,no,white,no,yes,768,legacy,54,54,C:/Users/Jeanette/Desktop/Jeanette Master's/AQM&ED/jh-subject-4.csv,legacy,Kafkaesque Koffka,3.2.8,0,h,h,NA,NA,NA,h,555,15066,NA,NA,NA,555,2,legacy,1024,2,48000,-16,experiment,SSHSS,4,even,NA,115571,5265,NA,NA,116767,20332,NA,NA,48689,5261,NA,116662,116767,117323,116660,Flanker Task,50,27519,55,yes,1024
91.07142857,91.07142857,501.0178571,501.0178571,black,legacy,legacy,legacy,0,incongruent,uniform,1,undefined,1,h,55,55,0,0,0,55,0,0,0,55,0,0,55,55,55,55,9/29/19 16:45,1500,The main experiment item,yes,FlankerTask.osexp,C:\Users\Jeanette\Desktop\Jeanette Master's\AQM&ED,no,mono,no,18,no,white,no,yes,768,legacy,55,55,C:/Users/Jeanette/Desktop/Jeanette Master's/AQM&ED/jh-subject-4.csv,legacy,Kafkaesque Koffka,3.2.8,0,h,h,NA,NA,NA,h,538,15066,NA,NA,NA,538,2,legacy,1024,2,48000,-16,experiment,SSHSS,4,even,NA,117351,5265,NA,NA,118567,20332,NA,NA,48689,5261,NA,118463,118567,119106,118460,Flanker Task,51,28057,56,yes,1024
91.22807018,91.22807018,501.0526316,501.0526316,black,legacy,legacy,legacy,0,congruent,uniform,1,undefined,1,h,56,56,0,0,0,56,0,0,0,56,0,0,56,56,56,56,9/29/19 16:45,1500,The main experiment item,yes,FlankerTask.osexp,C:\Users\Jeanette\Desktop\Jeanette Master's\AQM&ED,no,mono,no,18,no,white,no,yes,768,legacy,56,56,C:/Users/Jeanette/Desktop/Jeanette Master's/AQM&ED/jh-subject-4.csv,legacy,Kafkaesque Koffka,3.2.8,0,h,h,NA,NA,NA,h,503,15066,NA,NA,NA,503,2,legacy,1024,2,48000,-16,experiment,HHHHH,4,even,NA,119129,5265,NA,NA,120330,20332,NA,NA,48689,5261,NA,120226,120331,120835,120223,Flanker Task,52,28560,57,yes,1024
91.37931034,91.37931034,500.9310345,500.9310345,black,legacy,legacy,legacy,0,congruent,uniform,1,undefined,1,s,57,57,0,0,0,57,0,0,0,57,0,0,57,57,57,57,9/29/19 16:45,1500,The main experiment item,yes,FlankerTask.osexp,C:\Users\Jeanette\Desktop\Jeanette Master's\AQM&ED,no,mono,no,18,no,white,no,yes,768,legacy,57,57,C:/Users/Jeanette/Desktop/Jeanette Master's/AQM&ED/jh-subject-4.csv,legacy,Kafkaesque Koffka,3.2.8,0,s,h,NA,NA,NA,s,494,15066,NA,NA,NA,494,2,legacy,1024,2,48000,-16,experiment,SSSSS,4,even,NA,120859,5265,NA,NA,122052,20332,NA,NA,48689,5261,NA,121947,122052,122547,121944,Flanker Task,53,29054,58,yes,1024
91.52542373,91.52542373,499.9491525,499.9491525,black,legacy,legacy,legacy,0,congruent,uniform,1,undefined,1,s,58,58,0,0,0,58,0,0,0,58,0,0,58,58,58,58,9/29/19 16:45,1500,The main experiment item,yes,FlankerTask.osexp,C:\Users\Jeanette\Desktop\Jeanette Master's\AQM&ED,no,mono,no,18,no,white,no,yes,768,legacy,58,58,C:/Users/Jeanette/Desktop/Jeanette Master's/AQM&ED/jh-subject-4.csv,legacy,Kafkaesque Koffka,3.2.8,0,s,h,NA,NA,NA,s,443,15066,NA,NA,NA,443,2,legacy,1024,2,48000,-16,experiment,SSSSS,4,even,NA,122572,5265,NA,NA,123775,20332,NA,NA,48689,5261,NA,123670,123775,124219,123667,Flanker Task,54,29497,59,yes,1024
91.66666667,91.66666667,498.5,498.5,black,legacy,legacy,legacy,0,congruent,uniform,1,undefined,1,s,59,59,0,0,0,59,0,0,0,59,0,0,59,59,59,59,9/29/19 16:45,1500,The main experiment item,yes,FlankerTask.osexp,C:\Users\Jeanette\Desktop\Jeanette Master's\AQM&ED,no,mono,no,18,no,white,no,yes,768,legacy,59,59,C:/Users/Jeanette/Desktop/Jeanette Master's/AQM&ED/jh-subject-4.csv,legacy,Kafkaesque Koffka,3.2.8,0,s,h,NA,NA,NA,s,413,15066,NA,NA,NA,413,2,legacy,1024,2,48000,-16,experiment,SSSSS,4,even,NA,124239,5265,NA,NA,125461,20332,NA,NA,48689,5261,NA,125355,125461,125874,125353,Flanker Task,55,29910,60,yes,1024
91.80327869,91.80327869,498.0163934,498.0163934,black,legacy,legacy,legacy,0,incongruent,uniform,1,undefined,1,s,60,60,0,0,0,60,0,0,0,60,0,0,60,60,60,60,9/29/19 16:45,1500,The main experiment item,yes,FlankerTask.osexp,C:\Users\Jeanette\Desktop\Jeanette Master's\AQM&ED,no,mono,no,18,no,white,no,yes,768,legacy,60,60,C:/Users/Jeanette/Desktop/Jeanette Master's/AQM&ED/jh-subject-4.csv,legacy,Kafkaesque Koffka,3.2.8,0,s,h,NA,NA,NA,s,469,15066,NA,NA,NA,469,2,legacy,1024,2,48000,-16,experiment,HHSHH,4,even,NA,125897,5265,NA,NA,127108,20332,NA,NA,48689,5261,NA,127003,127108,127578,127000,Flanker Task,56,30379,61,yes,1024
90.32258065,90.32258065,496.516129,496.516129,black,legacy,legacy,legacy,0,congruent,uniform,0,undefined,0,h,61,61,0,0,0,61,0,0,0,61,0,0,61,61,61,61,9/29/19 16:45,1500,The main experiment item,yes,FlankerTask.osexp,C:\Users\Jeanette\Desktop\Jeanette Master's\AQM&ED,no,mono,no,18,no,white,no,yes,768,legacy,61,61,C:/Users/Jeanette/Desktop/Jeanette Master's/AQM&ED/jh-subject-4.csv,legacy,Kafkaesque Koffka,3.2.8,0,s,h,NA,NA,NA,s,405,15066,NA,NA,NA,405,2,legacy,1024,2,48000,-16,experiment,HHHHH,4,even,NA,127601,5265,NA,NA,128797,20332,NA,NA,48689,5261,NA,128691,128797,129202,128689,Flanker Task,56,30784,62,yes,1024
90.47619048,90.47619048,495.3492063,495.3492063,black,legacy,legacy,legacy,0,congruent,uniform,1,undefined,1,s,62,62,0,0,0,62,0,0,0,62,0,0,62,62,62,62,9/29/19 16:45,1500,The main experiment item,yes,FlankerTask.osexp,C:\Users\Jeanette\Desktop\Jeanette Master's\AQM&ED,no,mono,no,18,no,white,no,yes,768,legacy,62,62,C:/Users/Jeanette/Desktop/Jeanette Master's/AQM&ED/jh-subject-4.csv,legacy,Kafkaesque Koffka,3.2.8,0,s,h,NA,NA,NA,s,423,15066,NA,NA,NA,423,2,legacy,1024,2,48000,-16,experiment,SSSSS,4,even,NA,129728,5265,NA,NA,130971,20332,NA,NA,129222,5261,NA,130866,130971,131395,130862,Flanker Task,57,31207,63,yes,1024
90.625,90.625,494.578125,494.578125,black,legacy,legacy,legacy,0,congruent,uniform,1,undefined,1,s,63,63,0,0,0,63,0,0,0,63,0,0,63,63,63,63,9/29/19 16:45,1500,The main experiment item,yes,FlankerTask.osexp,C:\Users\Jeanette\Desktop\Jeanette Master's\AQM&ED,no,mono,no,18,no,white,no,yes,768,legacy,63,63,C:/Users/Jeanette/Desktop/Jeanette Master's/AQM&ED/jh-subject-4.csv,legacy,Kafkaesque Koffka,3.2.8,0,s,h,NA,NA,NA,s,446,15066,NA,NA,NA,446,2,legacy,1024,2,48000,-16,experiment,SSSSS,4,even,NA,131415,5265,NA,NA,132604,20332,NA,NA,129222,5261,NA,132499,132604,133051,132496,Flanker Task,58,31653,64,yes,1024
89.23076923,89.23076923,492.9076923,492.9076923,black,legacy,legacy,legacy,0,incongruent,uniform,0,undefined,0,h,64,64,0,0,0,64,0,0,0,64,0,0,64,64,64,64,9/29/19 16:45,1500,The main experiment item,yes,FlankerTask.osexp,C:\Users\Jeanette\Desktop\Jeanette Master's\AQM&ED,no,mono,no,18,no,white,no,yes,768,legacy,64,64,C:/Users/Jeanette/Desktop/Jeanette Master's/AQM&ED/jh-subject-4.csv,legacy,Kafkaesque Koffka,3.2.8,0,s,h,NA,NA,NA,s,386,15066,NA,NA,NA,386,2,legacy,1024,2,48000,-16,experiment,SSHSS,4,even,NA,133128,5265,NA,NA,134327,20332,NA,NA,129222,5261,NA,134222,134327,134714,134218,Flanker Task,58,32039,65,yes,1024
89.39393939,89.39393939,494.1363636,494.1363636,black,legacy,legacy,legacy,0,congruent,uniform,1,undefined,1,s,65,65,0,0,0,65,0,0,0,65,0,0,65,65,65,65,9/29/19 16:45,1500,The main experiment item,yes,FlankerTask.osexp,C:\Users\Jeanette\Desktop\Jeanette Master's\AQM&ED,no,mono,no,18,no,white,no,yes,768,legacy,65,65,C:/Users/Jeanette/Desktop/Jeanette Master's/AQM&ED/jh-subject-4.csv,legacy,Kafkaesque Koffka,3.2.8,0,s,h,NA,NA,NA,s,574,15066,NA,NA,NA,574,2,legacy,1024,2,48000,-16,experiment,SSSSS,4,even,NA,135240,5265,NA,NA,136468,20332,NA,NA,134735,5261,NA,136363,136468,137043,136360,Flanker Task,59,32613,66,yes,1024
89.55223881,89.55223881,493.3134328,493.3134328,black,legacy,legacy,legacy,0,congruent,uniform,1,undefined,1,s,66,66,0,0,0,66,0,0,0,66,0,0,66,66,66,66,9/29/19 16:45,1500,The main experiment item,yes,FlankerTask.osexp,C:\Users\Jeanette\Desktop\Jeanette Master's\AQM&ED,no,mono,no,18,no,white,no,yes,768,legacy,66,66,C:/Users/Jeanette/Desktop/Jeanette Master's/AQM&ED/jh-subject-4.csv,legacy,Kafkaesque Koffka,3.2.8,0,s,h,NA,NA,NA,s,439,15066,NA,NA,NA,439,2,legacy,1024,2,48000,-16,experiment,SSSSS,4,even,NA,137062,5265,NA,NA,138251,20332,NA,NA,134735,5261,NA,138146,138251,138691,138143,Flanker Task,60,33052,67,yes,1024
89.70588235,89.70588235,493.8235294,493.8235294,black,legacy,legacy,legacy,0,incongruent,uniform,1,undefined,1,h,67,67,0,0,0,67,0,0,0,67,0,0,67,67,67,67,9/29/19 16:45,1500,The main experiment item,yes,FlankerTask.osexp,C:\Users\Jeanette\Desktop\Jeanette Master's\AQM&ED,no,mono,no,18,no,white,no,yes,768,legacy,67,67,C:/Users/Jeanette/Desktop/Jeanette Master's/AQM&ED/jh-subject-4.csv,legacy,Kafkaesque Koffka,3.2.8,0,h,h,NA,NA,NA,h,528,15066,NA,NA,NA,528,2,legacy,1024,2,48000,-16,experiment,SSHSS,4,even,NA,138712,5265,NA,NA,139897,20332,NA,NA,134735,5261,NA,139791,139897,140426,139789,Flanker Task,61,33580,68,yes,1024
89.85507246,89.85507246,492.4927536,492.4927536,black,legacy,legacy,legacy,0,incongruent,uniform,1,undefined,1,h,68,68,0,0,0,68,0,0,0,68,0,0,68,68,68,68,9/29/19 16:45,1500,The main experiment item,yes,FlankerTask.osexp,C:\Users\Jeanette\Desktop\Jeanette Master's\AQM&ED,no,mono,no,18,no,white,no,yes,768,legacy,68,68,C:/Users/Jeanette/Desktop/Jeanette Master's/AQM&ED/jh-subject-4.csv,legacy,Kafkaesque Koffka,3.2.8,0,h,h,NA,NA,NA,h,402,15066,NA,NA,NA,402,2,legacy,1024,2,48000,-16,experiment,SSHSS,4,even,NA,140445,5265,NA,NA,141640,20332,NA,NA,134735,5261,NA,141538,141640,142043,141535,Flanker Task,62,33982,69,yes,1024
90,90,491.5,491.5,black,legacy,legacy,legacy,0,congruent,uniform,1,undefined,1,h,69,69,0,0,0,69,0,0,0,69,0,0,69,69,69,69,9/29/19 16:45,1500,The main experiment item,yes,FlankerTask.osexp,C:\Users\Jeanette\Desktop\Jeanette Master's\AQM&ED,no,mono,no,18,no,white,no,yes,768,legacy,69,69,C:/Users/Jeanette/Desktop/Jeanette Master's/AQM&ED/jh-subject-4.csv,legacy,Kafkaesque Koffka,3.2.8,0,h,h,NA,NA,NA,h,423,15066,NA,NA,NA,423,2,legacy,1024,2,48000,-16,experiment,HHHHH,4,even,NA,142070,5265,NA,NA,143274,20332,NA,NA,134735,5261,NA,143169,143275,143699,143167,Flanker Task,63,34405,70,yes,1024
90.14084507,90.14084507,490.7887324,490.7887324,black,legacy,legacy,legacy,0,incongruent,uniform,1,undefined,1,h,70,70,0,0,0,70,0,0,0,70,0,0,70,70,70,70,9/29/19 16:45,1500,The main experiment item,yes,FlankerTask.osexp,C:\Users\Jeanette\Desktop\Jeanette Master's\AQM&ED,no,mono,no,18,no,white,no,yes,768,legacy,70,70,C:/Users/Jeanette/Desktop/Jeanette Master's/AQM&ED/jh-subject-4.csv,legacy,Kafkaesque Koffka,3.2.8,0,h,h,NA,NA,NA,h,441,15066,NA,NA,NA,441,2,legacy,1024,2,48000,-16,experiment,SSHSS,4,even,NA,143721,5265,NA,NA,144929,20332,NA,NA,134735,5261,NA,144824,144929,145371,144821,Flanker Task,64,34846,71,yes,1024
90.27777778,90.27777778,490.7361111,490.7361111,black,legacy,legacy,legacy,0,incongruent,uniform,1,undefined,1,h,71,71,0,0,0,71,0,0,0,71,0,0,71,71,71,71,9/29/19 16:45,1500,The main experiment item,yes,FlankerTask.osexp,C:\Users\Jeanette\Desktop\Jeanette Master's\AQM&ED,no,mono,no,18,no,white,no,yes,768,legacy,71,71,C:/Users/Jeanette/Desktop/Jeanette Master's/AQM&ED/jh-subject-4.csv,legacy,Kafkaesque Koffka,3.2.8,0,h,h,NA,NA,NA,h,487,15066,NA,NA,NA,487,2,legacy,1024,2,48000,-16,experiment,SSHSS,4,even,NA,145388,5265,NA,NA,146603,20332,NA,NA,134735,5261,NA,146500,146603,147091,146498,Flanker Task,65,35333,72,yes,1024
90.4109589,90.4109589,490.5616438,490.5616438,black,legacy,legacy,legacy,0,congruent,uniform,1,undefined,1,h,72,72,0,0,0,72,0,0,0,72,0,0,72,72,72,72,9/29/19 16:45,1500,The main experiment item,yes,FlankerTask.osexp,C:\Users\Jeanette\Desktop\Jeanette Master's\AQM&ED,no,mono,no,18,no,white,no,yes,768,legacy,72,72,C:/Users/Jeanette/Desktop/Jeanette Master's/AQM&ED/jh-subject-4.csv,legacy,Kafkaesque Koffka,3.2.8,0,h,h,NA,NA,NA,h,478,15066,NA,NA,NA,478,2,legacy,1024,2,48000,-16,experiment,HHHHH,4,even,NA,147112,5265,NA,NA,148300,20332,NA,NA,134735,5261,NA,148195,148300,148779,148192,Flanker Task,66,35811,73,yes,1024
90.54054054,90.54054054,489.7162162,489.7162162,black,legacy,legacy,legacy,0,congruent,uniform,1,undefined,1,h,73,73,0,0,0,73,0,0,0,73,0,0,73,73,73,73,9/29/19 16:45,1500,The main experiment item,yes,FlankerTask.osexp,C:\Users\Jeanette\Desktop\Jeanette Master's\AQM&ED,no,mono,no,18,no,white,no,yes,768,legacy,73,73,C:/Users/Jeanette/Desktop/Jeanette Master's/AQM&ED/jh-subject-4.csv,legacy,Kafkaesque Koffka,3.2.8,0,h,h,NA,NA,NA,h,428,15066,NA,NA,NA,428,2,legacy,1024,2,48000,-16,experiment,HHHHH,4,even,NA,148805,5265,NA,NA,150029,20332,NA,NA,134735,5261,NA,149923,150030,150459,149921,Flanker Task,67,36239,74,yes,1024
90.66666667,90.66666667,490.64,490.64,black,legacy,legacy,legacy,0,congruent,uniform,1,undefined,1,s,74,74,0,0,0,74,0,0,0,74,0,0,74,74,74,74,9/29/19 16:45,1500,The main experiment item,yes,FlankerTask.osexp,C:\Users\Jeanette\Desktop\Jeanette Master's\AQM&ED,no,mono,no,18,no,white,no,yes,768,legacy,74,74,C:/Users/Jeanette/Desktop/Jeanette Master's/AQM&ED/jh-subject-4.csv,legacy,Kafkaesque Koffka,3.2.8,0,s,h,NA,NA,NA,s,559,15066,NA,NA,NA,559,2,legacy,1024,2,48000,-16,experiment,SSSSS,4,even,NA,150480,5265,NA,NA,151682,20332,NA,NA,134735,5261,NA,151577,151682,152242,151574,Flanker Task,68,36798,75,yes,1024
90.78947368,90.78947368,492.5263158,492.5263158,black,legacy,legacy,legacy,0,incongruent,uniform,1,undefined,1,s,75,75,0,0,0,75,0,0,0,75,0,0,75,75,75,75,9/29/19 16:45,1500,The main experiment item,yes,FlankerTask.osexp,C:\Users\Jeanette\Desktop\Jeanette Master's\AQM&ED,no,mono,no,18,no,white,no,yes,768,legacy,75,75,C:/Users/Jeanette/Desktop/Jeanette Master's/AQM&ED/jh-subject-4.csv,legacy,Kafkaesque Koffka,3.2.8,0,s,h,NA,NA,NA,s,634,15066,NA,NA,NA,634,2,legacy,1024,2,48000,-16,experiment,HHSHH,4,even,NA,152261,5265,NA,NA,153480,20332,NA,NA,134735,5261,NA,153375,153480,154115,153372,Flanker Task,69,37432,76,yes,1024
90.90909091,90.90909091,492.4935065,492.4935065,black,legacy,legacy,legacy,0,congruent,uniform,1,undefined,1,h,76,76,0,0,0,76,0,0,0,76,0,0,76,76,76,76,9/29/19 16:45,1500,The main experiment item,yes,FlankerTask.osexp,C:\Users\Jeanette\Desktop\Jeanette Master's\AQM&ED,no,mono,no,18,no,white,no,yes,768,legacy,76,76,C:/Users/Jeanette/Desktop/Jeanette Master's/AQM&ED/jh-subject-4.csv,legacy,Kafkaesque Koffka,3.2.8,0,h,h,NA,NA,NA,h,490,15066,NA,NA,NA,490,2,legacy,1024,2,48000,-16,experiment,HHHHH,4,even,NA,154150,5265,NA,NA,155368,20332,NA,NA,134735,5261,NA,155263,155368,155859,155260,Flanker Task,70,37922,77,yes,1024
91.02564103,91.02564103,492.6666667,492.6666667,black,legacy,legacy,legacy,0,incongruent,uniform,1,undefined,1,s,77,77,0,0,0,77,0,0,0,77,0,0,77,77,77,77,9/29/19 16:45,1500,The main experiment item,yes,FlankerTask.osexp,C:\Users\Jeanette\Desktop\Jeanette Master's\AQM&ED,no,mono,no,18,no,white,no,yes,768,legacy,77,77,C:/Users/Jeanette/Desktop/Jeanette Master's/AQM&ED/jh-subject-4.csv,legacy,Kafkaesque Koffka,3.2.8,0,s,h,NA,NA,NA,s,506,15066,NA,NA,NA,506,2,legacy,1024,2,48000,-16,experiment,HHSHH,4,even,NA,155881,5265,NA,NA,157079,20332,NA,NA,134735,5261,NA,156974,157079,157586,156971,Flanker Task,71,38428,78,yes,1024
91.13924051,91.13924051,492.721519,492.721519,black,legacy,legacy,legacy,0,incongruent,uniform,1,undefined,1,h,78,78,0,0,0,78,0,0,0,78,0,0,78,78,78,78,9/29/19 16:45,1500,The main experiment item,yes,FlankerTask.osexp,C:\Users\Jeanette\Desktop\Jeanette Master's\AQM&ED,no,mono,no,18,no,white,no,yes,768,legacy,78,78,C:/Users/Jeanette/Desktop/Jeanette Master's/AQM&ED/jh-subject-4.csv,legacy,Kafkaesque Koffka,3.2.8,0,h,h,NA,NA,NA,h,497,15066,NA,NA,NA,497,2,legacy,1024,2,48000,-16,experiment,SSHSS,4,even,NA,157604,5265,NA,NA,158793,20332,NA,NA,134735,5261,NA,158688,158793,159291,158685,Flanker Task,72,38925,79,yes,1024
91.25,91.25,492.7125,492.7125,black,legacy,legacy,legacy,0,congruent,uniform,1,undefined,1,h,79,79,0,0,0,79,0,0,0,79,0,0,79,79,79,79,9/29/19 16:45,1500,The main experiment item,yes,FlankerTask.osexp,C:\Users\Jeanette\Desktop\Jeanette Master's\AQM&ED,no,mono,no,18,no,white,no,yes,768,legacy,79,79,C:/Users/Jeanette/Desktop/Jeanette Master's/AQM&ED/jh-subject-4.csv,legacy,Kafkaesque Koffka,3.2.8,0,h,h,NA,NA,NA,h,492,15066,NA,NA,NA,492,2,legacy,1024,2,48000,-16,experiment,HHHHH,4,even,NA,159313,5265,NA,NA,160510,20332,NA,NA,134735,5261,NA,160405,160510,161003,160402,Flanker Task,73,39417,80,yes,1024
91.35802469,91.35802469,493.4567901,493.4567901,black,legacy,legacy,legacy,0,Incongruent,uniform,1,undefined,1,h,80,80,0,0,0,80,0,0,0,80,0,0,80,80,80,80,9/29/19 16:45,600,The main experiment item,yes,FlankerTask.osexp,C:\Users\Jeanette\Desktop\Jeanette Master's\AQM&ED,no,mono,no,18,no,white,no,yes,768,legacy,0,79,C:/Users/Jeanette/Desktop/Jeanette Master's/AQM&ED/jh-subject-4.csv,legacy,Kafkaesque Koffka,3.2.8,0,h,h,h,NA,NA,h,553,15066,84009,NA,NA,553,2,legacy,1024,2,48000,-16,experiment,SSHSS,4,even,NA,161023,5265,162056,NA,246248,20332,246067,NA,134735,5261,NA,246143,246248,246802,246140,Flanker Task,74,39970,81,yes,1024
91.46341463,91.46341463,494.2195122,494.2195122,black,legacy,legacy,legacy,0,Incongruent,uniform,1,undefined,1,s,81,81,0,0,0,81,0,0,0,81,0,0,81,81,81,81,9/29/19 16:45,600,The main experiment item,yes,FlankerTask.osexp,C:\Users\Jeanette\Desktop\Jeanette Master's\AQM&ED,no,mono,no,18,no,white,no,yes,768,legacy,1,79,C:/Users/Jeanette/Desktop/Jeanette Master's/AQM&ED/jh-subject-4.csv,legacy,Kafkaesque Koffka,3.2.8,0,s,h,h,NA,NA,s,556,15066,84009,NA,NA,556,2,legacy,1024,2,48000,-16,experiment,HHSHH,4,even,NA,246839,5265,162056,NA,248061,20332,246067,NA,134735,5261,NA,247956,248061,248619,247953,Flanker Task,75,40526,82,yes,1024
91.56626506,91.56626506,494.1325301,494.1325301,black,legacy,legacy,legacy,0,Congruent,uniform,1,undefined,1,h,82,82,0,0,0,82,0,0,0,82,0,0,82,82,82,82,9/29/19 16:45,600,The main experiment item,yes,FlankerTask.osexp,C:\Users\Jeanette\Desktop\Jeanette Master's\AQM&ED,no,mono,no,18,no,white,no,yes,768,legacy,2,79,C:/Users/Jeanette/Desktop/Jeanette Master's/AQM&ED/jh-subject-4.csv,legacy,Kafkaesque Koffka,3.2.8,0,h,h,h,NA,NA,h,487,15066,84009,NA,NA,487,2,legacy,1024,2,48000,-16,experiment,HHHHH,4,even,NA,248639,5265,162056,NA,249842,20332,246067,NA,134735,5261,NA,249737,249842,250330,249734,Flanker Task,76,41013,83,yes,1024
91.66666667,91.66666667,493.3095238,493.3095238,black,legacy,legacy,legacy,0,Congruent,uniform,1,undefined,1,h,83,83,0,0,0,83,0,0,0,83,0,0,83,83,83,83,9/29/19 16:45,600,The main experiment item,yes,FlankerTask.osexp,C:\Users\Jeanette\Desktop\Jeanette Master's\AQM&ED,no,mono,no,18,no,white,no,yes,768,legacy,3,79,C:/Users/Jeanette/Desktop/Jeanette Master's/AQM&ED/jh-subject-4.csv,legacy,Kafkaesque Koffka,3.2.8,0,h,h,h,NA,NA,h,425,15066,84009,NA,NA,425,2,legacy,1024,2,48000,-16,experiment,HHHHH,4,even,NA,250365,5265,162056,NA,251576,20332,246067,NA,134735,5261,NA,251471,251576,252002,251468,Flanker Task,77,41438,84,yes,1024
91.76470588,91.76470588,493.3882353,493.3882353,black,legacy,legacy,legacy,0,Incongruent,uniform,1,undefined,1,h,84,84,0,0,0,84,0,0,0,84,0,0,84,84,84,84,9/29/19 16:45,600,The main experiment item,yes,FlankerTask.osexp,C:\Users\Jeanette\Desktop\Jeanette Master's\AQM&ED,no,mono,no,18,no,white,no,yes,768,legacy,4,79,C:/Users/Jeanette/Desktop/Jeanette Master's/AQM&ED/jh-subject-4.csv,legacy,Kafkaesque Koffka,3.2.8,0,h,h,h,NA,NA,h,500,15066,84009,NA,NA,500,2,legacy,1024,2,48000,-16,experiment,SSHSS,4,even,NA,252022,5265,162056,NA,253221,20332,246067,NA,134735,5261,NA,253115,253221,253722,253113,Flanker Task,78,41938,85,yes,1024
91.86046512,91.86046512,492.8837209,492.8837209,black,legacy,legacy,legacy,0,Incongruent,uniform,1,undefined,1,s,85,85,0,0,0,85,0,0,0,85,0,0,85,85,85,85,9/29/19 16:45,600,The main experiment item,yes,FlankerTask.osexp,C:\Users\Jeanette\Desktop\Jeanette Master's\AQM&ED,no,mono,no,18,no,white,no,yes,768,legacy,5,79,C:/Users/Jeanette/Desktop/Jeanette Master's/AQM&ED/jh-subject-4.csv,legacy,Kafkaesque Koffka,3.2.8,0,s,h,h,NA,NA,s,450,15066,84009,NA,NA,450,2,legacy,1024,2,48000,-16,experiment,HHSHH,4,even,NA,253740,5265,162056,NA,254951,20332,246067,NA,134735,5261,NA,254846,254951,255402,254843,Flanker Task,79,42388,86,yes,1024
91.95402299,91.95402299,491.2643678,491.2643678,black,legacy,legacy,legacy,0,Congruent,uniform,1,undefined,1,s,86,86,0,0,0,86,0,0,0,86,0,0,86,86,86,86,9/29/19 16:45,600,The main experiment item,yes,FlankerTask.osexp,C:\Users\Jeanette\Desktop\Jeanette Master's\AQM&ED,no,mono,no,18,no,white,no,yes,768,legacy,6,79,C:/Users/Jeanette/Desktop/Jeanette Master's/AQM&ED/jh-subject-4.csv,legacy,Kafkaesque Koffka,3.2.8,0,s,h,h,NA,NA,s,352,15066,84009,NA,NA,352,2,legacy,1024,2,48000,-16,experiment,SSSSS,4,even,NA,255422,5265,162056,NA,256625,20332,246067,NA,134735,5261,NA,256519,256625,256978,256516,Flanker Task,80,42740,87,yes,1024
92.04545455,92.04545455,490.3636364,490.3636364,black,legacy,legacy,legacy,0,Congruent,uniform,1,undefined,1,s,87,87,0,0,0,87,0,0,0,87,0,0,87,87,87,87,9/29/19 16:45,600,The main experiment item,yes,FlankerTask.osexp,C:\Users\Jeanette\Desktop\Jeanette Master's\AQM&ED,no,mono,no,18,no,white,no,yes,768,legacy,7,79,C:/Users/Jeanette/Desktop/Jeanette Master's/AQM&ED/jh-subject-4.csv,legacy,Kafkaesque Koffka,3.2.8,0,s,h,h,NA,NA,s,412,15066,84009,NA,NA,412,2,legacy,1024,2,48000,-16,experiment,SSSSS,4,even,NA,256998,5265,162056,NA,258221,20332,246067,NA,134735,5261,NA,258115,258221,258634,258113,Flanker Task,81,43152,88,yes,1024
92.13483146,92.13483146,489.011236,489.011236,black,legacy,legacy,legacy,0,Congruent,uniform,1,undefined,1,s,88,88,0,0,0,88,0,0,0,88,0,0,88,88,88,88,9/29/19 16:45,600,The main experiment item,yes,FlankerTask.osexp,C:\Users\Jeanette\Desktop\Jeanette Master's\AQM&ED,no,mono,no,18,no,white,no,yes,768,legacy,8,79,C:/Users/Jeanette/Desktop/Jeanette Master's/AQM&ED/jh-subject-4.csv,legacy,Kafkaesque Koffka,3.2.8,0,s,h,h,NA,NA,s,370,15066,84009,NA,NA,370,2,legacy,1024,2,48000,-16,experiment,SSSSS,4,even,NA,258678,5265,162056,NA,259871,20332,246067,NA,134735,5261,NA,259766,259871,260242,259763,Flanker Task,82,43522,89,yes,1024
91.11111111,91.11111111,487.7555556,487.7555556,black,legacy,legacy,legacy,0,Incongruent,uniform,0,undefined,0,h,89,89,0,0,0,89,0,0,0,89,0,0,89,89,89,89,9/29/19 16:45,600,The main experiment item,yes,FlankerTask.osexp,C:\Users\Jeanette\Desktop\Jeanette Master's\AQM&ED,no,mono,no,18,no,white,no,yes,768,legacy,9,79,C:/Users/Jeanette/Desktop/Jeanette Master's/AQM&ED/jh-subject-4.csv,legacy,Kafkaesque Koffka,3.2.8,0,s,h,h,NA,NA,s,376,15066,84009,NA,NA,376,2,legacy,1024,2,48000,-16,experiment,SSHSS,4,even,NA,260266,5265,162056,NA,261457,20332,246067,NA,134735,5261,NA,261352,261457,261834,261349,Flanker Task,82,43898,90,yes,1024
91.20879121,91.20879121,488.1318681,488.1318681,black,legacy,legacy,legacy,0,Incongruent,uniform,1,undefined,1,s,90,90,0,0,0,90,0,0,0,90,0,0,90,90,90,90,9/29/19 16:45,600,The main experiment item,yes,FlankerTask.osexp,C:\Users\Jeanette\Desktop\Jeanette Master's\AQM&ED,no,mono,no,18,no,white,no,yes,768,legacy,10,79,C:/Users/Jeanette/Desktop/Jeanette Master's/AQM&ED/jh-subject-4.csv,legacy,Kafkaesque Koffka,3.2.8,0,s,h,h,NA,NA,s,522,15066,84009,NA,NA,522,2,legacy,1024,2,48000,-16,experiment,HHSHH,4,even,NA,262533,5265,162056,NA,263735,20332,246067,NA,262028,5261,NA,263631,263735,264258,263628,Flanker Task,83,44420,91,yes,1024
91.30434783,91.30434783,487.6086957,487.6086957,black,legacy,legacy,legacy,0,Congruent,uniform,1,undefined,1,s,91,91,0,0,0,91,0,0,0,91,0,0,91,91,91,91,9/29/19 16:45,600,The main experiment item,yes,FlankerTask.osexp,C:\Users\Jeanette\Desktop\Jeanette Master's\AQM&ED,no,mono,no,18,no,white,no,yes,768,legacy,11,79,C:/Users/Jeanette/Desktop/Jeanette Master's/AQM&ED/jh-subject-4.csv,legacy,Kafkaesque Koffka,3.2.8,0,s,h,h,NA,NA,s,440,15066,84009,NA,NA,440,2,legacy,1024,2,48000,-16,experiment,SSSSS,4,even,NA,264283,5265,162056,NA,265497,20332,246067,NA,262028,5261,NA,265392,265497,265938,265389,Flanker Task,84,44860,92,yes,1024
91.39784946,91.39784946,486.8709677,486.8709677,black,legacy,legacy,legacy,0,Incongruent,uniform,1,undefined,1,s,92,92,0,0,0,92,0,0,0,92,0,0,92,92,92,92,9/29/19 16:45,600,The main experiment item,yes,FlankerTask.osexp,C:\Users\Jeanette\Desktop\Jeanette Master's\AQM&ED,no,mono,no,18,no,white,no,yes,768,legacy,12,79,C:/Users/Jeanette/Desktop/Jeanette Master's/AQM&ED/jh-subject-4.csv,legacy,Kafkaesque Koffka,3.2.8,0,s,h,h,NA,NA,s,419,15066,84009,NA,NA,419,2,legacy,1024,2,48000,-16,experiment,HHSHH,4,even,NA,265957,5265,162056,NA,267158,20332,246067,NA,262028,5261,NA,267053,267158,267578,267050,Flanker Task,85,45279,93,yes,1024
91.4893617,91.4893617,486.3723404,486.3723404,black,legacy,legacy,legacy,0,Congruent,uniform,1,undefined,1,s,93,93,0,0,0,93,0,0,0,93,0,0,93,93,93,93,9/29/19 16:45,600,The main experiment item,yes,FlankerTask.osexp,C:\Users\Jeanette\Desktop\Jeanette Master's\AQM&ED,no,mono,no,18,no,white,no,yes,768,legacy,13,79,C:/Users/Jeanette/Desktop/Jeanette Master's/AQM&ED/jh-subject-4.csv,legacy,Kafkaesque Koffka,3.2.8,0,s,h,h,NA,NA,s,440,15066,84009,NA,NA,440,2,legacy,1024,2,48000,-16,experiment,SSSSS,4,even,NA,267600,5265,162056,NA,268785,20332,246067,NA,262028,5261,NA,268680,268785,269226,268677,Flanker Task,86,45719,94,yes,1024
91.57894737,91.57894737,485.5052632,485.5052632,black,legacy,legacy,legacy,0,Congruent,uniform,1,undefined,1,s,94,94,0,0,0,94,0,0,0,94,0,0,94,94,94,94,9/29/19 16:45,600,The main experiment item,yes,FlankerTask.osexp,C:\Users\Jeanette\Desktop\Jeanette Master's\AQM&ED,no,mono,no,18,no,white,no,yes,768,legacy,14,79,C:/Users/Jeanette/Desktop/Jeanette Master's/AQM&ED/jh-subject-4.csv,legacy,Kafkaesque Koffka,3.2.8,0,s,h,h,NA,NA,s,404,15066,84009,NA,NA,404,2,legacy,1024,2,48000,-16,experiment,SSSSS,4,even,NA,269249,5265,162056,NA,270452,20332,246067,NA,262028,5261,NA,270347,270453,270858,270344,Flanker Task,87,46123,95,yes,1024
91.66666667,91.66666667,486.0208333,486.0208333,black,legacy,legacy,legacy,0,Incongruent,uniform,1,undefined,1,s,95,95,0,0,0,95,0,0,0,95,0,0,95,95,95,95,9/29/19 16:45,600,The main experiment item,yes,FlankerTask.osexp,C:\Users\Jeanette\Desktop\Jeanette Master's\AQM&ED,no,mono,no,18,no,white,no,yes,768,legacy,15,79,C:/Users/Jeanette/Desktop/Jeanette Master's/AQM&ED/jh-subject-4.csv,legacy,Kafkaesque Koffka,3.2.8,0,s,h,h,NA,NA,s,535,15066,84009,NA,NA,535,2,legacy,1024,2,48000,-16,experiment,HHSHH,4,even,NA,270876,5265,162056,NA,272082,20332,246067,NA,262028,5261,NA,271977,272082,272618,271974,Flanker Task,88,46658,96,yes,1024
91.75257732,91.75257732,486.6804124,486.6804124,black,legacy,legacy,legacy,0,Incongruent,uniform,1,undefined,1,h,96,96,0,0,0,96,0,0,0,96,0,0,96,96,96,96,9/29/19 16:45,600,The main experiment item,yes,FlankerTask.osexp,C:\Users\Jeanette\Desktop\Jeanette Master's\AQM&ED,no,mono,no,18,no,white,no,yes,768,legacy,16,79,C:/Users/Jeanette/Desktop/Jeanette Master's/AQM&ED/jh-subject-4.csv,legacy,Kafkaesque Koffka,3.2.8,0,h,h,h,NA,NA,h,550,15066,84009,NA,NA,550,2,legacy,1024,2,48000,-16,experiment,SSHSS,4,even,NA,272633,5265,162056,NA,273851,20332,246067,NA,262028,5261,NA,273746,273851,274402,273743,Flanker Task,89,47208,97,yes,1024
91.83673469,91.83673469,486.6428571,486.6428571,black,legacy,legacy,legacy,0,Incongruent,uniform,1,undefined,1,s,97,97,0,0,0,97,0,0,0,97,0,0,97,97,97,97,9/29/19 16:45,600,The main experiment item,yes,FlankerTask.osexp,C:\Users\Jeanette\Desktop\Jeanette Master's\AQM&ED,no,mono,no,18,no,white,no,yes,768,legacy,17,79,C:/Users/Jeanette/Desktop/Jeanette Master's/AQM&ED/jh-subject-4.csv,legacy,Kafkaesque Koffka,3.2.8,0,s,h,h,NA,NA,s,483,15066,84009,NA,NA,483,2,legacy,1024,2,48000,-16,experiment,HHSHH,4,even,NA,274426,5265,162056,NA,275614,20332,246067,NA,262028,5261,NA,275509,275614,276098,275506,Flanker Task,90,47691,98,yes,1024
91.91919192,91.91919192,486.4747475,486.4747475,black,legacy,legacy,legacy,0,Incongruent,uniform,1,undefined,1,s,98,98,0,0,0,98,0,0,0,98,0,0,98,98,98,98,9/29/19 16:45,600,The main experiment item,yes,FlankerTask.osexp,C:\Users\Jeanette\Desktop\Jeanette Master's\AQM&ED,no,mono,no,18,no,white,no,yes,768,legacy,18,79,C:/Users/Jeanette/Desktop/Jeanette Master's/AQM&ED/jh-subject-4.csv,legacy,Kafkaesque Koffka,3.2.8,0,s,h,h,NA,NA,s,470,15066,84009,NA,NA,470,2,legacy,1024,2,48000,-16,experiment,HHSHH,4,even,NA,276117,5265,162056,NA,277339,20332,246067,NA,262028,5261,NA,277233,277339,277810,277230,Flanker Task,91,48161,99,yes,1024
92,92,485.59,485.59,black,legacy,legacy,legacy,0,Congruent,uniform,1,undefined,1,s,99,99,0,0,0,99,0,0,0,99,0,0,99,99,99,99,9/29/19 16:45,600,The main experiment item,yes,FlankerTask.osexp,C:\Users\Jeanette\Desktop\Jeanette Master's\AQM&ED,no,mono,no,18,no,white,no,yes,768,legacy,19,79,C:/Users/Jeanette/Desktop/Jeanette Master's/AQM&ED/jh-subject-4.csv,legacy,Kafkaesque Koffka,3.2.8,0,s,h,h,NA,NA,s,398,15066,84009,NA,NA,398,2,legacy,1024,2,48000,-16,experiment,SSSSS,4,even,NA,277826,5265,162056,NA,279027,20332,246067,NA,262028,5261,NA,278922,279027,279426,278919,Flanker Task,92,48559,100,yes,1024
92.07920792,92.07920792,485.5940594,485.5940594,black,legacy,legacy,legacy,0,Congruent,uniform,1,undefined,1,h,100,100,0,0,0,100,0,0,0,100,0,0,100,100,100,100,9/29/19 16:45,600,The main experiment item,yes,FlankerTask.osexp,C:\Users\Jeanette\Desktop\Jeanette Master's\AQM&ED,no,mono,no,18,no,white,no,yes,768,legacy,20,79,C:/Users/Jeanette/Desktop/Jeanette Master's/AQM&ED/jh-subject-4.csv,legacy,Kafkaesque Koffka,3.2.8,0,h,h,h,NA,NA,h,486,15066,84009,NA,NA,486,2,legacy,1024,2,48000,-16,experiment,HHHHH,4,even,NA,279451,5265,162056,NA,280659,20332,246067,NA,262028,5261,NA,280554,280659,281146,280551,Flanker Task,93,49045,101,yes,1024
92.15686275,92.15686275,484.6470588,484.6470588,black,legacy,legacy,legacy,0,Congruent,uniform,1,undefined,1,h,101,101,0,0,0,101,0,0,0,101,0,0,101,101,101,101,9/29/19 16:45,600,The main experiment item,yes,FlankerTask.osexp,C:\Users\Jeanette\Desktop\Jeanette Master's\AQM&ED,no,mono,no,18,no,white,no,yes,768,legacy,21,79,C:/Users/Jeanette/Desktop/Jeanette Master's/AQM&ED/jh-subject-4.csv,legacy,Kafkaesque Koffka,3.2.8,0,h,h,h,NA,NA,h,389,15066,84009,NA,NA,389,2,legacy,1024,2,48000,-16,experiment,HHHHH,4,even,NA,281166,5265,162056,NA,282372,20332,246067,NA,262028,5261,NA,282267,282372,282762,282264,Flanker Task,94,49434,102,yes,1024
92.23300971,92.23300971,484.7572816,484.7572816,black,legacy,legacy,legacy,0,Incongruent,uniform,1,undefined,1,s,102,102,0,0,0,102,0,0,0,102,0,0,102,102,102,102,9/29/19 16:45,600,The main experiment item,yes,FlankerTask.osexp,C:\Users\Jeanette\Desktop\Jeanette Master's\AQM&ED,no,mono,no,18,no,white,no,yes,768,legacy,22,79,C:/Users/Jeanette/Desktop/Jeanette Master's/AQM&ED/jh-subject-4.csv,legacy,Kafkaesque Koffka,3.2.8,0,s,h,h,NA,NA,s,496,15066,84009,NA,NA,496,2,legacy,1024,2,48000,-16,experiment,HHSHH,4,even,NA,282785,5265,162056,NA,284001,20332,246067,NA,262028,5261,NA,283895,284001,284498,283892,Flanker Task,95,49930,103,yes,1024
92.30769231,92.30769231,483.5576923,483.5576923,black,legacy,legacy,legacy,0,Congruent,uniform,1,undefined,1,h,103,103,0,0,0,103,0,0,0,103,0,0,103,103,103,103,9/29/19 16:45,600,The main experiment item,yes,FlankerTask.osexp,C:\Users\Jeanette\Desktop\Jeanette Master's\AQM&ED,no,mono,no,18,no,white,no,yes,768,legacy,23,79,C:/Users/Jeanette/Desktop/Jeanette Master's/AQM&ED/jh-subject-4.csv,legacy,Kafkaesque Koffka,3.2.8,0,h,h,h,NA,NA,h,360,15066,84009,NA,NA,360,2,legacy,1024,2,48000,-16,experiment,HHHHH,4,even,NA,284518,5265,162056,NA,285729,20332,246067,NA,262028,5261,NA,285624,285729,286090,285621,Flanker Task,96,50290,104,yes,1024
92.38095238,92.38095238,483.847619,483.847619,black,legacy,legacy,legacy,0,Incongruent,uniform,1,undefined,1,s,104,104,0,0,0,104,0,0,0,104,0,0,104,104,104,104,9/29/19 16:45,600,The main experiment item,yes,FlankerTask.osexp,C:\Users\Jeanette\Desktop\Jeanette Master's\AQM&ED,no,mono,no,18,no,white,no,yes,768,legacy,24,79,C:/Users/Jeanette/Desktop/Jeanette Master's/AQM&ED/jh-subject-4.csv,legacy,Kafkaesque Koffka,3.2.8,0,s,h,h,NA,NA,s,514,15066,84009,NA,NA,514,2,legacy,1024,2,48000,-16,experiment,HHSHH,4,even,NA,286109,5265,162056,NA,287294,20332,246067,NA,262028,5261,NA,287189,287295,287810,287185,Flanker Task,97,50804,105,yes,1024
92.45283019,92.45283019,483.6981132,483.6981132,black,legacy,legacy,legacy,0,Incongruent,uniform,1,undefined,1,h,105,105,0,0,0,105,0,0,0,105,0,0,105,105,105,105,9/29/19 16:45,600,The main experiment item,yes,FlankerTask.osexp,C:\Users\Jeanette\Desktop\Jeanette Master's\AQM&ED,no,mono,no,18,no,white,no,yes,768,legacy,25,79,C:/Users/Jeanette/Desktop/Jeanette Master's/AQM&ED/jh-subject-4.csv,legacy,Kafkaesque Koffka,3.2.8,0,h,h,h,NA,NA,h,468,15066,84009,NA,NA,468,2,legacy,1024,2,48000,-16,experiment,SSHSS,4,even,NA,287835,5265,162056,NA,289044,20332,246067,NA,262028,5261,NA,288939,289044,289514,288936,Flanker Task,98,51272,106,yes,1024
92.52336449,92.52336449,482.6074766,482.6074766,black,legacy,legacy,legacy,0,Incongruent,uniform,1,undefined,1,s,106,106,0,0,0,106,0,0,0,106,0,0,106,106,106,106,9/29/19 16:45,600,The main experiment item,yes,FlankerTask.osexp,C:\Users\Jeanette\Desktop\Jeanette Master's\AQM&ED,no,mono,no,18,no,white,no,yes,768,legacy,26,79,C:/Users/Jeanette/Desktop/Jeanette Master's/AQM&ED/jh-subject-4.csv,legacy,Kafkaesque Koffka,3.2.8,0,s,h,h,NA,NA,s,367,15066,84009,NA,NA,367,2,legacy,1024,2,48000,-16,experiment,HHSHH,4,even,NA,289535,5265,162056,NA,290730,20332,246067,NA,262028,5261,NA,290625,290730,291098,290622,Flanker Task,99,51639,107,yes,1024
91.66666667,91.66666667,481.4537037,481.4537037,black,legacy,legacy,legacy,0,Incongruent,uniform,0,undefined,0,s,107,107,0,0,0,107,0,0,0,107,0,0,107,107,107,107,9/29/19 16:45,600,The main experiment item,yes,FlankerTask.osexp,C:\Users\Jeanette\Desktop\Jeanette Master's\AQM&ED,no,mono,no,18,no,white,no,yes,768,legacy,27,79,C:/Users/Jeanette/Desktop/Jeanette Master's/AQM&ED/jh-subject-4.csv,legacy,Kafkaesque Koffka,3.2.8,0,h,h,h,NA,NA,h,358,15066,84009,NA,NA,358,2,legacy,1024,2,48000,-16,experiment,HHSHH,4,even,NA,291131,5265,162056,NA,292355,20332,246067,NA,262028,5261,NA,292250,292355,292714,292247,Flanker Task,99,51997,108,yes,1024
91.74311927,91.74311927,480.7614679,480.7614679,black,legacy,legacy,legacy,0,Congruent,uniform,1,undefined,1,s,108,108,0,0,0,108,0,0,0,108,0,0,108,108,108,108,9/29/19 16:45,600,The main experiment item,yes,FlankerTask.osexp,C:\Users\Jeanette\Desktop\Jeanette Master's\AQM&ED,no,mono,no,18,no,white,no,yes,768,legacy,28,79,C:/Users/Jeanette/Desktop/Jeanette Master's/AQM&ED/jh-subject-4.csv,legacy,Kafkaesque Koffka,3.2.8,0,s,h,h,NA,NA,s,406,15066,84009,NA,NA,406,2,legacy,1024,2,48000,-16,experiment,SSSSS,4,even,NA,293240,5265,162056,NA,294451,20332,246067,NA,292735,5261,NA,294346,294451,294858,294343,Flanker Task,100,52403,109,yes,1024
90.90909091,90.90909091,479.6090909,479.6090909,black,legacy,legacy,legacy,0,Incongruent,uniform,0,undefined,0,h,109,109,0,0,0,109,0,0,0,109,0,0,109,109,109,109,9/29/19 16:45,600,The main experiment item,yes,FlankerTask.osexp,C:\Users\Jeanette\Desktop\Jeanette Master's\AQM&ED,no,mono,no,18,no,white,no,yes,768,legacy,29,79,C:/Users/Jeanette/Desktop/Jeanette Master's/AQM&ED/jh-subject-4.csv,legacy,Kafkaesque Koffka,3.2.8,0,s,h,h,NA,NA,s,354,15066,84009,NA,NA,354,2,legacy,1024,2,48000,-16,experiment,SSHSS,4,even,NA,294878,5265,162056,NA,296094,20332,246067,NA,292735,5261,NA,295992,296094,296450,295990,Flanker Task,100,52757,110,yes,1024
90.99099099,90.99099099,479.4774775,479.4774775,black,legacy,legacy,legacy,0,Congruent,uniform,1,undefined,1,h,110,110,0,0,0,110,0,0,0,110,0,0,110,110,110,110,9/29/19 16:45,600,The main experiment item,yes,FlankerTask.osexp,C:\Users\Jeanette\Desktop\Jeanette Master's\AQM&ED,no,mono,no,18,no,white,no,yes,768,legacy,30,79,C:/Users/Jeanette/Desktop/Jeanette Master's/AQM&ED/jh-subject-4.csv,legacy,Kafkaesque Koffka,3.2.8,0,h,h,h,NA,NA,h,465,15066,84009,NA,NA,465,2,legacy,1024,2,48000,-16,experiment,HHHHH,4,even,NA,296973,5265,162056,NA,298184,20332,246067,NA,296468,5261,NA,298079,298184,298650,298076,Flanker Task,101,53222,111,yes,1024
91.07142857,91.07142857,479.3571429,479.3571429,black,legacy,legacy,legacy,0,Incongruent,uniform,1,undefined,1,s,111,111,0,0,0,111,0,0,0,111,0,0,111,111,111,111,9/29/19 16:45,600,The main experiment item,yes,FlankerTask.osexp,C:\Users\Jeanette\Desktop\Jeanette Master's\AQM&ED,no,mono,no,18,no,white,no,yes,768,legacy,31,79,C:/Users/Jeanette/Desktop/Jeanette Master's/AQM&ED/jh-subject-4.csv,legacy,Kafkaesque Koffka,3.2.8,0,s,h,h,NA,NA,s,466,15066,84009,NA,NA,466,2,legacy,1024,2,48000,-16,experiment,HHSHH,4,even,NA,298670,5265,162056,NA,299878,20332,246067,NA,296468,5261,NA,299772,299878,300346,299770,Flanker Task,102,53688,112,yes,1024
91.15044248,91.15044248,479.1327434,479.1327434,black,legacy,legacy,legacy,0,Incongruent,uniform,1,undefined,1,h,112,112,0,0,0,112,0,0,0,112,0,0,112,112,112,112,9/29/19 16:45,600,The main experiment item,yes,FlankerTask.osexp,C:\Users\Jeanette\Desktop\Jeanette Master's\AQM&ED,no,mono,no,18,no,white,no,yes,768,legacy,32,79,C:/Users/Jeanette/Desktop/Jeanette Master's/AQM&ED/jh-subject-4.csv,legacy,Kafkaesque Koffka,3.2.8,0,h,h,h,NA,NA,h,454,15066,84009,NA,NA,454,2,legacy,1024,2,48000,-16,experiment,SSHSS,4,even,NA,300361,5265,162056,NA,301579,20332,246067,NA,296468,5261,NA,301473,301579,302034,301471,Flanker Task,103,54142,113,yes,1024
90.35087719,90.35087719,478.2894737,478.2894737,black,legacy,legacy,legacy,0,Congruent,uniform,0,undefined,0,h,113,113,0,0,0,113,0,0,0,113,0,0,113,113,113,113,9/29/19 16:45,600,The main experiment item,yes,FlankerTask.osexp,C:\Users\Jeanette\Desktop\Jeanette Master's\AQM&ED,no,mono,no,18,no,white,no,yes,768,legacy,33,79,C:/Users/Jeanette/Desktop/Jeanette Master's/AQM&ED/jh-subject-4.csv,legacy,Kafkaesque Koffka,3.2.8,0,s,h,h,NA,NA,s,383,15066,84009,NA,NA,383,2,legacy,1024,2,48000,-16,experiment,HHHHH,4,even,NA,302061,5265,162056,NA,303266,20332,246067,NA,296468,5261,NA,303161,303266,303650,303158,Flanker Task,103,54525,114,yes,1024
90.43478261,90.43478261,478.1565217,478.1565217,black,legacy,legacy,legacy,0,Congruent,uniform,1,undefined,1,s,114,114,0,0,0,114,0,0,0,114,0,0,114,114,114,114,9/29/19 16:45,600,The main experiment item,yes,FlankerTask.osexp,C:\Users\Jeanette\Desktop\Jeanette Master's\AQM&ED,no,mono,no,18,no,white,no,yes,768,legacy,34,79,C:/Users/Jeanette/Desktop/Jeanette Master's/AQM&ED/jh-subject-4.csv,legacy,Kafkaesque Koffka,3.2.8,0,s,h,h,NA,NA,s,463,15066,84009,NA,NA,463,2,legacy,1024,2,48000,-16,experiment,SSSSS,4,even,NA,304177,5265,162056,NA,305402,20332,246067,NA,303670,5261,NA,305297,305402,305866,305294,Flanker Task,104,54988,115,yes,1024
90.51724138,90.51724138,477.7327586,477.7327586,black,legacy,legacy,legacy,0,Congruent,uniform,1,undefined,1,s,115,115,0,0,0,115,0,0,0,115,0,0,115,115,115,115,9/29/19 16:45,600,The main experiment item,yes,FlankerTask.osexp,C:\Users\Jeanette\Desktop\Jeanette Master's\AQM&ED,no,mono,no,18,no,white,no,yes,768,legacy,35,79,C:/Users/Jeanette/Desktop/Jeanette Master's/AQM&ED/jh-subject-4.csv,legacy,Kafkaesque Koffka,3.2.8,0,s,h,h,NA,NA,s,429,15066,84009,NA,NA,429,2,legacy,1024,2,48000,-16,experiment,SSSSS,4,even,NA,305887,5265,162056,NA,307092,20332,246067,NA,303670,5261,NA,306987,307092,307522,306984,Flanker Task,105,55417,116,yes,1024
90.5982906,90.5982906,477.8547009,477.8547009,black,legacy,legacy,legacy,0,Incongruent,uniform,1,undefined,1,h,116,116,0,0,0,116,0,0,0,116,0,0,116,116,116,116,9/29/19 16:45,600,The main experiment item,yes,FlankerTask.osexp,C:\Users\Jeanette\Desktop\Jeanette Master's\AQM&ED,no,mono,no,18,no,white,no,yes,768,legacy,36,79,C:/Users/Jeanette/Desktop/Jeanette Master's/AQM&ED/jh-subject-4.csv,legacy,Kafkaesque Koffka,3.2.8,0,h,h,h,NA,NA,h,492,15066,84009,NA,NA,492,2,legacy,1024,2,48000,-16,experiment,SSHSS,4,even,NA,307546,5265,162056,NA,308757,20332,246067,NA,303670,5261,NA,308652,308757,309250,308649,Flanker Task,106,55909,117,yes,1024
90.6779661,90.6779661,477.3220339,477.3220339,black,legacy,legacy,legacy,0,Congruent,uniform,1,undefined,1,s,117,117,0,0,0,117,0,0,0,117,0,0,117,117,117,117,9/29/19 16:45,600,The main experiment item,yes,FlankerTask.osexp,C:\Users\Jeanette\Desktop\Jeanette Master's\AQM&ED,no,mono,no,18,no,white,no,yes,768,legacy,37,79,C:/Users/Jeanette/Desktop/Jeanette Master's/AQM&ED/jh-subject-4.csv,legacy,Kafkaesque Koffka,3.2.8,0,s,h,h,NA,NA,s,415,15066,84009,NA,NA,415,2,legacy,1024,2,48000,-16,experiment,SSSSS,4,even,NA,309271,5265,162056,NA,310489,20332,246067,NA,303670,5261,NA,310383,310489,310906,310380,Flanker Task,107,56324,118,yes,1024
90.75630252,90.75630252,476.1764706,476.1764706,black,legacy,legacy,legacy,0,Congruent,uniform,1,undefined,1,h,118,118,0,0,0,118,0,0,0,118,0,0,118,118,118,118,9/29/19 16:45,600,The main experiment item,yes,FlankerTask.osexp,C:\Users\Jeanette\Desktop\Jeanette Master's\AQM&ED,no,mono,no,18,no,white,no,yes,768,legacy,38,79,C:/Users/Jeanette/Desktop/Jeanette Master's/AQM&ED/jh-subject-4.csv,legacy,Kafkaesque Koffka,3.2.8,0,h,h,h,NA,NA,h,341,15066,84009,NA,NA,341,2,legacy,1024,2,48000,-16,experiment,HHHHH,4,even,NA,310929,5265,162056,NA,312124,20332,246067,NA,303670,5261,NA,312021,312124,312466,312018,Flanker Task,108,56665,119,yes,1024
90.83333333,90.83333333,474.9166667,474.9166667,black,legacy,legacy,legacy,0,Incongruent,uniform,1,undefined,1,s,119,119,0,0,0,119,0,0,0,119,0,0,119,119,119,119,9/29/19 16:45,600,The main experiment item,yes,FlankerTask.osexp,C:\Users\Jeanette\Desktop\Jeanette Master's\AQM&ED,no,mono,no,18,no,white,no,yes,768,legacy,39,79,C:/Users/Jeanette/Desktop/Jeanette Master's/AQM&ED/jh-subject-4.csv,legacy,Kafkaesque Koffka,3.2.8,0,s,h,h,NA,NA,s,325,15066,84009,NA,NA,325,2,legacy,1024,2,48000,-16,experiment,HHSHH,4,even,NA,312487,5265,162056,NA,313716,20332,246067,NA,303670,5261,NA,313611,313716,314042,313608,Flanker Task,109,56990,120,yes,1024
90.90909091,90.90909091,473.6363636,473.6363636,black,legacy,legacy,legacy,0,Congruent,uniform,1,undefined,1,h,120,120,0,0,0,120,0,0,0,120,0,0,120,120,120,120,9/29/19 16:45,600,The main experiment item,yes,FlankerTask.osexp,C:\Users\Jeanette\Desktop\Jeanette Master's\AQM&ED,no,mono,no,18,no,white,no,yes,768,legacy,40,79,C:/Users/Jeanette/Desktop/Jeanette Master's/AQM&ED/jh-subject-4.csv,legacy,Kafkaesque Koffka,3.2.8,0,h,h,h,NA,NA,h,320,15066,84009,NA,NA,320,2,legacy,1024,2,48000,-16,experiment,HHHHH,4,even,NA,314063,5265,162056,NA,315264,20332,246067,NA,303670,5261,NA,315159,315264,315586,315156,Flanker Task,110,57310,121,yes,1024
90.98360656,90.98360656,474.1803279,474.1803279,black,legacy,legacy,legacy,0,Congruent,uniform,1,undefined,1,h,121,121,0,0,0,121,0,0,0,121,0,0,121,121,121,121,9/29/19 16:45,600,The main experiment item,yes,FlankerTask.osexp,C:\Users\Jeanette\Desktop\Jeanette Master's\AQM&ED,no,mono,no,18,no,white,no,yes,768,legacy,41,79,C:/Users/Jeanette/Desktop/Jeanette Master's/AQM&ED/jh-subject-4.csv,legacy,Kafkaesque Koffka,3.2.8,0,h,h,h,NA,NA,h,540,15066,84009,NA,NA,540,2,legacy,1024,2,48000,-16,experiment,HHHHH,4,even,NA,315605,5265,162056,NA,316804,20332,246067,NA,303670,5261,NA,316699,316804,317345,316696,Flanker Task,111,57850,122,yes,1024
91.05691057,91.05691057,473.8373984,473.8373984,black,legacy,legacy,legacy,0,Congruent,uniform,1,undefined,1,h,122,122,0,0,0,122,0,0,0,122,0,0,122,122,122,122,9/29/19 16:45,600,The main experiment item,yes,FlankerTask.osexp,C:\Users\Jeanette\Desktop\Jeanette Master's\AQM&ED,no,mono,no,18,no,white,no,yes,768,legacy,42,79,C:/Users/Jeanette/Desktop/Jeanette Master's/AQM&ED/jh-subject-4.csv,legacy,Kafkaesque Koffka,3.2.8,0,h,h,h,NA,NA,h,432,15066,84009,NA,NA,432,2,legacy,1024,2,48000,-16,experiment,HHHHH,4,even,NA,317383,5265,162056,NA,318593,20332,246067,NA,303670,5261,NA,318488,318593,319026,318485,Flanker Task,112,58282,123,yes,1024
90.32258065,90.32258065,473.6209677,473.6209677,black,legacy,legacy,legacy,0,Incongruent,uniform,0,undefined,0,s,123,123,0,0,0,123,0,0,0,123,0,0,123,123,123,123,9/29/19 16:45,600,The main experiment item,yes,FlankerTask.osexp,C:\Users\Jeanette\Desktop\Jeanette Master's\AQM&ED,no,mono,no,18,no,white,no,yes,768,legacy,43,79,C:/Users/Jeanette/Desktop/Jeanette Master's/AQM&ED/jh-subject-4.csv,legacy,Kafkaesque Koffka,3.2.8,0,h,h,h,NA,NA,h,447,15066,84009,NA,NA,447,2,legacy,1024,2,48000,-16,experiment,HHSHH,4,even,NA,319047,5265,162056,NA,320241,20332,246067,NA,303670,5261,NA,320136,320241,320690,320133,Flanker Task,112,58729,124,yes,1024
90.4,90.4,473.904,473.904,black,legacy,legacy,legacy,0,Incongruent,uniform,1,undefined,1,h,124,124,0,0,0,124,0,0,0,124,0,0,124,124,124,124,9/29/19 16:45,600,The main experiment item,yes,FlankerTask.osexp,C:\Users\Jeanette\Desktop\Jeanette Master's\AQM&ED,no,mono,no,18,no,white,no,yes,768,legacy,44,79,C:/Users/Jeanette/Desktop/Jeanette Master's/AQM&ED/jh-subject-4.csv,legacy,Kafkaesque Koffka,3.2.8,0,h,h,h,NA,NA,h,509,15066,84009,NA,NA,509,2,legacy,1024,2,48000,-16,experiment,SSHSS,4,even,NA,321211,5265,162056,NA,322387,20332,246067,NA,320705,5261,NA,322282,322387,322898,322279,Flanker Task,113,59238,125,yes,1024
90.47619048,90.47619048,474.2857143,474.2857143,black,legacy,legacy,legacy,0,Congruent,uniform,1,undefined,1,s,125,125,0,0,0,125,0,0,0,125,0,0,125,125,125,125,9/29/19 16:45,600,The main experiment item,yes,FlankerTask.osexp,C:\Users\Jeanette\Desktop\Jeanette Master's\AQM&ED,no,mono,no,18,no,white,no,yes,768,legacy,45,79,C:/Users/Jeanette/Desktop/Jeanette Master's/AQM&ED/jh-subject-4.csv,legacy,Kafkaesque Koffka,3.2.8,0,s,h,h,NA,NA,s,522,15066,84009,NA,NA,522,2,legacy,1024,2,48000,-16,experiment,SSSSS,4,even,NA,322932,5265,162056,NA,324150,20332,246067,NA,320705,5261,NA,324045,324150,324674,324042,Flanker Task,114,59760,126,yes,1024
90.5511811,90.5511811,474.2677165,474.2677165,black,legacy,legacy,legacy,0,Incongruent,uniform,1,undefined,1,s,126,126,0,0,0,126,0,0,0,126,0,0,126,126,126,126,9/29/19 16:45,600,The main experiment item,yes,FlankerTask.osexp,C:\Users\Jeanette\Desktop\Jeanette Master's\AQM&ED,no,mono,no,18,no,white,no,yes,768,legacy,46,79,C:/Users/Jeanette/Desktop/Jeanette Master's/AQM&ED/jh-subject-4.csv,legacy,Kafkaesque Koffka,3.2.8,0,s,h,h,NA,NA,s,472,15066,84009,NA,NA,472,2,legacy,1024,2,48000,-16,experiment,HHSHH,4,even,NA,324697,5265,162056,NA,325921,20332,246067,NA,320705,5261,NA,325816,325921,326394,325813,Flanker Task,115,60232,127,yes,1024
90.625,90.625,473.7890625,473.7890625,black,legacy,legacy,legacy,0,Congruent,uniform,1,undefined,1,s,127,127,0,0,0,127,0,0,0,127,0,0,127,127,127,127,9/29/19 16:45,600,The main experiment item,yes,FlankerTask.osexp,C:\Users\Jeanette\Desktop\Jeanette Master's\AQM&ED,no,mono,no,18,no,white,no,yes,768,legacy,47,79,C:/Users/Jeanette/Desktop/Jeanette Master's/AQM&ED/jh-subject-4.csv,legacy,Kafkaesque Koffka,3.2.8,0,s,h,h,NA,NA,s,413,15066,84009,NA,NA,413,2,legacy,1024,2,48000,-16,experiment,SSSSS,4,even,NA,326413,5265,162056,NA,327651,20332,246067,NA,320705,5261,NA,327548,327651,328066,327546,Flanker Task,116,60645,128,yes,1024
90.69767442,90.69767442,473.8217054,473.8217054,black,legacy,legacy,legacy,0,Incongruent,uniform,1,undefined,1,h,128,128,0,0,0,128,0,0,0,128,0,0,128,128,128,128,9/29/19 16:45,600,The main experiment item,yes,FlankerTask.osexp,C:\Users\Jeanette\Desktop\Jeanette Master's\AQM&ED,no,mono,no,18,no,white,no,yes,768,legacy,48,79,C:/Users/Jeanette/Desktop/Jeanette Master's/AQM&ED/jh-subject-4.csv,legacy,Kafkaesque Koffka,3.2.8,0,h,h,h,NA,NA,h,478,15066,84009,NA,NA,478,2,legacy,1024,2,48000,-16,experiment,SSHSS,4,even,NA,328089,5265,162056,NA,329283,20332,246067,NA,320705,5261,NA,329177,329283,329762,329174,Flanker Task,117,61123,129,yes,1024
90.76923077,90.76923077,473.4230769,473.4230769,black,legacy,legacy,legacy,0,Congruent,uniform,1,undefined,1,h,129,129,0,0,0,129,0,0,0,129,0,0,129,129,129,129,9/29/19 16:45,600,The main experiment item,yes,FlankerTask.osexp,C:\Users\Jeanette\Desktop\Jeanette Master's\AQM&ED,no,mono,no,18,no,white,no,yes,768,legacy,49,79,C:/Users/Jeanette/Desktop/Jeanette Master's/AQM&ED/jh-subject-4.csv,legacy,Kafkaesque Koffka,3.2.8,0,h,h,h,NA,NA,h,422,15066,84009,NA,NA,422,2,legacy,1024,2,48000,-16,experiment,HHHHH,4,even,NA,329780,5265,162056,NA,330970,20332,246067,NA,320705,5261,NA,330865,330970,331394,330862,Flanker Task,118,61545,130,yes,1024
90.83969466,90.83969466,473.7251908,473.7251908,black,legacy,legacy,legacy,0,Incongruent,uniform,1,undefined,1,h,130,130,0,0,0,130,0,0,0,130,0,0,130,130,130,130,9/29/19 16:45,600,The main experiment item,yes,FlankerTask.osexp,C:\Users\Jeanette\Desktop\Jeanette Master's\AQM&ED,no,mono,no,18,no,white,no,yes,768,legacy,50,79,C:/Users/Jeanette/Desktop/Jeanette Master's/AQM&ED/jh-subject-4.csv,legacy,Kafkaesque Koffka,3.2.8,0,h,h,h,NA,NA,h,513,15066,84009,NA,NA,513,2,legacy,1024,2,48000,-16,experiment,SSHSS,4,even,NA,331415,5265,162056,NA,332616,20332,246067,NA,320705,5261,NA,332511,332616,333130,332508,Flanker Task,119,62058,131,yes,1024
90.90909091,90.90909091,473.469697,473.469697,black,legacy,legacy,legacy,0,Congruent,uniform,1,undefined,1,h,131,131,0,0,0,131,0,0,0,131,0,0,131,131,131,131,9/29/19 16:45,600,The main experiment item,yes,FlankerTask.osexp,C:\Users\Jeanette\Desktop\Jeanette Master's\AQM&ED,no,mono,no,18,no,white,no,yes,768,legacy,51,79,C:/Users/Jeanette/Desktop/Jeanette Master's/AQM&ED/jh-subject-4.csv,legacy,Kafkaesque Koffka,3.2.8,0,h,h,h,NA,NA,h,440,15066,84009,NA,NA,440,2,legacy,1024,2,48000,-16,experiment,HHHHH,4,even,NA,333147,5265,162056,NA,334352,20332,246067,NA,320705,5261,NA,334247,334352,334794,334244,Flanker Task,120,62498,132,yes,1024
90.22556391,90.22556391,473.5789474,473.5789474,black,legacy,legacy,legacy,0,Incongruent,uniform,0,undefined,0,s,132,132,0,0,0,132,0,0,0,132,0,0,132,132,132,132,9/29/19 16:45,600,The main experiment item,yes,FlankerTask.osexp,C:\Users\Jeanette\Desktop\Jeanette Master's\AQM&ED,no,mono,no,18,no,white,no,yes,768,legacy,52,79,C:/Users/Jeanette/Desktop/Jeanette Master's/AQM&ED/jh-subject-4.csv,legacy,Kafkaesque Koffka,3.2.8,0,h,h,h,NA,NA,h,488,15066,84009,NA,NA,488,2,legacy,1024,2,48000,-16,experiment,HHSHH,4,even,NA,334815,5265,162056,NA,336040,20332,246067,NA,320705,5261,NA,335935,336040,336530,335932,Flanker Task,120,62986,133,yes,1024
90.29850746,90.29850746,472.6119403,472.6119403,black,legacy,legacy,legacy,0,Congruent,uniform,1,undefined,1,h,133,133,0,0,0,133,0,0,0,133,0,0,133,133,133,133,9/29/19 16:45,600,The main experiment item,yes,FlankerTask.osexp,C:\Users\Jeanette\Desktop\Jeanette Master's\AQM&ED,no,mono,no,18,no,white,no,yes,768,legacy,53,79,C:/Users/Jeanette/Desktop/Jeanette Master's/AQM&ED/jh-subject-4.csv,legacy,Kafkaesque Koffka,3.2.8,0,h,h,h,NA,NA,h,344,15066,84009,NA,NA,344,2,legacy,1024,2,48000,-16,experiment,HHHHH,4,even,NA,337054,5265,162056,NA,338257,20332,246067,NA,336549,5261,NA,338152,338257,338602,338149,Flanker Task,121,63330,134,yes,1024
89.62962963,89.62962963,471.8296296,471.8296296,black,legacy,legacy,legacy,0,Incongruent,uniform,0,undefined,0,h,134,134,0,0,0,134,0,0,0,134,0,0,134,134,134,134,9/29/19 16:45,600,The main experiment item,yes,FlankerTask.osexp,C:\Users\Jeanette\Desktop\Jeanette Master's\AQM&ED,no,mono,no,18,no,white,no,yes,768,legacy,54,79,C:/Users/Jeanette/Desktop/Jeanette Master's/AQM&ED/jh-subject-4.csv,legacy,Kafkaesque Koffka,3.2.8,0,s,h,h,NA,NA,s,367,15066,84009,NA,NA,367,2,legacy,1024,2,48000,-16,experiment,SSHSS,4,even,NA,338624,5265,162056,NA,339817,20332,246067,NA,336549,5261,NA,339712,339817,340186,339710,Flanker Task,121,63697,135,yes,1024
88.97058824,88.97058824,471,471,black,legacy,legacy,legacy,0,Incongruent,uniform,0,undefined,0,s,135,135,0,0,0,135,0,0,0,135,0,0,135,135,135,135,9/29/19 16:45,600,The main experiment item,yes,FlankerTask.osexp,C:\Users\Jeanette\Desktop\Jeanette Master's\AQM&ED,no,mono,no,18,no,white,no,yes,768,legacy,55,79,C:/Users/Jeanette/Desktop/Jeanette Master's/AQM&ED/jh-subject-4.csv,legacy,Kafkaesque Koffka,3.2.8,0,h,h,h,NA,NA,h,359,15066,84009,NA,NA,359,2,legacy,1024,2,48000,-16,experiment,HHSHH,4,even,NA,340713,5265,162056,NA,341913,20332,246067,NA,340207,5261,NA,341807,341913,342274,341805,Flanker Task,121,64056,136,yes,1024
89.05109489,89.05109489,471.0218978,471.0218978,black,legacy,legacy,legacy,0,Congruent,uniform,1,undefined,1,h,136,136,0,0,0,136,0,0,0,136,0,0,136,136,136,136,9/29/19 16:45,600,The main experiment item,yes,FlankerTask.osexp,C:\Users\Jeanette\Desktop\Jeanette Master's\AQM&ED,no,mono,no,18,no,white,no,yes,768,legacy,56,79,C:/Users/Jeanette/Desktop/Jeanette Master's/AQM&ED/jh-subject-4.csv,legacy,Kafkaesque Koffka,3.2.8,0,h,h,h,NA,NA,h,474,15066,84009,NA,NA,474,2,legacy,1024,2,48000,-16,experiment,HHHHH,4,even,NA,342805,5265,162056,NA,344014,20332,246067,NA,342299,5261,NA,343907,344014,344490,343905,Flanker Task,122,64530,137,yes,1024
89.13043478,89.13043478,471.1666667,471.1666667,black,legacy,legacy,legacy,0,Incongruent,uniform,1,undefined,1,h,137,137,0,0,0,137,0,0,0,137,0,0,137,137,137,137,9/29/19 16:45,600,The main experiment item,yes,FlankerTask.osexp,C:\Users\Jeanette\Desktop\Jeanette Master's\AQM&ED,no,mono,no,18,no,white,no,yes,768,legacy,57,79,C:/Users/Jeanette/Desktop/Jeanette Master's/AQM&ED/jh-subject-4.csv,legacy,Kafkaesque Koffka,3.2.8,0,h,h,h,NA,NA,h,491,15066,84009,NA,NA,491,2,legacy,1024,2,48000,-16,experiment,SSHSS,4,even,NA,344506,5265,162056,NA,345709,20332,246067,NA,342299,5261,NA,345604,345709,346202,345601,Flanker Task,123,65021,138,yes,1024
89.20863309,89.20863309,471.3381295,471.3381295,black,legacy,legacy,legacy,0,Incongruent,uniform,1,undefined,1,s,138,138,0,0,0,138,0,0,0,138,0,0,138,138,138,138,9/29/19 16:45,600,The main experiment item,yes,FlankerTask.osexp,C:\Users\Jeanette\Desktop\Jeanette Master's\AQM&ED,no,mono,no,18,no,white,no,yes,768,legacy,58,79,C:/Users/Jeanette/Desktop/Jeanette Master's/AQM&ED/jh-subject-4.csv,legacy,Kafkaesque Koffka,3.2.8,0,s,h,h,NA,NA,s,495,15066,84009,NA,NA,495,2,legacy,1024,2,48000,-16,experiment,HHSHH,4,even,NA,346225,5265,162056,NA,347434,20332,246067,NA,342299,5261,NA,347329,347434,347930,347326,Flanker Task,124,65516,139,yes,1024
89.28571429,89.28571429,472.3571429,472.3571429,black,legacy,legacy,legacy,0,Congruent,uniform,1,undefined,1,h,139,139,0,0,0,139,0,0,0,139,0,0,139,139,139,139,9/29/19 16:45,600,The main experiment item,yes,FlankerTask.osexp,C:\Users\Jeanette\Desktop\Jeanette Master's\AQM&ED,no,mono,no,18,no,white,no,yes,768,legacy,59,79,C:/Users/Jeanette/Desktop/Jeanette Master's/AQM&ED/jh-subject-4.csv,legacy,Kafkaesque Koffka,3.2.8,0,h,h,h,NA,NA,h,614,15066,84009,NA,NA,614,2,legacy,1024,2,48000,-16,experiment,HHHHH,4,even,NA,347949,5265,162056,NA,349146,20332,246067,NA,342299,5261,NA,349040,349146,349761,349038,Flanker Task,125,66130,140,yes,1024
89.36170213,89.36170213,472.4397163,472.4397163,black,legacy,legacy,legacy,0,Congruent,uniform,1,undefined,1,s,140,140,0,0,0,140,0,0,0,140,0,0,140,140,140,140,9/29/19 16:45,600,The main experiment item,yes,FlankerTask.osexp,C:\Users\Jeanette\Desktop\Jeanette Master's\AQM&ED,no,mono,no,18,no,white,no,yes,768,legacy,60,79,C:/Users/Jeanette/Desktop/Jeanette Master's/AQM&ED/jh-subject-4.csv,legacy,Kafkaesque Koffka,3.2.8,0,s,h,h,NA,NA,s,484,15066,84009,NA,NA,484,2,legacy,1024,2,48000,-16,experiment,SSSSS,4,even,349791,350296,5265,162056,NA,351508,20332,246067,NA,342299,5261,NA,351403,351508,351994,351400,Flanker Task,126,66614,141,yes,1024
89.43661972,89.43661972,472.5985915,472.5985915,black,legacy,legacy,legacy,0,Incongruent,uniform,1,undefined,1,s,141,141,0,0,0,141,0,0,0,141,0,0,141,141,141,141,9/29/19 16:45,600,The main experiment item,yes,FlankerTask.osexp,C:\Users\Jeanette\Desktop\Jeanette Master's\AQM&ED,no,mono,no,18,no,white,no,yes,768,legacy,61,79,C:/Users/Jeanette/Desktop/Jeanette Master's/AQM&ED/jh-subject-4.csv,legacy,Kafkaesque Koffka,3.2.8,0,s,h,h,NA,NA,s,495,15066,84009,NA,NA,495,2,legacy,1024,2,48000,-16,experiment,HHSHH,4,even,349791,352017,5265,162056,NA,353225,20332,246067,NA,342299,5261,NA,353120,353225,353722,353118,Flanker Task,127,67109,142,yes,1024
89.51048951,89.51048951,472.2797203,472.2797203,black,legacy,legacy,legacy,0,Congruent,uniform,1,undefined,1,s,142,142,0,0,0,142,0,0,0,142,0,0,142,142,142,142,9/29/19 16:45,600,The main experiment item,yes,FlankerTask.osexp,C:\Users\Jeanette\Desktop\Jeanette Master's\AQM&ED,no,mono,no,18,no,white,no,yes,768,legacy,62,79,C:/Users/Jeanette/Desktop/Jeanette Master's/AQM&ED/jh-subject-4.csv,legacy,Kafkaesque Koffka,3.2.8,0,s,h,h,NA,NA,s,427,15066,84009,NA,NA,427,2,legacy,1024,2,48000,-16,experiment,SSSSS,4,even,349791,353741,5265,162056,NA,354958,20332,246067,NA,342299,5261,NA,354853,354958,355386,354850,Flanker Task,128,67536,143,yes,1024
88.88888889,88.88888889,472.1180556,472.1180556,black,legacy,legacy,legacy,0,Incongruent,uniform,0,undefined,0,h,143,143,0,0,0,143,0,0,0,143,0,0,143,143,143,143,9/29/19 16:45,600,The main experiment item,yes,FlankerTask.osexp,C:\Users\Jeanette\Desktop\Jeanette Master's\AQM&ED,no,mono,no,18,no,white,no,yes,768,legacy,63,79,C:/Users/Jeanette/Desktop/Jeanette Master's/AQM&ED/jh-subject-4.csv,legacy,Kafkaesque Koffka,3.2.8,0,s,h,h,NA,NA,s,449,15066,84009,NA,NA,449,2,legacy,1024,2,48000,-16,experiment,SSHSS,4,even,349791,355409,5265,162056,NA,356615,20332,246067,NA,342299,5261,NA,356510,356615,357066,356507,Flanker Task,128,67985,144,yes,1024
88.96551724,88.96551724,471.7103448,471.7103448,black,legacy,legacy,legacy,0,Incongruent,uniform,1,undefined,1,h,144,144,0,0,0,144,0,0,0,144,0,0,144,144,144,144,9/29/19 16:45,600,The main experiment item,yes,FlankerTask.osexp,C:\Users\Jeanette\Desktop\Jeanette Master's\AQM&ED,no,mono,no,18,no,white,no,yes,768,legacy,64,79,C:/Users/Jeanette/Desktop/Jeanette Master's/AQM&ED/jh-subject-4.csv,legacy,Kafkaesque Koffka,3.2.8,0,h,h,h,NA,NA,h,413,15066,84009,NA,NA,413,2,legacy,1024,2,48000,-16,experiment,SSHSS,4,even,349791,357589,5265,162056,NA,358779,20332,246067,NA,357084,5261,NA,358674,358779,359194,358671,Flanker Task,129,68398,145,yes,1024
89.04109589,89.04109589,471.9109589,471.9109589,black,legacy,legacy,legacy,0,Incongruent,uniform,1,undefined,1,s,145,145,0,0,0,145,0,0,0,145,0,0,145,145,145,145,9/29/19 16:45,600,The main experiment item,yes,FlankerTask.osexp,C:\Users\Jeanette\Desktop\Jeanette Master's\AQM&ED,no,mono,no,18,no,white,no,yes,768,legacy,65,79,C:/Users/Jeanette/Desktop/Jeanette Master's/AQM&ED/jh-subject-4.csv,legacy,Kafkaesque Koffka,3.2.8,0,s,h,h,NA,NA,s,501,15066,84009,NA,NA,501,2,legacy,1024,2,48000,-16,experiment,HHSHH,4,even,349791,359208,5265,162056,NA,360428,20332,246067,NA,357084,5261,NA,360323,360428,360930,360321,Flanker Task,130,68899,146,yes,1024
89.11564626,89.11564626,471.7619048,471.7619048,black,legacy,legacy,legacy,0,Incongruent,uniform,1,undefined,1,h,146,146,0,0,0,146,0,0,0,146,0,0,146,146,146,146,9/29/19 16:45,600,The main experiment item,yes,FlankerTask.osexp,C:\Users\Jeanette\Desktop\Jeanette Master's\AQM&ED,no,mono,no,18,no,white,no,yes,768,legacy,66,79,C:/Users/Jeanette/Desktop/Jeanette Master's/AQM&ED/jh-subject-4.csv,legacy,Kafkaesque Koffka,3.2.8,0,h,h,h,NA,NA,h,450,15066,84009,NA,NA,450,2,legacy,1024,2,48000,-16,experiment,SSHSS,4,even,349791,360952,5265,162056,NA,362142,20332,246067,NA,357084,5261,NA,362037,362142,362593,362034,Flanker Task,131,69349,147,yes,1024
89.18918919,89.18918919,471.3918919,471.3918919,black,legacy,legacy,legacy,0,Congruent,uniform,1,undefined,1,h,147,147,0,0,0,147,0,0,0,147,0,0,147,147,147,147,9/29/19 16:45,600,The main experiment item,yes,FlankerTask.osexp,C:\Users\Jeanette\Desktop\Jeanette Master's\AQM&ED,no,mono,no,18,no,white,no,yes,768,legacy,67,79,C:/Users/Jeanette/Desktop/Jeanette Master's/AQM&ED/jh-subject-4.csv,legacy,Kafkaesque Koffka,3.2.8,0,h,h,h,NA,NA,h,417,15066,84009,NA,NA,417,2,legacy,1024,2,48000,-16,experiment,HHHHH,4,even,349791,362618,5265,162056,NA,363840,20332,246067,NA,357084,5261,NA,363733,363840,364258,363731,Flanker Task,132,69766,148,yes,1024
89.26174497,89.26174497,471.261745,471.261745,black,legacy,legacy,legacy,0,Incongruent,uniform,1,undefined,1,h,148,148,0,0,0,148,0,0,0,148,0,0,148,148,148,148,9/29/19 16:45,600,The main experiment item,yes,FlankerTask.osexp,C:\Users\Jeanette\Desktop\Jeanette Master's\AQM&ED,no,mono,no,18,no,white,no,yes,768,legacy,68,79,C:/Users/Jeanette/Desktop/Jeanette Master's/AQM&ED/jh-subject-4.csv,legacy,Kafkaesque Koffka,3.2.8,0,h,h,h,NA,NA,h,452,15066,84009,NA,NA,452,2,legacy,1024,2,48000,-16,experiment,SSHSS,4,even,349791,364275,5265,162056,NA,365468,20332,246067,NA,357084,5261,NA,365363,365468,365922,365360,Flanker Task,133,70218,149,yes,1024
89.33333333,89.33333333,470.8733333,470.8733333,black,legacy,legacy,legacy,0,Incongruent,uniform,1,undefined,1,h,149,149,0,0,0,149,0,0,0,149,0,0,149,149,149,149,9/29/19 16:45,600,The main experiment item,yes,FlankerTask.osexp,C:\Users\Jeanette\Desktop\Jeanette Master's\AQM&ED,no,mono,no,18,no,white,no,yes,768,legacy,69,79,C:/Users/Jeanette/Desktop/Jeanette Master's/AQM&ED/jh-subject-4.csv,legacy,Kafkaesque Koffka,3.2.8,0,h,h,h,NA,NA,h,413,15066,84009,NA,NA,413,2,legacy,1024,2,48000,-16,experiment,SSHSS,4,even,349791,365942,5265,162056,NA,367146,20332,246067,NA,357084,5261,NA,367041,367147,367561,367038,Flanker Task,134,70631,150,yes,1024
89.40397351,89.40397351,470.9668874,470.9668874,black,legacy,legacy,legacy,0,Congruent,uniform,1,undefined,1,h,150,150,0,0,0,150,0,0,0,150,0,0,150,150,150,150,9/29/19 16:45,600,The main experiment item,yes,FlankerTask.osexp,C:\Users\Jeanette\Desktop\Jeanette Master's\AQM&ED,no,mono,no,18,no,white,no,yes,768,legacy,70,79,C:/Users/Jeanette/Desktop/Jeanette Master's/AQM&ED/jh-subject-4.csv,legacy,Kafkaesque Koffka,3.2.8,0,h,h,h,NA,NA,h,485,15066,84009,NA,NA,485,2,legacy,1024,2,48000,-16,experiment,HHHHH,4,even,349791,367585,5265,162056,NA,368771,20332,246067,NA,357084,5261,NA,368666,368771,369258,368663,Flanker Task,135,71116,151,yes,1024
89.47368421,89.47368421,470.3421053,470.3421053,black,legacy,legacy,legacy,0,Congruent,uniform,1,undefined,1,h,151,151,0,0,0,151,0,0,0,151,0,0,151,151,151,151,9/29/19 16:45,600,The main experiment item,yes,FlankerTask.osexp,C:\Users\Jeanette\Desktop\Jeanette Master's\AQM&ED,no,mono,no,18,no,white,no,yes,768,legacy,71,79,C:/Users/Jeanette/Desktop/Jeanette Master's/AQM&ED/jh-subject-4.csv,legacy,Kafkaesque Koffka,3.2.8,0,h,h,h,NA,NA,h,376,15066,84009,NA,NA,376,2,legacy,1024,2,48000,-16,experiment,HHHHH,4,even,349791,369276,5265,162056,NA,370480,20332,246067,NA,357084,5261,NA,370375,370480,370858,370372,Flanker Task,136,71492,152,yes,1024
89.54248366,89.54248366,469.6666667,469.6666667,black,legacy,legacy,legacy,0,Congruent,uniform,1,undefined,1,h,152,152,0,0,0,152,0,0,0,152,0,0,152,152,152,152,9/29/19 16:45,600,The main experiment item,yes,FlankerTask.osexp,C:\Users\Jeanette\Desktop\Jeanette Master's\AQM&ED,no,mono,no,18,no,white,no,yes,768,legacy,72,79,C:/Users/Jeanette/Desktop/Jeanette Master's/AQM&ED/jh-subject-4.csv,legacy,Kafkaesque Koffka,3.2.8,0,h,h,h,NA,NA,h,367,15066,84009,NA,NA,367,2,legacy,1024,2,48000,-16,experiment,HHHHH,4,even,349791,370877,5265,162056,NA,372074,20332,246067,NA,357084,5261,NA,371969,372074,372442,371966,Flanker Task,137,71859,153,yes,1024
89.61038961,89.61038961,468.7597403,468.7597403,black,legacy,legacy,legacy,0,Incongruent,uniform,1,undefined,1,h,153,153,0,0,0,153,0,0,0,153,0,0,153,153,153,153,9/29/19 16:45,600,The main experiment item,yes,FlankerTask.osexp,C:\Users\Jeanette\Desktop\Jeanette Master's\AQM&ED,no,mono,no,18,no,white,no,yes,768,legacy,73,79,C:/Users/Jeanette/Desktop/Jeanette Master's/AQM&ED/jh-subject-4.csv,legacy,Kafkaesque Koffka,3.2.8,0,h,h,h,NA,NA,h,330,15066,84009,NA,NA,330,2,legacy,1024,2,48000,-16,experiment,SSHSS,4,even,349791,372461,5265,162056,NA,373654,20332,246067,NA,357084,5261,NA,373549,373654,373985,373546,Flanker Task,138,72189,154,yes,1024
89.67741935,89.67741935,469.683871,469.683871,black,legacy,legacy,legacy,0,Congruent,uniform,1,undefined,1,s,154,154,0,0,0,154,0,0,0,154,0,0,154,154,154,154,9/29/19 16:45,600,The main experiment item,yes,FlankerTask.osexp,C:\Users\Jeanette\Desktop\Jeanette Master's\AQM&ED,no,mono,no,18,no,white,no,yes,768,legacy,74,79,C:/Users/Jeanette/Desktop/Jeanette Master's/AQM&ED/jh-subject-4.csv,legacy,Kafkaesque Koffka,3.2.8,0,s,h,h,NA,NA,s,612,15066,84009,NA,NA,612,2,legacy,1024,2,48000,-16,experiment,SSSSS,4,even,349791,374001,5265,162056,NA,375189,20332,246067,NA,357084,5261,NA,375084,375189,375802,375081,Flanker Task,139,72801,155,yes,1024
89.74358974,89.74358974,469.4038462,469.4038462,black,legacy,legacy,legacy,0,Congruent,uniform,1,undefined,1,s,155,155,0,0,0,155,0,0,0,155,0,0,155,155,155,155,9/29/19 16:45,600,The main experiment item,yes,FlankerTask.osexp,C:\Users\Jeanette\Desktop\Jeanette Master's\AQM&ED,no,mono,no,18,no,white,no,yes,768,legacy,75,79,C:/Users/Jeanette/Desktop/Jeanette Master's/AQM&ED/jh-subject-4.csv,legacy,Kafkaesque Koffka,3.2.8,0,s,h,h,NA,NA,s,426,15066,84009,NA,NA,426,2,legacy,1024,2,48000,-16,experiment,SSSSS,4,even,375820,376322,5265,162056,NA,377542,20332,246067,NA,357084,5261,NA,377436,377542,377970,377433,Flanker Task,140,73227,156,yes,1024
89.8089172,89.8089172,469.1719745,469.1719745,black,legacy,legacy,legacy,0,Congruent,uniform,1,undefined,1,s,156,156,0,0,0,156,0,0,0,156,0,0,156,156,156,156,9/29/19 16:45,600,The main experiment item,yes,FlankerTask.osexp,C:\Users\Jeanette\Desktop\Jeanette Master's\AQM&ED,no,mono,no,18,no,white,no,yes,768,legacy,76,79,C:/Users/Jeanette/Desktop/Jeanette Master's/AQM&ED/jh-subject-4.csv,legacy,Kafkaesque Koffka,3.2.8,0,s,h,h,NA,NA,s,433,15066,84009,NA,NA,433,2,legacy,1024,2,48000,-16,experiment,SSSSS,4,even,375820,378030,5265,162056,NA,379248,20332,246067,NA,357084,5261,NA,379143,379248,379682,379140,Flanker Task,141,73660,157,yes,1024
