"acc","accuracy","average_response_time","avg_rt","background","canvas_backend","clock_backend","color_backend","compensation","condition","coordinates","correct","correct_instructions1","correct_keyboard_response","correct_response","count_ISI","count_block1","count_block2","count_block3","count_errorFeedback","count_experiment","count_faster","count_finish","count_fixation","count_instructions1","count_instructions2","count_instructions3","count_keyboard_response","count_logger","count_sequence","count_stimulus","count_welcome","datetime","deadline","description","disable_garbage_collection","experiment_file","experiment_path","font_bold","font_family","font_italic","font_size","font_underline","foreground","form_clicks","fullscreen","height","keyboard_backend","live_row","live_row_block1","logfile","mouse_backend","opensesame_codename","opensesame_version","repeat_cycle","response","response_finish","response_instructions1","response_instructions2","response_instructions3","response_keyboard_response","response_time","response_time_finish","response_time_instructions1","response_time_instructions2","response_time_instructions3","response_time_keyboard_response","response_time_welcome","response_welcome","round_decimals","sampler_backend","sound_buf_size","sound_channels","sound_freq","sound_sample_size","start","stimulus","subject_nr","subject_parity","time_ISI","time_block1","time_block2","time_block3","time_errorFeedback","time_experiment","time_faster","time_finish","time_fixation","time_instructions1","time_instructions2","time_instructions3","time_keyboard_response","time_logger","time_sequence","time_stimulus","time_welcome","title","total_correct","total_response_time","total_responses","uniform_coordinates","width"
"100","100","894","894","black","legacy","legacy","legacy","0","incongruent","uniform","1","undefined","1","s","0","0","0","0","0","0","0","0","0","0","0","0","0","0","0","0","NA","09/23/21 18:19:30","1500","The main experiment item","yes","FlankerTask.osexp","C:\Users\katie\Documents\School\Quant Methods","no","mono","no","18","no","white","no","yes","768","legacy","0","0","C:/Users/katie/Documents/School/Quant Methods/KH-subject-2.csv","legacy","Lentiform Loewenfeld","3.3.9","0","s","NA","s","NA","NA","s","894","NA","16729","NA","NA","894","NA","NA","2","legacy","1024","2","48000","-16","experiment","HHSHH","2","even","NA","19923","NA","NA","NA","3174","NA","NA","20034","3192","NA","NA","20137","21032","20032","20137","NA","Flanker Task","1","894","1","yes","1024"
"100","100","671","671","black","legacy","legacy","legacy","0","incongruent","uniform","1","undefined","1","h","1","0","0","0","1","0","1","0","1","0","0","0","1","1","1","1","NA","09/23/21 18:19:30","1500","The main experiment item","yes","FlankerTask.osexp","C:\Users\katie\Documents\School\Quant Methods","no","mono","no","18","no","white","no","yes","768","legacy","1","1","C:/Users/katie/Documents/School/Quant Methods/KH-subject-2.csv","legacy","Lentiform Loewenfeld","3.3.9","0","h","NA","s","NA","NA","h","448","NA","16729","NA","NA","448","NA","NA","2","legacy","1024","2","48000","-16","experiment","SSHSS","2","even","21041","19923","NA","NA","NA","3174","NA","NA","22137","3192","NA","NA","22240","22688","22134","22240","NA","Flanker Task","2","1342","2","yes","1024"
"100","100","646","646","black","legacy","legacy","legacy","0","congruent","uniform","1","undefined","1","h","2","0","0","0","2","0","2","0","2","0","0","0","2","2","2","2","NA","09/23/21 18:19:30","1500","The main experiment item","yes","FlankerTask.osexp","C:\Users\katie\Documents\School\Quant Methods","no","mono","no","18","no","white","no","yes","768","legacy","2","2","C:/Users/katie/Documents/School/Quant Methods/KH-subject-2.csv","legacy","Lentiform Loewenfeld","3.3.9","0","h","NA","s","NA","NA","h","596","NA","16729","NA","NA","596","NA","NA","2","legacy","1024","2","48000","-16","experiment","HHHHH","2","even","22695","19923","NA","NA","NA","3174","NA","NA","23792","3192","NA","NA","23895","24492","23789","23895","NA","Flanker Task","3","1938","3","yes","1024"
"100","100","619","619","black","legacy","legacy","legacy","0","incongruent","uniform","1","undefined","1","s","3","0","0","0","3","0","3","0","3","0","0","0","3","3","3","3","NA","09/23/21 18:19:30","1500","The main experiment item","yes","FlankerTask.osexp","C:\Users\katie\Documents\School\Quant Methods","no","mono","no","18","no","white","no","yes","768","legacy","3","3","C:/Users/katie/Documents/School/Quant Methods/KH-subject-2.csv","legacy","Lentiform Loewenfeld","3.3.9","0","s","NA","s","NA","NA","s","538","NA","16729","NA","NA","538","NA","NA","2","legacy","1024","2","48000","-16","experiment","HHSHH","2","even","24504","19923","NA","NA","NA","3174","NA","NA","25609","3192","NA","NA","25712","26250","25606","25712","NA","Flanker Task","4","2476","4","yes","1024"
"100","100","573.6","573.6","black","legacy","legacy","legacy","0","congruent","uniform","1","undefined","1","h","4","0","0","0","4","0","4","0","4","0","0","0","4","4","4","4","NA","09/23/21 18:19:30","1500","The main experiment item","yes","FlankerTask.osexp","C:\Users\katie\Documents\School\Quant Methods","no","mono","no","18","no","white","no","yes","768","legacy","4","4","C:/Users/katie/Documents/School/Quant Methods/KH-subject-2.csv","legacy","Lentiform Loewenfeld","3.3.9","0","h","NA","s","NA","NA","h","392","NA","16729","NA","NA","392","NA","NA","2","legacy","1024","2","48000","-16","experiment","HHHHH","2","even","26264","19923","NA","NA","NA","3174","NA","NA","27357","3192","NA","NA","27460","27853","27355","27459","NA","Flanker Task","5","2868","5","yes","1024"
"100","100","560.333333333","560.333333333","black","legacy","legacy","legacy","0","congruent","uniform","1","undefined","1","s","5","0","0","0","5","0","5","0","5","0","0","0","5","5","5","5","NA","09/23/21 18:19:30","1500","The main experiment item","yes","FlankerTask.osexp","C:\Users\katie\Documents\School\Quant Methods","no","mono","no","18","no","white","no","yes","768","legacy","5","5","C:/Users/katie/Documents/School/Quant Methods/KH-subject-2.csv","legacy","Lentiform Loewenfeld","3.3.9","0","s","NA","s","NA","NA","s","494","NA","16729","NA","NA","494","NA","NA","2","legacy","1024","2","48000","-16","experiment","SSSSS","2","even","27857","19923","NA","NA","NA","3174","NA","NA","28976","3192","NA","NA","29080","29575","28971","29080","NA","Flanker Task","6","3362","6","yes","1024"
"100","100","559.142857143","559.142857143","black","legacy","legacy","legacy","0","congruent","uniform","1","undefined","1","h","6","0","0","0","6","0","6","0","6","0","0","0","6","6","6","6","NA","09/23/21 18:19:30","1500","The main experiment item","yes","FlankerTask.osexp","C:\Users\katie\Documents\School\Quant Methods","no","mono","no","18","no","white","no","yes","768","legacy","6","6","C:/Users/katie/Documents/School/Quant Methods/KH-subject-2.csv","legacy","Lentiform Loewenfeld","3.3.9","0","h","NA","s","NA","NA","h","552","NA","16729","NA","NA","552","NA","NA","2","legacy","1024","2","48000","-16","experiment","HHHHH","2","even","29587","19923","NA","NA","NA","3174","NA","NA","30686","3192","NA","NA","30789","31342","30681","30789","NA","Flanker Task","7","3914","7","yes","1024"
"100","100","563.75","563.75","black","legacy","legacy","legacy","0","incongruent","uniform","1","undefined","1","s","7","0","0","0","7","0","7","0","7","0","0","0","7","7","7","7","NA","09/23/21 18:19:30","1500","The main experiment item","yes","FlankerTask.osexp","C:\Users\katie\Documents\School\Quant Methods","no","mono","no","18","no","white","no","yes","768","legacy","7","7","C:/Users/katie/Documents/School/Quant Methods/KH-subject-2.csv","legacy","Lentiform Loewenfeld","3.3.9","0","s","NA","s","NA","NA","s","596","NA","16729","NA","NA","596","NA","NA","2","legacy","1024","2","48000","-16","experiment","HHSHH","2","even","31356","19923","NA","NA","NA","3174","NA","NA","32440","3192","NA","NA","32544","33140","32438","32544","NA","Flanker Task","8","4510","8","yes","1024"
"100","100","564.444444444","564.444444444","black","legacy","legacy","legacy","0","incongruent","uniform","1","undefined","1","s","8","0","0","0","8","0","8","0","8","0","0","0","8","8","8","8","NA","09/23/21 18:19:30","1500","The main experiment item","yes","FlankerTask.osexp","C:\Users\katie\Documents\School\Quant Methods","no","mono","no","18","no","white","no","yes","768","legacy","8","8","C:/Users/katie/Documents/School/Quant Methods/KH-subject-2.csv","legacy","Lentiform Loewenfeld","3.3.9","0","s","NA","s","NA","NA","s","570","NA","16729","NA","NA","570","NA","NA","2","legacy","1024","2","48000","-16","experiment","HHSHH","2","even","33153","19923","NA","NA","NA","3174","NA","NA","34241","3192","NA","NA","34343","34914","34237","34343","NA","Flanker Task","9","5080","9","yes","1024"
"100","100","551.5","551.5","black","legacy","legacy","legacy","0","congruent","uniform","1","undefined","1","s","9","0","0","0","9","0","9","0","9","0","0","0","9","9","9","9","NA","09/23/21 18:19:30","1500","The main experiment item","yes","FlankerTask.osexp","C:\Users\katie\Documents\School\Quant Methods","no","mono","no","18","no","white","no","yes","768","legacy","9","9","C:/Users/katie/Documents/School/Quant Methods/KH-subject-2.csv","legacy","Lentiform Loewenfeld","3.3.9","0","s","NA","s","NA","NA","s","435","NA","16729","NA","NA","435","NA","NA","2","legacy","1024","2","48000","-16","experiment","SSSSS","2","even","34927","19923","NA","NA","NA","3174","NA","NA","36012","3192","NA","NA","36116","36552","36010","36116","NA","Flanker Task","10","5515","10","yes","1024"
"90.9090909091","90.9090909091","538.454545455","538.454545455","black","legacy","legacy","legacy","0","incongruent","uniform","0","undefined","0","h","10","0","0","0","10","0","10","0","10","0","0","0","10","10","10","10","NA","09/23/21 18:19:30","1500","The main experiment item","yes","FlankerTask.osexp","C:\Users\katie\Documents\School\Quant Methods","no","mono","no","18","no","white","no","yes","768","legacy","10","10","C:/Users/katie/Documents/School/Quant Methods/KH-subject-2.csv","legacy","Lentiform Loewenfeld","3.3.9","0","s","NA","s","NA","NA","s","408","NA","16729","NA","NA","408","NA","NA","2","legacy","1024","2","48000","-16","experiment","SSHSS","2","even","36566","19923","NA","NA","NA","3174","NA","NA","37658","3192","NA","NA","37760","38168","37656","37760","NA","Flanker Task","10","5923","11","yes","1024"
"91.6666666667","91.6666666667","541.083333333","541.083333333","black","legacy","legacy","legacy","0","incongruent","uniform","1","undefined","1","s","11","0","0","0","11","0","11","0","11","0","0","0","11","11","11","11","NA","09/23/21 18:19:30","1500","The main experiment item","yes","FlankerTask.osexp","C:\Users\katie\Documents\School\Quant Methods","no","mono","no","18","no","white","no","yes","768","legacy","11","11","C:/Users/katie/Documents/School/Quant Methods/KH-subject-2.csv","legacy","Lentiform Loewenfeld","3.3.9","0","s","NA","s","NA","NA","s","570","NA","16729","NA","NA","570","NA","NA","2","legacy","1024","2","48000","-16","experiment","HHSHH","2","even","38684","19923","NA","NA","38181","3174","NA","NA","39764","3192","NA","NA","39867","40438","39761","39867","NA","Flanker Task","11","6493","12","yes","1024"
"92.3076923077","92.3076923077","531.307692308","531.307692308","black","legacy","legacy","legacy","0","congruent","uniform","1","undefined","1","h","12","0","0","0","12","0","12","0","12","0","0","0","12","12","12","12","NA","09/23/21 18:19:30","1500","The main experiment item","yes","FlankerTask.osexp","C:\Users\katie\Documents\School\Quant Methods","no","mono","no","18","no","white","no","yes","768","legacy","12","12","C:/Users/katie/Documents/School/Quant Methods/KH-subject-2.csv","legacy","Lentiform Loewenfeld","3.3.9","0","h","NA","s","NA","NA","h","414","NA","16729","NA","NA","414","NA","NA","2","legacy","1024","2","48000","-16","experiment","HHHHH","2","even","40450","19923","NA","NA","38181","3174","NA","NA","41532","3192","NA","NA","41635","42050","41530","41635","NA","Flanker Task","12","6907","13","yes","1024"
"92.8571428571","92.8571428571","531.857142857","531.857142857","black","legacy","legacy","legacy","0","incongruent","uniform","1","undefined","1","s","13","0","0","0","13","0","13","0","13","0","0","0","13","13","13","13","NA","09/23/21 18:19:30","1500","The main experiment item","yes","FlankerTask.osexp","C:\Users\katie\Documents\School\Quant Methods","no","mono","no","18","no","white","no","yes","768","legacy","13","13","C:/Users/katie/Documents/School/Quant Methods/KH-subject-2.csv","legacy","Lentiform Loewenfeld","3.3.9","0","s","NA","s","NA","NA","s","539","NA","16729","NA","NA","539","NA","NA","2","legacy","1024","2","48000","-16","experiment","HHSHH","2","even","42062","19923","NA","NA","38181","3174","NA","NA","43171","3192","NA","NA","43274","43813","43167","43274","NA","Flanker Task","13","7446","14","yes","1024"
"93.3333333333","93.3333333333","524.2","524.2","black","legacy","legacy","legacy","0","incongruent","uniform","1","undefined","1","s","14","0","0","0","14","0","14","0","14","0","0","0","14","14","14","14","NA","09/23/21 18:19:30","1500","The main experiment item","yes","FlankerTask.osexp","C:\Users\katie\Documents\School\Quant Methods","no","mono","no","18","no","white","no","yes","768","legacy","14","14","C:/Users/katie/Documents/School/Quant Methods/KH-subject-2.csv","legacy","Lentiform Loewenfeld","3.3.9","0","s","NA","s","NA","NA","s","417","NA","16729","NA","NA","417","NA","NA","2","legacy","1024","2","48000","-16","experiment","HHSHH","2","even","43827","19923","NA","NA","38181","3174","NA","NA","44924","3192","NA","NA","45027","45445","44921","45027","NA","Flanker Task","14","7863","15","yes","1024"
"93.75","93.75","529.75","529.75","black","legacy","legacy","legacy","0","incongruent","uniform","1","undefined","1","h","15","0","0","0","15","0","15","0","15","0","0","0","15","15","15","15","NA","09/23/21 18:19:30","1500","The main experiment item","yes","FlankerTask.osexp","C:\Users\katie\Documents\School\Quant Methods","no","mono","no","18","no","white","no","yes","768","legacy","15","15","C:/Users/katie/Documents/School/Quant Methods/KH-subject-2.csv","legacy","Lentiform Loewenfeld","3.3.9","0","h","NA","s","NA","NA","h","613","NA","16729","NA","NA","613","NA","NA","2","legacy","1024","2","48000","-16","experiment","SSHSS","2","even","45459","19923","NA","NA","38181","3174","NA","NA","46565","3192","NA","NA","46668","47282","46561","46668","NA","Flanker Task","15","8476","16","yes","1024"
"94.1176470588","94.1176470588","533.176470588","533.176470588","black","legacy","legacy","legacy","0","congruent","uniform","1","undefined","1","s","16","0","0","0","16","0","16","0","16","0","0","0","16","16","16","16","NA","09/23/21 18:19:30","1500","The main experiment item","yes","FlankerTask.osexp","C:\Users\katie\Documents\School\Quant Methods","no","mono","no","18","no","white","no","yes","768","legacy","16","16","C:/Users/katie/Documents/School/Quant Methods/KH-subject-2.csv","legacy","Lentiform Loewenfeld","3.3.9","0","s","NA","s","NA","NA","s","588","NA","16729","NA","NA","588","NA","NA","2","legacy","1024","2","48000","-16","experiment","SSSSS","2","even","47293","19923","NA","NA","38181","3174","NA","NA","48389","3192","NA","NA","48492","49080","48387","48492","NA","Flanker Task","16","9064","17","yes","1024"
"94.4444444444","94.4444444444","533.722222222","533.722222222","black","legacy","legacy","legacy","0","congruent","uniform","1","undefined","1","h","17","0","0","0","17","0","17","0","17","0","0","0","17","17","17","17","NA","09/23/21 18:19:30","1500","The main experiment item","yes","FlankerTask.osexp","C:\Users\katie\Documents\School\Quant Methods","no","mono","no","18","no","white","no","yes","768","legacy","17","17","C:/Users/katie/Documents/School/Quant Methods/KH-subject-2.csv","legacy","Lentiform Loewenfeld","3.3.9","0","h","NA","s","NA","NA","h","543","NA","16729","NA","NA","543","NA","NA","2","legacy","1024","2","48000","-16","experiment","HHHHH","2","even","49093","19923","NA","NA","38181","3174","NA","NA","50187","3192","NA","NA","50291","50835","50185","50291","NA","Flanker Task","17","9607","18","yes","1024"
"94.7368421053","94.7368421053","532.736842105","532.736842105","black","legacy","legacy","legacy","0","incongruent","uniform","1","undefined","1","s","18","0","0","0","18","0","18","0","18","0","0","0","18","18","18","18","NA","09/23/21 18:19:30","1500","The main experiment item","yes","FlankerTask.osexp","C:\Users\katie\Documents\School\Quant Methods","no","mono","no","18","no","white","no","yes","768","legacy","18","18","C:/Users/katie/Documents/School/Quant Methods/KH-subject-2.csv","legacy","Lentiform Loewenfeld","3.3.9","0","s","NA","s","NA","NA","s","515","NA","16729","NA","NA","515","NA","NA","2","legacy","1024","2","48000","-16","experiment","HHSHH","2","even","50849","19923","NA","NA","38181","3174","NA","NA","51905","3192","NA","NA","52006","52522","51902","52006","NA","Flanker Task","18","10122","19","yes","1024"
"95","95","532.15","532.15","black","legacy","legacy","legacy","0","incongruent","uniform","1","undefined","1","h","19","0","0","0","19","0","19","0","19","0","0","0","19","19","19","19","NA","09/23/21 18:19:30","1500","The main experiment item","yes","FlankerTask.osexp","C:\Users\katie\Documents\School\Quant Methods","no","mono","no","18","no","white","no","yes","768","legacy","19","19","C:/Users/katie/Documents/School/Quant Methods/KH-subject-2.csv","legacy","Lentiform Loewenfeld","3.3.9","0","h","NA","s","NA","NA","h","521","NA","16729","NA","NA","521","NA","NA","2","legacy","1024","2","48000","-16","experiment","SSHSS","2","even","52535","19923","NA","NA","38181","3174","NA","NA","53640","3192","NA","NA","53743","54265","53638","53743","NA","Flanker Task","19","10643","20","yes","1024"
"90.4761904762","90.4761904762","525.761904762","525.761904762","black","legacy","legacy","legacy","0","incongruent","uniform","0","undefined","0","h","20","0","0","0","20","0","20","0","20","0","0","0","20","20","20","20","NA","09/23/21 18:19:30","1500","The main experiment item","yes","FlankerTask.osexp","C:\Users\katie\Documents\School\Quant Methods","no","mono","no","18","no","white","no","yes","768","legacy","20","20","C:/Users/katie/Documents/School/Quant Methods/KH-subject-2.csv","legacy","Lentiform Loewenfeld","3.3.9","0","s","NA","s","NA","NA","s","398","NA","16729","NA","NA","398","NA","NA","2","legacy","1024","2","48000","-16","experiment","SSHSS","2","even","54280","19923","NA","NA","38181","3174","NA","NA","55364","3192","NA","NA","55468","55867","55362","55468","NA","Flanker Task","19","11041","21","yes","1024"
"90.9090909091","90.9090909091","525.227272727","525.227272727","black","legacy","legacy","legacy","0","incongruent","uniform","1","undefined","1","s","21","0","0","0","21","0","21","0","21","0","0","0","21","21","21","21","NA","09/23/21 18:19:30","1500","The main experiment item","yes","FlankerTask.osexp","C:\Users\katie\Documents\School\Quant Methods","no","mono","no","18","no","white","no","yes","768","legacy","21","21","C:/Users/katie/Documents/School/Quant Methods/KH-subject-2.csv","legacy","Lentiform Loewenfeld","3.3.9","0","s","NA","s","NA","NA","s","514","NA","16729","NA","NA","514","NA","NA","2","legacy","1024","2","48000","-16","experiment","HHSHH","2","even","56385","19923","NA","NA","55881","3174","NA","NA","57478","3192","NA","NA","57581","58095","57475","57581","NA","Flanker Task","20","11555","22","yes","1024"
"91.3043478261","91.3043478261","526.043478261","526.043478261","black","legacy","legacy","legacy","0","congruent","uniform","1","undefined","1","s","22","0","0","0","22","0","22","0","22","0","0","0","22","22","22","22","NA","09/23/21 18:19:30","1500","The main experiment item","yes","FlankerTask.osexp","C:\Users\katie\Documents\School\Quant Methods","no","mono","no","18","no","white","no","yes","768","legacy","22","22","C:/Users/katie/Documents/School/Quant Methods/KH-subject-2.csv","legacy","Lentiform Loewenfeld","3.3.9","0","s","NA","s","NA","NA","s","544","NA","16729","NA","NA","544","NA","NA","2","legacy","1024","2","48000","-16","experiment","SSSSS","2","even","58101","19923","NA","NA","55881","3174","NA","NA","59195","3192","NA","NA","59299","59844","59193","59298","NA","Flanker Task","21","12099","23","yes","1024"
"91.6666666667","91.6666666667","523.875","523.875","black","legacy","legacy","legacy","0","congruent","uniform","1","undefined","1","h","23","0","0","0","23","0","23","0","23","0","0","0","23","23","23","23","NA","09/23/21 18:19:30","1500","The main experiment item","yes","FlankerTask.osexp","C:\Users\katie\Documents\School\Quant Methods","no","mono","no","18","no","white","no","yes","768","legacy","23","23","C:/Users/katie/Documents/School/Quant Methods/KH-subject-2.csv","legacy","Lentiform Loewenfeld","3.3.9","0","h","NA","s","NA","NA","h","474","NA","16729","NA","NA","474","NA","NA","2","legacy","1024","2","48000","-16","experiment","HHHHH","2","even","59856","19923","NA","NA","55881","3174","NA","NA","60950","3192","NA","NA","61053","61527","60946","61053","NA","Flanker Task","22","12573","24","yes","1024"
"92","92","523.92","523.92","black","legacy","legacy","legacy","0","congruent","uniform","1","undefined","1","s","24","0","0","0","24","0","24","0","24","0","0","0","24","24","24","24","NA","09/23/21 18:19:30","1500","The main experiment item","yes","FlankerTask.osexp","C:\Users\katie\Documents\School\Quant Methods","no","mono","no","18","no","white","no","yes","768","legacy","24","24","C:/Users/katie/Documents/School/Quant Methods/KH-subject-2.csv","legacy","Lentiform Loewenfeld","3.3.9","0","s","NA","s","NA","NA","s","525","NA","16729","NA","NA","525","NA","NA","2","legacy","1024","2","48000","-16","experiment","SSSSS","2","even","61541","19923","NA","NA","55881","3174","NA","NA","62610","3192","NA","NA","62712","63237","62607","62712","NA","Flanker Task","23","13098","25","yes","1024"
"92.3076923077","92.3076923077","523.692307692","523.692307692","black","legacy","legacy","legacy","0","congruent","uniform","1","undefined","1","s","25","0","0","0","25","0","25","0","25","0","0","0","25","25","25","25","NA","09/23/21 18:19:30","1500","The main experiment item","yes","FlankerTask.osexp","C:\Users\katie\Documents\School\Quant Methods","no","mono","no","18","no","white","no","yes","768","legacy","25","25","C:/Users/katie/Documents/School/Quant Methods/KH-subject-2.csv","legacy","Lentiform Loewenfeld","3.3.9","0","s","NA","s","NA","NA","s","518","NA","16729","NA","NA","518","NA","NA","2","legacy","1024","2","48000","-16","experiment","SSSSS","2","even","63241","19923","NA","NA","55881","3174","NA","NA","64335","3192","NA","NA","64437","64955","64331","64437","NA","Flanker Task","24","13616","26","yes","1024"
"92.5925925926","92.5925925926","519.962962963","519.962962963","black","legacy","legacy","legacy","0","congruent","uniform","1","undefined","1","s","26","0","0","0","26","0","26","0","26","0","0","0","26","26","26","26","NA","09/23/21 18:19:30","1500","The main experiment item","yes","FlankerTask.osexp","C:\Users\katie\Documents\School\Quant Methods","no","mono","no","18","no","white","no","yes","768","legacy","26","26","C:/Users/katie/Documents/School/Quant Methods/KH-subject-2.csv","legacy","Lentiform Loewenfeld","3.3.9","0","s","NA","s","NA","NA","s","423","NA","16729","NA","NA","423","NA","NA","2","legacy","1024","2","48000","-16","experiment","SSSSS","2","even","64961","19923","NA","NA","55881","3174","NA","NA","66042","3192","NA","NA","66144","66568","66038","66144","NA","Flanker Task","25","14039","27","yes","1024"
"92.8571428571","92.8571428571","522.214285714","522.214285714","black","legacy","legacy","legacy","0","incongruent","uniform","1","undefined","1","s","27","0","0","0","27","0","27","0","27","0","0","0","27","27","27","27","NA","09/23/21 18:19:30","1500","The main experiment item","yes","FlankerTask.osexp","C:\Users\katie\Documents\School\Quant Methods","no","mono","no","18","no","white","no","yes","768","legacy","27","27","C:/Users/katie/Documents/School/Quant Methods/KH-subject-2.csv","legacy","Lentiform Loewenfeld","3.3.9","0","s","NA","s","NA","NA","s","583","NA","16729","NA","NA","583","NA","NA","2","legacy","1024","2","48000","-16","experiment","HHSHH","2","even","66580","19923","NA","NA","55881","3174","NA","NA","67682","3192","NA","NA","67786","68371","67673","67785","NA","Flanker Task","26","14622","28","yes","1024"
"93.1034482759","93.1034482759","522.793103448","522.793103448","black","legacy","legacy","legacy","0","incongruent","uniform","1","undefined","1","s","28","0","0","0","28","0","28","0","28","0","0","0","28","28","28","28","NA","09/23/21 18:19:30","1500","The main experiment item","yes","FlankerTask.osexp","C:\Users\katie\Documents\School\Quant Methods","no","mono","no","18","no","white","no","yes","768","legacy","28","28","C:/Users/katie/Documents/School/Quant Methods/KH-subject-2.csv","legacy","Lentiform Loewenfeld","3.3.9","0","s","NA","s","NA","NA","s","539","NA","16729","NA","NA","539","NA","NA","2","legacy","1024","2","48000","-16","experiment","HHSHH","2","even","68386","19923","NA","NA","55881","3174","NA","NA","69447","3192","NA","NA","69548","70088","69445","69548","NA","Flanker Task","27","15161","29","yes","1024"
"93.3333333333","93.3333333333","521.433333333","521.433333333","black","legacy","legacy","legacy","0","incongruent","uniform","1","undefined","1","h","29","0","0","0","29","0","29","0","29","0","0","0","29","29","29","29","NA","09/23/21 18:19:30","1500","The main experiment item","yes","FlankerTask.osexp","C:\Users\katie\Documents\School\Quant Methods","no","mono","no","18","no","white","no","yes","768","legacy","29","29","C:/Users/katie/Documents/School/Quant Methods/KH-subject-2.csv","legacy","Lentiform Loewenfeld","3.3.9","0","h","NA","s","NA","NA","h","482","NA","16729","NA","NA","482","NA","NA","2","legacy","1024","2","48000","-16","experiment","SSHSS","2","even","70104","19923","NA","NA","55881","3174","NA","NA","71175","3192","NA","NA","71278","71761","71172","71278","NA","Flanker Task","28","15643","30","yes","1024"
"93.5483870968","93.5483870968","526.548387097","526.548387097","black","legacy","legacy","legacy","0","incongruent","uniform","1","undefined","1","h","30","0","0","0","30","0","30","0","30","0","0","0","30","30","30","30","NA","09/23/21 18:19:30","1500","The main experiment item","yes","FlankerTask.osexp","C:\Users\katie\Documents\School\Quant Methods","no","mono","no","18","no","white","no","yes","768","legacy","30","30","C:/Users/katie/Documents/School/Quant Methods/KH-subject-2.csv","legacy","Lentiform Loewenfeld","3.3.9","0","h","NA","s","NA","NA","h","680","NA","16729","NA","NA","680","NA","NA","2","legacy","1024","2","48000","-16","experiment","SSHSS","2","even","71774","19923","NA","NA","55881","3174","NA","NA","72855","3192","NA","NA","72958","73639","72851","72958","NA","Flanker Task","29","16323","31","yes","1024"
"93.75","93.75","526.875","526.875","black","legacy","legacy","legacy","0","incongruent","uniform","1","undefined","1","h","31","0","0","0","31","0","31","0","31","0","0","0","31","31","31","31","NA","09/23/21 18:19:30","1500","The main experiment item","yes","FlankerTask.osexp","C:\Users\katie\Documents\School\Quant Methods","no","mono","no","18","no","white","no","yes","768","legacy","31","31","C:/Users/katie/Documents/School/Quant Methods/KH-subject-2.csv","legacy","Lentiform Loewenfeld","3.3.9","0","h","NA","s","NA","NA","h","537","NA","16729","NA","NA","537","NA","NA","2","legacy","1024","2","48000","-16","experiment","SSHSS","2","even","73652","19923","NA","NA","55881","3174","NA","NA","74740","3192","NA","NA","74843","75382","74735","74843","NA","Flanker Task","30","16860","32","yes","1024"
"93.9393939394","93.9393939394","524.848484848","524.848484848","black","legacy","legacy","legacy","0","congruent","uniform","1","undefined","1","s","32","0","0","0","32","0","32","0","32","0","0","0","32","32","32","32","NA","09/23/21 18:19:30","1500","The main experiment item","yes","FlankerTask.osexp","C:\Users\katie\Documents\School\Quant Methods","no","mono","no","18","no","white","no","yes","768","legacy","32","32","C:/Users/katie/Documents/School/Quant Methods/KH-subject-2.csv","legacy","Lentiform Loewenfeld","3.3.9","0","s","NA","s","NA","NA","s","460","NA","16729","NA","NA","460","NA","NA","2","legacy","1024","2","48000","-16","experiment","SSSSS","2","even","75390","19923","NA","NA","55881","3174","NA","NA","76462","3192","NA","NA","76565","77026","76458","76565","NA","Flanker Task","31","17320","33","yes","1024"
"94.1176470588","94.1176470588","523.794117647","523.794117647","black","legacy","legacy","legacy","0","congruent","uniform","1","undefined","1","h","33","0","0","0","33","0","33","0","33","0","0","0","33","33","33","33","NA","09/23/21 18:19:30","1500","The main experiment item","yes","FlankerTask.osexp","C:\Users\katie\Documents\School\Quant Methods","no","mono","no","18","no","white","no","yes","768","legacy","33","33","C:/Users/katie/Documents/School/Quant Methods/KH-subject-2.csv","legacy","Lentiform Loewenfeld","3.3.9","0","h","NA","s","NA","NA","h","489","NA","16729","NA","NA","489","NA","NA","2","legacy","1024","2","48000","-16","experiment","HHHHH","2","even","77038","19923","NA","NA","55881","3174","NA","NA","78148","3192","NA","NA","78252","78741","78145","78251","NA","Flanker Task","32","17809","34","yes","1024"
"94.2857142857","94.2857142857","522.971428571","522.971428571","black","legacy","legacy","legacy","0","congruent","uniform","1","undefined","1","s","34","0","0","0","34","0","34","0","34","0","0","0","34","34","34","34","NA","09/23/21 18:19:30","1500","The main experiment item","yes","FlankerTask.osexp","C:\Users\katie\Documents\School\Quant Methods","no","mono","no","18","no","white","no","yes","768","legacy","34","34","C:/Users/katie/Documents/School/Quant Methods/KH-subject-2.csv","legacy","Lentiform Loewenfeld","3.3.9","0","s","NA","s","NA","NA","s","495","NA","16729","NA","NA","495","NA","NA","2","legacy","1024","2","48000","-16","experiment","SSSSS","2","even","78749","19923","NA","NA","55881","3174","NA","NA","79809","3192","NA","NA","79913","80409","79807","79913","NA","Flanker Task","33","18304","35","yes","1024"
"94.4444444444","94.4444444444","522.111111111","522.111111111","black","legacy","legacy","legacy","0","incongruent","uniform","1","undefined","1","h","35","0","0","0","35","0","35","0","35","0","0","0","35","35","35","35","NA","09/23/21 18:19:30","1500","The main experiment item","yes","FlankerTask.osexp","C:\Users\katie\Documents\School\Quant Methods","no","mono","no","18","no","white","no","yes","768","legacy","35","35","C:/Users/katie/Documents/School/Quant Methods/KH-subject-2.csv","legacy","Lentiform Loewenfeld","3.3.9","0","h","NA","s","NA","NA","h","492","NA","16729","NA","NA","492","NA","NA","2","legacy","1024","2","48000","-16","experiment","SSHSS","2","even","80415","19923","NA","NA","55881","3174","NA","NA","81521","3192","NA","NA","81625","82118","81517","81624","NA","Flanker Task","34","18796","36","yes","1024"
"94.5945945946","94.5945945946","522.405405405","522.405405405","black","legacy","legacy","legacy","0","congruent","uniform","1","undefined","1","h","36","0","0","0","36","0","36","0","36","0","0","0","36","36","36","36","NA","09/23/21 18:19:30","1500","The main experiment item","yes","FlankerTask.osexp","C:\Users\katie\Documents\School\Quant Methods","no","mono","no","18","no","white","no","yes","768","legacy","36","36","C:/Users/katie/Documents/School/Quant Methods/KH-subject-2.csv","legacy","Lentiform Loewenfeld","3.3.9","0","h","NA","s","NA","NA","h","533","NA","16729","NA","NA","533","NA","NA","2","legacy","1024","2","48000","-16","experiment","HHHHH","2","even","82129","19923","NA","NA","55881","3174","NA","NA","83197","3192","NA","NA","83301","83836","83195","83301","NA","Flanker Task","35","19329","37","yes","1024"
"94.7368421053","94.7368421053","520.394736842","520.394736842","black","legacy","legacy","legacy","0","congruent","uniform","1","undefined","1","h","37","0","0","0","37","0","37","0","37","0","0","0","37","37","37","37","NA","09/23/21 18:19:30","1500","The main experiment item","yes","FlankerTask.osexp","C:\Users\katie\Documents\School\Quant Methods","no","mono","no","18","no","white","no","yes","768","legacy","37","37","C:/Users/katie/Documents/School/Quant Methods/KH-subject-2.csv","legacy","Lentiform Loewenfeld","3.3.9","0","h","NA","s","NA","NA","h","446","NA","16729","NA","NA","446","NA","NA","2","legacy","1024","2","48000","-16","experiment","HHHHH","2","even","83851","19923","NA","NA","55881","3174","NA","NA","84930","3192","NA","NA","85034","85481","84928","85033","NA","Flanker Task","36","19775","38","yes","1024"
"94.8717948718","94.8717948718","519.179487179","519.179487179","black","legacy","legacy","legacy","0","congruent","uniform","1","undefined","1","s","38","0","0","0","38","0","38","0","38","0","0","0","38","38","38","38","NA","09/23/21 18:19:30","1500","The main experiment item","yes","FlankerTask.osexp","C:\Users\katie\Documents\School\Quant Methods","no","mono","no","18","no","white","no","yes","768","legacy","38","38","C:/Users/katie/Documents/School/Quant Methods/KH-subject-2.csv","legacy","Lentiform Loewenfeld","3.3.9","0","s","NA","s","NA","NA","s","473","NA","16729","NA","NA","473","NA","NA","2","legacy","1024","2","48000","-16","experiment","SSSSS","2","even","85487","19923","NA","NA","55881","3174","NA","NA","86591","3192","NA","NA","86694","87168","86588","86694","NA","Flanker Task","37","20248","39","yes","1024"
"95","95","520.35","520.35","black","legacy","legacy","legacy","0","incongruent","uniform","1","undefined","1","h","39","0","0","0","39","0","39","0","39","0","0","0","39","39","39","39","NA","09/23/21 18:19:30","1500","The main experiment item","yes","FlankerTask.osexp","C:\Users\katie\Documents\School\Quant Methods","no","mono","no","18","no","white","no","yes","768","legacy","39","39","C:/Users/katie/Documents/School/Quant Methods/KH-subject-2.csv","legacy","Lentiform Loewenfeld","3.3.9","0","h","NA","s","NA","NA","h","566","NA","16729","NA","NA","566","NA","NA","2","legacy","1024","2","48000","-16","experiment","SSHSS","2","even","87173","19923","NA","NA","55881","3174","NA","NA","88280","3192","NA","NA","88385","88952","88276","88385","NA","Flanker Task","38","20814","40","yes","1024"
"95.1219512195","95.1219512195","517.170731707","517.170731707","black","legacy","legacy","legacy","0","congruent","uniform","1","undefined","1","s","40","0","0","0","40","0","40","0","40","0","0","0","40","40","40","40","NA","09/23/21 18:19:30","1500","The main experiment item","yes","FlankerTask.osexp","C:\Users\katie\Documents\School\Quant Methods","no","mono","no","18","no","white","no","yes","768","legacy","40","40","C:/Users/katie/Documents/School/Quant Methods/KH-subject-2.csv","legacy","Lentiform Loewenfeld","3.3.9","0","s","NA","s","NA","NA","s","390","NA","16729","NA","NA","390","NA","NA","2","legacy","1024","2","48000","-16","experiment","SSSSS","2","even","88965","19923","NA","NA","55881","3174","NA","NA","90064","3192","NA","NA","90167","90558","90060","90167","NA","Flanker Task","39","21204","41","yes","1024"
"95.2380952381","95.2380952381","520.880952381","520.880952381","black","legacy","legacy","legacy","0","incongruent","uniform","1","undefined","1","s","41","0","0","0","41","0","41","0","41","0","0","0","41","41","41","41","NA","09/23/21 18:19:30","1500","The main experiment item","yes","FlankerTask.osexp","C:\Users\katie\Documents\School\Quant Methods","no","mono","no","18","no","white","no","yes","768","legacy","41","41","C:/Users/katie/Documents/School/Quant Methods/KH-subject-2.csv","legacy","Lentiform Loewenfeld","3.3.9","0","s","NA","s","NA","NA","s","673","NA","16729","NA","NA","673","NA","NA","2","legacy","1024","2","48000","-16","experiment","HHSHH","2","even","90573","19923","NA","NA","55881","3174","NA","NA","91686","3192","NA","NA","91789","92464","91682","91789","NA","Flanker Task","40","21877","42","yes","1024"
"95.3488372093","95.3488372093","522.627906977","522.627906977","black","legacy","legacy","legacy","0","congruent","uniform","1","undefined","1","s","42","0","0","0","42","0","42","0","42","0","0","0","42","42","42","42","NA","09/23/21 18:19:30","1500","The main experiment item","yes","FlankerTask.osexp","C:\Users\katie\Documents\School\Quant Methods","no","mono","no","18","no","white","no","yes","768","legacy","42","42","C:/Users/katie/Documents/School/Quant Methods/KH-subject-2.csv","legacy","Lentiform Loewenfeld","3.3.9","0","s","NA","s","NA","NA","s","596","NA","16729","NA","NA","596","NA","NA","2","legacy","1024","2","48000","-16","experiment","SSSSS","2","even","92468","19923","NA","NA","55881","3174","NA","NA","93547","3192","NA","NA","93649","94245","93545","93649","NA","Flanker Task","41","22473","43","yes","1024"
"95.4545454545","95.4545454545","532.25","532.25","black","legacy","legacy","legacy","0","congruent","uniform","1","undefined","1","s","43","0","0","0","43","0","43","0","43","0","0","0","43","43","43","43","NA","09/23/21 18:19:30","1500","The main experiment item","yes","FlankerTask.osexp","C:\Users\katie\Documents\School\Quant Methods","no","mono","no","18","no","white","no","yes","768","legacy","43","43","C:/Users/katie/Documents/School/Quant Methods/KH-subject-2.csv","legacy","Lentiform Loewenfeld","3.3.9","0","s","NA","s","NA","NA","s","946","NA","16729","NA","NA","946","NA","NA","2","legacy","1024","2","48000","-16","experiment","SSSSS","2","even","94257","19923","NA","NA","55881","3174","NA","NA","95339","3192","NA","NA","95442","96390","95337","95442","NA","Flanker Task","42","23419","44","yes","1024"
"95.5555555556","95.5555555556","531.266666667","531.266666667","black","legacy","legacy","legacy","0","congruent","uniform","1","undefined","1","h","44","0","0","0","44","0","44","0","44","0","0","0","44","44","44","44","NA","09/23/21 18:19:30","1500","The main experiment item","yes","FlankerTask.osexp","C:\Users\katie\Documents\School\Quant Methods","no","mono","no","18","no","white","no","yes","768","legacy","44","44","C:/Users/katie/Documents/School/Quant Methods/KH-subject-2.csv","legacy","Lentiform Loewenfeld","3.3.9","0","h","NA","s","NA","NA","h","488","NA","16729","NA","NA","488","NA","NA","2","legacy","1024","2","48000","-16","experiment","HHHHH","2","even","96403","19923","NA","NA","55881","3174","NA","NA","97500","3192","NA","NA","97603","98091","97497","97603","NA","Flanker Task","43","23907","45","yes","1024"
"95.652173913","95.652173913","533.826086957","533.826086957","black","legacy","legacy","legacy","0","congruent","uniform","1","undefined","1","h","45","0","0","0","45","0","45","0","45","0","0","0","45","45","45","45","NA","09/23/21 18:19:30","1500","The main experiment item","yes","FlankerTask.osexp","C:\Users\katie\Documents\School\Quant Methods","no","mono","no","18","no","white","no","yes","768","legacy","45","45","C:/Users/katie/Documents/School/Quant Methods/KH-subject-2.csv","legacy","Lentiform Loewenfeld","3.3.9","0","h","NA","s","NA","NA","h","649","NA","16729","NA","NA","649","NA","NA","2","legacy","1024","2","48000","-16","experiment","HHHHH","2","even","98103","19923","NA","NA","55881","3174","NA","NA","99182","3192","NA","NA","99286","99937","99179","99286","NA","Flanker Task","44","24556","46","yes","1024"
"95.7446808511","95.7446808511","536.617021277","536.617021277","black","legacy","legacy","legacy","0","incongruent","uniform","1","undefined","1","s","46","0","0","0","46","0","46","0","46","0","0","0","46","46","46","46","NA","09/23/21 18:19:30","1500","The main experiment item","yes","FlankerTask.osexp","C:\Users\katie\Documents\School\Quant Methods","no","mono","no","18","no","white","no","yes","768","legacy","46","46","C:/Users/katie/Documents/School/Quant Methods/KH-subject-2.csv","legacy","Lentiform Loewenfeld","3.3.9","0","s","NA","s","NA","NA","s","665","NA","16729","NA","NA","665","NA","NA","2","legacy","1024","2","48000","-16","experiment","HHSHH","2","even","99951","19923","NA","NA","55881","3174","NA","NA","101034","3192","NA","NA","101137","101804","101032","101136","NA","Flanker Task","45","25221","47","yes","1024"
"95.8333333333","95.8333333333","537.916666667","537.916666667","black","legacy","legacy","legacy","0","incongruent","uniform","1","undefined","1","h","47","0","0","0","47","0","47","0","47","0","0","0","47","47","47","47","NA","09/23/21 18:19:30","1500","The main experiment item","yes","FlankerTask.osexp","C:\Users\katie\Documents\School\Quant Methods","no","mono","no","18","no","white","no","yes","768","legacy","47","47","C:/Users/katie/Documents/School/Quant Methods/KH-subject-2.csv","legacy","Lentiform Loewenfeld","3.3.9","0","h","NA","s","NA","NA","h","599","NA","16729","NA","NA","599","NA","NA","2","legacy","1024","2","48000","-16","experiment","SSHSS","2","even","101809","19923","NA","NA","55881","3174","NA","NA","102909","3192","NA","NA","103012","103611","102906","103012","NA","Flanker Task","46","25820","48","yes","1024"
"95.9183673469","95.9183673469","537.163265306","537.163265306","black","legacy","legacy","legacy","0","congruent","uniform","1","undefined","1","s","48","0","0","0","48","0","48","0","48","0","0","0","48","48","48","48","NA","09/23/21 18:19:30","1500","The main experiment item","yes","FlankerTask.osexp","C:\Users\katie\Documents\School\Quant Methods","no","mono","no","18","no","white","no","yes","768","legacy","48","48","C:/Users/katie/Documents/School/Quant Methods/KH-subject-2.csv","legacy","Lentiform Loewenfeld","3.3.9","0","s","NA","s","NA","NA","s","501","NA","16729","NA","NA","501","NA","NA","2","legacy","1024","2","48000","-16","experiment","SSSSS","2","even","103627","19923","NA","NA","55881","3174","NA","NA","104734","3192","NA","NA","104837","105339","104730","104837","NA","Flanker Task","47","26321","49","yes","1024"
"96","96","535.16","535.16","black","legacy","legacy","legacy","0","incongruent","uniform","1","undefined","1","h","49","0","0","0","49","0","49","0","49","0","0","0","49","49","49","49","NA","09/23/21 18:19:30","1500","The main experiment item","yes","FlankerTask.osexp","C:\Users\katie\Documents\School\Quant Methods","no","mono","no","18","no","white","no","yes","768","legacy","49","49","C:/Users/katie/Documents/School/Quant Methods/KH-subject-2.csv","legacy","Lentiform Loewenfeld","3.3.9","0","h","NA","s","NA","NA","h","437","NA","16729","NA","NA","437","NA","NA","2","legacy","1024","2","48000","-16","experiment","SSHSS","2","even","105352","19923","NA","NA","55881","3174","NA","NA","106455","3192","NA","NA","106558","106997","106453","106558","NA","Flanker Task","48","26758","50","yes","1024"
"96.0784313725","96.0784313725","535.039215686","535.039215686","black","legacy","legacy","legacy","0","congruent","uniform","1","undefined","1","h","50","0","0","0","50","0","50","0","50","0","0","0","50","50","50","50","NA","09/23/21 18:19:30","1500","The main experiment item","yes","FlankerTask.osexp","C:\Users\katie\Documents\School\Quant Methods","no","mono","no","18","no","white","no","yes","768","legacy","50","50","C:/Users/katie/Documents/School/Quant Methods/KH-subject-2.csv","legacy","Lentiform Loewenfeld","3.3.9","0","h","NA","s","NA","NA","h","529","NA","16729","NA","NA","529","NA","NA","2","legacy","1024","2","48000","-16","experiment","HHHHH","2","even","107011","19923","NA","NA","55881","3174","NA","NA","108107","3192","NA","NA","108210","108740","108105","108210","NA","Flanker Task","49","27287","51","yes","1024"
"96.1538461538","96.1538461538","533.115384615","533.115384615","black","legacy","legacy","legacy","0","congruent","uniform","1","undefined","1","s","51","0","0","0","51","0","51","0","51","0","0","0","51","51","51","51","NA","09/23/21 18:19:30","1500","The main experiment item","yes","FlankerTask.osexp","C:\Users\katie\Documents\School\Quant Methods","no","mono","no","18","no","white","no","yes","768","legacy","51","51","C:/Users/katie/Documents/School/Quant Methods/KH-subject-2.csv","legacy","Lentiform Loewenfeld","3.3.9","0","s","NA","s","NA","NA","s","435","NA","16729","NA","NA","435","NA","NA","2","legacy","1024","2","48000","-16","experiment","SSSSS","2","even","108752","19923","NA","NA","55881","3174","NA","NA","109846","3192","NA","NA","109949","110385","109841","109948","NA","Flanker Task","50","27722","52","yes","1024"
"96.2264150943","96.2264150943","531.773584906","531.773584906","black","legacy","legacy","legacy","0","incongruent","uniform","1","undefined","1","s","52","0","0","0","52","0","52","0","52","0","0","0","52","52","52","52","NA","09/23/21 18:19:30","1500","The main experiment item","yes","FlankerTask.osexp","C:\Users\katie\Documents\School\Quant Methods","no","mono","no","18","no","white","no","yes","768","legacy","52","52","C:/Users/katie/Documents/School/Quant Methods/KH-subject-2.csv","legacy","Lentiform Loewenfeld","3.3.9","0","s","NA","s","NA","NA","s","462","NA","16729","NA","NA","462","NA","NA","2","legacy","1024","2","48000","-16","experiment","HHSHH","2","even","110391","19923","NA","NA","55881","3174","NA","NA","111471","3192","NA","NA","111575","112038","111468","111575","NA","Flanker Task","51","28184","53","yes","1024"
"96.2962962963","96.2962962963","529.740740741","529.740740741","black","legacy","legacy","legacy","0","congruent","uniform","1","undefined","1","h","53","0","0","0","53","0","53","0","53","0","0","0","53","53","53","53","NA","09/23/21 18:19:30","1500","The main experiment item","yes","FlankerTask.osexp","C:\Users\katie\Documents\School\Quant Methods","no","mono","no","18","no","white","no","yes","768","legacy","53","53","C:/Users/katie/Documents/School/Quant Methods/KH-subject-2.csv","legacy","Lentiform Loewenfeld","3.3.9","0","h","NA","s","NA","NA","h","422","NA","16729","NA","NA","422","NA","NA","2","legacy","1024","2","48000","-16","experiment","HHHHH","2","even","112043","19923","NA","NA","55881","3174","NA","NA","113106","3192","NA","NA","113208","113631","113103","113208","NA","Flanker Task","52","28606","54","yes","1024"
"96.3636363636","96.3636363636","527.2","527.2","black","legacy","legacy","legacy","0","incongruent","uniform","1","undefined","1","h","54","0","0","0","54","0","54","0","54","0","0","0","54","54","54","54","NA","09/23/21 18:19:30","1500","The main experiment item","yes","FlankerTask.osexp","C:\Users\katie\Documents\School\Quant Methods","no","mono","no","18","no","white","no","yes","768","legacy","54","54","C:/Users/katie/Documents/School/Quant Methods/KH-subject-2.csv","legacy","Lentiform Loewenfeld","3.3.9","0","h","NA","s","NA","NA","h","390","NA","16729","NA","NA","390","NA","NA","2","legacy","1024","2","48000","-16","experiment","SSHSS","2","even","113644","19923","NA","NA","55881","3174","NA","NA","114758","3192","NA","NA","114862","115252","114754","114861","NA","Flanker Task","53","28996","55","yes","1024"
"96.4285714286","96.4285714286","524.214285714","524.214285714","black","legacy","legacy","legacy","0","incongruent","uniform","1","undefined","1","h","55","0","0","0","55","0","55","0","55","0","0","0","55","55","55","55","NA","09/23/21 18:19:30","1500","The main experiment item","yes","FlankerTask.osexp","C:\Users\katie\Documents\School\Quant Methods","no","mono","no","18","no","white","no","yes","768","legacy","55","55","C:/Users/katie/Documents/School/Quant Methods/KH-subject-2.csv","legacy","Lentiform Loewenfeld","3.3.9","0","h","NA","s","NA","NA","h","360","NA","16729","NA","NA","360","NA","NA","2","legacy","1024","2","48000","-16","experiment","SSHSS","2","even","115266","19923","NA","NA","55881","3174","NA","NA","116384","3192","NA","NA","116488","116850","116381","116488","NA","Flanker Task","54","29356","56","yes","1024"
"96.4912280702","96.4912280702","525.543859649","525.543859649","black","legacy","legacy","legacy","0","congruent","uniform","1","undefined","1","h","56","0","0","0","56","0","56","0","56","0","0","0","56","56","56","56","NA","09/23/21 18:19:30","1500","The main experiment item","yes","FlankerTask.osexp","C:\Users\katie\Documents\School\Quant Methods","no","mono","no","18","no","white","no","yes","768","legacy","56","56","C:/Users/katie/Documents/School/Quant Methods/KH-subject-2.csv","legacy","Lentiform Loewenfeld","3.3.9","0","h","NA","s","NA","NA","h","600","NA","16729","NA","NA","600","NA","NA","2","legacy","1024","2","48000","-16","experiment","HHHHH","2","even","116862","19923","NA","NA","55881","3174","NA","NA","117965","3192","NA","NA","118068","118668","117964","118068","NA","Flanker Task","55","29956","57","yes","1024"
"94.8275862069","94.8275862069","522.724137931","522.724137931","black","legacy","legacy","legacy","0","congruent","uniform","0","undefined","0","s","57","0","0","0","57","0","57","0","57","0","0","0","57","57","57","57","NA","09/23/21 18:19:30","1500","The main experiment item","yes","FlankerTask.osexp","C:\Users\katie\Documents\School\Quant Methods","no","mono","no","18","no","white","no","yes","768","legacy","57","57","C:/Users/katie/Documents/School/Quant Methods/KH-subject-2.csv","legacy","Lentiform Loewenfeld","3.3.9","0","h","NA","s","NA","NA","h","362","NA","16729","NA","NA","362","NA","NA","2","legacy","1024","2","48000","-16","experiment","SSSSS","2","even","118681","19923","NA","NA","55881","3174","NA","NA","119773","3192","NA","NA","119876","120239","119772","119876","NA","Flanker Task","55","30318","58","yes","1024"
"94.9152542373","94.9152542373","521.966101695","521.966101695","black","legacy","legacy","legacy","0","congruent","uniform","1","undefined","1","s","58","0","0","0","58","0","58","0","58","0","0","0","58","58","58","58","NA","09/23/21 18:19:30","1500","The main experiment item","yes","FlankerTask.osexp","C:\Users\katie\Documents\School\Quant Methods","no","mono","no","18","no","white","no","yes","768","legacy","58","58","C:/Users/katie/Documents/School/Quant Methods/KH-subject-2.csv","legacy","Lentiform Loewenfeld","3.3.9","0","s","NA","s","NA","NA","s","478","NA","16729","NA","NA","478","NA","NA","2","legacy","1024","2","48000","-16","experiment","SSSSS","2","even","120756","19923","NA","NA","120252","3174","NA","NA","121836","3192","NA","NA","121940","122418","121833","121940","NA","Flanker Task","56","30796","59","yes","1024"
"95","95","521.383333333","521.383333333","black","legacy","legacy","legacy","0","incongruent","uniform","1","undefined","1","s","59","0","0","0","59","0","59","0","59","0","0","0","59","59","59","59","NA","09/23/21 18:19:30","1500","The main experiment item","yes","FlankerTask.osexp","C:\Users\katie\Documents\School\Quant Methods","no","mono","no","18","no","white","no","yes","768","legacy","59","59","C:/Users/katie/Documents/School/Quant Methods/KH-subject-2.csv","legacy","Lentiform Loewenfeld","3.3.9","0","s","NA","s","NA","NA","s","487","NA","16729","NA","NA","487","NA","NA","2","legacy","1024","2","48000","-16","experiment","HHSHH","2","even","122431","19923","NA","NA","120252","3174","NA","NA","123514","3192","NA","NA","123618","124107","123511","123618","NA","Flanker Task","57","31283","60","yes","1024"
"95.0819672131","95.0819672131","520.770491803","520.770491803","black","legacy","legacy","legacy","0","congruent","uniform","1","undefined","1","h","60","0","0","0","60","0","60","0","60","0","0","0","60","60","60","60","NA","09/23/21 18:19:30","1500","The main experiment item","yes","FlankerTask.osexp","C:\Users\katie\Documents\School\Quant Methods","no","mono","no","18","no","white","no","yes","768","legacy","60","60","C:/Users/katie/Documents/School/Quant Methods/KH-subject-2.csv","legacy","Lentiform Loewenfeld","3.3.9","0","h","NA","s","NA","NA","h","484","NA","16729","NA","NA","484","NA","NA","2","legacy","1024","2","48000","-16","experiment","HHHHH","2","even","124120","19923","NA","NA","120252","3174","NA","NA","125200","3192","NA","NA","125304","125789","125198","125304","NA","Flanker Task","58","31767","61","yes","1024"
"95.1612903226","95.1612903226","519.951612903","519.951612903","black","legacy","legacy","legacy","0","congruent","uniform","1","undefined","1","h","61","0","0","0","61","0","61","0","61","0","0","0","61","61","61","61","NA","09/23/21 18:19:30","1500","The main experiment item","yes","FlankerTask.osexp","C:\Users\katie\Documents\School\Quant Methods","no","mono","no","18","no","white","no","yes","768","legacy","61","61","C:/Users/katie/Documents/School/Quant Methods/KH-subject-2.csv","legacy","Lentiform Loewenfeld","3.3.9","0","h","NA","s","NA","NA","h","470","NA","16729","NA","NA","470","NA","NA","2","legacy","1024","2","48000","-16","experiment","HHHHH","2","even","125802","19923","NA","NA","120252","3174","NA","NA","126898","3192","NA","NA","127001","127472","126893","127001","NA","Flanker Task","59","32237","62","yes","1024"
"95.2380952381","95.2380952381","520.174603175","520.174603175","black","legacy","legacy","legacy","0","congruent","uniform","1","undefined","1","s","62","0","0","0","62","0","62","0","62","0","0","0","62","62","62","62","NA","09/23/21 18:19:30","1500","The main experiment item","yes","FlankerTask.osexp","C:\Users\katie\Documents\School\Quant Methods","no","mono","no","18","no","white","no","yes","768","legacy","62","62","C:/Users/katie/Documents/School/Quant Methods/KH-subject-2.csv","legacy","Lentiform Loewenfeld","3.3.9","0","s","NA","s","NA","NA","s","534","NA","16729","NA","NA","534","NA","NA","2","legacy","1024","2","48000","-16","experiment","SSSSS","2","even","127485","19923","NA","NA","120252","3174","NA","NA","128570","3192","NA","NA","128675","129210","128566","128675","NA","Flanker Task","60","32771","63","yes","1024"
"95.3125","95.3125","520.015625","520.015625","black","legacy","legacy","legacy","0","congruent","uniform","1","undefined","1","s","63","0","0","0","63","0","63","0","63","0","0","0","63","63","63","63","NA","09/23/21 18:19:30","1500","The main experiment item","yes","FlankerTask.osexp","C:\Users\katie\Documents\School\Quant Methods","no","mono","no","18","no","white","no","yes","768","legacy","63","63","C:/Users/katie/Documents/School/Quant Methods/KH-subject-2.csv","legacy","Lentiform Loewenfeld","3.3.9","0","s","NA","s","NA","NA","s","510","NA","16729","NA","NA","510","NA","NA","2","legacy","1024","2","48000","-16","experiment","SSSSS","2","even","129223","19923","NA","NA","120252","3174","NA","NA","130318","3192","NA","NA","130421","130932","130314","130421","NA","Flanker Task","61","33281","64","yes","1024"
"95.3846153846","95.3846153846","522.8","522.8","black","legacy","legacy","legacy","0","incongruent","uniform","1","undefined","1","s","64","0","0","0","64","0","64","0","64","0","0","0","64","64","64","64","NA","09/23/21 18:19:30","1500","The main experiment item","yes","FlankerTask.osexp","C:\Users\katie\Documents\School\Quant Methods","no","mono","no","18","no","white","no","yes","768","legacy","64","64","C:/Users/katie/Documents/School/Quant Methods/KH-subject-2.csv","legacy","Lentiform Loewenfeld","3.3.9","0","s","NA","s","NA","NA","s","701","NA","16729","NA","NA","701","NA","NA","2","legacy","1024","2","48000","-16","experiment","HHSHH","2","even","130943","19923","NA","NA","120252","3174","NA","NA","132035","3192","NA","NA","132138","132841","132033","132138","NA","Flanker Task","62","33982","65","yes","1024"
"95.4545454545","95.4545454545","524.242424242","524.242424242","black","legacy","legacy","legacy","0","incongruent","uniform","1","undefined","1","s","65","0","0","0","65","0","65","0","65","0","0","0","65","65","65","65","NA","09/23/21 18:19:30","1500","The main experiment item","yes","FlankerTask.osexp","C:\Users\katie\Documents\School\Quant Methods","no","mono","no","18","no","white","no","yes","768","legacy","65","65","C:/Users/katie/Documents/School/Quant Methods/KH-subject-2.csv","legacy","Lentiform Loewenfeld","3.3.9","0","s","NA","s","NA","NA","s","618","NA","16729","NA","NA","618","NA","NA","2","legacy","1024","2","48000","-16","experiment","HHSHH","2","even","132854","19923","NA","NA","120252","3174","NA","NA","133954","3192","NA","NA","134058","134677","133951","134058","NA","Flanker Task","63","34600","66","yes","1024"
"95.5223880597","95.5223880597","525.268656716","525.268656716","black","legacy","legacy","legacy","0","incongruent","uniform","1","undefined","1","h","66","0","0","0","66","0","66","0","66","0","0","0","66","66","66","66","NA","09/23/21 18:19:30","1500","The main experiment item","yes","FlankerTask.osexp","C:\Users\katie\Documents\School\Quant Methods","no","mono","no","18","no","white","no","yes","768","legacy","66","66","C:/Users/katie/Documents/School/Quant Methods/KH-subject-2.csv","legacy","Lentiform Loewenfeld","3.3.9","0","h","NA","s","NA","NA","h","593","NA","16729","NA","NA","593","NA","NA","2","legacy","1024","2","48000","-16","experiment","SSHSS","2","even","134690","19923","NA","NA","120252","3174","NA","NA","135770","3192","NA","NA","135874","136468","135767","135873","NA","Flanker Task","64","35193","67","yes","1024"
"95.5882352941","95.5882352941","526.264705882","526.264705882","black","legacy","legacy","legacy","0","incongruent","uniform","1","undefined","1","h","67","0","0","0","67","0","67","0","67","0","0","0","67","67","67","67","NA","09/23/21 18:19:30","1500","The main experiment item","yes","FlankerTask.osexp","C:\Users\katie\Documents\School\Quant Methods","no","mono","no","18","no","white","no","yes","768","legacy","67","67","C:/Users/katie/Documents/School/Quant Methods/KH-subject-2.csv","legacy","Lentiform Loewenfeld","3.3.9","0","h","NA","s","NA","NA","h","593","NA","16729","NA","NA","593","NA","NA","2","legacy","1024","2","48000","-16","experiment","SSHSS","2","even","136481","19923","NA","NA","120252","3174","NA","NA","137561","3192","NA","NA","137665","138258","137558","137665","NA","Flanker Task","65","35786","68","yes","1024"
"95.652173913","95.652173913","525.782608696","525.782608696","black","legacy","legacy","legacy","0","congruent","uniform","1","undefined","1","h","68","0","0","0","68","0","68","0","68","0","0","0","68","68","68","68","NA","09/23/21 18:19:30","1500","The main experiment item","yes","FlankerTask.osexp","C:\Users\katie\Documents\School\Quant Methods","no","mono","no","18","no","white","no","yes","768","legacy","68","68","C:/Users/katie/Documents/School/Quant Methods/KH-subject-2.csv","legacy","Lentiform Loewenfeld","3.3.9","0","h","NA","s","NA","NA","h","493","NA","16729","NA","NA","493","NA","NA","2","legacy","1024","2","48000","-16","experiment","HHHHH","2","even","138271","19923","NA","NA","120252","3174","NA","NA","139354","3192","NA","NA","139458","139952","139350","139458","NA","Flanker Task","66","36279","69","yes","1024"
"95.7142857143","95.7142857143","528.285714286","528.285714286","black","legacy","legacy","legacy","0","congruent","uniform","1","undefined","1","h","69","0","0","0","69","0","69","0","69","0","0","0","69","69","69","69","NA","09/23/21 18:19:30","1500","The main experiment item","yes","FlankerTask.osexp","C:\Users\katie\Documents\School\Quant Methods","no","mono","no","18","no","white","no","yes","768","legacy","69","69","C:/Users/katie/Documents/School/Quant Methods/KH-subject-2.csv","legacy","Lentiform Loewenfeld","3.3.9","0","h","NA","s","NA","NA","h","701","NA","16729","NA","NA","701","NA","NA","2","legacy","1024","2","48000","-16","experiment","HHHHH","2","even","139966","19923","NA","NA","120252","3174","NA","NA","141053","3192","NA","NA","141157","141859","141051","141156","NA","Flanker Task","67","36980","70","yes","1024"
"95.7746478873","95.7746478873","527.521126761","527.521126761","black","legacy","legacy","legacy","0","congruent","uniform","1","undefined","1","h","70","0","0","0","70","0","70","0","70","0","0","0","70","70","70","70","NA","09/23/21 18:19:30","1500","The main experiment item","yes","FlankerTask.osexp","C:\Users\katie\Documents\School\Quant Methods","no","mono","no","18","no","white","no","yes","768","legacy","70","70","C:/Users/katie/Documents/School/Quant Methods/KH-subject-2.csv","legacy","Lentiform Loewenfeld","3.3.9","0","h","NA","s","NA","NA","h","474","NA","16729","NA","NA","474","NA","NA","2","legacy","1024","2","48000","-16","experiment","HHHHH","2","even","141874","19923","NA","NA","120252","3174","NA","NA","142955","3192","NA","NA","143058","143533","142954","143058","NA","Flanker Task","68","37454","71","yes","1024"
"95.8333333333","95.8333333333","529.027777778","529.027777778","black","legacy","legacy","legacy","0","incongruent","uniform","1","undefined","1","s","71","0","0","0","71","0","71","0","71","0","0","0","71","71","71","71","NA","09/23/21 18:19:30","1500","The main experiment item","yes","FlankerTask.osexp","C:\Users\katie\Documents\School\Quant Methods","no","mono","no","18","no","white","no","yes","768","legacy","71","71","C:/Users/katie/Documents/School/Quant Methods/KH-subject-2.csv","legacy","Lentiform Loewenfeld","3.3.9","0","s","NA","s","NA","NA","s","636","NA","16729","NA","NA","636","NA","NA","2","legacy","1024","2","48000","-16","experiment","HHSHH","2","even","143546","19923","NA","NA","120252","3174","NA","NA","144633","3192","NA","NA","144737","145375","144631","144735","NA","Flanker Task","69","38090","72","yes","1024"
"95.8904109589","95.8904109589","529.904109589","529.904109589","black","legacy","legacy","legacy","0","incongruent","uniform","1","undefined","1","s","72","0","0","0","72","0","72","0","72","0","0","0","72","72","72","72","NA","09/23/21 18:19:30","1500","The main experiment item","yes","FlankerTask.osexp","C:\Users\katie\Documents\School\Quant Methods","no","mono","no","18","no","white","no","yes","768","legacy","72","72","C:/Users/katie/Documents/School/Quant Methods/KH-subject-2.csv","legacy","Lentiform Loewenfeld","3.3.9","0","s","NA","s","NA","NA","s","593","NA","16729","NA","NA","593","NA","NA","2","legacy","1024","2","48000","-16","experiment","HHSHH","2","even","145389","19923","NA","NA","120252","3174","NA","NA","146491","3192","NA","NA","146595","147189","146487","146594","NA","Flanker Task","70","38683","73","yes","1024"
"95.9459459459","95.9459459459","528.040540541","528.040540541","black","legacy","legacy","legacy","0","incongruent","uniform","1","undefined","1","h","73","0","0","0","73","0","73","0","73","0","0","0","73","73","73","73","NA","09/23/21 18:19:30","1500","The main experiment item","yes","FlankerTask.osexp","C:\Users\katie\Documents\School\Quant Methods","no","mono","no","18","no","white","no","yes","768","legacy","73","73","C:/Users/katie/Documents/School/Quant Methods/KH-subject-2.csv","legacy","Lentiform Loewenfeld","3.3.9","0","h","NA","s","NA","NA","h","392","NA","16729","NA","NA","392","NA","NA","2","legacy","1024","2","48000","-16","experiment","SSHSS","2","even","147194","19923","NA","NA","120252","3174","NA","NA","148302","3192","NA","NA","148407","148800","148298","148406","NA","Flanker Task","71","39075","74","yes","1024"
"96","96","526.186666667","526.186666667","black","legacy","legacy","legacy","0","congruent","uniform","1","undefined","1","h","74","0","0","0","74","0","74","0","74","0","0","0","74","74","74","74","NA","09/23/21 18:19:30","1500","The main experiment item","yes","FlankerTask.osexp","C:\Users\katie\Documents\School\Quant Methods","no","mono","no","18","no","white","no","yes","768","legacy","74","74","C:/Users/katie/Documents/School/Quant Methods/KH-subject-2.csv","legacy","Lentiform Loewenfeld","3.3.9","0","h","NA","s","NA","NA","h","389","NA","16729","NA","NA","389","NA","NA","2","legacy","1024","2","48000","-16","experiment","HHHHH","2","even","148810","19923","NA","NA","120252","3174","NA","NA","149901","3192","NA","NA","150006","150397","149898","150005","NA","Flanker Task","72","39464","75","yes","1024"
"96.0526315789","96.0526315789","524.184210526","524.184210526","black","legacy","legacy","legacy","0","incongruent","uniform","1","undefined","1","h","75","0","0","0","75","0","75","0","75","0","0","0","75","75","75","75","NA","09/23/21 18:19:30","1500","The main experiment item","yes","FlankerTask.osexp","C:\Users\katie\Documents\School\Quant Methods","no","mono","no","18","no","white","no","yes","768","legacy","75","75","C:/Users/katie/Documents/School/Quant Methods/KH-subject-2.csv","legacy","Lentiform Loewenfeld","3.3.9","0","h","NA","s","NA","NA","h","374","NA","16729","NA","NA","374","NA","NA","2","legacy","1024","2","48000","-16","experiment","SSHSS","2","even","150410","19923","NA","NA","120252","3174","NA","NA","151490","3192","NA","NA","151593","151968","151486","151593","NA","Flanker Task","73","39838","76","yes","1024"
"94.8051948052","94.8051948052","522.974025974","522.974025974","black","legacy","legacy","legacy","0","incongruent","uniform","0","undefined","0","h","76","0","0","0","76","0","76","0","76","0","0","0","76","76","76","76","NA","09/23/21 18:19:30","1500","The main experiment item","yes","FlankerTask.osexp","C:\Users\katie\Documents\School\Quant Methods","no","mono","no","18","no","white","no","yes","768","legacy","76","76","C:/Users/katie/Documents/School/Quant Methods/KH-subject-2.csv","legacy","Lentiform Loewenfeld","3.3.9","0","s","NA","s","NA","NA","s","431","NA","16729","NA","NA","431","NA","NA","2","legacy","1024","2","48000","-16","experiment","SSHSS","2","even","151982","19923","NA","NA","120252","3174","NA","NA","153061","3192","NA","NA","153164","153597","153057","153164","NA","Flanker Task","73","40269","77","yes","1024"
"94.8717948718","94.8717948718","524.794871795","524.794871795","black","legacy","legacy","legacy","0","incongruent","uniform","1","undefined","1","s","77","0","0","0","77","0","77","0","77","0","0","0","77","77","77","77","NA","09/23/21 18:19:30","1500","The main experiment item","yes","FlankerTask.osexp","C:\Users\katie\Documents\School\Quant Methods","no","mono","no","18","no","white","no","yes","768","legacy","77","77","C:/Users/katie/Documents/School/Quant Methods/KH-subject-2.csv","legacy","Lentiform Loewenfeld","3.3.9","0","s","NA","s","NA","NA","s","665","NA","16729","NA","NA","665","NA","NA","2","legacy","1024","2","48000","-16","experiment","HHSHH","2","even","154106","19923","NA","NA","153603","3174","NA","NA","155171","3192","NA","NA","155275","155941","155168","155274","NA","Flanker Task","74","40934","78","yes","1024"
"94.9367088608","94.9367088608","524.607594937","524.607594937","black","legacy","legacy","legacy","0","congruent","uniform","1","undefined","1","s","78","0","0","0","78","0","78","0","78","0","0","0","78","78","78","78","NA","09/23/21 18:19:30","1500","The main experiment item","yes","FlankerTask.osexp","C:\Users\katie\Documents\School\Quant Methods","no","mono","no","18","no","white","no","yes","768","legacy","78","78","C:/Users/katie/Documents/School/Quant Methods/KH-subject-2.csv","legacy","Lentiform Loewenfeld","3.3.9","0","s","NA","s","NA","NA","s","510","NA","16729","NA","NA","510","NA","NA","2","legacy","1024","2","48000","-16","experiment","SSSSS","2","even","155956","19923","NA","NA","153603","3174","NA","NA","157050","3192","NA","NA","157153","157664","157047","157153","NA","Flanker Task","75","41444","79","yes","1024"
"95","95","524.2875","524.2875","black","legacy","legacy","legacy","0","incongruent","uniform","1","undefined","1","h","79","0","0","0","79","0","79","0","79","0","0","0","79","79","79","79","NA","09/23/21 18:19:30","1500","The main experiment item","yes","FlankerTask.osexp","C:\Users\katie\Documents\School\Quant Methods","no","mono","no","18","no","white","no","yes","768","legacy","79","79","C:/Users/katie/Documents/School/Quant Methods/KH-subject-2.csv","legacy","Lentiform Loewenfeld","3.3.9","0","h","NA","s","NA","NA","h","499","NA","16729","NA","NA","499","NA","NA","2","legacy","1024","2","48000","-16","experiment","SSHSS","2","even","157678","19923","NA","NA","153603","3174","NA","NA","158776","3192","NA","NA","158880","159380","158773","158880","NA","Flanker Task","76","41943","80","yes","1024"
"95.0617283951","95.0617283951","527.24691358","527.24691358","black","legacy","legacy","legacy","0","incongruent","uniform","1","undefined","1","s","80","0","0","0","80","0","80","0","80","0","0","0","80","80","80","80","NA","09/23/21 18:19:30","600","The main experiment item","yes","FlankerTask.osexp","C:\Users\katie\Documents\School\Quant Methods","no","mono","no","18","no","white","no","yes","768","legacy","0","79","C:/Users/katie/Documents/School/Quant Methods/KH-subject-2.csv","legacy","Lentiform Loewenfeld","3.3.9","0","s","NA","s","s","NA","s","764","NA","16729","42600","NA","764","NA","NA","2","legacy","1024","2","48000","-16","experiment","HHSHH","2","even","159393","19923","203018","NA","153603","3174","NA","NA","203089","3192","160417","NA","203192","203957","203087","203192","NA","Flanker Task","77","42707","81","yes","1024"
"95.1219512195","95.1219512195","526.682926829","526.682926829","black","legacy","legacy","legacy","0","congruent","uniform","1","undefined","1","s","81","0","0","0","81","0","81","0","81","0","0","0","81","81","81","81","NA","09/23/21 18:19:30","600","The main experiment item","yes","FlankerTask.osexp","C:\Users\katie\Documents\School\Quant Methods","no","mono","no","18","no","white","no","yes","768","legacy","1","79","C:/Users/katie/Documents/School/Quant Methods/KH-subject-2.csv","legacy","Lentiform Loewenfeld","3.3.9","0","s","NA","s","s","NA","s","481","NA","16729","42600","NA","481","NA","NA","2","legacy","1024","2","48000","-16","experiment","SSSSS","2","even","204477","19923","203018","NA","153603","3174","203973","NA","205551","3192","160417","NA","205653","206135","205549","205653","NA","Flanker Task","78","43188","82","yes","1024"
"95.1807228916","95.1807228916","525.963855422","525.963855422","black","legacy","legacy","legacy","0","congruent","uniform","1","undefined","1","s","82","0","0","0","82","0","82","0","82","0","0","0","82","82","82","82","NA","09/23/21 18:19:30","600","The main experiment item","yes","FlankerTask.osexp","C:\Users\katie\Documents\School\Quant Methods","no","mono","no","18","no","white","no","yes","768","legacy","2","79","C:/Users/katie/Documents/School/Quant Methods/KH-subject-2.csv","legacy","Lentiform Loewenfeld","3.3.9","0","s","NA","s","s","NA","s","467","NA","16729","42600","NA","467","NA","NA","2","legacy","1024","2","48000","-16","experiment","SSSSS","2","even","206148","19923","203018","NA","153603","3174","203973","NA","207242","3192","160417","NA","207345","207813","207239","207345","NA","Flanker Task","79","43655","83","yes","1024"
"95.2380952381","95.2380952381","525.107142857","525.107142857","black","legacy","legacy","legacy","0","congruent","uniform","1","undefined","1","h","83","0","0","0","83","0","83","0","83","0","0","0","83","83","83","83","NA","09/23/21 18:19:30","600","The main experiment item","yes","FlankerTask.osexp","C:\Users\katie\Documents\School\Quant Methods","no","mono","no","18","no","white","no","yes","768","legacy","3","79","C:/Users/katie/Documents/School/Quant Methods/KH-subject-2.csv","legacy","Lentiform Loewenfeld","3.3.9","0","h","NA","s","s","NA","h","454","NA","16729","42600","NA","454","NA","NA","2","legacy","1024","2","48000","-16","experiment","HHHHH","2","even","207826","19923","203018","NA","153603","3174","203973","NA","208937","3192","160417","NA","209041","209496","208933","209041","NA","Flanker Task","80","44109","84","yes","1024"
"95.2941176471","95.2941176471","524.788235294","524.788235294","black","legacy","legacy","legacy","0","congruent","uniform","1","undefined","1","s","84","0","0","0","84","0","84","0","84","0","0","0","84","84","84","84","NA","09/23/21 18:19:30","600","The main experiment item","yes","FlankerTask.osexp","C:\Users\katie\Documents\School\Quant Methods","no","mono","no","18","no","white","no","yes","768","legacy","4","79","C:/Users/katie/Documents/School/Quant Methods/KH-subject-2.csv","legacy","Lentiform Loewenfeld","3.3.9","0","s","NA","s","s","NA","s","498","NA","16729","42600","NA","498","NA","NA","2","legacy","1024","2","48000","-16","experiment","SSSSS","2","even","209509","19923","203018","NA","153603","3174","203973","NA","210596","3192","160417","NA","210699","211198","210593","210699","NA","Flanker Task","81","44607","85","yes","1024"
"95.3488372093","95.3488372093","524.011627907","524.011627907","black","legacy","legacy","legacy","0","congruent","uniform","1","undefined","1","s","85","0","0","0","85","0","85","0","85","0","0","0","85","85","85","85","NA","09/23/21 18:19:30","600","The main experiment item","yes","FlankerTask.osexp","C:\Users\katie\Documents\School\Quant Methods","no","mono","no","18","no","white","no","yes","768","legacy","5","79","C:/Users/katie/Documents/School/Quant Methods/KH-subject-2.csv","legacy","Lentiform Loewenfeld","3.3.9","0","s","NA","s","s","NA","s","458","NA","16729","42600","NA","458","NA","NA","2","legacy","1024","2","48000","-16","experiment","SSSSS","2","even","211202","19923","203018","NA","153603","3174","203973","NA","212305","3192","160417","NA","212408","212868","212302","212408","NA","Flanker Task","82","45065","86","yes","1024"
"95.4022988506","95.4022988506","522.91954023","522.91954023","black","legacy","legacy","legacy","0","congruent","uniform","1","undefined","1","s","86","0","0","0","86","0","86","0","86","0","0","0","86","86","86","86","NA","09/23/21 18:19:30","600","The main experiment item","yes","FlankerTask.osexp","C:\Users\katie\Documents\School\Quant Methods","no","mono","no","18","no","white","no","yes","768","legacy","6","79","C:/Users/katie/Documents/School/Quant Methods/KH-subject-2.csv","legacy","Lentiform Loewenfeld","3.3.9","0","s","NA","s","s","NA","s","429","NA","16729","42600","NA","429","NA","NA","2","legacy","1024","2","48000","-16","experiment","SSSSS","2","even","212881","19923","203018","NA","153603","3174","203973","NA","213961","3192","160417","NA","214064","214494","213957","214064","NA","Flanker Task","83","45494","87","yes","1024"
"95.4545454545","95.4545454545","523.045454545","523.045454545","black","legacy","legacy","legacy","0","incongruent","uniform","1","undefined","1","s","87","0","0","0","87","0","87","0","87","0","0","0","87","87","87","87","NA","09/23/21 18:19:30","600","The main experiment item","yes","FlankerTask.osexp","C:\Users\katie\Documents\School\Quant Methods","no","mono","no","18","no","white","no","yes","768","legacy","7","79","C:/Users/katie/Documents/School/Quant Methods/KH-subject-2.csv","legacy","Lentiform Loewenfeld","3.3.9","0","s","NA","s","s","NA","s","534","NA","16729","42600","NA","534","NA","NA","2","legacy","1024","2","48000","-16","experiment","HHSHH","2","even","214507","19923","203018","NA","153603","3174","203973","NA","215623","3192","160417","NA","215727","216262","215619","215727","NA","Flanker Task","84","46028","88","yes","1024"
"95.5056179775","95.5056179775","522.325842697","522.325842697","black","legacy","legacy","legacy","0","incongruent","uniform","1","undefined","1","s","88","0","0","0","88","0","88","0","88","0","0","0","88","88","88","88","NA","09/23/21 18:19:30","600","The main experiment item","yes","FlankerTask.osexp","C:\Users\katie\Documents\School\Quant Methods","no","mono","no","18","no","white","no","yes","768","legacy","8","79","C:/Users/katie/Documents/School/Quant Methods/KH-subject-2.csv","legacy","Lentiform Loewenfeld","3.3.9","0","s","NA","s","s","NA","s","459","NA","16729","42600","NA","459","NA","NA","2","legacy","1024","2","48000","-16","experiment","HHSHH","2","even","216275","19923","203018","NA","153603","3174","203973","NA","217370","3192","160417","NA","217474","217934","217367","217474","NA","Flanker Task","85","46487","89","yes","1024"
"95.5555555556","95.5555555556","521.322222222","521.322222222","black","legacy","legacy","legacy","0","congruent","uniform","1","undefined","1","s","89","0","0","0","89","0","89","0","89","0","0","0","89","89","89","89","NA","09/23/21 18:19:30","600","The main experiment item","yes","FlankerTask.osexp","C:\Users\katie\Documents\School\Quant Methods","no","mono","no","18","no","white","no","yes","768","legacy","9","79","C:/Users/katie/Documents/School/Quant Methods/KH-subject-2.csv","legacy","Lentiform Loewenfeld","3.3.9","0","s","NA","s","s","NA","s","432","NA","16729","42600","NA","432","NA","NA","2","legacy","1024","2","48000","-16","experiment","SSSSS","2","even","217948","19923","203018","NA","153603","3174","203973","NA","219026","3192","160417","NA","219129","219562","219022","219129","NA","Flanker Task","86","46919","90","yes","1024"
"95.6043956044","95.6043956044","520.043956044","520.043956044","black","legacy","legacy","legacy","0","congruent","uniform","1","undefined","1","s","90","0","0","0","90","0","90","0","90","0","0","0","90","90","90","90","NA","09/23/21 18:19:30","600","The main experiment item","yes","FlankerTask.osexp","C:\Users\katie\Documents\School\Quant Methods","no","mono","no","18","no","white","no","yes","768","legacy","10","79","C:/Users/katie/Documents/School/Quant Methods/KH-subject-2.csv","legacy","Lentiform Loewenfeld","3.3.9","0","s","NA","s","s","NA","s","405","NA","16729","42600","NA","405","NA","NA","2","legacy","1024","2","48000","-16","experiment","SSSSS","2","even","219576","19923","203018","NA","153603","3174","203973","NA","220657","3192","160417","NA","220761","221167","220654","220761","NA","Flanker Task","87","47324","91","yes","1024"
"95.652173913","95.652173913","518.032608696","518.032608696","black","legacy","legacy","legacy","0","congruent","uniform","1","undefined","1","s","91","0","0","0","91","0","91","0","91","0","0","0","91","91","91","91","NA","09/23/21 18:19:30","600","The main experiment item","yes","FlankerTask.osexp","C:\Users\katie\Documents\School\Quant Methods","no","mono","no","18","no","white","no","yes","768","legacy","11","79","C:/Users/katie/Documents/School/Quant Methods/KH-subject-2.csv","legacy","Lentiform Loewenfeld","3.3.9","0","s","NA","s","s","NA","s","335","NA","16729","42600","NA","335","NA","NA","2","legacy","1024","2","48000","-16","experiment","SSSSS","2","even","221180","19923","203018","NA","153603","3174","203973","NA","222277","3192","160417","NA","222379","222714","222273","222379","NA","Flanker Task","88","47659","92","yes","1024"
"95.6989247312","95.6989247312","517.612903226","517.612903226","black","legacy","legacy","legacy","0","congruent","uniform","1","undefined","1","h","92","0","0","0","92","0","92","0","92","0","0","0","92","92","92","92","NA","09/23/21 18:19:30","600","The main experiment item","yes","FlankerTask.osexp","C:\Users\katie\Documents\School\Quant Methods","no","mono","no","18","no","white","no","yes","768","legacy","12","79","C:/Users/katie/Documents/School/Quant Methods/KH-subject-2.csv","legacy","Lentiform Loewenfeld","3.3.9","0","h","NA","s","s","NA","h","479","NA","16729","42600","NA","479","NA","NA","2","legacy","1024","2","48000","-16","experiment","HHHHH","2","even","222730","19923","203018","NA","153603","3174","203973","NA","223814","3192","160417","NA","223917","224397","223807","223917","NA","Flanker Task","89","48138","93","yes","1024"
"95.7446808511","95.7446808511","517.968085106","517.968085106","black","legacy","legacy","legacy","0","incongruent","uniform","1","undefined","1","s","93","0","0","0","93","0","93","0","93","0","0","0","93","93","93","93","NA","09/23/21 18:19:30","600","The main experiment item","yes","FlankerTask.osexp","C:\Users\katie\Documents\School\Quant Methods","no","mono","no","18","no","white","no","yes","768","legacy","13","79","C:/Users/katie/Documents/School/Quant Methods/KH-subject-2.csv","legacy","Lentiform Loewenfeld","3.3.9","0","s","NA","s","s","NA","s","551","NA","16729","42600","NA","551","NA","NA","2","legacy","1024","2","48000","-16","experiment","HHSHH","2","even","224409","19923","203018","NA","153603","3174","203973","NA","225519","3192","160417","NA","225623","226174","225515","225623","NA","Flanker Task","90","48689","94","yes","1024"
"95.7894736842","95.7894736842","518.147368421","518.147368421","black","legacy","legacy","legacy","0","incongruent","uniform","1","undefined","1","s","94","0","0","0","94","0","94","0","94","0","0","0","94","94","94","94","NA","09/23/21 18:19:30","600","The main experiment item","yes","FlankerTask.osexp","C:\Users\katie\Documents\School\Quant Methods","no","mono","no","18","no","white","no","yes","768","legacy","14","79","C:/Users/katie/Documents/School/Quant Methods/KH-subject-2.csv","legacy","Lentiform Loewenfeld","3.3.9","0","s","NA","s","s","NA","s","535","NA","16729","42600","NA","535","NA","NA","2","legacy","1024","2","48000","-16","experiment","HHSHH","2","even","226179","19923","203018","NA","153603","3174","203973","NA","227269","3192","160417","NA","227371","227908","227266","227371","NA","Flanker Task","91","49224","95","yes","1024"
"95.8333333333","95.8333333333","518.020833333","518.020833333","black","legacy","legacy","legacy","0","congruent","uniform","1","undefined","1","h","95","0","0","0","95","0","95","0","95","0","0","0","95","95","95","95","NA","09/23/21 18:19:30","600","The main experiment item","yes","FlankerTask.osexp","C:\Users\katie\Documents\School\Quant Methods","no","mono","no","18","no","white","no","yes","768","legacy","15","79","C:/Users/katie/Documents/School/Quant Methods/KH-subject-2.csv","legacy","Lentiform Loewenfeld","3.3.9","0","h","NA","s","s","NA","h","506","NA","16729","42600","NA","506","NA","NA","2","legacy","1024","2","48000","-16","experiment","HHHHH","2","even","227921","19923","203018","NA","153603","3174","203973","NA","229004","3192","160417","NA","229108","229614","229003","229108","NA","Flanker Task","92","49730","96","yes","1024"
"95.8762886598","95.8762886598","518.835051546","518.835051546","black","legacy","legacy","legacy","0","incongruent","uniform","1","undefined","1","h","96","0","0","0","96","0","96","0","96","0","0","0","96","96","96","96","NA","09/23/21 18:19:30","600","The main experiment item","yes","FlankerTask.osexp","C:\Users\katie\Documents\School\Quant Methods","no","mono","no","18","no","white","no","yes","768","legacy","16","79","C:/Users/katie/Documents/School/Quant Methods/KH-subject-2.csv","legacy","Lentiform Loewenfeld","3.3.9","0","h","NA","s","s","NA","h","597","NA","16729","42600","NA","597","NA","NA","2","legacy","1024","2","48000","-16","experiment","SSHSS","2","even","229628","19923","203018","NA","153603","3174","203973","NA","230707","3192","160417","NA","230809","231407","230703","230809","NA","Flanker Task","93","50327","97","yes","1024"
"95.9183673469","95.9183673469","521.663265306","521.663265306","black","legacy","legacy","legacy","0","incongruent","uniform","1","undefined","1","s","97","0","0","0","97","0","97","0","97","0","0","0","97","97","97","97","NA","09/23/21 18:19:30","600","The main experiment item","yes","FlankerTask.osexp","C:\Users\katie\Documents\School\Quant Methods","no","mono","no","18","no","white","no","yes","768","legacy","17","79","C:/Users/katie/Documents/School/Quant Methods/KH-subject-2.csv","legacy","Lentiform Loewenfeld","3.3.9","0","s","NA","s","s","NA","s","796","NA","16729","42600","NA","796","NA","NA","2","legacy","1024","2","48000","-16","experiment","HHSHH","2","even","231412","19923","203018","NA","153603","3174","203973","NA","232497","3192","160417","NA","232599","233396","232495","232599","NA","Flanker Task","94","51123","98","yes","1024"
"95.9595959596","95.9595959596","520.767676768","520.767676768","black","legacy","legacy","legacy","0","incongruent","uniform","1","undefined","1","s","98","0","0","0","98","0","98","0","98","0","0","0","98","98","98","98","NA","09/23/21 18:19:30","600","The main experiment item","yes","FlankerTask.osexp","C:\Users\katie\Documents\School\Quant Methods","no","mono","no","18","no","white","no","yes","768","legacy","18","79","C:/Users/katie/Documents/School/Quant Methods/KH-subject-2.csv","legacy","Lentiform Loewenfeld","3.3.9","0","s","NA","s","s","NA","s","433","NA","16729","42600","NA","433","NA","NA","2","legacy","1024","2","48000","-16","experiment","HHSHH","2","even","233914","19923","203018","NA","153603","3174","233410","NA","234972","3192","160417","NA","235075","235509","234969","235075","NA","Flanker Task","95","51556","99","yes","1024"
"96","96","520.98","520.98","black","legacy","legacy","legacy","0","incongruent","uniform","1","undefined","1","h","99","0","0","0","99","0","99","0","99","0","0","0","99","99","99","99","NA","09/23/21 18:19:30","600","The main experiment item","yes","FlankerTask.osexp","C:\Users\katie\Documents\School\Quant Methods","no","mono","no","18","no","white","no","yes","768","legacy","19","79","C:/Users/katie/Documents/School/Quant Methods/KH-subject-2.csv","legacy","Lentiform Loewenfeld","3.3.9","0","h","NA","s","s","NA","h","542","NA","16729","42600","NA","542","NA","NA","2","legacy","1024","2","48000","-16","experiment","SSHSS","2","even","235515","19923","203018","NA","153603","3174","233410","NA","236606","3192","160417","NA","236709","237253","236604","236709","NA","Flanker Task","96","52098","100","yes","1024"
"96.0396039604","96.0396039604","519.574257426","519.574257426","black","legacy","legacy","legacy","0","incongruent","uniform","1","undefined","1","s","100","0","0","0","100","0","100","0","100","0","0","0","100","100","100","100","NA","09/23/21 18:19:30","600","The main experiment item","yes","FlankerTask.osexp","C:\Users\katie\Documents\School\Quant Methods","no","mono","no","18","no","white","no","yes","768","legacy","20","79","C:/Users/katie/Documents/School/Quant Methods/KH-subject-2.csv","legacy","Lentiform Loewenfeld","3.3.9","0","s","NA","s","s","NA","s","379","NA","16729","42600","NA","379","NA","NA","2","legacy","1024","2","48000","-16","experiment","HHSHH","2","even","237266","19923","203018","NA","153603","3174","233410","NA","238351","3192","160417","NA","238454","238835","238349","238454","NA","Flanker Task","97","52477","101","yes","1024"
"95.0980392157","95.0980392157","518.362745098","518.362745098","black","legacy","legacy","legacy","0","congruent","uniform","0","undefined","0","s","101","0","0","0","101","0","101","0","101","0","0","0","101","101","101","101","NA","09/23/21 18:19:30","600","The main experiment item","yes","FlankerTask.osexp","C:\Users\katie\Documents\School\Quant Methods","no","mono","no","18","no","white","no","yes","768","legacy","21","79","C:/Users/katie/Documents/School/Quant Methods/KH-subject-2.csv","legacy","Lentiform Loewenfeld","3.3.9","0","h","NA","s","s","NA","h","396","NA","16729","42600","NA","396","NA","NA","2","legacy","1024","2","48000","-16","experiment","SSSSS","2","even","238839","19923","203018","NA","153603","3174","233410","NA","239911","3192","160417","NA","240014","240411","239908","240014","NA","Flanker Task","97","52873","102","yes","1024"
"95.145631068","95.145631068","517.45631068","517.45631068","black","legacy","legacy","legacy","0","incongruent","uniform","1","undefined","1","h","102","0","0","0","102","0","102","0","102","0","0","0","102","102","102","102","NA","09/23/21 18:19:30","600","The main experiment item","yes","FlankerTask.osexp","C:\Users\katie\Documents\School\Quant Methods","no","mono","no","18","no","white","no","yes","768","legacy","22","79","C:/Users/katie/Documents/School/Quant Methods/KH-subject-2.csv","legacy","Lentiform Loewenfeld","3.3.9","0","h","NA","s","s","NA","h","425","NA","16729","42600","NA","425","NA","NA","2","legacy","1024","2","48000","-16","experiment","SSHSS","2","even","240926","19923","203018","NA","240423","3174","233410","NA","242006","3192","160417","NA","242110","242535","242003","242110","NA","Flanker Task","98","53298","103","yes","1024"
"95.1923076923","95.1923076923","517.317307692","517.317307692","black","legacy","legacy","legacy","0","incongruent","uniform","1","undefined","1","h","103","0","0","0","103","0","103","0","103","0","0","0","103","103","103","103","NA","09/23/21 18:19:30","600","The main experiment item","yes","FlankerTask.osexp","C:\Users\katie\Documents\School\Quant Methods","no","mono","no","18","no","white","no","yes","768","legacy","23","79","C:/Users/katie/Documents/School/Quant Methods/KH-subject-2.csv","legacy","Lentiform Loewenfeld","3.3.9","0","h","NA","s","s","NA","h","503","NA","16729","42600","NA","503","NA","NA","2","legacy","1024","2","48000","-16","experiment","SSHSS","2","even","242540","19923","203018","NA","240423","3174","233410","NA","243641","3192","160417","NA","243745","244249","243638","243744","NA","Flanker Task","99","53801","104","yes","1024"
"95.2380952381","95.2380952381","517.171428571","517.171428571","black","legacy","legacy","legacy","0","congruent","uniform","1","undefined","1","s","104","0","0","0","104","0","104","0","104","0","0","0","104","104","104","104","NA","09/23/21 18:19:30","600","The main experiment item","yes","FlankerTask.osexp","C:\Users\katie\Documents\School\Quant Methods","no","mono","no","18","no","white","no","yes","768","legacy","24","79","C:/Users/katie/Documents/School/Quant Methods/KH-subject-2.csv","legacy","Lentiform Loewenfeld","3.3.9","0","s","NA","s","s","NA","s","502","NA","16729","42600","NA","502","NA","NA","2","legacy","1024","2","48000","-16","experiment","SSSSS","2","even","244253","19923","203018","NA","240423","3174","233410","NA","245339","3192","160417","NA","245443","245947","245337","245443","NA","Flanker Task","100","54303","105","yes","1024"
"95.2830188679","95.2830188679","516.575471698","516.575471698","black","legacy","legacy","legacy","0","congruent","uniform","1","undefined","1","h","105","0","0","0","105","0","105","0","105","0","0","0","105","105","105","105","NA","09/23/21 18:19:30","600","The main experiment item","yes","FlankerTask.osexp","C:\Users\katie\Documents\School\Quant Methods","no","mono","no","18","no","white","no","yes","768","legacy","25","79","C:/Users/katie/Documents/School/Quant Methods/KH-subject-2.csv","legacy","Lentiform Loewenfeld","3.3.9","0","h","NA","s","s","NA","h","454","NA","16729","42600","NA","454","NA","NA","2","legacy","1024","2","48000","-16","experiment","HHHHH","2","even","245960","19923","203018","NA","240423","3174","233410","NA","247055","3192","160417","NA","247159","247616","247052","247159","NA","Flanker Task","101","54757","106","yes","1024"
"95.3271028037","95.3271028037","515.981308411","515.981308411","black","legacy","legacy","legacy","0","congruent","uniform","1","undefined","1","h","106","0","0","0","106","0","106","0","106","0","0","0","106","106","106","106","NA","09/23/21 18:19:30","600","The main experiment item","yes","FlankerTask.osexp","C:\Users\katie\Documents\School\Quant Methods","no","mono","no","18","no","white","no","yes","768","legacy","26","79","C:/Users/katie/Documents/School/Quant Methods/KH-subject-2.csv","legacy","Lentiform Loewenfeld","3.3.9","0","h","NA","s","s","NA","h","453","NA","16729","42600","NA","453","NA","NA","2","legacy","1024","2","48000","-16","experiment","HHHHH","2","even","247631","19923","203018","NA","240423","3174","233410","NA","248723","3192","160417","NA","248828","249283","248721","248827","NA","Flanker Task","102","55210","107","yes","1024"
"95.3703703704","95.3703703704","515.138888889","515.138888889","black","legacy","legacy","legacy","0","congruent","uniform","1","undefined","1","h","107","0","0","0","107","0","107","0","107","0","0","0","107","107","107","107","NA","09/23/21 18:19:30","600","The main experiment item","yes","FlankerTask.osexp","C:\Users\katie\Documents\School\Quant Methods","no","mono","no","18","no","white","no","yes","768","legacy","27","79","C:/Users/katie/Documents/School/Quant Methods/KH-subject-2.csv","legacy","Lentiform Loewenfeld","3.3.9","0","h","NA","s","s","NA","h","425","NA","16729","42600","NA","425","NA","NA","2","legacy","1024","2","48000","-16","experiment","HHHHH","2","even","249287","19923","203018","NA","240423","3174","233410","NA","250393","3192","160417","NA","250497","250924","250389","250496","NA","Flanker Task","103","55635","108","yes","1024"
"95.4128440367","95.4128440367","515.229357798","515.229357798","black","legacy","legacy","legacy","0","incongruent","uniform","1","undefined","1","s","108","0","0","0","108","0","108","0","108","0","0","0","108","108","108","108","NA","09/23/21 18:19:30","600","The main experiment item","yes","FlankerTask.osexp","C:\Users\katie\Documents\School\Quant Methods","no","mono","no","18","no","white","no","yes","768","legacy","28","79","C:/Users/katie/Documents/School/Quant Methods/KH-subject-2.csv","legacy","Lentiform Loewenfeld","3.3.9","0","s","NA","s","s","NA","s","525","NA","16729","42600","NA","525","NA","NA","2","legacy","1024","2","48000","-16","experiment","HHSHH","2","even","250939","19923","203018","NA","240423","3174","233410","NA","252021","3192","160417","NA","252125","252651","252018","252124","NA","Flanker Task","104","56160","109","yes","1024"
"95.4545454545","95.4545454545","514.727272727","514.727272727","black","legacy","legacy","legacy","0","incongruent","uniform","1","undefined","1","h","109","0","0","0","109","0","109","0","109","0","0","0","109","109","109","109","NA","09/23/21 18:19:30","600","The main experiment item","yes","FlankerTask.osexp","C:\Users\katie\Documents\School\Quant Methods","no","mono","no","18","no","white","no","yes","768","legacy","29","79","C:/Users/katie/Documents/School/Quant Methods/KH-subject-2.csv","legacy","Lentiform Loewenfeld","3.3.9","0","h","NA","s","s","NA","h","460","NA","16729","42600","NA","460","NA","NA","2","legacy","1024","2","48000","-16","experiment","SSHSS","2","even","252665","19923","203018","NA","240423","3174","233410","NA","253782","3192","160417","NA","253886","254347","253778","253885","NA","Flanker Task","105","56620","110","yes","1024"
"95.4954954955","95.4954954955","515.18018018","515.18018018","black","legacy","legacy","legacy","0","congruent","uniform","1","undefined","1","s","110","0","0","0","110","0","110","0","110","0","0","0","110","110","110","110","NA","09/23/21 18:19:30","600","The main experiment item","yes","FlankerTask.osexp","C:\Users\katie\Documents\School\Quant Methods","no","mono","no","18","no","white","no","yes","768","legacy","30","79","C:/Users/katie/Documents/School/Quant Methods/KH-subject-2.csv","legacy","Lentiform Loewenfeld","3.3.9","0","s","NA","s","s","NA","s","565","NA","16729","42600","NA","565","NA","NA","2","legacy","1024","2","48000","-16","experiment","SSSSS","2","even","254352","19923","203018","NA","240423","3174","233410","NA","255461","3192","160417","NA","255565","256130","255457","255565","NA","Flanker Task","106","57185","111","yes","1024"
"95.5357142857","95.5357142857","515.544642857","515.544642857","black","legacy","legacy","legacy","0","incongruent","uniform","1","undefined","1","h","111","0","0","0","111","0","111","0","111","0","0","0","111","111","111","111","NA","09/23/21 18:19:30","600","The main experiment item","yes","FlankerTask.osexp","C:\Users\katie\Documents\School\Quant Methods","no","mono","no","18","no","white","no","yes","768","legacy","31","79","C:/Users/katie/Documents/School/Quant Methods/KH-subject-2.csv","legacy","Lentiform Loewenfeld","3.3.9","0","h","NA","s","s","NA","h","556","NA","16729","42600","NA","556","NA","NA","2","legacy","1024","2","48000","-16","experiment","SSHSS","2","even","256143","19923","203018","NA","240423","3174","233410","NA","257228","3192","160417","NA","257331","257889","257224","257331","NA","Flanker Task","107","57741","112","yes","1024"
"95.5752212389","95.5752212389","516.150442478","516.150442478","black","legacy","legacy","legacy","0","incongruent","uniform","1","undefined","1","h","112","0","0","0","112","0","112","0","112","0","0","0","112","112","112","112","NA","09/23/21 18:19:30","600","The main experiment item","yes","FlankerTask.osexp","C:\Users\katie\Documents\School\Quant Methods","no","mono","no","18","no","white","no","yes","768","legacy","32","79","C:/Users/katie/Documents/School/Quant Methods/KH-subject-2.csv","legacy","Lentiform Loewenfeld","3.3.9","0","h","NA","s","s","NA","h","584","NA","16729","42600","NA","584","NA","NA","2","legacy","1024","2","48000","-16","experiment","SSHSS","2","even","257902","19923","203018","NA","240423","3174","233410","NA","259019","3192","160417","NA","259122","259707","259015","259122","NA","Flanker Task","108","58325","113","yes","1024"
"95.6140350877","95.6140350877","515.824561404","515.824561404","black","legacy","legacy","legacy","0","congruent","uniform","1","undefined","1","h","113","0","0","0","113","0","113","0","113","0","0","0","113","113","113","113","NA","09/23/21 18:19:30","600","The main experiment item","yes","FlankerTask.osexp","C:\Users\katie\Documents\School\Quant Methods","no","mono","no","18","no","white","no","yes","768","legacy","33","79","C:/Users/katie/Documents/School/Quant Methods/KH-subject-2.csv","legacy","Lentiform Loewenfeld","3.3.9","0","h","NA","s","s","NA","h","479","NA","16729","42600","NA","479","NA","NA","2","legacy","1024","2","48000","-16","experiment","HHHHH","2","even","259721","19923","203018","NA","240423","3174","233410","NA","260821","3192","160417","NA","260924","261404","260818","260924","NA","Flanker Task","109","58804","114","yes","1024"
"95.652173913","95.652173913","516.486956522","516.486956522","black","legacy","legacy","legacy","0","incongruent","uniform","1","undefined","1","h","114","0","0","0","114","0","114","0","114","0","0","0","114","114","114","114","NA","09/23/21 18:19:30","600","The main experiment item","yes","FlankerTask.osexp","C:\Users\katie\Documents\School\Quant Methods","no","mono","no","18","no","white","no","yes","768","legacy","34","79","C:/Users/katie/Documents/School/Quant Methods/KH-subject-2.csv","legacy","Lentiform Loewenfeld","3.3.9","0","h","NA","s","s","NA","h","592","NA","16729","42600","NA","592","NA","NA","2","legacy","1024","2","48000","-16","experiment","SSHSS","2","even","261418","19923","203018","NA","240423","3174","233410","NA","262504","3192","160417","NA","262608","263201","262501","262608","NA","Flanker Task","110","59396","115","yes","1024"
"94.8275862069","94.8275862069","516.232758621","516.232758621","black","legacy","legacy","legacy","0","incongruent","uniform","0","undefined","0","s","115","0","0","0","115","0","115","0","115","0","0","0","115","115","115","115","NA","09/23/21 18:19:30","600","The main experiment item","yes","FlankerTask.osexp","C:\Users\katie\Documents\School\Quant Methods","no","mono","no","18","no","white","no","yes","768","legacy","35","79","C:/Users/katie/Documents/School/Quant Methods/KH-subject-2.csv","legacy","Lentiform Loewenfeld","3.3.9","0","h","NA","s","s","NA","h","487","NA","16729","42600","NA","487","NA","NA","2","legacy","1024","2","48000","-16","experiment","HHSHH","2","even","263217","19923","203018","NA","240423","3174","233410","NA","264331","3192","160417","NA","264435","264924","264329","264435","NA","Flanker Task","110","59883","116","yes","1024"
"94.8717948718","94.8717948718","516.239316239","516.239316239","black","legacy","legacy","legacy","0","congruent","uniform","1","undefined","1","h","116","0","0","0","116","0","116","0","116","0","0","0","116","116","116","116","NA","09/23/21 18:19:30","600","The main experiment item","yes","FlankerTask.osexp","C:\Users\katie\Documents\School\Quant Methods","no","mono","no","18","no","white","no","yes","768","legacy","36","79","C:/Users/katie/Documents/School/Quant Methods/KH-subject-2.csv","legacy","Lentiform Loewenfeld","3.3.9","0","h","NA","s","s","NA","h","517","NA","16729","42600","NA","517","NA","NA","2","legacy","1024","2","48000","-16","experiment","HHHHH","2","even","265432","19923","203018","NA","264929","3174","233410","NA","266523","3192","160417","NA","266626","267144","266522","266626","NA","Flanker Task","111","60400","117","yes","1024"
