"acc","accuracy","average_response_time","avg_rt","background","canvas_backend","clock_backend","color_backend","condition","correct","correct_instructions1","correct_keyboard_response","correct_response","count_Block1","count_Block2","count_Block3","count_ISI","count_errorFeedback","count_experiment","count_faster","count_finish","count_fixation","count_instructions1","count_instructions2","count_instructions3","count_keyboard_response","count_logger","count_sequence","count_stimulus","datetime","deadline","description","disable_garbage_collection","experiment_file","experiment_path","font_bold","font_family","font_italic","font_size","font_underline","foreground","form_clicks","fullscreen","height","keyboard_backend","live_row","live_row_Block1","logfile","mouse_backend","opensesame_codename","opensesame_version","repeat_cycle","response","response_finish","response_instructions1","response_instructions2","response_instructions3","response_keyboard_response","response_time","response_time_finish","response_time_instructions1","response_time_instructions2","response_time_instructions3","response_time_keyboard_response","round_decimals","sampler_backend","sound_buf_size","sound_channels","sound_freq","sound_sample_size","start","stimulus","subject_nr","subject_parity","time_Block1","time_Block2","time_Block3","time_ISI","time_errorFeedback","time_experiment","time_faster","time_finish","time_fixation","time_instructions1","time_instructions2","time_instructions3","time_keyboard_response","time_logger","time_sequence","time_stimulus","title","total_correct","total_response_time","total_responses","width"
"100","100","1091","1091","black","legacy","legacy","legacy","congruent","1","undefined","1","s","0","0","0","0","0","0","0","0","0","0","0","0","0","0","0","0","Wed Sep 20 11:08:49 2023","1500","The main experiment item","True","Lab2.1.osexp","/Users/test/Desktop","False","mono","False","18","no","white","no","yes","768","legacy","0","0","/Users/test/Downloads/at-subject-4.csv","legacy","Melodramatic Milgram","4.0.5","0","s","NA","return","NA","NA","s","1091.0","NA","3849","NA","NA","1091","2","legacy","1024","2","48000","-16","experiment","SSSSS","4","even","6933","NA","NA","NA","NA","2996","NA","NA","7004","3069","NA","NA","7107","8199","6997","7106","Lab 2-1","1","1091.0","1","1024"
"50","50","917","917","black","legacy","legacy","legacy","incongruent","0","undefined","0","h","0","0","0","1","1","0","1","0","1","0","0","0","1","1","1","1","Wed Sep 20 11:08:49 2023","1500","The main experiment item","True","Lab2.1.osexp","/Users/test/Desktop","False","mono","False","18","no","white","no","yes","768","legacy","1","1","/Users/test/Downloads/at-subject-4.csv","legacy","Melodramatic Milgram","4.0.5","0","s","NA","return","NA","NA","s","743.0","NA","3849","NA","NA","743","2","legacy","1024","2","48000","-16","experiment","SSHSS","4","even","6933","NA","NA","8205","NA","2996","NA","NA","9254","3069","NA","NA","9358","10101","9245","9358","Lab 2-1","1","1834.0","2","1024"
"66","66","819","819","black","legacy","legacy","legacy","incongruent","1","undefined","1","s","0","0","0","2","2","0","2","0","2","0","0","0","2","2","2","2","Wed Sep 20 11:08:49 2023","1500","The main experiment item","True","Lab2.1.osexp","/Users/test/Desktop","False","mono","False","18","no","white","no","yes","768","legacy","2","2","/Users/test/Downloads/at-subject-4.csv","legacy","Melodramatic Milgram","4.0.5","0","s","NA","return","NA","NA","s","625.0","NA","3849","NA","NA","625","2","legacy","1024","2","48000","-16","experiment","HHSHH","4","even","6933","NA","NA","10609","10105","2996","NA","NA","11652","3069","NA","NA","11755","12381","11646","11755","Lab 2-1","2","2459.0","3","1024"
"75","75","807","807","black","legacy","legacy","legacy","incongruent","1","undefined","1","s","0","0","0","3","3","0","3","0","3","0","0","0","3","3","3","3","Wed Sep 20 11:08:49 2023","1500","The main experiment item","True","Lab2.1.osexp","/Users/test/Desktop","False","mono","False","18","no","white","no","yes","768","legacy","3","3","/Users/test/Downloads/at-subject-4.csv","legacy","Melodramatic Milgram","4.0.5","0","s","NA","return","NA","NA","s","769.0","NA","3849","NA","NA","769","2","legacy","1024","2","48000","-16","experiment","HHSHH","4","even","6933","NA","NA","12385","10105","2996","NA","NA","13449","3069","NA","NA","13553","14323","13433","13553","Lab 2-1","3","3228.0","4","1024"
"60","60","795","795","black","legacy","legacy","legacy","incongruent","0","undefined","0","h","0","0","0","4","4","0","4","0","4","0","0","0","4","4","4","4","Wed Sep 20 11:08:49 2023","1500","The main experiment item","True","Lab2.1.osexp","/Users/test/Desktop","False","mono","False","18","no","white","no","yes","768","legacy","4","4","/Users/test/Downloads/at-subject-4.csv","legacy","Melodramatic Milgram","4.0.5","0","s","NA","return","NA","NA","s","749.0","NA","3849","NA","NA","749","2","legacy","1024","2","48000","-16","experiment","SSHSS","4","even","6933","NA","NA","14327","10105","2996","NA","NA","15380","3069","NA","NA","15485","16235","15374","15484","Lab 2-1","3","3977.0","5","1024"
"50","50","752","752","black","legacy","legacy","legacy","congruent","0","undefined","0","s","0","0","0","5","5","0","5","0","5","0","0","0","5","5","5","5","Wed Sep 20 11:08:49 2023","1500","The main experiment item","True","Lab2.1.osexp","/Users/test/Desktop","False","mono","False","18","no","white","no","yes","768","legacy","5","5","/Users/test/Downloads/at-subject-4.csv","legacy","Melodramatic Milgram","4.0.5","0","h","NA","return","NA","NA","h","539.0","NA","3849","NA","NA","539","2","legacy","1024","2","48000","-16","experiment","SSSSS","4","even","6933","NA","NA","16745","16239","2996","NA","NA","17799","3069","NA","NA","17903","18443","17795","17903","Lab 2-1","3","4516.0","6","1024"
"57","57","748","748","black","legacy","legacy","legacy","incongruent","1","undefined","1","s","0","0","0","6","6","0","6","0","6","0","0","0","6","6","6","6","Wed Sep 20 11:08:49 2023","1500","The main experiment item","True","Lab2.1.osexp","/Users/test/Desktop","False","mono","False","18","no","white","no","yes","768","legacy","6","6","/Users/test/Downloads/at-subject-4.csv","legacy","Melodramatic Milgram","4.0.5","0","s","NA","return","NA","NA","s","724.0","NA","3849","NA","NA","724","2","legacy","1024","2","48000","-16","experiment","HHSHH","4","even","6933","NA","NA","18953","18447","2996","NA","NA","20005","3069","NA","NA","20107","20832","20001","20107","Lab 2-1","4","5240.0","7","1024"
"62","62","746","746","black","legacy","legacy","legacy","congruent","1","undefined","1","h","0","0","0","7","7","0","7","0","7","0","0","0","7","7","7","7","Wed Sep 20 11:08:49 2023","1500","The main experiment item","True","Lab2.1.osexp","/Users/test/Desktop","False","mono","False","18","no","white","no","yes","768","legacy","7","7","/Users/test/Downloads/at-subject-4.csv","legacy","Melodramatic Milgram","4.0.5","0","h","NA","return","NA","NA","h","733.0","NA","3849","NA","NA","733","2","legacy","1024","2","48000","-16","experiment","HHHHH","4","even","6933","NA","NA","20836","18447","2996","NA","NA","21887","3069","NA","NA","21990","22723","21883","21990","Lab 2-1","5","5973.0","8","1024"
"66","66","708","708","black","legacy","legacy","legacy","congruent","1","undefined","1","s","0","0","0","8","8","0","8","0","8","0","0","0","8","8","8","8","Wed Sep 20 11:08:49 2023","1500","The main experiment item","True","Lab2.1.osexp","/Users/test/Desktop","False","mono","False","18","no","white","no","yes","768","legacy","8","8","/Users/test/Downloads/at-subject-4.csv","legacy","Melodramatic Milgram","4.0.5","0","s","NA","return","NA","NA","s","402.0","NA","3849","NA","NA","402","2","legacy","1024","2","48000","-16","experiment","SSSSS","4","even","6933","NA","NA","22727","18447","2996","NA","NA","23779","3069","NA","NA","23882","24284","23773","23882","Lab 2-1","6","6375.0","9","1024"
"70","70","700","700","black","legacy","legacy","legacy","incongruent","1","undefined","1","h","0","0","0","9","9","0","9","0","9","0","0","0","9","9","9","9","Wed Sep 20 11:08:49 2023","1500","The main experiment item","True","Lab2.1.osexp","/Users/test/Desktop","False","mono","False","18","no","white","no","yes","768","legacy","9","9","/Users/test/Downloads/at-subject-4.csv","legacy","Melodramatic Milgram","4.0.5","0","h","NA","return","NA","NA","h","633.0","NA","3849","NA","NA","633","2","legacy","1024","2","48000","-16","experiment","SSHSS","4","even","6933","NA","NA","24288","18447","2996","NA","NA","25342","3069","NA","NA","25445","26079","25339","25445","Lab 2-1","7","7008.0","10","1024"
"63","63","773","773","black","legacy","legacy","legacy","incongruent","0","undefined","0","h","0","0","0","10","10","0","10","0","10","0","0","0","10","10","10","10","Wed Sep 20 11:08:49 2023","1500","The main experiment item","True","Lab2.1.osexp","/Users/test/Desktop","False","mono","False","18","no","white","no","yes","768","legacy","10","10","/Users/test/Downloads/at-subject-4.csv","legacy","Melodramatic Milgram","4.0.5","0","None","NA","return","NA","NA","None","1500.0","NA","3849","NA","NA","1500","2","legacy","1024","2","48000","-16","experiment","SSHSS","4","even","6933","NA","NA","26083","18447","2996","NA","NA","27131","3069","NA","NA","27234","28734","27127","27234","Lab 2-1","7","8508.0","11","1024"
"58","58","787","787","black","legacy","legacy","legacy","incongruent","0","undefined","0","h","0","0","0","11","11","0","11","0","11","0","0","0","11","11","11","11","Wed Sep 20 11:08:49 2023","1500","The main experiment item","True","Lab2.1.osexp","/Users/test/Desktop","False","mono","False","18","no","white","no","yes","768","legacy","11","11","/Users/test/Downloads/at-subject-4.csv","legacy","Melodramatic Milgram","4.0.5","0","s","NA","return","NA","NA","s","943.0","NA","3849","NA","NA","943","2","legacy","1024","2","48000","-16","experiment","SSHSS","4","even","6933","NA","NA","29241","28737","2996","NA","NA","30280","3069","NA","NA","30383","31327","30277","30383","Lab 2-1","7","9451.0","12","1024"
"61","61","773","773","black","legacy","legacy","legacy","congruent","1","undefined","1","h","0","0","0","12","12","0","12","0","12","0","0","0","12","12","12","12","Wed Sep 20 11:08:49 2023","1500","The main experiment item","True","Lab2.1.osexp","/Users/test/Desktop","False","mono","False","18","no","white","no","yes","768","legacy","12","12","/Users/test/Downloads/at-subject-4.csv","legacy","Melodramatic Milgram","4.0.5","0","h","NA","return","NA","NA","h","609.0","NA","3849","NA","NA","609","2","legacy","1024","2","48000","-16","experiment","HHHHH","4","even","6933","NA","NA","31834","31330","2996","NA","NA","32878","3069","NA","NA","32981","33591","32874","32981","Lab 2-1","8","10060.0","13","1024"
"64","64","791","791","black","legacy","legacy","legacy","incongruent","1","undefined","1","s","0","0","0","13","13","0","13","0","13","0","0","0","13","13","13","13","Wed Sep 20 11:08:49 2023","1500","The main experiment item","True","Lab2.1.osexp","/Users/test/Desktop","False","mono","False","18","no","white","no","yes","768","legacy","13","13","/Users/test/Downloads/at-subject-4.csv","legacy","Melodramatic Milgram","4.0.5","0","s","NA","return","NA","NA","s","1020.0","NA","3849","NA","NA","1020","2","legacy","1024","2","48000","-16","experiment","HHSHH","4","even","6933","NA","NA","33595","31330","2996","NA","NA","34639","3069","NA","NA","34742","35763","34636","34742","Lab 2-1","9","11080.0","14","1024"
"66","66","782","782","black","legacy","legacy","legacy","incongruent","1","undefined","1","s","0","0","0","14","14","0","14","0","14","0","0","0","14","14","14","14","Wed Sep 20 11:08:49 2023","1500","The main experiment item","True","Lab2.1.osexp","/Users/test/Desktop","False","mono","False","18","no","white","no","yes","768","legacy","14","14","/Users/test/Downloads/at-subject-4.csv","legacy","Melodramatic Milgram","4.0.5","0","s","NA","return","NA","NA","s","654.0","NA","3849","NA","NA","654","2","legacy","1024","2","48000","-16","experiment","HHSHH","4","even","6933","NA","NA","35766","31330","2996","NA","NA","36813","3069","NA","NA","36917","37572","36810","36916","Lab 2-1","10","11734.0","15","1024"
"68","68","770","770","black","legacy","legacy","legacy","incongruent","1","undefined","1","s","0","0","0","15","15","0","15","0","15","0","0","0","15","15","15","15","Wed Sep 20 11:08:49 2023","1500","The main experiment item","True","Lab2.1.osexp","/Users/test/Desktop","False","mono","False","18","no","white","no","yes","768","legacy","15","15","/Users/test/Downloads/at-subject-4.csv","legacy","Melodramatic Milgram","4.0.5","0","s","NA","return","NA","NA","s","587.0","NA","3849","NA","NA","587","2","legacy","1024","2","48000","-16","experiment","HHSHH","4","even","6933","NA","NA","37575","31330","2996","NA","NA","38629","3069","NA","NA","38732","39319","38621","38732","Lab 2-1","11","12321.0","16","1024"
"70","70","755","755","black","legacy","legacy","legacy","incongruent","1","undefined","1","s","0","0","0","16","16","0","16","0","16","0","0","0","16","16","16","16","Wed Sep 20 11:08:49 2023","1500","The main experiment item","True","Lab2.1.osexp","/Users/test/Desktop","False","mono","False","18","no","white","no","yes","768","legacy","16","16","/Users/test/Downloads/at-subject-4.csv","legacy","Melodramatic Milgram","4.0.5","0","s","NA","return","NA","NA","s","524.0","NA","3849","NA","NA","524","2","legacy","1024","2","48000","-16","experiment","HHSHH","4","even","6933","NA","NA","39323","31330","2996","NA","NA","40381","3069","NA","NA","40485","41009","40377","40484","Lab 2-1","12","12845.0","17","1024"
"72","72","737","737","black","legacy","legacy","legacy","congruent","1","undefined","1","s","0","0","0","17","17","0","17","0","17","0","0","0","17","17","17","17","Wed Sep 20 11:08:49 2023","1500","The main experiment item","True","Lab2.1.osexp","/Users/test/Desktop","False","mono","False","18","no","white","no","yes","768","legacy","17","17","/Users/test/Downloads/at-subject-4.csv","legacy","Melodramatic Milgram","4.0.5","0","s","NA","return","NA","NA","s","422.0","NA","3849","NA","NA","422","2","legacy","1024","2","48000","-16","experiment","SSSSS","4","even","6933","NA","NA","41013","31330","2996","NA","NA","42054","3069","NA","NA","42157","42579","42049","42157","Lab 2-1","13","13267.0","18","1024"
"73","73","743","743","black","legacy","legacy","legacy","congruent","1","undefined","1","h","0","0","0","18","18","0","18","0","18","0","0","0","18","18","18","18","Wed Sep 20 11:08:49 2023","1500","The main experiment item","True","Lab2.1.osexp","/Users/test/Desktop","False","mono","False","18","no","white","no","yes","768","legacy","18","18","/Users/test/Downloads/at-subject-4.csv","legacy","Melodramatic Milgram","4.0.5","0","h","NA","return","NA","NA","h","863.0","NA","3849","NA","NA","863","2","legacy","1024","2","48000","-16","experiment","HHHHH","4","even","6933","NA","NA","42583","31330","2996","NA","NA","43623","3069","NA","NA","43728","44592","43618","43727","Lab 2-1","14","14130.0","19","1024"
"75","75","737","737","black","legacy","legacy","legacy","incongruent","1","undefined","1","s","0","0","0","19","19","0","19","0","19","0","0","0","19","19","19","19","Wed Sep 20 11:08:49 2023","1500","The main experiment item","True","Lab2.1.osexp","/Users/test/Desktop","False","mono","False","18","no","white","no","yes","768","legacy","19","19","/Users/test/Downloads/at-subject-4.csv","legacy","Melodramatic Milgram","4.0.5","0","s","NA","return","NA","NA","s","619.0","NA","3849","NA","NA","619","2","legacy","1024","2","48000","-16","experiment","HHSHH","4","even","6933","NA","NA","44595","31330","2996","NA","NA","45643","3069","NA","NA","45747","46367","45637","45746","Lab 2-1","15","14749.0","20","1024"
"76","76","722","722","black","legacy","legacy","legacy","congruent","1","undefined","1","s","0","0","0","20","20","0","20","0","20","0","0","0","20","20","20","20","Wed Sep 20 11:08:49 2023","1500","The main experiment item","True","Lab2.1.osexp","/Users/test/Desktop","False","mono","False","18","no","white","no","yes","768","legacy","20","20","/Users/test/Downloads/at-subject-4.csv","legacy","Melodramatic Milgram","4.0.5","0","s","NA","return","NA","NA","s","427.0","NA","3849","NA","NA","427","2","legacy","1024","2","48000","-16","experiment","SSSSS","4","even","6933","NA","NA","46370","31330","2996","NA","NA","47423","3069","NA","NA","47529","47957","47412","47529","Lab 2-1","16","15176.0","21","1024"
"77","77","719","719","black","legacy","legacy","legacy","congruent","1","undefined","1","h","0","0","0","21","21","0","21","0","21","0","0","0","21","21","21","21","Wed Sep 20 11:08:49 2023","1500","The main experiment item","True","Lab2.1.osexp","/Users/test/Desktop","False","mono","False","18","no","white","no","yes","768","legacy","21","21","/Users/test/Downloads/at-subject-4.csv","legacy","Melodramatic Milgram","4.0.5","0","h","NA","return","NA","NA","h","659.0","NA","3849","NA","NA","659","2","legacy","1024","2","48000","-16","experiment","HHHHH","4","even","6933","NA","NA","47960","31330","2996","NA","NA","49007","3069","NA","NA","49110","49770","49001","49110","Lab 2-1","17","15835.0","22","1024"
"78","78","719","719","black","legacy","legacy","legacy","incongruent","1","undefined","1","s","0","0","0","22","22","0","22","0","22","0","0","0","22","22","22","22","Wed Sep 20 11:08:49 2023","1500","The main experiment item","True","Lab2.1.osexp","/Users/test/Desktop","False","mono","False","18","no","white","no","yes","768","legacy","22","22","/Users/test/Downloads/at-subject-4.csv","legacy","Melodramatic Milgram","4.0.5","0","s","NA","return","NA","NA","s","702.0","NA","3849","NA","NA","702","2","legacy","1024","2","48000","-16","experiment","HHSHH","4","even","6933","NA","NA","49774","31330","2996","NA","NA","50833","3069","NA","NA","50938","51641","50818","50938","Lab 2-1","18","16537.0","23","1024"
"75","75","698","698","black","legacy","legacy","legacy","congruent","0","undefined","0","s","0","0","0","23","23","0","23","0","23","0","0","0","23","23","23","23","Wed Sep 20 11:08:49 2023","1500","The main experiment item","True","Lab2.1.osexp","/Users/test/Desktop","False","mono","False","18","no","white","no","yes","768","legacy","23","23","/Users/test/Downloads/at-subject-4.csv","legacy","Melodramatic Milgram","4.0.5","0","h","NA","return","NA","NA","h","223.0","NA","3849","NA","NA","223","2","legacy","1024","2","48000","-16","experiment","SSSSS","4","even","6933","NA","NA","51644","31330","2996","NA","NA","52699","3069","NA","NA","52804","53028","52688","52804","Lab 2-1","18","16760.0","24","1024"
"76","76","699","699","black","legacy","legacy","legacy","incongruent","1","undefined","1","s","0","0","0","24","24","0","24","0","24","0","0","0","24","24","24","24","Wed Sep 20 11:08:49 2023","1500","The main experiment item","True","Lab2.1.osexp","/Users/test/Desktop","False","mono","False","18","no","white","no","yes","768","legacy","24","24","/Users/test/Downloads/at-subject-4.csv","legacy","Melodramatic Milgram","4.0.5","0","s","NA","return","NA","NA","s","723.0","NA","3849","NA","NA","723","2","legacy","1024","2","48000","-16","experiment","HHSHH","4","even","6933","NA","NA","53541","53031","2996","NA","NA","54591","3069","NA","NA","54694","55418","54587","54694","Lab 2-1","19","17483.0","25","1024"
"76","76","684","684","black","legacy","legacy","legacy","congruent","1","undefined","1","h","0","0","0","25","25","0","25","0","25","0","0","0","25","25","25","25","Wed Sep 20 11:08:49 2023","1500","The main experiment item","True","Lab2.1.osexp","/Users/test/Desktop","False","mono","False","18","no","white","no","yes","768","legacy","25","25","/Users/test/Downloads/at-subject-4.csv","legacy","Melodramatic Milgram","4.0.5","0","h","NA","return","NA","NA","h","303.0","NA","3849","NA","NA","303","2","legacy","1024","2","48000","-16","experiment","HHHHH","4","even","6933","NA","NA","55421","53031","2996","NA","NA","56459","3069","NA","NA","56563","56867","56455","56562","Lab 2-1","20","17786.0","26","1024"
"74","74","675","675","black","legacy","legacy","legacy","incongruent","0","undefined","0","h","0","0","0","26","26","0","26","0","26","0","0","0","26","26","26","26","Wed Sep 20 11:08:49 2023","1500","The main experiment item","True","Lab2.1.osexp","/Users/test/Desktop","False","mono","False","18","no","white","no","yes","768","legacy","26","26","/Users/test/Downloads/at-subject-4.csv","legacy","Melodramatic Milgram","4.0.5","0","s","NA","return","NA","NA","s","457.0","NA","3849","NA","NA","457","2","legacy","1024","2","48000","-16","experiment","SSHSS","4","even","6933","NA","NA","56870","53031","2996","NA","NA","57910","3069","NA","NA","58014","58472","57907","58014","Lab 2-1","20","18243.0","27","1024"
"75","75","678","678","black","legacy","legacy","legacy","congruent","1","undefined","1","s","0","0","0","27","27","0","27","0","27","0","0","0","27","27","27","27","Wed Sep 20 11:08:49 2023","1500","The main experiment item","True","Lab2.1.osexp","/Users/test/Desktop","False","mono","False","18","no","white","no","yes","768","legacy","27","27","/Users/test/Downloads/at-subject-4.csv","legacy","Melodramatic Milgram","4.0.5","0","s","NA","return","NA","NA","s","749.0","NA","3849","NA","NA","749","2","legacy","1024","2","48000","-16","experiment","SSSSS","4","even","6933","NA","NA","58979","58475","2996","NA","NA","60025","3069","NA","NA","60128","60878","60019","60128","Lab 2-1","21","18992.0","28","1024"
"75","75","668","668","black","legacy","legacy","legacy","congruent","1","undefined","1","s","0","0","0","28","28","0","28","0","28","0","0","0","28","28","28","28","Wed Sep 20 11:08:49 2023","1500","The main experiment item","True","Lab2.1.osexp","/Users/test/Desktop","False","mono","False","18","no","white","no","yes","768","legacy","28","28","/Users/test/Downloads/at-subject-4.csv","legacy","Melodramatic Milgram","4.0.5","0","s","NA","return","NA","NA","s","390.0","NA","3849","NA","NA","390","2","legacy","1024","2","48000","-16","experiment","SSSSS","4","even","6933","NA","NA","60881","58475","2996","NA","NA","61927","3069","NA","NA","62031","62421","61923","62031","Lab 2-1","22","19382.0","29","1024"
"76","76","662","662","black","legacy","legacy","legacy","congruent","1","undefined","1","h","0","0","0","29","29","0","29","0","29","0","0","0","29","29","29","29","Wed Sep 20 11:08:49 2023","1500","The main experiment item","True","Lab2.1.osexp","/Users/test/Desktop","False","mono","False","18","no","white","no","yes","768","legacy","29","29","/Users/test/Downloads/at-subject-4.csv","legacy","Melodramatic Milgram","4.0.5","0","h","NA","return","NA","NA","h","490.0","NA","3849","NA","NA","490","2","legacy","1024","2","48000","-16","experiment","HHHHH","4","even","6933","NA","NA","62425","58475","2996","NA","NA","63470","3069","NA","NA","63574","64065","63466","63573","Lab 2-1","23","19872.0","30","1024"
"77","77","653","653","black","legacy","legacy","legacy","incongruent","1","undefined","1","h","0","0","0","30","30","0","30","0","30","0","0","0","30","30","30","30","Wed Sep 20 11:08:49 2023","1500","The main experiment item","True","Lab2.1.osexp","/Users/test/Desktop","False","mono","False","18","no","white","no","yes","768","legacy","30","30","/Users/test/Downloads/at-subject-4.csv","legacy","Melodramatic Milgram","4.0.5","0","h","NA","return","NA","NA","h","377.0","NA","3849","NA","NA","377","2","legacy","1024","2","48000","-16","experiment","SSHSS","4","even","6933","NA","NA","64068","58475","2996","NA","NA","65128","3069","NA","NA","65232","65610","65124","65231","Lab 2-1","24","20249.0","31","1024"
"78","78","648","648","black","legacy","legacy","legacy","congruent","1","undefined","1","h","0","0","0","31","31","0","31","0","31","0","0","0","31","31","31","31","Wed Sep 20 11:08:49 2023","1500","The main experiment item","True","Lab2.1.osexp","/Users/test/Desktop","False","mono","False","18","no","white","no","yes","768","legacy","31","31","/Users/test/Downloads/at-subject-4.csv","legacy","Melodramatic Milgram","4.0.5","0","h","NA","return","NA","NA","h","490.0","NA","3849","NA","NA","490","2","legacy","1024","2","48000","-16","experiment","HHHHH","4","even","6933","NA","NA","65614","58475","2996","NA","NA","66668","3069","NA","NA","66771","67262","66665","66771","Lab 2-1","25","20739.0","32","1024"
"78","78","640","640","black","legacy","legacy","legacy","congruent","1","undefined","1","h","0","0","0","32","32","0","32","0","32","0","0","0","32","32","32","32","Wed Sep 20 11:08:49 2023","1500","The main experiment item","True","Lab2.1.osexp","/Users/test/Desktop","False","mono","False","18","no","white","no","yes","768","legacy","32","32","/Users/test/Downloads/at-subject-4.csv","legacy","Melodramatic Milgram","4.0.5","0","h","NA","return","NA","NA","h","399.0","NA","3849","NA","NA","399","2","legacy","1024","2","48000","-16","experiment","HHHHH","4","even","6933","NA","NA","67266","58475","2996","NA","NA","68304","3069","NA","NA","68407","68807","68300","68407","Lab 2-1","26","21138.0","33","1024"
"79","79","636","636","black","legacy","legacy","legacy","congruent","1","undefined","1","s","0","0","0","33","33","0","33","0","33","0","0","0","33","33","33","33","Wed Sep 20 11:08:49 2023","1500","The main experiment item","True","Lab2.1.osexp","/Users/test/Desktop","False","mono","False","18","no","white","no","yes","768","legacy","33","33","/Users/test/Downloads/at-subject-4.csv","legacy","Melodramatic Milgram","4.0.5","0","s","NA","return","NA","NA","s","503.0","NA","3849","NA","NA","503","2","legacy","1024","2","48000","-16","experiment","SSSSS","4","even","6933","NA","NA","68810","58475","2996","NA","NA","69850","3069","NA","NA","69954","70458","69846","69953","Lab 2-1","27","21641.0","34","1024"
"80","80","635","635","black","legacy","legacy","legacy","incongruent","1","undefined","1","h","0","0","0","34","34","0","34","0","34","0","0","0","34","34","34","34","Wed Sep 20 11:08:49 2023","1500","The main experiment item","True","Lab2.1.osexp","/Users/test/Desktop","False","mono","False","18","no","white","no","yes","768","legacy","34","34","/Users/test/Downloads/at-subject-4.csv","legacy","Melodramatic Milgram","4.0.5","0","h","NA","return","NA","NA","h","611.0","NA","3849","NA","NA","611","2","legacy","1024","2","48000","-16","experiment","SSHSS","4","even","6933","NA","NA","70461","58475","2996","NA","NA","71507","3069","NA","NA","71612","72224","71503","71612","Lab 2-1","28","22252.0","35","1024"
"77","77","629","629","black","legacy","legacy","legacy","incongruent","0","undefined","0","h","0","0","0","35","35","0","35","0","35","0","0","0","35","35","35","35","Wed Sep 20 11:08:49 2023","1500","The main experiment item","True","Lab2.1.osexp","/Users/test/Desktop","False","mono","False","18","no","white","no","yes","768","legacy","35","35","/Users/test/Downloads/at-subject-4.csv","legacy","Melodramatic Milgram","4.0.5","0","s","NA","return","NA","NA","s","427.0","NA","3849","NA","NA","427","2","legacy","1024","2","48000","-16","experiment","SSHSS","4","even","6933","NA","NA","72227","58475","2996","NA","NA","73275","3069","NA","NA","73378","73806","73272","73378","Lab 2-1","28","22679.0","36","1024"
"78","78","630","630","black","legacy","legacy","legacy","incongruent","1","undefined","1","s","0","0","0","36","36","0","36","0","36","0","0","0","36","36","36","36","Wed Sep 20 11:08:49 2023","1500","The main experiment item","True","Lab2.1.osexp","/Users/test/Desktop","False","mono","False","18","no","white","no","yes","768","legacy","36","36","/Users/test/Downloads/at-subject-4.csv","legacy","Melodramatic Milgram","4.0.5","0","s","NA","return","NA","NA","s","665.0","NA","3849","NA","NA","665","2","legacy","1024","2","48000","-16","experiment","HHSHH","4","even","6933","NA","NA","74313","73809","2996","NA","NA","75359","3069","NA","NA","75463","76129","75355","75462","Lab 2-1","29","23344.0","37","1024"
"78","78","629","629","black","legacy","legacy","legacy","congruent","1","undefined","1","s","0","0","0","37","37","0","37","0","37","0","0","0","37","37","37","37","Wed Sep 20 11:08:49 2023","1500","The main experiment item","True","Lab2.1.osexp","/Users/test/Desktop","False","mono","False","18","no","white","no","yes","768","legacy","37","37","/Users/test/Downloads/at-subject-4.csv","legacy","Melodramatic Milgram","4.0.5","0","s","NA","return","NA","NA","s","587.0","NA","3849","NA","NA","587","2","legacy","1024","2","48000","-16","experiment","SSSSS","4","even","6933","NA","NA","76133","73809","2996","NA","NA","77180","3069","NA","NA","77284","77872","77176","77284","Lab 2-1","30","23931.0","38","1024"
"79","79","624","624","black","legacy","legacy","legacy","congruent","1","undefined","1","s","0","0","0","38","38","0","38","0","38","0","0","0","38","38","38","38","Wed Sep 20 11:08:49 2023","1500","The main experiment item","True","Lab2.1.osexp","/Users/test/Desktop","False","mono","False","18","no","white","no","yes","768","legacy","38","38","/Users/test/Downloads/at-subject-4.csv","legacy","Melodramatic Milgram","4.0.5","0","s","NA","return","NA","NA","s","415.0","NA","3849","NA","NA","415","2","legacy","1024","2","48000","-16","experiment","SSSSS","4","even","6933","NA","NA","77875","73809","2996","NA","NA","78921","3069","NA","NA","79025","79440","78917","79024","Lab 2-1","31","24346.0","39","1024"
"80","80","622","622","black","legacy","legacy","legacy","incongruent","1","undefined","1","h","0","0","0","39","39","0","39","0","39","0","0","0","39","39","39","39","Wed Sep 20 11:08:49 2023","1500","The main experiment item","True","Lab2.1.osexp","/Users/test/Desktop","False","mono","False","18","no","white","no","yes","768","legacy","39","39","/Users/test/Downloads/at-subject-4.csv","legacy","Melodramatic Milgram","4.0.5","0","h","NA","return","NA","NA","h","536.0","NA","3849","NA","NA","536","2","legacy","1024","2","48000","-16","experiment","SSHSS","4","even","6933","NA","NA","79445","73809","2996","NA","NA","80495","3069","NA","NA","80598","81136","80492","80598","Lab 2-1","32","24882.0","40","1024"
"80","80","620","620","black","legacy","legacy","legacy","incongruent","1","undefined","1","h","0","0","0","40","40","0","40","0","40","0","0","0","40","40","40","40","Wed Sep 20 11:08:49 2023","1500","The main experiment item","True","Lab2.1.osexp","/Users/test/Desktop","False","mono","False","18","no","white","no","yes","768","legacy","40","40","/Users/test/Downloads/at-subject-4.csv","legacy","Melodramatic Milgram","4.0.5","0","h","NA","return","NA","NA","h","570.0","NA","3849","NA","NA","570","2","legacy","1024","2","48000","-16","experiment","SSHSS","4","even","6933","NA","NA","81140","73809","2996","NA","NA","82177","3069","NA","NA","82279","82850","82173","82279","Lab 2-1","33","25452.0","41","1024"
"80","80","618","618","black","legacy","legacy","legacy","incongruent","1","undefined","1","h","0","0","0","41","41","0","41","0","41","0","0","0","41","41","41","41","Wed Sep 20 11:08:49 2023","1500","The main experiment item","True","Lab2.1.osexp","/Users/test/Desktop","False","mono","False","18","no","white","no","yes","768","legacy","41","41","/Users/test/Downloads/at-subject-4.csv","legacy","Melodramatic Milgram","4.0.5","0","h","NA","return","NA","NA","h","513.0","NA","3849","NA","NA","513","2","legacy","1024","2","48000","-16","experiment","SSHSS","4","even","6933","NA","NA","82854","73809","2996","NA","NA","83894","3069","NA","NA","83997","84511","83890","83997","Lab 2-1","34","25965.0","42","1024"
"81","81","623","623","black","legacy","legacy","legacy","incongruent","1","undefined","1","h","0","0","0","42","42","0","42","0","42","0","0","0","42","42","42","42","Wed Sep 20 11:08:49 2023","1500","The main experiment item","True","Lab2.1.osexp","/Users/test/Desktop","False","mono","False","18","no","white","no","yes","768","legacy","42","42","/Users/test/Downloads/at-subject-4.csv","legacy","Melodramatic Milgram","4.0.5","0","h","NA","return","NA","NA","h","847.0","NA","3849","NA","NA","847","2","legacy","1024","2","48000","-16","experiment","SSHSS","4","even","6933","NA","NA","84514","73809","2996","NA","NA","85559","3069","NA","NA","85663","86511","85556","85663","Lab 2-1","35","26812.0","43","1024"
"81","81","619","619","black","legacy","legacy","legacy","congruent","1","undefined","1","h","0","0","0","43","43","0","43","0","43","0","0","0","43","43","43","43","Wed Sep 20 11:08:49 2023","1500","The main experiment item","True","Lab2.1.osexp","/Users/test/Desktop","False","mono","False","18","no","white","no","yes","768","legacy","43","43","/Users/test/Downloads/at-subject-4.csv","legacy","Melodramatic Milgram","4.0.5","0","h","NA","return","NA","NA","h","432.0","NA","3849","NA","NA","432","2","legacy","1024","2","48000","-16","experiment","HHHHH","4","even","6933","NA","NA","86515","73809","2996","NA","NA","87560","3069","NA","NA","87663","88096","87556","87663","Lab 2-1","36","27244.0","44","1024"
"82","82","617","617","black","legacy","legacy","legacy","congruent","1","undefined","1","h","0","0","0","44","44","0","44","0","44","0","0","0","44","44","44","44","Wed Sep 20 11:08:49 2023","1500","The main experiment item","True","Lab2.1.osexp","/Users/test/Desktop","False","mono","False","18","no","white","no","yes","768","legacy","44","44","/Users/test/Downloads/at-subject-4.csv","legacy","Melodramatic Milgram","4.0.5","0","h","NA","return","NA","NA","h","532.0","NA","3849","NA","NA","532","2","legacy","1024","2","48000","-16","experiment","HHHHH","4","even","6933","NA","NA","88099","73809","2996","NA","NA","89151","3069","NA","NA","89255","89788","89147","89255","Lab 2-1","37","27776.0","45","1024"
"82","82","613","613","black","legacy","legacy","legacy","congruent","1","undefined","1","h","0","0","0","45","45","0","45","0","45","0","0","0","45","45","45","45","Wed Sep 20 11:08:49 2023","1500","The main experiment item","True","Lab2.1.osexp","/Users/test/Desktop","False","mono","False","18","no","white","no","yes","768","legacy","45","45","/Users/test/Downloads/at-subject-4.csv","legacy","Melodramatic Milgram","4.0.5","0","h","NA","return","NA","NA","h","463.0","NA","3849","NA","NA","463","2","legacy","1024","2","48000","-16","experiment","HHHHH","4","even","6933","NA","NA","89791","73809","2996","NA","NA","90838","3069","NA","NA","90941","91405","90833","90941","Lab 2-1","38","28239.0","46","1024"
"82","82","612","612","black","legacy","legacy","legacy","congruent","1","undefined","1","s","0","0","0","46","46","0","46","0","46","0","0","0","46","46","46","46","Wed Sep 20 11:08:49 2023","1500","The main experiment item","True","Lab2.1.osexp","/Users/test/Desktop","False","mono","False","18","no","white","no","yes","768","legacy","46","46","/Users/test/Downloads/at-subject-4.csv","legacy","Melodramatic Milgram","4.0.5","0","s","NA","return","NA","NA","s","544.0","NA","3849","NA","NA","544","2","legacy","1024","2","48000","-16","experiment","SSSSS","4","even","6933","NA","NA","91408","73809","2996","NA","NA","92485","3069","NA","NA","92588","93133","92481","92588","Lab 2-1","39","28783.0","47","1024"
"81","81","611","611","black","legacy","legacy","legacy","incongruent","0","undefined","0","s","0","0","0","47","47","0","47","0","47","0","0","0","47","47","47","47","Wed Sep 20 11:08:49 2023","1500","The main experiment item","True","Lab2.1.osexp","/Users/test/Desktop","False","mono","False","18","no","white","no","yes","768","legacy","47","47","/Users/test/Downloads/at-subject-4.csv","legacy","Melodramatic Milgram","4.0.5","0","h","NA","return","NA","NA","h","570.0","NA","3849","NA","NA","570","2","legacy","1024","2","48000","-16","experiment","HHSHH","4","even","6933","NA","NA","93137","73809","2996","NA","NA","94175","3069","NA","NA","94278","94849","94171","94277","Lab 2-1","39","29353.0","48","1024"
"81","81","609","609","black","legacy","legacy","legacy","congruent","1","undefined","1","s","0","0","0","48","48","0","48","0","48","0","0","0","48","48","48","48","Wed Sep 20 11:08:49 2023","1500","The main experiment item","True","Lab2.1.osexp","/Users/test/Desktop","False","mono","False","18","no","white","no","yes","768","legacy","48","48","/Users/test/Downloads/at-subject-4.csv","legacy","Melodramatic Milgram","4.0.5","0","s","NA","return","NA","NA","s","498.0","NA","3849","NA","NA","498","2","legacy","1024","2","48000","-16","experiment","SSSSS","4","even","6933","NA","NA","95356","94852","2996","NA","NA","96395","3069","NA","NA","96498","96997","96391","96498","Lab 2-1","40","29851.0","49","1024"
"82","82","610","610","black","legacy","legacy","legacy","incongruent","1","undefined","1","s","0","0","0","49","49","0","49","0","49","0","0","0","49","49","49","49","Wed Sep 20 11:08:49 2023","1500","The main experiment item","True","Lab2.1.osexp","/Users/test/Desktop","False","mono","False","18","no","white","no","yes","768","legacy","49","49","/Users/test/Downloads/at-subject-4.csv","legacy","Melodramatic Milgram","4.0.5","0","s","NA","return","NA","NA","s","659.0","NA","3849","NA","NA","659","2","legacy","1024","2","48000","-16","experiment","HHSHH","4","even","6933","NA","NA","97000","94852","2996","NA","NA","98050","3069","NA","NA","98152","98812","98046","98152","Lab 2-1","41","30510.0","50","1024"
"82","82","606","606","black","legacy","legacy","legacy","congruent","1","undefined","1","s","0","0","0","50","50","0","50","0","50","0","0","0","50","50","50","50","Wed Sep 20 11:08:49 2023","1500","The main experiment item","True","Lab2.1.osexp","/Users/test/Desktop","False","mono","False","18","no","white","no","yes","768","legacy","50","50","/Users/test/Downloads/at-subject-4.csv","legacy","Melodramatic Milgram","4.0.5","0","s","NA","return","NA","NA","s","418.0","NA","3849","NA","NA","418","2","legacy","1024","2","48000","-16","experiment","SSSSS","4","even","6933","NA","NA","98816","94852","2996","NA","NA","99863","3069","NA","NA","99967","100385","99857","99967","Lab 2-1","42","30928.0","51","1024"
"82","82","604","604","black","legacy","legacy","legacy","congruent","1","undefined","1","s","0","0","0","51","51","0","51","0","51","0","0","0","51","51","51","51","Wed Sep 20 11:08:49 2023","1500","The main experiment item","True","Lab2.1.osexp","/Users/test/Desktop","False","mono","False","18","no","white","no","yes","768","legacy","51","51","/Users/test/Downloads/at-subject-4.csv","legacy","Melodramatic Milgram","4.0.5","0","s","NA","return","NA","NA","s","491.0","NA","3849","NA","NA","491","2","legacy","1024","2","48000","-16","experiment","SSSSS","4","even","6933","NA","NA","100389","94852","2996","NA","NA","101433","3069","NA","NA","101537","102029","101430","101536","Lab 2-1","43","31419.0","52","1024"
"83","83","601","601","black","legacy","legacy","legacy","congruent","1","undefined","1","h","0","0","0","52","52","0","52","0","52","0","0","0","52","52","52","52","Wed Sep 20 11:08:49 2023","1500","The main experiment item","True","Lab2.1.osexp","/Users/test/Desktop","False","mono","False","18","no","white","no","yes","768","legacy","52","52","/Users/test/Downloads/at-subject-4.csv","legacy","Melodramatic Milgram","4.0.5","0","h","NA","return","NA","NA","h","466.0","NA","3849","NA","NA","466","2","legacy","1024","2","48000","-16","experiment","HHHHH","4","even","6933","NA","NA","102033","94852","2996","NA","NA","103089","3069","NA","NA","103191","103658","103084","103191","Lab 2-1","44","31885.0","53","1024"
"83","83","598","598","black","legacy","legacy","legacy","incongruent","1","undefined","1","h","0","0","0","53","53","0","53","0","53","0","0","0","53","53","53","53","Wed Sep 20 11:08:49 2023","1500","The main experiment item","True","Lab2.1.osexp","/Users/test/Desktop","False","mono","False","18","no","white","no","yes","768","legacy","53","53","/Users/test/Downloads/at-subject-4.csv","legacy","Melodramatic Milgram","4.0.5","0","h","NA","return","NA","NA","h","413.0","NA","3849","NA","NA","413","2","legacy","1024","2","48000","-16","experiment","SSHSS","4","even","6933","NA","NA","103662","94852","2996","NA","NA","104711","3069","NA","NA","104815","105229","104702","104815","Lab 2-1","45","32298.0","54","1024"
"83","83","594","594","black","legacy","legacy","legacy","congruent","1","undefined","1","s","0","0","0","54","54","0","54","0","54","0","0","0","54","54","54","54","Wed Sep 20 11:08:49 2023","1500","The main experiment item","True","Lab2.1.osexp","/Users/test/Desktop","False","mono","False","18","no","white","no","yes","768","legacy","54","54","/Users/test/Downloads/at-subject-4.csv","legacy","Melodramatic Milgram","4.0.5","0","s","NA","return","NA","NA","s","391.0","NA","3849","NA","NA","391","2","legacy","1024","2","48000","-16","experiment","SSSSS","4","even","6933","NA","NA","105232","94852","2996","NA","NA","106289","3069","NA","NA","106393","106785","106279","106392","Lab 2-1","46","32689.0","55","1024"
"83","83","595","595","black","legacy","legacy","legacy","incongruent","1","undefined","1","s","0","0","0","55","55","0","55","0","55","0","0","0","55","55","55","55","Wed Sep 20 11:08:49 2023","1500","The main experiment item","True","Lab2.1.osexp","/Users/test/Desktop","False","mono","False","18","no","white","no","yes","768","legacy","55","55","/Users/test/Downloads/at-subject-4.csv","legacy","Melodramatic Milgram","4.0.5","0","s","NA","return","NA","NA","s","655.0","NA","3849","NA","NA","655","2","legacy","1024","2","48000","-16","experiment","HHSHH","4","even","6933","NA","NA","106789","94852","2996","NA","NA","107827","3069","NA","NA","107930","108585","107822","107930","Lab 2-1","47","33344.0","56","1024"
"84","84","596","596","black","legacy","legacy","legacy","congruent","1","undefined","1","h","0","0","0","56","56","0","56","0","56","0","0","0","56","56","56","56","Wed Sep 20 11:08:49 2023","1500","The main experiment item","True","Lab2.1.osexp","/Users/test/Desktop","False","mono","False","18","no","white","no","yes","768","legacy","56","56","/Users/test/Downloads/at-subject-4.csv","legacy","Melodramatic Milgram","4.0.5","0","h","NA","return","NA","NA","h","660.0","NA","3849","NA","NA","660","2","legacy","1024","2","48000","-16","experiment","HHHHH","4","even","6933","NA","NA","108589","94852","2996","NA","NA","109630","3069","NA","NA","109734","110395","109626","109734","Lab 2-1","48","34004.0","57","1024"
"84","84","596","596","black","legacy","legacy","legacy","incongruent","1","undefined","1","s","0","0","0","57","57","0","57","0","57","0","0","0","57","57","57","57","Wed Sep 20 11:08:49 2023","1500","The main experiment item","True","Lab2.1.osexp","/Users/test/Desktop","False","mono","False","18","no","white","no","yes","768","legacy","57","57","/Users/test/Downloads/at-subject-4.csv","legacy","Melodramatic Milgram","4.0.5","0","s","NA","return","NA","NA","s","599.0","NA","3849","NA","NA","599","2","legacy","1024","2","48000","-16","experiment","HHSHH","4","even","6933","NA","NA","110398","94852","2996","NA","NA","111443","3069","NA","NA","111547","112147","111440","111547","Lab 2-1","49","34603.0","58","1024"
"84","84","599","599","black","legacy","legacy","legacy","incongruent","1","undefined","1","s","0","0","0","58","58","0","58","0","58","0","0","0","58","58","58","58","Wed Sep 20 11:08:49 2023","1500","The main experiment item","True","Lab2.1.osexp","/Users/test/Desktop","False","mono","False","18","no","white","no","yes","768","legacy","58","58","/Users/test/Downloads/at-subject-4.csv","legacy","Melodramatic Milgram","4.0.5","0","s","NA","return","NA","NA","s","774.0","NA","3849","NA","NA","774","2","legacy","1024","2","48000","-16","experiment","HHSHH","4","even","6933","NA","NA","112150","94852","2996","NA","NA","113202","3069","NA","NA","113307","114083","113193","113307","Lab 2-1","50","35377.0","59","1024"
"85","85","602","602","black","legacy","legacy","legacy","incongruent","1","undefined","1","s","0","0","0","59","59","0","59","0","59","0","0","0","59","59","59","59","Wed Sep 20 11:08:49 2023","1500","The main experiment item","True","Lab2.1.osexp","/Users/test/Desktop","False","mono","False","18","no","white","no","yes","768","legacy","59","59","/Users/test/Downloads/at-subject-4.csv","legacy","Melodramatic Milgram","4.0.5","0","s","NA","return","NA","NA","s","770.0","NA","3849","NA","NA","770","2","legacy","1024","2","48000","-16","experiment","HHSHH","4","even","6933","NA","NA","114086","94852","2996","NA","NA","115142","3069","NA","NA","115245","116016","115137","115245","Lab 2-1","51","36147.0","60","1024"
"85","85","602","602","black","legacy","legacy","legacy","incongruent","1","undefined","1","h","0","0","0","60","60","0","60","0","60","0","0","0","60","60","60","60","Wed Sep 20 11:08:49 2023","1500","The main experiment item","True","Lab2.1.osexp","/Users/test/Desktop","False","mono","False","18","no","white","no","yes","768","legacy","60","60","/Users/test/Downloads/at-subject-4.csv","legacy","Melodramatic Milgram","4.0.5","0","h","NA","return","NA","NA","h","593.0","NA","3849","NA","NA","593","2","legacy","1024","2","48000","-16","experiment","SSHSS","4","even","6933","NA","NA","116019","94852","2996","NA","NA","117076","3069","NA","NA","117179","117773","117071","117179","Lab 2-1","52","36740.0","61","1024"
"85","85","599","599","black","legacy","legacy","legacy","congruent","1","undefined","1","h","0","0","0","61","61","0","61","0","61","0","0","0","61","61","61","61","Wed Sep 20 11:08:49 2023","1500","The main experiment item","True","Lab2.1.osexp","/Users/test/Desktop","False","mono","False","18","no","white","no","yes","768","legacy","61","61","/Users/test/Downloads/at-subject-4.csv","legacy","Melodramatic Milgram","4.0.5","0","h","NA","return","NA","NA","h","440.0","NA","3849","NA","NA","440","2","legacy","1024","2","48000","-16","experiment","HHHHH","4","even","6933","NA","NA","117777","94852","2996","NA","NA","118834","3069","NA","NA","118938","119378","118827","118937","Lab 2-1","53","37180.0","62","1024"
"85","85","601","601","black","legacy","legacy","legacy","congruent","1","undefined","1","s","0","0","0","62","62","0","62","0","62","0","0","0","62","62","62","62","Wed Sep 20 11:08:49 2023","1500","The main experiment item","True","Lab2.1.osexp","/Users/test/Desktop","False","mono","False","18","no","white","no","yes","768","legacy","62","62","/Users/test/Downloads/at-subject-4.csv","legacy","Melodramatic Milgram","4.0.5","0","s","NA","return","NA","NA","s","736.0","NA","3849","NA","NA","736","2","legacy","1024","2","48000","-16","experiment","SSSSS","4","even","6933","NA","NA","119382","94852","2996","NA","NA","120423","3069","NA","NA","120526","121263","120416","120526","Lab 2-1","54","37916.0","63","1024"
"85","85","601","601","black","legacy","legacy","legacy","congruent","1","undefined","1","h","0","0","0","63","63","0","63","0","63","0","0","0","63","63","63","63","Wed Sep 20 11:08:49 2023","1500","The main experiment item","True","Lab2.1.osexp","/Users/test/Desktop","False","mono","False","18","no","white","no","yes","768","legacy","63","63","/Users/test/Downloads/at-subject-4.csv","legacy","Melodramatic Milgram","4.0.5","0","h","NA","return","NA","NA","h","593.0","NA","3849","NA","NA","593","2","legacy","1024","2","48000","-16","experiment","HHHHH","4","even","6933","NA","NA","121266","94852","2996","NA","NA","122308","3069","NA","NA","122413","123007","122302","122413","Lab 2-1","55","38509.0","64","1024"
"86","86","604","604","black","legacy","legacy","legacy","incongruent","1","undefined","1","s","0","0","0","64","64","0","64","0","64","0","0","0","64","64","64","64","Wed Sep 20 11:08:49 2023","1500","The main experiment item","True","Lab2.1.osexp","/Users/test/Desktop","False","mono","False","18","no","white","no","yes","768","legacy","64","64","/Users/test/Downloads/at-subject-4.csv","legacy","Melodramatic Milgram","4.0.5","0","s","NA","return","NA","NA","s","792.0","NA","3849","NA","NA","792","2","legacy","1024","2","48000","-16","experiment","HHSHH","4","even","6933","NA","NA","123011","94852","2996","NA","NA","124070","3069","NA","NA","124173","124967","124059","124173","Lab 2-1","56","39301.0","65","1024"
"86","86","604","604","black","legacy","legacy","legacy","congruent","1","undefined","1","s","0","0","0","65","65","0","65","0","65","0","0","0","65","65","65","65","Wed Sep 20 11:08:49 2023","1500","The main experiment item","True","Lab2.1.osexp","/Users/test/Desktop","False","mono","False","18","no","white","no","yes","768","legacy","65","65","/Users/test/Downloads/at-subject-4.csv","legacy","Melodramatic Milgram","4.0.5","0","s","NA","return","NA","NA","s","598.0","NA","3849","NA","NA","598","2","legacy","1024","2","48000","-16","experiment","SSSSS","4","even","6933","NA","NA","124971","94852","2996","NA","NA","126016","3069","NA","NA","126118","126717","126013","126118","Lab 2-1","57","39899.0","66","1024"
"86","86","602","602","black","legacy","legacy","legacy","incongruent","1","undefined","1","h","0","0","0","66","66","0","66","0","66","0","0","0","66","66","66","66","Wed Sep 20 11:08:49 2023","1500","The main experiment item","True","Lab2.1.osexp","/Users/test/Desktop","False","mono","False","18","no","white","no","yes","768","legacy","66","66","/Users/test/Downloads/at-subject-4.csv","legacy","Melodramatic Milgram","4.0.5","0","h","NA","return","NA","NA","h","500.0","NA","3849","NA","NA","500","2","legacy","1024","2","48000","-16","experiment","SSHSS","4","even","6933","NA","NA","126720","94852","2996","NA","NA","127769","3069","NA","NA","127874","128375","127764","127874","Lab 2-1","58","40399.0","67","1024"
"86","86","602","602","black","legacy","legacy","legacy","incongruent","1","undefined","1","s","0","0","0","67","67","0","67","0","67","0","0","0","67","67","67","67","Wed Sep 20 11:08:49 2023","1500","The main experiment item","True","Lab2.1.osexp","/Users/test/Desktop","False","mono","False","18","no","white","no","yes","768","legacy","67","67","/Users/test/Downloads/at-subject-4.csv","legacy","Melodramatic Milgram","4.0.5","0","s","NA","return","NA","NA","s","552.0","NA","3849","NA","NA","552","2","legacy","1024","2","48000","-16","experiment","HHSHH","4","even","6933","NA","NA","128378","94852","2996","NA","NA","129428","3069","NA","NA","129531","130084","129420","129531","Lab 2-1","59","40951.0","68","1024"
"86","86","600","600","black","legacy","legacy","legacy","incongruent","1","undefined","1","h","0","0","0","68","68","0","68","0","68","0","0","0","68","68","68","68","Wed Sep 20 11:08:49 2023","1500","The main experiment item","True","Lab2.1.osexp","/Users/test/Desktop","False","mono","False","18","no","white","no","yes","768","legacy","68","68","/Users/test/Downloads/at-subject-4.csv","legacy","Melodramatic Milgram","4.0.5","0","h","NA","return","NA","NA","h","482.0","NA","3849","NA","NA","482","2","legacy","1024","2","48000","-16","experiment","SSHSS","4","even","6933","NA","NA","130088","94852","2996","NA","NA","131142","3069","NA","NA","131245","131728","131139","131245","Lab 2-1","60","41433.0","69","1024"
"87","87","599","599","black","legacy","legacy","legacy","incongruent","1","undefined","1","s","0","0","0","69","69","0","69","0","69","0","0","0","69","69","69","69","Wed Sep 20 11:08:49 2023","1500","The main experiment item","True","Lab2.1.osexp","/Users/test/Desktop","False","mono","False","18","no","white","no","yes","768","legacy","69","69","/Users/test/Downloads/at-subject-4.csv","legacy","Melodramatic Milgram","4.0.5","0","s","NA","return","NA","NA","s","530.0","NA","3849","NA","NA","530","2","legacy","1024","2","48000","-16","experiment","HHSHH","4","even","6933","NA","NA","131731","94852","2996","NA","NA","132789","3069","NA","NA","132893","133424","132778","132893","Lab 2-1","61","41963.0","70","1024"
"87","87","597","597","black","legacy","legacy","legacy","incongruent","1","undefined","1","h","0","0","0","70","70","0","70","0","70","0","0","0","70","70","70","70","Wed Sep 20 11:08:49 2023","1500","The main experiment item","True","Lab2.1.osexp","/Users/test/Desktop","False","mono","False","18","no","white","no","yes","768","legacy","70","70","/Users/test/Downloads/at-subject-4.csv","legacy","Melodramatic Milgram","4.0.5","0","h","NA","return","NA","NA","h","469.0","NA","3849","NA","NA","469","2","legacy","1024","2","48000","-16","experiment","SSHSS","4","even","6933","NA","NA","133427","94852","2996","NA","NA","134465","3069","NA","NA","134569","135040","134461","134569","Lab 2-1","62","42432.0","71","1024"
"87","87","597","597","black","legacy","legacy","legacy","incongruent","1","undefined","1","h","0","0","0","71","71","0","71","0","71","0","0","0","71","71","71","71","Wed Sep 20 11:08:49 2023","1500","The main experiment item","True","Lab2.1.osexp","/Users/test/Desktop","False","mono","False","18","no","white","no","yes","768","legacy","71","71","/Users/test/Downloads/at-subject-4.csv","legacy","Melodramatic Milgram","4.0.5","0","h","NA","return","NA","NA","h","568.0","NA","3849","NA","NA","568","2","legacy","1024","2","48000","-16","experiment","SSHSS","4","even","6933","NA","NA","135043","94852","2996","NA","NA","136100","3069","NA","NA","136204","136773","136089","136203","Lab 2-1","63","43000.0","72","1024"
"87","87","596","596","black","legacy","legacy","legacy","incongruent","1","undefined","1","h","0","0","0","72","72","0","72","0","72","0","0","0","72","72","72","72","Wed Sep 20 11:08:49 2023","1500","The main experiment item","True","Lab2.1.osexp","/Users/test/Desktop","False","mono","False","18","no","white","no","yes","768","legacy","72","72","/Users/test/Downloads/at-subject-4.csv","legacy","Melodramatic Milgram","4.0.5","0","h","NA","return","NA","NA","h","509.0","NA","3849","NA","NA","509","2","legacy","1024","2","48000","-16","experiment","SSHSS","4","even","6933","NA","NA","136777","94852","2996","NA","NA","137827","3069","NA","NA","137932","138442","137818","137931","Lab 2-1","64","43509.0","73","1024"
"87","87","594","594","black","legacy","legacy","legacy","congruent","1","undefined","1","h","0","0","0","73","73","0","73","0","73","0","0","0","73","73","73","73","Wed Sep 20 11:08:49 2023","1500","The main experiment item","True","Lab2.1.osexp","/Users/test/Desktop","False","mono","False","18","no","white","no","yes","768","legacy","73","73","/Users/test/Downloads/at-subject-4.csv","legacy","Melodramatic Milgram","4.0.5","0","h","NA","return","NA","NA","h","514.0","NA","3849","NA","NA","514","2","legacy","1024","2","48000","-16","experiment","HHHHH","4","even","6933","NA","NA","138446","94852","2996","NA","NA","139497","3069","NA","NA","139600","140116","139487","139600","Lab 2-1","65","44023.0","74","1024"
"88","88","594","594","black","legacy","legacy","legacy","congruent","1","undefined","1","s","0","0","0","74","74","0","74","0","74","0","0","0","74","74","74","74","Wed Sep 20 11:08:49 2023","1500","The main experiment item","True","Lab2.1.osexp","/Users/test/Desktop","False","mono","False","18","no","white","no","yes","768","legacy","74","74","/Users/test/Downloads/at-subject-4.csv","legacy","Melodramatic Milgram","4.0.5","0","s","NA","return","NA","NA","s","585.0","NA","3849","NA","NA","585","2","legacy","1024","2","48000","-16","experiment","SSSSS","4","even","6933","NA","NA","140120","94852","2996","NA","NA","141176","3069","NA","NA","141281","141867","141164","141281","Lab 2-1","66","44608.0","75","1024"
"88","88","597","597","black","legacy","legacy","legacy","congruent","1","undefined","1","s","0","0","0","75","75","0","75","0","75","0","0","0","75","75","75","75","Wed Sep 20 11:08:49 2023","1500","The main experiment item","True","Lab2.1.osexp","/Users/test/Desktop","False","mono","False","18","no","white","no","yes","768","legacy","75","75","/Users/test/Downloads/at-subject-4.csv","legacy","Melodramatic Milgram","4.0.5","0","s","NA","return","NA","NA","s","799.0","NA","3849","NA","NA","799","2","legacy","1024","2","48000","-16","experiment","SSSSS","4","even","6933","NA","NA","141871","94852","2996","NA","NA","142915","3069","NA","NA","143018","143819","142911","143018","Lab 2-1","67","45407.0","76","1024"
"88","88","597","597","black","legacy","legacy","legacy","congruent","1","undefined","1","h","0","0","0","76","76","0","76","0","76","0","0","0","76","76","76","76","Wed Sep 20 11:08:49 2023","1500","The main experiment item","True","Lab2.1.osexp","/Users/test/Desktop","False","mono","False","18","no","white","no","yes","768","legacy","76","76","/Users/test/Downloads/at-subject-4.csv","legacy","Melodramatic Milgram","4.0.5","0","h","NA","return","NA","NA","h","581.0","NA","3849","NA","NA","581","2","legacy","1024","2","48000","-16","experiment","HHHHH","4","even","6933","NA","NA","143822","94852","2996","NA","NA","144878","3069","NA","NA","144982","145565","144872","144982","Lab 2-1","68","45988.0","77","1024"
"88","88","596","596","black","legacy","legacy","legacy","congruent","1","undefined","1","h","0","0","0","77","77","0","77","0","77","0","0","0","77","77","77","77","Wed Sep 20 11:08:49 2023","1500","The main experiment item","True","Lab2.1.osexp","/Users/test/Desktop","False","mono","False","18","no","white","no","yes","768","legacy","77","77","/Users/test/Downloads/at-subject-4.csv","legacy","Melodramatic Milgram","4.0.5","0","h","NA","return","NA","NA","h","500.0","NA","3849","NA","NA","500","2","legacy","1024","2","48000","-16","experiment","HHHHH","4","even","6933","NA","NA","145568","94852","2996","NA","NA","146607","3069","NA","NA","146712","147213","146602","146712","Lab 2-1","69","46488.0","78","1024"
"88","88","593","593","black","legacy","legacy","legacy","congruent","1","undefined","1","h","0","0","0","78","78","0","78","0","78","0","0","0","78","78","78","78","Wed Sep 20 11:08:49 2023","1500","The main experiment item","True","Lab2.1.osexp","/Users/test/Desktop","False","mono","False","18","no","white","no","yes","768","legacy","78","78","/Users/test/Downloads/at-subject-4.csv","legacy","Melodramatic Milgram","4.0.5","0","h","NA","return","NA","NA","h","368.0","NA","3849","NA","NA","368","2","legacy","1024","2","48000","-16","experiment","HHHHH","4","even","6933","NA","NA","147216","94852","2996","NA","NA","148259","3069","NA","NA","148363","148732","148253","148363","Lab 2-1","70","46856.0","79","1024"
"88","88","593","593","black","legacy","legacy","legacy","congruent","1","undefined","1","h","0","0","0","79","79","0","79","0","79","0","0","0","79","79","79","79","Wed Sep 20 11:08:49 2023","1500","The main experiment item","True","Lab2.1.osexp","/Users/test/Desktop","False","mono","False","18","no","white","no","yes","768","legacy","79","79","/Users/test/Downloads/at-subject-4.csv","legacy","Melodramatic Milgram","4.0.5","0","h","NA","return","NA","NA","h","624.0","NA","3849","NA","NA","624","2","legacy","1024","2","48000","-16","experiment","HHHHH","4","even","6933","NA","NA","148735","94852","2996","NA","NA","149781","3069","NA","NA","149884","150509","149776","149884","Lab 2-1","71","47480.0","80","1024"
"88","88","593","593","black","legacy","legacy","legacy","congruent","1","undefined","1","s","0","0","0","80","80","0","80","0","80","0","0","0","80","80","80","80","Wed Sep 20 11:08:49 2023","600","The main experiment item","True","Lab2.1.osexp","/Users/test/Desktop","False","mono","False","18","no","white","no","yes","768","legacy","0","79","/Users/test/Downloads/at-subject-4.csv","legacy","Melodramatic Milgram","4.0.5","0","s","NA","return","s","NA","s","631.0","NA","3849","4554","NA","631","2","legacy","1024","2","48000","-16","experiment","SSSSS","4","even","6933","156077","NA","150512","94852","2996","NA","NA","156130","3069","151521","NA","156232","156864","156127","156232","Lab 2-1","72","48111.0","81","1024"
"87","87","593","593","black","legacy","legacy","legacy","incongruent","0","undefined","0","h","0","0","0","81","81","0","81","0","81","0","0","0","81","81","81","81","Wed Sep 20 11:08:49 2023","600","The main experiment item","True","Lab2.1.osexp","/Users/test/Desktop","False","mono","False","18","no","white","no","yes","768","legacy","1","79","/Users/test/Downloads/at-subject-4.csv","legacy","Melodramatic Milgram","4.0.5","0","s","NA","return","s","NA","s","536.0","NA","3849","4554","NA","536","2","legacy","1024","2","48000","-16","experiment","SSHSS","4","even","6933","156077","NA","157371","94852","2996","156868","NA","158409","3069","151521","NA","158513","159051","158405","158512","Lab 2-1","72","48647.0","82","1024"
"87","87","592","592","black","legacy","legacy","legacy","congruent","1","undefined","1","s","0","0","0","82","82","0","82","0","82","0","0","0","82","82","82","82","Wed Sep 20 11:08:49 2023","600","The main experiment item","True","Lab2.1.osexp","/Users/test/Desktop","False","mono","False","18","no","white","no","yes","768","legacy","2","79","/Users/test/Downloads/at-subject-4.csv","legacy","Melodramatic Milgram","4.0.5","0","s","NA","return","s","NA","s","527.0","NA","3849","4554","NA","527","2","legacy","1024","2","48000","-16","experiment","SSSSS","4","even","6933","156077","NA","159557","159054","2996","156868","NA","160597","3069","151521","NA","160700","161228","160593","160700","Lab 2-1","73","49174.0","83","1024"
"88","88","589","589","black","legacy","legacy","legacy","congruent","1","undefined","1","h","0","0","0","83","83","0","83","0","83","0","0","0","83","83","83","83","Wed Sep 20 11:08:49 2023","600","The main experiment item","True","Lab2.1.osexp","/Users/test/Desktop","False","mono","False","18","no","white","no","yes","768","legacy","3","79","/Users/test/Downloads/at-subject-4.csv","legacy","Melodramatic Milgram","4.0.5","0","h","NA","return","s","NA","h","342.0","NA","3849","4554","NA","342","2","legacy","1024","2","48000","-16","experiment","HHHHH","4","even","6933","156077","NA","161232","159054","2996","156868","NA","162278","3069","151521","NA","162382","162725","162273","162382","Lab 2-1","74","49516.0","84","1024"
"88","88","586","586","black","legacy","legacy","legacy","incongruent","1","undefined","1","h","0","0","0","84","84","0","84","0","84","0","0","0","84","84","84","84","Wed Sep 20 11:08:49 2023","600","The main experiment item","True","Lab2.1.osexp","/Users/test/Desktop","False","mono","False","18","no","white","no","yes","768","legacy","4","79","/Users/test/Downloads/at-subject-4.csv","legacy","Melodramatic Milgram","4.0.5","0","h","NA","return","s","NA","h","377.0","NA","3849","4554","NA","377","2","legacy","1024","2","48000","-16","experiment","SSHSS","4","even","6933","156077","NA","162729","159054","2996","156868","NA","163774","3069","151521","NA","163877","164255","163770","163877","Lab 2-1","75","49893.0","85","1024"
"87","87","583","583","black","legacy","legacy","legacy","incongruent","0","undefined","0","h","0","0","0","85","85","0","85","0","85","0","0","0","85","85","85","85","Wed Sep 20 11:08:49 2023","600","The main experiment item","True","Lab2.1.osexp","/Users/test/Desktop","False","mono","False","18","no","white","no","yes","768","legacy","5","79","/Users/test/Downloads/at-subject-4.csv","legacy","Melodramatic Milgram","4.0.5","0","s","NA","return","s","NA","s","306.0","NA","3849","4554","NA","306","2","legacy","1024","2","48000","-16","experiment","SSHSS","4","even","6933","156077","NA","164259","159054","2996","156868","NA","165306","3069","151521","NA","165409","165716","165301","165409","Lab 2-1","75","50199.0","86","1024"
"87","87","583","583","black","legacy","legacy","legacy","incongruent","1","undefined","1","s","0","0","0","86","86","0","86","0","86","0","0","0","86","86","86","86","Wed Sep 20 11:08:49 2023","600","The main experiment item","True","Lab2.1.osexp","/Users/test/Desktop","False","mono","False","18","no","white","no","yes","768","legacy","6","79","/Users/test/Downloads/at-subject-4.csv","legacy","Melodramatic Milgram","4.0.5","0","s","NA","return","s","NA","s","536.0","NA","3849","4554","NA","536","2","legacy","1024","2","48000","-16","experiment","HHSHH","4","even","6933","156077","NA","166240","165736","2996","156868","NA","167287","3069","151521","NA","167391","167928","167283","167391","Lab 2-1","76","50735.0","87","1024"
"87","87","581","581","black","legacy","legacy","legacy","incongruent","1","undefined","1","h","0","0","0","87","87","0","87","0","87","0","0","0","87","87","87","87","Wed Sep 20 11:08:49 2023","600","The main experiment item","True","Lab2.1.osexp","/Users/test/Desktop","False","mono","False","18","no","white","no","yes","768","legacy","7","79","/Users/test/Downloads/at-subject-4.csv","legacy","Melodramatic Milgram","4.0.5","0","h","NA","return","s","NA","h","470.0","NA","3849","4554","NA","470","2","legacy","1024","2","48000","-16","experiment","SSHSS","4","even","6933","156077","NA","167931","165736","2996","156868","NA","168976","3069","151521","NA","169079","169550","168972","169079","Lab 2-1","77","51205.0","88","1024"
"87","87","580","580","black","legacy","legacy","legacy","congruent","1","undefined","1","s","0","0","0","88","88","0","88","0","88","0","0","0","88","88","88","88","Wed Sep 20 11:08:49 2023","600","The main experiment item","True","Lab2.1.osexp","/Users/test/Desktop","False","mono","False","18","no","white","no","yes","768","legacy","8","79","/Users/test/Downloads/at-subject-4.csv","legacy","Melodramatic Milgram","4.0.5","0","s","NA","return","s","NA","s","465.0","NA","3849","4554","NA","465","2","legacy","1024","2","48000","-16","experiment","SSSSS","4","even","6933","156077","NA","169554","165736","2996","156868","NA","170601","3069","151521","NA","170704","171170","170597","170704","Lab 2-1","78","51670.0","89","1024"
"87","87","579","579","black","legacy","legacy","legacy","incongruent","1","undefined","1","h","0","0","0","89","89","0","89","0","89","0","0","0","89","89","89","89","Wed Sep 20 11:08:49 2023","600","The main experiment item","True","Lab2.1.osexp","/Users/test/Desktop","False","mono","False","18","no","white","no","yes","768","legacy","9","79","/Users/test/Downloads/at-subject-4.csv","legacy","Melodramatic Milgram","4.0.5","0","h","NA","return","s","NA","h","497.0","NA","3849","4554","NA","497","2","legacy","1024","2","48000","-16","experiment","SSHSS","4","even","6933","156077","NA","171174","165736","2996","156868","NA","172221","3069","151521","NA","172324","172822","172216","172324","Lab 2-1","79","52167.0","90","1024"
"87","87","577","577","black","legacy","legacy","legacy","congruent","1","undefined","1","h","0","0","0","90","90","0","90","0","90","0","0","0","90","90","90","90","Wed Sep 20 11:08:49 2023","600","The main experiment item","True","Lab2.1.osexp","/Users/test/Desktop","False","mono","False","18","no","white","no","yes","768","legacy","10","79","/Users/test/Downloads/at-subject-4.csv","legacy","Melodramatic Milgram","4.0.5","0","h","NA","return","s","NA","h","405.0","NA","3849","4554","NA","405","2","legacy","1024","2","48000","-16","experiment","HHHHH","4","even","6933","156077","NA","172825","165736","2996","156868","NA","173867","3069","151521","NA","173971","174378","173862","173971","Lab 2-1","80","52572.0","91","1024"
"88","88","576","576","black","legacy","legacy","legacy","incongruent","1","undefined","1","s","0","0","0","91","91","0","91","0","91","0","0","0","91","91","91","91","Wed Sep 20 11:08:49 2023","600","The main experiment item","True","Lab2.1.osexp","/Users/test/Desktop","False","mono","False","18","no","white","no","yes","768","legacy","11","79","/Users/test/Downloads/at-subject-4.csv","legacy","Melodramatic Milgram","4.0.5","0","s","NA","return","s","NA","s","468.0","NA","3849","4554","NA","468","2","legacy","1024","2","48000","-16","experiment","HHSHH","4","even","6933","156077","NA","174381","165736","2996","156868","NA","175430","3069","151521","NA","175533","176002","175426","175532","Lab 2-1","81","53040.0","92","1024"
"88","88","575","575","black","legacy","legacy","legacy","congruent","1","undefined","1","s","0","0","0","92","92","0","92","0","92","0","0","0","92","92","92","92","Wed Sep 20 11:08:49 2023","600","The main experiment item","True","Lab2.1.osexp","/Users/test/Desktop","False","mono","False","18","no","white","no","yes","768","legacy","12","79","/Users/test/Downloads/at-subject-4.csv","legacy","Melodramatic Milgram","4.0.5","0","s","NA","return","s","NA","s","459.0","NA","3849","4554","NA","459","2","legacy","1024","2","48000","-16","experiment","SSSSS","4","even","6933","156077","NA","176006","165736","2996","156868","NA","177058","3069","151521","NA","177162","177623","177055","177162","Lab 2-1","82","53499.0","93","1024"
"87","87","572","572","black","legacy","legacy","legacy","incongruent","0","undefined","0","s","0","0","0","93","93","0","93","0","93","0","0","0","93","93","93","93","Wed Sep 20 11:08:49 2023","600","The main experiment item","True","Lab2.1.osexp","/Users/test/Desktop","False","mono","False","18","no","white","no","yes","768","legacy","13","79","/Users/test/Downloads/at-subject-4.csv","legacy","Melodramatic Milgram","4.0.5","0","h","NA","return","s","NA","h","319.0","NA","3849","4554","NA","319","2","legacy","1024","2","48000","-16","experiment","HHSHH","4","even","6933","156077","NA","177626","165736","2996","156868","NA","178673","3069","151521","NA","178776","179096","178669","178776","Lab 2-1","82","53818.0","94","1024"
"86","86","571","571","black","legacy","legacy","legacy","incongruent","0","undefined","0","s","0","0","0","94","94","0","94","0","94","0","0","0","94","94","94","94","Wed Sep 20 11:08:49 2023","600","The main experiment item","True","Lab2.1.osexp","/Users/test/Desktop","False","mono","False","18","no","white","no","yes","768","legacy","14","79","/Users/test/Downloads/at-subject-4.csv","legacy","Melodramatic Milgram","4.0.5","0","h","NA","return","s","NA","h","446.0","NA","3849","4554","NA","446","2","legacy","1024","2","48000","-16","experiment","HHSHH","4","even","6933","156077","NA","179604","179100","2996","156868","NA","180651","3069","151521","NA","180756","181203","180648","180756","Lab 2-1","82","54264.0","95","1024"
"86","86","572","572","black","legacy","legacy","legacy","congruent","1","undefined","1","h","0","0","0","95","95","0","95","0","95","0","0","0","95","95","95","95","Wed Sep 20 11:08:49 2023","600","The main experiment item","True","Lab2.1.osexp","/Users/test/Desktop","False","mono","False","18","no","white","no","yes","768","legacy","15","79","/Users/test/Downloads/at-subject-4.csv","legacy","Melodramatic Milgram","4.0.5","0","h","NA","return","s","NA","h","721.0","NA","3849","4554","NA","721","2","legacy","1024","2","48000","-16","experiment","HHHHH","4","even","6933","156077","NA","181710","181206","2996","156868","NA","182765","3069","151521","NA","182868","183590","182761","182868","Lab 2-1","83","54985.0","96","1024"
"86","86","574","574","black","legacy","legacy","legacy","incongruent","1","undefined","1","h","0","0","0","96","96","0","96","0","96","0","0","0","96","96","96","96","Wed Sep 20 11:08:49 2023","600","The main experiment item","True","Lab2.1.osexp","/Users/test/Desktop","False","mono","False","18","no","white","no","yes","768","legacy","16","79","/Users/test/Downloads/at-subject-4.csv","legacy","Melodramatic Milgram","4.0.5","0","h","NA","return","s","NA","h","769.0","NA","3849","4554","NA","769","2","legacy","1024","2","48000","-16","experiment","SSHSS","4","even","6933","156077","NA","184097","181206","2996","183593","NA","185140","3069","151521","NA","185243","186014","185136","185243","Lab 2-1","84","55754.0","97","1024"
"85","85","573","573","black","legacy","legacy","legacy","incongruent","0","undefined","0","h","0","0","0","97","97","0","97","0","97","0","0","0","97","97","97","97","Wed Sep 20 11:08:49 2023","600","The main experiment item","True","Lab2.1.osexp","/Users/test/Desktop","False","mono","False","18","no","white","no","yes","768","legacy","17","79","/Users/test/Downloads/at-subject-4.csv","legacy","Melodramatic Milgram","4.0.5","0","s","NA","return","s","NA","s","447.0","NA","3849","4554","NA","447","2","legacy","1024","2","48000","-16","experiment","SSHSS","4","even","6933","156077","NA","186521","181206","2996","186017","NA","187561","3069","151521","NA","187664","188112","187557","187664","Lab 2-1","84","56201.0","98","1024"
"85","85","573","573","black","legacy","legacy","legacy","incongruent","1","undefined","1","s","0","0","0","98","98","0","98","0","98","0","0","0","98","98","98","98","Wed Sep 20 11:08:49 2023","600","The main experiment item","True","Lab2.1.osexp","/Users/test/Desktop","False","mono","False","18","no","white","no","yes","768","legacy","18","79","/Users/test/Downloads/at-subject-4.csv","legacy","Melodramatic Milgram","4.0.5","0","s","NA","return","s","NA","s","589.0","NA","3849","4554","NA","589","2","legacy","1024","2","48000","-16","experiment","HHSHH","4","even","6933","156077","NA","188619","188116","2996","186017","NA","189664","3069","151521","NA","189767","190357","189661","189767","Lab 2-1","85","56790.0","99","1024"
"86","86","572","572","black","legacy","legacy","legacy","congruent","1","undefined","1","h","0","0","0","99","99","0","99","0","99","0","0","0","99","99","99","99","Wed Sep 20 11:08:49 2023","600","The main experiment item","True","Lab2.1.osexp","/Users/test/Desktop","False","mono","False","18","no","white","no","yes","768","legacy","19","79","/Users/test/Downloads/at-subject-4.csv","legacy","Melodramatic Milgram","4.0.5","0","h","NA","return","s","NA","h","474.0","NA","3849","4554","NA","474","2","legacy","1024","2","48000","-16","experiment","HHHHH","4","even","6933","156077","NA","190360","188116","2996","186017","NA","191406","3069","151521","NA","191509","191984","191401","191509","Lab 2-1","86","57264.0","100","1024"
"86","86","571","571","black","legacy","legacy","legacy","congruent","1","undefined","1","h","0","0","0","100","100","0","100","0","100","0","0","0","100","100","100","100","Wed Sep 20 11:08:49 2023","600","The main experiment item","True","Lab2.1.osexp","/Users/test/Desktop","False","mono","False","18","no","white","no","yes","768","legacy","20","79","/Users/test/Downloads/at-subject-4.csv","legacy","Melodramatic Milgram","4.0.5","0","h","NA","return","s","NA","h","442.0","NA","3849","4554","NA","442","2","legacy","1024","2","48000","-16","experiment","HHHHH","4","even","6933","156077","NA","191988","188116","2996","186017","NA","193032","3069","151521","NA","193135","193578","193029","193135","Lab 2-1","87","57706.0","101","1024"
"86","86","569","569","black","legacy","legacy","legacy","congruent","1","undefined","1","h","0","0","0","101","101","0","101","0","101","0","0","0","101","101","101","101","Wed Sep 20 11:08:49 2023","600","The main experiment item","True","Lab2.1.osexp","/Users/test/Desktop","False","mono","False","18","no","white","no","yes","768","legacy","21","79","/Users/test/Downloads/at-subject-4.csv","legacy","Melodramatic Milgram","4.0.5","0","h","NA","return","s","NA","h","401.0","NA","3849","4554","NA","401","2","legacy","1024","2","48000","-16","experiment","HHHHH","4","even","6933","156077","NA","193581","188116","2996","186017","NA","194625","3069","151521","NA","194729","195132","194622","194729","Lab 2-1","88","58107.0","102","1024"
"86","86","569","569","black","legacy","legacy","legacy","incongruent","1","undefined","1","h","0","0","0","102","102","0","102","0","102","0","0","0","102","102","102","102","Wed Sep 20 11:08:49 2023","600","The main experiment item","True","Lab2.1.osexp","/Users/test/Desktop","False","mono","False","18","no","white","no","yes","768","legacy","22","79","/Users/test/Downloads/at-subject-4.csv","legacy","Melodramatic Milgram","4.0.5","0","h","NA","return","s","NA","h","552.0","NA","3849","4554","NA","552","2","legacy","1024","2","48000","-16","experiment","SSHSS","4","even","6933","156077","NA","195136","188116","2996","186017","NA","196181","3069","151521","NA","196285","196839","196178","196285","Lab 2-1","89","58659.0","103","1024"
"86","86","569","569","black","legacy","legacy","legacy","congruent","1","undefined","1","s","0","0","0","103","103","0","103","0","103","0","0","0","103","103","103","103","Wed Sep 20 11:08:49 2023","600","The main experiment item","True","Lab2.1.osexp","/Users/test/Desktop","False","mono","False","18","no","white","no","yes","768","legacy","23","79","/Users/test/Downloads/at-subject-4.csv","legacy","Melodramatic Milgram","4.0.5","0","s","NA","return","s","NA","s","595.0","NA","3849","4554","NA","595","2","legacy","1024","2","48000","-16","experiment","SSSSS","4","even","6933","156077","NA","196842","188116","2996","186017","NA","197891","3069","151521","NA","197995","198592","197888","197995","Lab 2-1","90","59254.0","104","1024"
"86","86","568","568","black","legacy","legacy","legacy","congruent","1","undefined","1","s","0","0","0","104","104","0","104","0","104","0","0","0","104","104","104","104","Wed Sep 20 11:08:49 2023","600","The main experiment item","True","Lab2.1.osexp","/Users/test/Desktop","False","mono","False","18","no","white","no","yes","768","legacy","24","79","/Users/test/Downloads/at-subject-4.csv","legacy","Melodramatic Milgram","4.0.5","0","s","NA","return","s","NA","s","479.0","NA","3849","4554","NA","479","2","legacy","1024","2","48000","-16","experiment","SSSSS","4","even","6933","156077","NA","198596","188116","2996","186017","NA","199629","3069","151521","NA","199732","200213","199626","199732","Lab 2-1","91","59733.0","105","1024"
"86","86","570","570","black","legacy","legacy","legacy","congruent","1","undefined","1","s","0","0","0","105","105","0","105","0","105","0","0","0","105","105","105","105","Wed Sep 20 11:08:49 2023","600","The main experiment item","True","Lab2.1.osexp","/Users/test/Desktop","False","mono","False","18","no","white","no","yes","768","legacy","25","79","/Users/test/Downloads/at-subject-4.csv","legacy","Melodramatic Milgram","4.0.5","0","s","NA","return","s","NA","s","751.0","NA","3849","4554","NA","751","2","legacy","1024","2","48000","-16","experiment","SSSSS","4","even","6933","156077","NA","200218","188116","2996","186017","NA","201258","3069","151521","NA","201362","202114","201255","201362","Lab 2-1","92","60484.0","106","1024"
"86","86","569","569","black","legacy","legacy","legacy","incongruent","1","undefined","1","h","0","0","0","106","106","0","106","0","106","0","0","0","106","106","106","106","Wed Sep 20 11:08:49 2023","600","The main experiment item","True","Lab2.1.osexp","/Users/test/Desktop","False","mono","False","18","no","white","no","yes","768","legacy","26","79","/Users/test/Downloads/at-subject-4.csv","legacy","Melodramatic Milgram","4.0.5","0","h","NA","return","s","NA","h","501.0","NA","3849","4554","NA","501","2","legacy","1024","2","48000","-16","experiment","SSHSS","4","even","6933","156077","NA","202655","188116","2996","202151","NA","203697","3069","151521","NA","203801","204303","203694","203801","Lab 2-1","93","60985.0","107","1024"
"87","87","569","569","black","legacy","legacy","legacy","congruent","1","undefined","1","h","0","0","0","107","107","0","107","0","107","0","0","0","107","107","107","107","Wed Sep 20 11:08:49 2023","600","The main experiment item","True","Lab2.1.osexp","/Users/test/Desktop","False","mono","False","18","no","white","no","yes","768","legacy","27","79","/Users/test/Downloads/at-subject-4.csv","legacy","Melodramatic Milgram","4.0.5","0","h","NA","return","s","NA","h","476.0","NA","3849","4554","NA","476","2","legacy","1024","2","48000","-16","experiment","HHHHH","4","even","6933","156077","NA","204306","188116","2996","202151","NA","205350","3069","151521","NA","205455","205932","205347","205454","Lab 2-1","94","61461.0","108","1024"
"87","87","567","567","black","legacy","legacy","legacy","congruent","1","undefined","1","h","0","0","0","108","108","0","108","0","108","0","0","0","108","108","108","108","Wed Sep 20 11:08:49 2023","600","The main experiment item","True","Lab2.1.osexp","/Users/test/Desktop","False","mono","False","18","no","white","no","yes","768","legacy","28","79","/Users/test/Downloads/at-subject-4.csv","legacy","Melodramatic Milgram","4.0.5","0","h","NA","return","s","NA","h","411.0","NA","3849","4554","NA","411","2","legacy","1024","2","48000","-16","experiment","HHHHH","4","even","6933","156077","NA","205935","188116","2996","202151","NA","206980","3069","151521","NA","207083","207495","206977","207083","Lab 2-1","95","61872.0","109","1024"
"87","87","567","567","black","legacy","legacy","legacy","incongruent","1","undefined","1","h","0","0","0","109","109","0","109","0","109","0","0","0","109","109","109","109","Wed Sep 20 11:08:49 2023","600","The main experiment item","True","Lab2.1.osexp","/Users/test/Desktop","False","mono","False","18","no","white","no","yes","768","legacy","29","79","/Users/test/Downloads/at-subject-4.csv","legacy","Melodramatic Milgram","4.0.5","0","h","NA","return","s","NA","h","547.0","NA","3849","4554","NA","547","2","legacy","1024","2","48000","-16","experiment","SSHSS","4","even","6933","156077","NA","207498","188116","2996","202151","NA","208545","3069","151521","NA","208649","209198","208542","208649","Lab 2-1","96","62419.0","110","1024"
"87","87","567","567","black","legacy","legacy","legacy","incongruent","1","undefined","1","s","0","0","0","110","110","0","110","0","110","0","0","0","110","110","110","110","Wed Sep 20 11:08:49 2023","600","The main experiment item","True","Lab2.1.osexp","/Users/test/Desktop","False","mono","False","18","no","white","no","yes","768","legacy","30","79","/Users/test/Downloads/at-subject-4.csv","legacy","Melodramatic Milgram","4.0.5","0","s","NA","return","s","NA","s","625.0","NA","3849","4554","NA","625","2","legacy","1024","2","48000","-16","experiment","HHSHH","4","even","6933","156077","NA","209201","188116","2996","202151","NA","210256","3069","151521","NA","210360","210987","210252","210359","Lab 2-1","97","63044.0","111","1024"
"87","87","570","570","black","legacy","legacy","legacy","incongruent","1","undefined","1","s","0","0","0","111","111","0","111","0","111","0","0","0","111","111","111","111","Wed Sep 20 11:08:49 2023","600","The main experiment item","True","Lab2.1.osexp","/Users/test/Desktop","False","mono","False","18","no","white","no","yes","768","legacy","31","79","/Users/test/Downloads/at-subject-4.csv","legacy","Melodramatic Milgram","4.0.5","0","s","NA","return","s","NA","s","796.0","NA","3849","4554","NA","796","2","legacy","1024","2","48000","-16","experiment","HHSHH","4","even","6933","156077","NA","211493","188116","2996","210990","NA","212529","3069","151521","NA","212633","213430","212527","212633","Lab 2-1","98","63840.0","112","1024"
"87","87","569","569","black","legacy","legacy","legacy","congruent","1","undefined","1","h","0","0","0","112","112","0","112","0","112","0","0","0","112","112","112","112","Wed Sep 20 11:08:49 2023","600","The main experiment item","True","Lab2.1.osexp","/Users/test/Desktop","False","mono","False","18","no","white","no","yes","768","legacy","32","79","/Users/test/Downloads/at-subject-4.csv","legacy","Melodramatic Milgram","4.0.5","0","h","NA","return","s","NA","h","515.0","NA","3849","4554","NA","515","2","legacy","1024","2","48000","-16","experiment","HHHHH","4","even","6933","156077","NA","213936","188116","2996","213433","NA","214974","3069","151521","NA","215077","215594","214971","215076","Lab 2-1","99","64355.0","113","1024"
"87","87","569","569","black","legacy","legacy","legacy","incongruent","1","undefined","1","s","0","0","0","113","113","0","113","0","113","0","0","0","113","113","113","113","Wed Sep 20 11:08:49 2023","600","The main experiment item","True","Lab2.1.osexp","/Users/test/Desktop","False","mono","False","18","no","white","no","yes","768","legacy","33","79","/Users/test/Downloads/at-subject-4.csv","legacy","Melodramatic Milgram","4.0.5","0","s","NA","return","s","NA","s","614.0","NA","3849","4554","NA","614","2","legacy","1024","2","48000","-16","experiment","HHSHH","4","even","6933","156077","NA","215597","188116","2996","213433","NA","216642","3069","151521","NA","216745","217361","216638","216745","Lab 2-1","100","64969.0","114","1024"
"87","87","569","569","black","legacy","legacy","legacy","incongruent","1","undefined","1","s","0","0","0","114","114","0","114","0","114","0","0","0","114","114","114","114","Wed Sep 20 11:08:49 2023","600","The main experiment item","True","Lab2.1.osexp","/Users/test/Desktop","False","mono","False","18","no","white","no","yes","768","legacy","34","79","/Users/test/Downloads/at-subject-4.csv","legacy","Melodramatic Milgram","4.0.5","0","s","NA","return","s","NA","s","572.0","NA","3849","4554","NA","572","2","legacy","1024","2","48000","-16","experiment","HHSHH","4","even","6933","156077","NA","217867","188116","2996","217364","NA","218910","3069","151521","NA","219013","219586","218908","219013","Lab 2-1","101","65541.0","115","1024"
"87","87","569","569","black","legacy","legacy","legacy","congruent","1","undefined","1","s","0","0","0","115","115","0","115","0","115","0","0","0","115","115","115","115","Wed Sep 20 11:08:49 2023","600","The main experiment item","True","Lab2.1.osexp","/Users/test/Desktop","False","mono","False","18","no","white","no","yes","768","legacy","35","79","/Users/test/Downloads/at-subject-4.csv","legacy","Melodramatic Milgram","4.0.5","0","s","NA","return","s","NA","s","543.0","NA","3849","4554","NA","543","2","legacy","1024","2","48000","-16","experiment","SSSSS","4","even","6933","156077","NA","219589","188116","2996","217364","NA","220631","3069","151521","NA","220734","221279","220627","220734","Lab 2-1","102","66084.0","116","1024"
"88","88","568","568","black","legacy","legacy","legacy","congruent","1","undefined","1","s","0","0","0","116","116","0","116","0","116","0","0","0","116","116","116","116","Wed Sep 20 11:08:49 2023","600","The main experiment item","True","Lab2.1.osexp","/Users/test/Desktop","False","mono","False","18","no","white","no","yes","768","legacy","36","79","/Users/test/Downloads/at-subject-4.csv","legacy","Melodramatic Milgram","4.0.5","0","s","NA","return","s","NA","s","475.0","NA","3849","4554","NA","475","2","legacy","1024","2","48000","-16","experiment","SSSSS","4","even","6933","156077","NA","221282","188116","2996","217364","NA","222325","3069","151521","NA","222429","222905","222322","222429","Lab 2-1","103","66559.0","117","1024"
"88","88","569","569","black","legacy","legacy","legacy","incongruent","1","undefined","1","h","0","0","0","117","117","0","117","0","117","0","0","0","117","117","117","117","Wed Sep 20 11:08:49 2023","600","The main experiment item","True","Lab2.1.osexp","/Users/test/Desktop","False","mono","False","18","no","white","no","yes","768","legacy","37","79","/Users/test/Downloads/at-subject-4.csv","legacy","Melodramatic Milgram","4.0.5","0","h","NA","return","s","NA","h","646.0","NA","3849","4554","NA","646","2","legacy","1024","2","48000","-16","experiment","SSHSS","4","even","6933","156077","NA","222908","188116","2996","217364","NA","223954","3069","151521","NA","224057","224704","223951","224057","Lab 2-1","104","67205.0","118","1024"
"88","88","569","569","black","legacy","legacy","legacy","incongruent","1","undefined","1","h","0","0","0","118","118","0","118","0","118","0","0","0","118","118","118","118","Wed Sep 20 11:08:49 2023","600","The main experiment item","True","Lab2.1.osexp","/Users/test/Desktop","False","mono","False","18","no","white","no","yes","768","legacy","38","79","/Users/test/Downloads/at-subject-4.csv","legacy","Melodramatic Milgram","4.0.5","0","h","NA","return","s","NA","h","568.0","NA","3849","4554","NA","568","2","legacy","1024","2","48000","-16","experiment","SSHSS","4","even","6933","156077","NA","225211","188116","2996","224708","NA","226261","3069","151521","NA","226365","226935","226257","226364","Lab 2-1","105","67773.0","119","1024"
"88","88","571","571","black","legacy","legacy","legacy","congruent","1","undefined","1","s","0","0","0","119","119","0","119","0","119","0","0","0","119","119","119","119","Wed Sep 20 11:08:49 2023","600","The main experiment item","True","Lab2.1.osexp","/Users/test/Desktop","False","mono","False","18","no","white","no","yes","768","legacy","39","79","/Users/test/Downloads/at-subject-4.csv","legacy","Melodramatic Milgram","4.0.5","0","s","NA","return","s","NA","s","825.0","NA","3849","4554","NA","825","2","legacy","1024","2","48000","-16","experiment","SSSSS","4","even","6933","156077","NA","226938","188116","2996","224708","NA","227976","3069","151521","NA","228080","228907","227972","228079","Lab 2-1","106","68598.0","120","1024"
"88","88","572","572","black","legacy","legacy","legacy","congruent","1","undefined","1","h","0","0","0","120","120","0","120","0","120","0","0","0","120","120","120","120","Wed Sep 20 11:08:49 2023","600","The main experiment item","True","Lab2.1.osexp","/Users/test/Desktop","False","mono","False","18","no","white","no","yes","768","legacy","40","79","/Users/test/Downloads/at-subject-4.csv","legacy","Melodramatic Milgram","4.0.5","0","h","NA","return","s","NA","h","671.0","NA","3849","4554","NA","671","2","legacy","1024","2","48000","-16","experiment","HHHHH","4","even","6933","156077","NA","229414","188116","2996","228911","NA","230455","3069","151521","NA","230558","231230","230450","230558","Lab 2-1","107","69269.0","121","1024"
"88","88","573","573","black","legacy","legacy","legacy","incongruent","1","undefined","1","s","0","0","0","121","121","0","121","0","121","0","0","0","121","121","121","121","Wed Sep 20 11:08:49 2023","600","The main experiment item","True","Lab2.1.osexp","/Users/test/Desktop","False","mono","False","18","no","white","no","yes","768","legacy","41","79","/Users/test/Downloads/at-subject-4.csv","legacy","Melodramatic Milgram","4.0.5","0","s","NA","return","s","NA","s","672.0","NA","3849","4554","NA","672","2","legacy","1024","2","48000","-16","experiment","HHSHH","4","even","6933","156077","NA","231738","188116","2996","231234","NA","232784","3069","151521","NA","232887","233560","232779","232887","Lab 2-1","108","69941.0","122","1024"
"88","88","573","573","black","legacy","legacy","legacy","incongruent","1","undefined","1","s","0","0","0","122","122","0","122","0","122","0","0","0","122","122","122","122","Wed Sep 20 11:08:49 2023","600","The main experiment item","True","Lab2.1.osexp","/Users/test/Desktop","False","mono","False","18","no","white","no","yes","768","legacy","42","79","/Users/test/Downloads/at-subject-4.csv","legacy","Melodramatic Milgram","4.0.5","0","s","NA","return","s","NA","s","607.0","NA","3849","4554","NA","607","2","legacy","1024","2","48000","-16","experiment","HHSHH","4","even","6933","156077","NA","234067","188116","2996","233563","NA","235121","3069","151521","NA","235223","235832","235117","235223","Lab 2-1","109","70548.0","123","1024"
"87","87","572","572","black","legacy","legacy","legacy","congruent","0","undefined","0","s","0","0","0","123","123","0","123","0","123","0","0","0","123","123","123","123","Wed Sep 20 11:08:49 2023","600","The main experiment item","True","Lab2.1.osexp","/Users/test/Desktop","False","mono","False","18","no","white","no","yes","768","legacy","43","79","/Users/test/Downloads/at-subject-4.csv","legacy","Melodramatic Milgram","4.0.5","0","h","NA","return","s","NA","h","387.0","NA","3849","4554","NA","387","2","legacy","1024","2","48000","-16","experiment","SSSSS","4","even","6933","156077","NA","236338","188116","2996","235835","NA","237381","3069","151521","NA","237484","237873","237379","237484","Lab 2-1","109","70935.0","124","1024"
"88","88","573","573","black","legacy","legacy","legacy","incongruent","1","undefined","1","s","0","0","0","124","124","0","124","0","124","0","0","0","124","124","124","124","Wed Sep 20 11:08:49 2023","600","The main experiment item","True","Lab2.1.osexp","/Users/test/Desktop","False","mono","False","18","no","white","no","yes","768","legacy","44","79","/Users/test/Downloads/at-subject-4.csv","legacy","Melodramatic Milgram","4.0.5","0","s","NA","return","s","NA","s","791.0","NA","3849","4554","NA","791","2","legacy","1024","2","48000","-16","experiment","HHSHH","4","even","6933","156077","NA","238380","237876","2996","235835","NA","239425","3069","151521","NA","239529","240321","239422","239528","Lab 2-1","110","71726.0","125","1024"
"88","88","575","575","black","legacy","legacy","legacy","incongruent","1","undefined","1","s","0","0","0","125","125","0","125","0","125","0","0","0","125","125","125","125","Wed Sep 20 11:08:49 2023","600","The main experiment item","True","Lab2.1.osexp","/Users/test/Desktop","False","mono","False","18","no","white","no","yes","768","legacy","45","79","/Users/test/Downloads/at-subject-4.csv","legacy","Melodramatic Milgram","4.0.5","0","s","NA","return","s","NA","s","831.0","NA","3849","4554","NA","831","2","legacy","1024","2","48000","-16","experiment","HHSHH","4","even","6933","156077","NA","240828","237876","2996","240325","NA","241912","3069","151521","NA","242016","242848","241909","242015","Lab 2-1","111","72557.0","126","1024"
"88","88","575","575","black","legacy","legacy","legacy","congruent","1","undefined","1","s","0","0","0","126","126","0","126","0","126","0","0","0","126","126","126","126","Wed Sep 20 11:08:49 2023","600","The main experiment item","True","Lab2.1.osexp","/Users/test/Desktop","False","mono","False","18","no","white","no","yes","768","legacy","46","79","/Users/test/Downloads/at-subject-4.csv","legacy","Melodramatic Milgram","4.0.5","0","s","NA","return","s","NA","s","590.0","NA","3849","4554","NA","590","2","legacy","1024","2","48000","-16","experiment","SSSSS","4","even","6933","156077","NA","243356","237876","2996","242851","NA","244393","3069","151521","NA","244496","245088","244389","244496","Lab 2-1","112","73147.0","127","1024"
"88","88","576","576","black","legacy","legacy","legacy","incongruent","1","undefined","1","s","0","0","0","127","127","0","127","0","127","0","0","0","127","127","127","127","Wed Sep 20 11:08:49 2023","600","The main experiment item","True","Lab2.1.osexp","/Users/test/Desktop","False","mono","False","18","no","white","no","yes","768","legacy","47","79","/Users/test/Downloads/at-subject-4.csv","legacy","Melodramatic Milgram","4.0.5","0","s","NA","return","s","NA","s","649.0","NA","3849","4554","NA","649","2","legacy","1024","2","48000","-16","experiment","HHSHH","4","even","6933","156077","NA","245092","237876","2996","242851","NA","246137","3069","151521","NA","246241","246891","246134","246241","Lab 2-1","113","73796.0","128","1024"
"88","88","576","576","black","legacy","legacy","legacy","incongruent","1","undefined","1","h","0","0","0","128","128","0","128","0","128","0","0","0","128","128","128","128","Wed Sep 20 11:08:49 2023","600","The main experiment item","True","Lab2.1.osexp","/Users/test/Desktop","False","mono","False","18","no","white","no","yes","768","legacy","48","79","/Users/test/Downloads/at-subject-4.csv","legacy","Melodramatic Milgram","4.0.5","0","h","NA","return","s","NA","h","581.0","NA","3849","4554","NA","581","2","legacy","1024","2","48000","-16","experiment","SSHSS","4","even","6933","156077","NA","247397","237876","2996","246894","NA","248440","3069","151521","NA","248543","249126","248437","248543","Lab 2-1","114","74377.0","129","1024"
"88","88","575","575","black","legacy","legacy","legacy","congruent","1","undefined","1","s","0","0","0","129","129","0","129","0","129","0","0","0","129","129","129","129","Wed Sep 20 11:08:49 2023","600","The main experiment item","True","Lab2.1.osexp","/Users/test/Desktop","False","mono","False","18","no","white","no","yes","768","legacy","49","79","/Users/test/Downloads/at-subject-4.csv","legacy","Melodramatic Milgram","4.0.5","0","s","NA","return","s","NA","s","423.0","NA","3849","4554","NA","423","2","legacy","1024","2","48000","-16","experiment","SSSSS","4","even","6933","156077","NA","249129","237876","2996","246894","NA","250176","3069","151521","NA","250279","250703","250173","250279","Lab 2-1","115","74800.0","130","1024"
"88","88","574","574","black","legacy","legacy","legacy","congruent","1","undefined","1","s","0","0","0","130","130","0","130","0","130","0","0","0","130","130","130","130","Wed Sep 20 11:08:49 2023","600","The main experiment item","True","Lab2.1.osexp","/Users/test/Desktop","False","mono","False","18","no","white","no","yes","768","legacy","50","79","/Users/test/Downloads/at-subject-4.csv","legacy","Melodramatic Milgram","4.0.5","0","s","NA","return","s","NA","s","424.0","NA","3849","4554","NA","424","2","legacy","1024","2","48000","-16","experiment","SSSSS","4","even","6933","156077","NA","250707","237876","2996","246894","NA","251750","3069","151521","NA","251854","252279","251747","251854","Lab 2-1","116","75224.0","131","1024"
"88","88","574","574","black","legacy","legacy","legacy","incongruent","1","undefined","1","h","0","0","0","131","131","0","131","0","131","0","0","0","131","131","131","131","Wed Sep 20 11:08:49 2023","600","The main experiment item","True","Lab2.1.osexp","/Users/test/Desktop","False","mono","False","18","no","white","no","yes","768","legacy","51","79","/Users/test/Downloads/at-subject-4.csv","legacy","Melodramatic Milgram","4.0.5","0","h","NA","return","s","NA","h","622.0","NA","3849","4554","NA","622","2","legacy","1024","2","48000","-16","experiment","SSHSS","4","even","6933","156077","NA","252282","237876","2996","246894","NA","253326","3069","151521","NA","253429","254053","253323","253429","Lab 2-1","117","75846.0","132","1024"
"88","88","574","574","black","legacy","legacy","legacy","incongruent","1","undefined","1","s","0","0","0","132","132","0","132","0","132","0","0","0","132","132","132","132","Wed Sep 20 11:08:49 2023","600","The main experiment item","True","Lab2.1.osexp","/Users/test/Desktop","False","mono","False","18","no","white","no","yes","768","legacy","52","79","/Users/test/Downloads/at-subject-4.csv","legacy","Melodramatic Milgram","4.0.5","0","s","NA","return","s","NA","s","556.0","NA","3849","4554","NA","556","2","legacy","1024","2","48000","-16","experiment","HHSHH","4","even","6933","156077","NA","254561","237876","2996","254057","NA","255605","3069","151521","NA","255709","256266","255602","255709","Lab 2-1","118","76402.0","133","1024"
"88","88","572","572","black","legacy","legacy","legacy","incongruent","1","undefined","1","s","0","0","0","133","133","0","133","0","133","0","0","0","133","133","133","133","Wed Sep 20 11:08:49 2023","600","The main experiment item","True","Lab2.1.osexp","/Users/test/Desktop","False","mono","False","18","no","white","no","yes","768","legacy","53","79","/Users/test/Downloads/at-subject-4.csv","legacy","Melodramatic Milgram","4.0.5","0","s","NA","return","s","NA","s","370.0","NA","3849","4554","NA","370","2","legacy","1024","2","48000","-16","experiment","HHSHH","4","even","6933","156077","NA","256270","237876","2996","254057","NA","257319","3069","151521","NA","257424","257795","257316","257423","Lab 2-1","119","76772.0","134","1024"
"88","88","572","572","black","legacy","legacy","legacy","congruent","1","undefined","1","h","0","0","0","134","134","0","134","0","134","0","0","0","134","134","134","134","Wed Sep 20 11:08:49 2023","600","The main experiment item","True","Lab2.1.osexp","/Users/test/Desktop","False","mono","False","18","no","white","no","yes","768","legacy","54","79","/Users/test/Downloads/at-subject-4.csv","legacy","Melodramatic Milgram","4.0.5","0","h","NA","return","s","NA","h","475.0","NA","3849","4554","NA","475","2","legacy","1024","2","48000","-16","experiment","HHHHH","4","even","6933","156077","NA","257798","237876","2996","254057","NA","258836","3069","151521","NA","258940","259416","258833","258939","Lab 2-1","120","77247.0","135","1024"
