acc,accuracy,average_response_time,avg_rt,background,canvas_backend,clock_backend,color_backend,compensation,condition,coordinates,correct,correct_instructions1,correct_keyboard_response,correct_response,count_Block1,count_Block2,count_Block3,count_ISI,count_errorFeedback,count_experiment,count_faster,count_finish,count_fixation,count_getting_started,count_instructions1,count_instructions2,count_instructions3,count_keyboard_response,count_new_logger,count_new_sketchpad,count_sequence,count_stimulus,datetime,deadline,description,disable_garbage_collection,experiment_file,experiment_path,font_bold,font_family,font_italic,font_size,font_underline,foreground,form_clicks,fullscreen,height,keyboard_backend,live_row,live_row_Block1,logfile,mouse_backend,opensesame_codename,opensesame_version,repeat_cycle,response,response_finish,response_instructions1,response_instructions2,response_instructions3,response_keyboard_response,response_new_sketchpad,response_time,response_time_finish,response_time_instructions1,response_time_instructions2,response_time_instructions3,response_time_keyboard_response,response_time_new_sketchpad,round_decimals,sampler_backend,sound_buf_size,sound_channels,sound_freq,sound_sample_size,start,stimulus,subject_nr,subject_parity,time_Block1,time_Block2,time_Block3,time_ISI,time_errorFeedback,time_experiment,time_faster,time_finish,time_fixation,time_getting_started,time_instructions1,time_instructions2,time_instructions3,time_keyboard_response,time_new_logger,time_new_sketchpad,time_sequence,time_stimulus,title,total_correct,total_response_time,total_responses,uniform_coordinates,width
100,100,903,903,black,legacy,legacy,legacy,0,congruent,uniform,1,undefined,1,h,0,0,0,0,0,0,0,0,0,0,0,0,0,0,0,NA,0,0,Wed Sep 25 11:14:14 2019,1500,The main experiment item,yes,FlankerTask.osexp,/Users/danielrazo0311/Desktop,no,mono,no,18,no,white,no,yes,768,legacy,0,0,/Users/danielrazo0311/Desktop/DR-Subject-2.csv,legacy,Kafkaesque Koffka,3.2.8,0,h,NA,s,NA,NA,h,NA,903,NA,33879,NA,NA,903,NA,2,legacy,1024,2,48000,-16,experiment,HHHHH,2,even,40492,NA,NA,NA,NA,6501,NA,NA,40684,NA,6528,NA,NA,40800,41705,NA,40671,40800,Flanker Task,1,903,1,yes,1024
100,100,701,701,black,legacy,legacy,legacy,0,congruent,uniform,1,undefined,1,h,0,0,0,1,1,0,1,0,1,0,0,0,0,1,1,NA,1,1,Wed Sep 25 11:14:14 2019,1500,The main experiment item,yes,FlankerTask.osexp,/Users/danielrazo0311/Desktop,no,mono,no,18,no,white,no,yes,768,legacy,1,1,/Users/danielrazo0311/Desktop/DR-Subject-2.csv,legacy,Kafkaesque Koffka,3.2.8,0,h,NA,s,NA,NA,h,NA,499,NA,33879,NA,NA,499,NA,2,legacy,1024,2,48000,-16,experiment,HHHHH,2,even,40492,NA,NA,41728,NA,6501,NA,NA,42873,NA,6528,NA,NA,42988,43489,NA,42859,42988,Flanker Task,2,1402,2,yes,1024
100,100,722,722,black,legacy,legacy,legacy,0,incongruent,uniform,1,undefined,1,h,0,0,0,2,2,0,2,0,2,0,0,0,0,2,2,NA,2,2,Wed Sep 25 11:14:14 2019,1500,The main experiment item,yes,FlankerTask.osexp,/Users/danielrazo0311/Desktop,no,mono,no,18,no,white,no,yes,768,legacy,2,2,/Users/danielrazo0311/Desktop/DR-Subject-2.csv,legacy,Kafkaesque Koffka,3.2.8,0,h,NA,s,NA,NA,h,NA,764,NA,33879,NA,NA,764,NA,2,legacy,1024,2,48000,-16,experiment,SSHSS,2,even,40492,NA,NA,43507,NA,6501,NA,NA,44642,NA,6528,NA,NA,44755,45521,NA,44630,44755,Flanker Task,3,2166,3,yes,1024
100,100,659.5,659.5,black,legacy,legacy,legacy,0,congruent,uniform,1,undefined,1,s,0,0,0,3,3,0,3,0,3,0,0,0,0,3,3,NA,3,3,Wed Sep 25 11:14:14 2019,1500,The main experiment item,yes,FlankerTask.osexp,/Users/danielrazo0311/Desktop,no,mono,no,18,no,white,no,yes,768,legacy,3,3,/Users/danielrazo0311/Desktop/DR-Subject-2.csv,legacy,Kafkaesque Koffka,3.2.8,0,s,NA,s,NA,NA,s,NA,472,NA,33879,NA,NA,472,NA,2,legacy,1024,2,48000,-16,experiment,SSSSS,2,even,40492,NA,NA,45537,NA,6501,NA,NA,46668,NA,6528,NA,NA,46782,47256,NA,46655,46782,Flanker Task,4,2638,4,yes,1024
100,100,625.2,625.2,black,legacy,legacy,legacy,0,incongruent,uniform,1,undefined,1,h,0,0,0,4,4,0,4,0,4,0,0,0,0,4,4,NA,4,4,Wed Sep 25 11:14:14 2019,1500,The main experiment item,yes,FlankerTask.osexp,/Users/danielrazo0311/Desktop,no,mono,no,18,no,white,no,yes,768,legacy,4,4,/Users/danielrazo0311/Desktop/DR-Subject-2.csv,legacy,Kafkaesque Koffka,3.2.8,0,h,NA,s,NA,NA,h,NA,488,NA,33879,NA,NA,488,NA,2,legacy,1024,2,48000,-16,experiment,SSHSS,2,even,40492,NA,NA,47271,NA,6501,NA,NA,48408,NA,6528,NA,NA,48526,49016,NA,48396,48526,Flanker Task,5,3126,5,yes,1024
100,100,619.3333333,619.3333333,black,legacy,legacy,legacy,0,incongruent,uniform,1,undefined,1,h,0,0,0,5,5,0,5,0,5,0,0,0,0,5,5,NA,5,5,Wed Sep 25 11:14:14 2019,1500,The main experiment item,yes,FlankerTask.osexp,/Users/danielrazo0311/Desktop,no,mono,no,18,no,white,no,yes,768,legacy,5,5,/Users/danielrazo0311/Desktop/DR-Subject-2.csv,legacy,Kafkaesque Koffka,3.2.8,0,h,NA,s,NA,NA,h,NA,590,NA,33879,NA,NA,590,NA,2,legacy,1024,2,48000,-16,experiment,SSHSS,2,even,40492,NA,NA,49031,NA,6501,NA,NA,50166,NA,6528,NA,NA,50281,50872,NA,50151,50281,Flanker Task,6,3716,6,yes,1024
100,100,600.5714286,600.5714286,black,legacy,legacy,legacy,0,congruent,uniform,1,undefined,1,s,0,0,0,6,6,0,6,0,6,0,0,0,0,6,6,NA,6,6,Wed Sep 25 11:14:14 2019,1500,The main experiment item,yes,FlankerTask.osexp,/Users/danielrazo0311/Desktop,no,mono,no,18,no,white,no,yes,768,legacy,6,6,/Users/danielrazo0311/Desktop/DR-Subject-2.csv,legacy,Kafkaesque Koffka,3.2.8,0,s,NA,s,NA,NA,s,NA,488,NA,33879,NA,NA,488,NA,2,legacy,1024,2,48000,-16,experiment,SSSSS,2,even,40492,NA,NA,50891,NA,6501,NA,NA,52021,NA,6528,NA,NA,52135,52624,NA,52008,52135,Flanker Task,7,4204,7,yes,1024
100,100,569.875,569.875,black,legacy,legacy,legacy,0,congruent,uniform,1,undefined,1,s,0,0,0,7,7,0,7,0,7,0,0,0,0,7,7,NA,7,7,Wed Sep 25 11:14:14 2019,1500,The main experiment item,yes,FlankerTask.osexp,/Users/danielrazo0311/Desktop,no,mono,no,18,no,white,no,yes,768,legacy,7,7,/Users/danielrazo0311/Desktop/DR-Subject-2.csv,legacy,Kafkaesque Koffka,3.2.8,0,s,NA,s,NA,NA,s,NA,355,NA,33879,NA,NA,355,NA,2,legacy,1024,2,48000,-16,experiment,SSSSS,2,even,40492,NA,NA,52675,NA,6501,NA,NA,53808,NA,6528,NA,NA,53922,54279,NA,53794,53922,Flanker Task,8,4559,8,yes,1024
100,100,550.8888889,550.8888889,black,legacy,legacy,legacy,0,congruent,uniform,1,undefined,1,s,0,0,0,8,8,0,8,0,8,0,0,0,0,8,8,NA,8,8,Wed Sep 25 11:14:14 2019,1500,The main experiment item,yes,FlankerTask.osexp,/Users/danielrazo0311/Desktop,no,mono,no,18,no,white,no,yes,768,legacy,8,8,/Users/danielrazo0311/Desktop/DR-Subject-2.csv,legacy,Kafkaesque Koffka,3.2.8,0,s,NA,s,NA,NA,s,NA,399,NA,33879,NA,NA,399,NA,2,legacy,1024,2,48000,-16,experiment,SSSSS,2,even,40492,NA,NA,54296,NA,6501,NA,NA,55436,NA,6528,NA,NA,55551,55952,NA,55424,55551,Flanker Task,9,4958,9,yes,1024
100,100,539.3,539.3,black,legacy,legacy,legacy,0,incongruent,uniform,1,undefined,1,h,0,0,0,9,9,0,9,0,9,0,0,0,0,9,9,NA,9,9,Wed Sep 25 11:14:14 2019,1500,The main experiment item,yes,FlankerTask.osexp,/Users/danielrazo0311/Desktop,no,mono,no,18,no,white,no,yes,768,legacy,9,9,/Users/danielrazo0311/Desktop/DR-Subject-2.csv,legacy,Kafkaesque Koffka,3.2.8,0,h,NA,s,NA,NA,h,NA,435,NA,33879,NA,NA,435,NA,2,legacy,1024,2,48000,-16,experiment,SSHSS,2,even,40492,NA,NA,55982,NA,6501,NA,NA,57111,NA,6528,NA,NA,57227,57665,NA,57098,57226,Flanker Task,10,5393,10,yes,1024
100,100,529.7272727,529.7272727,black,legacy,legacy,legacy,0,congruent,uniform,1,undefined,1,s,0,0,0,10,10,0,10,0,10,0,0,0,0,10,10,NA,10,10,Wed Sep 25 11:14:14 2019,1500,The main experiment item,yes,FlankerTask.osexp,/Users/danielrazo0311/Desktop,no,mono,no,18,no,white,no,yes,768,legacy,10,10,/Users/danielrazo0311/Desktop/DR-Subject-2.csv,legacy,Kafkaesque Koffka,3.2.8,0,s,NA,s,NA,NA,s,NA,434,NA,33879,NA,NA,434,NA,2,legacy,1024,2,48000,-16,experiment,SSSSS,2,even,40492,NA,NA,57680,NA,6501,NA,NA,58811,NA,6528,NA,NA,58924,59360,NA,58799,58924,Flanker Task,11,5827,11,yes,1024
100,100,526.0833333,526.0833333,black,legacy,legacy,legacy,0,incongruent,uniform,1,undefined,1,h,0,0,0,11,11,0,11,0,11,0,0,0,0,11,11,NA,11,11,Wed Sep 25 11:14:14 2019,1500,The main experiment item,yes,FlankerTask.osexp,/Users/danielrazo0311/Desktop,no,mono,no,18,no,white,no,yes,768,legacy,11,11,/Users/danielrazo0311/Desktop/DR-Subject-2.csv,legacy,Kafkaesque Koffka,3.2.8,0,h,NA,s,NA,NA,h,NA,486,NA,33879,NA,NA,486,NA,2,legacy,1024,2,48000,-16,experiment,SSHSS,2,even,40492,NA,NA,59376,NA,6501,NA,NA,60511,NA,6528,NA,NA,60623,61111,NA,60498,60623,Flanker Task,12,6313,12,yes,1024
100,100,529.5384615,529.5384615,black,legacy,legacy,legacy,0,incongruent,uniform,1,undefined,1,s,0,0,0,12,12,0,12,0,12,0,0,0,0,12,12,NA,12,12,Wed Sep 25 11:14:14 2019,1500,The main experiment item,yes,FlankerTask.osexp,/Users/danielrazo0311/Desktop,no,mono,no,18,no,white,no,yes,768,legacy,12,12,/Users/danielrazo0311/Desktop/DR-Subject-2.csv,legacy,Kafkaesque Koffka,3.2.8,0,s,NA,s,NA,NA,s,NA,571,NA,33879,NA,NA,571,NA,2,legacy,1024,2,48000,-16,experiment,HHSHH,2,even,40492,NA,NA,61127,NA,6501,NA,NA,62259,NA,6528,NA,NA,62371,62944,NA,62246,62371,Flanker Task,13,6884,13,yes,1024
100,100,532.0714286,532.0714286,black,legacy,legacy,legacy,0,incongruent,uniform,1,undefined,1,s,0,0,0,13,13,0,13,0,13,0,0,0,0,13,13,NA,13,13,Wed Sep 25 11:14:14 2019,1500,The main experiment item,yes,FlankerTask.osexp,/Users/danielrazo0311/Desktop,no,mono,no,18,no,white,no,yes,768,legacy,13,13,/Users/danielrazo0311/Desktop/DR-Subject-2.csv,legacy,Kafkaesque Koffka,3.2.8,0,s,NA,s,NA,NA,s,NA,565,NA,33879,NA,NA,565,NA,2,legacy,1024,2,48000,-16,experiment,HHSHH,2,even,40492,NA,NA,62959,NA,6501,NA,NA,64094,NA,6528,NA,NA,64209,64776,NA,64082,64209,Flanker Task,14,7449,14,yes,1024
100,100,528.7333333,528.7333333,black,legacy,legacy,legacy,0,congruent,uniform,1,undefined,1,s,0,0,0,14,14,0,14,0,14,0,0,0,0,14,14,NA,14,14,Wed Sep 25 11:14:14 2019,1500,The main experiment item,yes,FlankerTask.osexp,/Users/danielrazo0311/Desktop,no,mono,no,18,no,white,no,yes,768,legacy,14,14,/Users/danielrazo0311/Desktop/DR-Subject-2.csv,legacy,Kafkaesque Koffka,3.2.8,0,s,NA,s,NA,NA,s,NA,482,NA,33879,NA,NA,482,NA,2,legacy,1024,2,48000,-16,experiment,SSSSS,2,even,40492,NA,NA,64792,NA,6501,NA,NA,65924,NA,6528,NA,NA,66036,66520,NA,65911,66036,Flanker Task,15,7931,15,yes,1024
100,100,527.125,527.125,black,legacy,legacy,legacy,0,incongruent,uniform,1,undefined,1,h,0,0,0,15,15,0,15,0,15,0,0,0,0,15,15,NA,15,15,Wed Sep 25 11:14:14 2019,1500,The main experiment item,yes,FlankerTask.osexp,/Users/danielrazo0311/Desktop,no,mono,no,18,no,white,no,yes,768,legacy,15,15,/Users/danielrazo0311/Desktop/DR-Subject-2.csv,legacy,Kafkaesque Koffka,3.2.8,0,h,NA,s,NA,NA,h,NA,503,NA,33879,NA,NA,503,NA,2,legacy,1024,2,48000,-16,experiment,SSHSS,2,even,40492,NA,NA,66536,NA,6501,NA,NA,67666,NA,6528,NA,NA,67782,68287,NA,67653,67781,Flanker Task,16,8434,16,yes,1024
100,100,530,530,black,legacy,legacy,legacy,0,congruent,uniform,1,undefined,1,h,0,0,0,16,16,0,16,0,16,0,0,0,0,16,16,NA,16,16,Wed Sep 25 11:14:14 2019,1500,The main experiment item,yes,FlankerTask.osexp,/Users/danielrazo0311/Desktop,no,mono,no,18,no,white,no,yes,768,legacy,16,16,/Users/danielrazo0311/Desktop/DR-Subject-2.csv,legacy,Kafkaesque Koffka,3.2.8,0,h,NA,s,NA,NA,h,NA,576,NA,33879,NA,NA,576,NA,2,legacy,1024,2,48000,-16,experiment,HHHHH,2,even,40492,NA,NA,68302,NA,6501,NA,NA,69435,NA,6528,NA,NA,69549,70127,NA,69423,69549,Flanker Task,17,9010,17,yes,1024
100,100,522.3888889,522.3888889,black,legacy,legacy,legacy,0,congruent,uniform,1,undefined,1,h,0,0,0,17,17,0,17,0,17,0,0,0,0,17,17,NA,17,17,Wed Sep 25 11:14:14 2019,1500,The main experiment item,yes,FlankerTask.osexp,/Users/danielrazo0311/Desktop,no,mono,no,18,no,white,no,yes,768,legacy,17,17,/Users/danielrazo0311/Desktop/DR-Subject-2.csv,legacy,Kafkaesque Koffka,3.2.8,0,h,NA,s,NA,NA,h,NA,393,NA,33879,NA,NA,393,NA,2,legacy,1024,2,48000,-16,experiment,HHHHH,2,even,40492,NA,NA,70143,NA,6501,NA,NA,71275,NA,6528,NA,NA,71389,71784,NA,71263,71389,Flanker Task,18,9403,18,yes,1024
100,100,522.3684211,522.3684211,black,legacy,legacy,legacy,0,incongruent,uniform,1,undefined,1,s,0,0,0,18,18,0,18,0,18,0,0,0,0,18,18,NA,18,18,Wed Sep 25 11:14:14 2019,1500,The main experiment item,yes,FlankerTask.osexp,/Users/danielrazo0311/Desktop,no,mono,no,18,no,white,no,yes,768,legacy,18,18,/Users/danielrazo0311/Desktop/DR-Subject-2.csv,legacy,Kafkaesque Koffka,3.2.8,0,s,NA,s,NA,NA,s,NA,522,NA,33879,NA,NA,522,NA,2,legacy,1024,2,48000,-16,experiment,HHSHH,2,even,40492,NA,NA,71799,NA,6501,NA,NA,72931,NA,6528,NA,NA,73044,73568,NA,72919,73044,Flanker Task,19,9925,19,yes,1024
100,100,521.4,521.4,black,legacy,legacy,legacy,0,incongruent,uniform,1,undefined,1,s,0,0,0,19,19,0,19,0,19,0,0,0,0,19,19,NA,19,19,Wed Sep 25 11:14:14 2019,1500,The main experiment item,yes,FlankerTask.osexp,/Users/danielrazo0311/Desktop,no,mono,no,18,no,white,no,yes,768,legacy,19,19,/Users/danielrazo0311/Desktop/DR-Subject-2.csv,legacy,Kafkaesque Koffka,3.2.8,0,s,NA,s,NA,NA,s,NA,503,NA,33879,NA,NA,503,NA,2,legacy,1024,2,48000,-16,experiment,HHSHH,2,even,40492,NA,NA,73588,NA,6501,NA,NA,74718,NA,6528,NA,NA,74831,75336,NA,74706,74831,Flanker Task,20,10428,20,yes,1024
100,100,516.8095238,516.8095238,black,legacy,legacy,legacy,0,congruent,uniform,1,undefined,1,s,0,0,0,20,20,0,20,0,20,0,0,0,0,20,20,NA,20,20,Wed Sep 25 11:14:14 2019,1500,The main experiment item,yes,FlankerTask.osexp,/Users/danielrazo0311/Desktop,no,mono,no,18,no,white,no,yes,768,legacy,20,20,/Users/danielrazo0311/Desktop/DR-Subject-2.csv,legacy,Kafkaesque Koffka,3.2.8,0,s,NA,s,NA,NA,s,NA,425,NA,33879,NA,NA,425,NA,2,legacy,1024,2,48000,-16,experiment,SSSSS,2,even,40492,NA,NA,75351,NA,6501,NA,NA,76481,NA,6528,NA,NA,76596,77023,NA,76469,76595,Flanker Task,21,10853,21,yes,1024
100,100,515.5,515.5,black,legacy,legacy,legacy,0,congruent,uniform,1,undefined,1,h,0,0,0,21,21,0,21,0,21,0,0,0,0,21,21,NA,21,21,Wed Sep 25 11:14:14 2019,1500,The main experiment item,yes,FlankerTask.osexp,/Users/danielrazo0311/Desktop,no,mono,no,18,no,white,no,yes,768,legacy,21,21,/Users/danielrazo0311/Desktop/DR-Subject-2.csv,legacy,Kafkaesque Koffka,3.2.8,0,h,NA,s,NA,NA,h,NA,488,NA,33879,NA,NA,488,NA,2,legacy,1024,2,48000,-16,experiment,HHHHH,2,even,40492,NA,NA,77038,NA,6501,NA,NA,78171,NA,6528,NA,NA,78286,78776,NA,78158,78286,Flanker Task,22,11341,22,yes,1024
100,100,518.2608696,518.2608696,black,legacy,legacy,legacy,0,incongruent,uniform,1,undefined,1,h,0,0,0,22,22,0,22,0,22,0,0,0,0,22,22,NA,22,22,Wed Sep 25 11:14:14 2019,1500,The main experiment item,yes,FlankerTask.osexp,/Users/danielrazo0311/Desktop,no,mono,no,18,no,white,no,yes,768,legacy,22,22,/Users/danielrazo0311/Desktop/DR-Subject-2.csv,legacy,Kafkaesque Koffka,3.2.8,0,h,NA,s,NA,NA,h,NA,579,NA,33879,NA,NA,579,NA,2,legacy,1024,2,48000,-16,experiment,SSHSS,2,even,40492,NA,NA,78793,NA,6501,NA,NA,79925,NA,6528,NA,NA,80043,80624,NA,79913,80043,Flanker Task,23,11920,23,yes,1024
100,100,517.125,517.125,black,legacy,legacy,legacy,0,incongruent,uniform,1,undefined,1,s,0,0,0,23,23,0,23,0,23,0,0,0,0,23,23,NA,23,23,Wed Sep 25 11:14:14 2019,1500,The main experiment item,yes,FlankerTask.osexp,/Users/danielrazo0311/Desktop,no,mono,no,18,no,white,no,yes,768,legacy,23,23,/Users/danielrazo0311/Desktop/DR-Subject-2.csv,legacy,Kafkaesque Koffka,3.2.8,0,s,NA,s,NA,NA,s,NA,491,NA,33879,NA,NA,491,NA,2,legacy,1024,2,48000,-16,experiment,HHSHH,2,even,40492,NA,NA,80640,NA,6501,NA,NA,81770,NA,6528,NA,NA,81883,82376,NA,81757,81882,Flanker Task,24,12411,24,yes,1024
100,100,514.88,514.88,black,legacy,legacy,legacy,0,congruent,uniform,1,undefined,1,h,0,0,0,24,24,0,24,0,24,0,0,0,0,24,24,NA,24,24,Wed Sep 25 11:14:14 2019,1500,The main experiment item,yes,FlankerTask.osexp,/Users/danielrazo0311/Desktop,no,mono,no,18,no,white,no,yes,768,legacy,24,24,/Users/danielrazo0311/Desktop/DR-Subject-2.csv,legacy,Kafkaesque Koffka,3.2.8,0,h,NA,s,NA,NA,h,NA,461,NA,33879,NA,NA,461,NA,2,legacy,1024,2,48000,-16,experiment,HHHHH,2,even,40492,NA,NA,82391,NA,6501,NA,NA,83526,NA,6528,NA,NA,83640,84103,NA,83514,83640,Flanker Task,25,12872,25,yes,1024
100,100,512.0769231,512.0769231,black,legacy,legacy,legacy,0,congruent,uniform,1,undefined,1,s,0,0,0,25,25,0,25,0,25,0,0,0,0,25,25,NA,25,25,Wed Sep 25 11:14:14 2019,1500,The main experiment item,yes,FlankerTask.osexp,/Users/danielrazo0311/Desktop,no,mono,no,18,no,white,no,yes,768,legacy,25,25,/Users/danielrazo0311/Desktop/DR-Subject-2.csv,legacy,Kafkaesque Koffka,3.2.8,0,s,NA,s,NA,NA,s,NA,442,NA,33879,NA,NA,442,NA,2,legacy,1024,2,48000,-16,experiment,SSSSS,2,even,40492,NA,NA,84118,NA,6501,NA,NA,85250,NA,6528,NA,NA,85364,85808,NA,85238,85364,Flanker Task,26,13314,26,yes,1024
96.2962963,96.2962963,508.6666667,508.6666667,black,legacy,legacy,legacy,0,incongruent,uniform,0,undefined,0,s,0,0,0,26,26,0,26,0,26,0,0,0,0,26,26,NA,26,26,Wed Sep 25 11:14:14 2019,1500,The main experiment item,yes,FlankerTask.osexp,/Users/danielrazo0311/Desktop,no,mono,no,18,no,white,no,yes,768,legacy,26,26,/Users/danielrazo0311/Desktop/DR-Subject-2.csv,legacy,Kafkaesque Koffka,3.2.8,0,h,NA,s,NA,NA,h,NA,420,NA,33879,NA,NA,420,NA,2,legacy,1024,2,48000,-16,experiment,HHSHH,2,even,40492,NA,NA,85824,NA,6501,NA,NA,86954,NA,6528,NA,NA,87066,87488,NA,86941,87066,Flanker Task,26,13734,27,yes,1024
96.42857143,96.42857143,506.25,506.25,black,legacy,legacy,legacy,0,congruent,uniform,1,undefined,1,s,0,0,0,27,27,0,27,0,27,0,0,0,0,27,27,NA,27,27,Wed Sep 25 11:14:14 2019,1500,The main experiment item,yes,FlankerTask.osexp,/Users/danielrazo0311/Desktop,no,mono,no,18,no,white,no,yes,768,legacy,27,27,/Users/danielrazo0311/Desktop/DR-Subject-2.csv,legacy,Kafkaesque Koffka,3.2.8,0,s,NA,s,NA,NA,s,NA,441,NA,33879,NA,NA,441,NA,2,legacy,1024,2,48000,-16,experiment,SSSSS,2,even,40492,NA,NA,88018,87504,6501,NA,NA,89148,NA,6528,NA,NA,89261,89704,NA,89136,89261,Flanker Task,27,14175,28,yes,1024
96.55172414,96.55172414,502.9655172,502.9655172,black,legacy,legacy,legacy,0,congruent,uniform,1,undefined,1,s,0,0,0,28,28,0,28,0,28,0,0,0,0,28,28,NA,28,28,Wed Sep 25 11:14:14 2019,1500,The main experiment item,yes,FlankerTask.osexp,/Users/danielrazo0311/Desktop,no,mono,no,18,no,white,no,yes,768,legacy,28,28,/Users/danielrazo0311/Desktop/DR-Subject-2.csv,legacy,Kafkaesque Koffka,3.2.8,0,s,NA,s,NA,NA,s,NA,411,NA,33879,NA,NA,411,NA,2,legacy,1024,2,48000,-16,experiment,SSSSS,2,even,40492,NA,NA,89719,87504,6501,NA,NA,90849,NA,6528,NA,NA,90963,91376,NA,90837,90962,Flanker Task,28,14586,29,yes,1024
96.66666667,96.66666667,502.5,502.5,black,legacy,legacy,legacy,0,incongruent,uniform,1,undefined,1,s,0,0,0,29,29,0,29,0,29,0,0,0,0,29,29,NA,29,29,Wed Sep 25 11:14:14 2019,1500,The main experiment item,yes,FlankerTask.osexp,/Users/danielrazo0311/Desktop,no,mono,no,18,no,white,no,yes,768,legacy,29,29,/Users/danielrazo0311/Desktop/DR-Subject-2.csv,legacy,Kafkaesque Koffka,3.2.8,0,s,NA,s,NA,NA,s,NA,489,NA,33879,NA,NA,489,NA,2,legacy,1024,2,48000,-16,experiment,HHSHH,2,even,40492,NA,NA,91391,87504,6501,NA,NA,92522,NA,6528,NA,NA,92636,93127,NA,92509,92636,Flanker Task,29,15075,30,yes,1024
96.77419355,96.77419355,503.2580645,503.2580645,black,legacy,legacy,legacy,0,congruent,uniform,1,undefined,1,h,0,0,0,30,30,0,30,0,30,0,0,0,0,30,30,NA,30,30,Wed Sep 25 11:14:14 2019,1500,The main experiment item,yes,FlankerTask.osexp,/Users/danielrazo0311/Desktop,no,mono,no,18,no,white,no,yes,768,legacy,30,30,/Users/danielrazo0311/Desktop/DR-Subject-2.csv,legacy,Kafkaesque Koffka,3.2.8,0,h,NA,s,NA,NA,h,NA,526,NA,33879,NA,NA,526,NA,2,legacy,1024,2,48000,-16,experiment,HHHHH,2,even,40492,NA,NA,93142,87504,6501,NA,NA,94273,NA,6528,NA,NA,94391,94920,NA,94261,94390,Flanker Task,30,15601,31,yes,1024
96.875,96.875,501.59375,501.59375,black,legacy,legacy,legacy,0,congruent,uniform,1,undefined,1,h,0,0,0,31,31,0,31,0,31,0,0,0,0,31,31,NA,31,31,Wed Sep 25 11:14:14 2019,1500,The main experiment item,yes,FlankerTask.osexp,/Users/danielrazo0311/Desktop,no,mono,no,18,no,white,no,yes,768,legacy,31,31,/Users/danielrazo0311/Desktop/DR-Subject-2.csv,legacy,Kafkaesque Koffka,3.2.8,0,h,NA,s,NA,NA,h,NA,450,NA,33879,NA,NA,450,NA,2,legacy,1024,2,48000,-16,experiment,HHHHH,2,even,40492,NA,NA,94935,87504,6501,NA,NA,96065,NA,6528,NA,NA,96179,96632,NA,96053,96178,Flanker Task,31,16051,32,yes,1024
93.93939394,93.93939394,500.3636364,500.3636364,black,legacy,legacy,legacy,0,incongruent,uniform,0,undefined,0,h,0,0,0,32,32,0,32,0,32,0,0,0,0,32,32,NA,32,32,Wed Sep 25 11:14:14 2019,1500,The main experiment item,yes,FlankerTask.osexp,/Users/danielrazo0311/Desktop,no,mono,no,18,no,white,no,yes,768,legacy,32,32,/Users/danielrazo0311/Desktop/DR-Subject-2.csv,legacy,Kafkaesque Koffka,3.2.8,0,s,NA,s,NA,NA,s,NA,461,NA,33879,NA,NA,461,NA,2,legacy,1024,2,48000,-16,experiment,SSHSS,2,even,40492,NA,NA,96647,87504,6501,NA,NA,97782,NA,6528,NA,NA,97896,98360,NA,97769,97895,Flanker Task,31,16512,33,yes,1024
94.11764706,94.11764706,502.5882353,502.5882353,black,legacy,legacy,legacy,0,incongruent,uniform,1,undefined,1,h,0,0,0,33,33,0,33,0,33,0,0,0,0,33,33,NA,33,33,Wed Sep 25 11:14:14 2019,1500,The main experiment item,yes,FlankerTask.osexp,/Users/danielrazo0311/Desktop,no,mono,no,18,no,white,no,yes,768,legacy,33,33,/Users/danielrazo0311/Desktop/DR-Subject-2.csv,legacy,Kafkaesque Koffka,3.2.8,0,h,NA,s,NA,NA,h,NA,576,NA,33879,NA,NA,576,NA,2,legacy,1024,2,48000,-16,experiment,SSHSS,2,even,40492,NA,NA,98888,98375,6501,NA,NA,100019,NA,6528,NA,NA,100133,100712,NA,100006,100133,Flanker Task,32,17088,34,yes,1024
94.28571429,94.28571429,503.8857143,503.8857143,black,legacy,legacy,legacy,0,incongruent,uniform,1,undefined,1,h,0,0,0,34,34,0,34,0,34,0,0,0,0,34,34,NA,34,34,Wed Sep 25 11:14:14 2019,1500,The main experiment item,yes,FlankerTask.osexp,/Users/danielrazo0311/Desktop,no,mono,no,18,no,white,no,yes,768,legacy,34,34,/Users/danielrazo0311/Desktop/DR-Subject-2.csv,legacy,Kafkaesque Koffka,3.2.8,0,h,NA,s,NA,NA,h,NA,548,NA,33879,NA,NA,548,NA,2,legacy,1024,2,48000,-16,experiment,SSHSS,2,even,40492,NA,NA,100727,98375,6501,NA,NA,101858,NA,6528,NA,NA,101978,102528,NA,101845,101978,Flanker Task,33,17636,35,yes,1024
94.44444444,94.44444444,504.1666667,504.1666667,black,legacy,legacy,legacy,0,incongruent,uniform,1,undefined,1,s,0,0,0,35,35,0,35,0,35,0,0,0,0,35,35,NA,35,35,Wed Sep 25 11:14:14 2019,1500,The main experiment item,yes,FlankerTask.osexp,/Users/danielrazo0311/Desktop,no,mono,no,18,no,white,no,yes,768,legacy,35,35,/Users/danielrazo0311/Desktop/DR-Subject-2.csv,legacy,Kafkaesque Koffka,3.2.8,0,s,NA,s,NA,NA,s,NA,514,NA,33879,NA,NA,514,NA,2,legacy,1024,2,48000,-16,experiment,HHSHH,2,even,40492,NA,NA,102543,98375,6501,NA,NA,103673,NA,6528,NA,NA,103786,104303,NA,103661,103786,Flanker Task,34,18150,36,yes,1024
94.59459459,94.59459459,503.9189189,503.9189189,black,legacy,legacy,legacy,0,incongruent,uniform,1,undefined,1,h,0,0,0,36,36,0,36,0,36,0,0,0,0,36,36,NA,36,36,Wed Sep 25 11:14:14 2019,1500,The main experiment item,yes,FlankerTask.osexp,/Users/danielrazo0311/Desktop,no,mono,no,18,no,white,no,yes,768,legacy,36,36,/Users/danielrazo0311/Desktop/DR-Subject-2.csv,legacy,Kafkaesque Koffka,3.2.8,0,h,NA,s,NA,NA,h,NA,495,NA,33879,NA,NA,495,NA,2,legacy,1024,2,48000,-16,experiment,SSHSS,2,even,40492,NA,NA,104318,98375,6501,NA,NA,105451,NA,6528,NA,NA,105565,106063,NA,105438,105564,Flanker Task,35,18645,37,yes,1024
94.73684211,94.73684211,505.6842105,505.6842105,black,legacy,legacy,legacy,0,incongruent,uniform,1,undefined,1,h,0,0,0,37,37,0,37,0,37,0,0,0,0,37,37,NA,37,37,Wed Sep 25 11:14:14 2019,1500,The main experiment item,yes,FlankerTask.osexp,/Users/danielrazo0311/Desktop,no,mono,no,18,no,white,no,yes,768,legacy,37,37,/Users/danielrazo0311/Desktop/DR-Subject-2.csv,legacy,Kafkaesque Koffka,3.2.8,0,h,NA,s,NA,NA,h,NA,571,NA,33879,NA,NA,571,NA,2,legacy,1024,2,48000,-16,experiment,SSHSS,2,even,40492,NA,NA,106078,98375,6501,NA,NA,107207,NA,6528,NA,NA,107322,107896,NA,107195,107321,Flanker Task,36,19216,38,yes,1024
94.87179487,94.87179487,503.4358974,503.4358974,black,legacy,legacy,legacy,0,congruent,uniform,1,undefined,1,h,0,0,0,38,38,0,38,0,38,0,0,0,0,38,38,NA,38,38,Wed Sep 25 11:14:14 2019,1500,The main experiment item,yes,FlankerTask.osexp,/Users/danielrazo0311/Desktop,no,mono,no,18,no,white,no,yes,768,legacy,38,38,/Users/danielrazo0311/Desktop/DR-Subject-2.csv,legacy,Kafkaesque Koffka,3.2.8,0,h,NA,s,NA,NA,h,NA,418,NA,33879,NA,NA,418,NA,2,legacy,1024,2,48000,-16,experiment,HHHHH,2,even,40492,NA,NA,107911,98375,6501,NA,NA,109041,NA,6528,NA,NA,109155,109575,NA,109028,109155,Flanker Task,37,19634,39,yes,1024
95,95,501.075,501.075,black,legacy,legacy,legacy,0,incongruent,uniform,1,undefined,1,h,0,0,0,39,39,0,39,0,39,0,0,0,0,39,39,NA,39,39,Wed Sep 25 11:14:14 2019,1500,The main experiment item,yes,FlankerTask.osexp,/Users/danielrazo0311/Desktop,no,mono,no,18,no,white,no,yes,768,legacy,39,39,/Users/danielrazo0311/Desktop/DR-Subject-2.csv,legacy,Kafkaesque Koffka,3.2.8,0,h,NA,s,NA,NA,h,NA,409,NA,33879,NA,NA,409,NA,2,legacy,1024,2,48000,-16,experiment,SSHSS,2,even,40492,NA,NA,109591,98375,6501,NA,NA,110722,NA,6528,NA,NA,110835,111246,NA,110709,110835,Flanker Task,38,20043,40,yes,1024
95.12195122,95.12195122,499.4878049,499.4878049,black,legacy,legacy,legacy,0,congruent,uniform,1,undefined,1,h,0,0,0,40,40,0,40,0,40,0,0,0,0,40,40,NA,40,40,Wed Sep 25 11:14:14 2019,1500,The main experiment item,yes,FlankerTask.osexp,/Users/danielrazo0311/Desktop,no,mono,no,18,no,white,no,yes,768,legacy,40,40,/Users/danielrazo0311/Desktop/DR-Subject-2.csv,legacy,Kafkaesque Koffka,3.2.8,0,h,NA,s,NA,NA,h,NA,436,NA,33879,NA,NA,436,NA,2,legacy,1024,2,48000,-16,experiment,HHHHH,2,even,40492,NA,NA,111262,98375,6501,NA,NA,112399,NA,6528,NA,NA,112513,112952,NA,112386,112513,Flanker Task,39,20479,41,yes,1024
95.23809524,95.23809524,500.7857143,500.7857143,black,legacy,legacy,legacy,0,congruent,uniform,1,undefined,1,s,0,0,0,41,41,0,41,0,41,0,0,0,0,41,41,NA,41,41,Wed Sep 25 11:14:14 2019,1500,The main experiment item,yes,FlankerTask.osexp,/Users/danielrazo0311/Desktop,no,mono,no,18,no,white,no,yes,768,legacy,41,41,/Users/danielrazo0311/Desktop/DR-Subject-2.csv,legacy,Kafkaesque Koffka,3.2.8,0,s,NA,s,NA,NA,s,NA,554,NA,33879,NA,NA,554,NA,2,legacy,1024,2,48000,-16,experiment,SSSSS,2,even,40492,NA,NA,112967,98375,6501,NA,NA,114098,NA,6528,NA,NA,114211,114767,NA,114086,114211,Flanker Task,40,21033,42,yes,1024
95.34883721,95.34883721,501.3023256,501.3023256,black,legacy,legacy,legacy,0,congruent,uniform,1,undefined,1,s,0,0,0,42,42,0,42,0,42,0,0,0,0,42,42,NA,42,42,Wed Sep 25 11:14:14 2019,1500,The main experiment item,yes,FlankerTask.osexp,/Users/danielrazo0311/Desktop,no,mono,no,18,no,white,no,yes,768,legacy,42,42,/Users/danielrazo0311/Desktop/DR-Subject-2.csv,legacy,Kafkaesque Koffka,3.2.8,0,s,NA,s,NA,NA,s,NA,523,NA,33879,NA,NA,523,NA,2,legacy,1024,2,48000,-16,experiment,SSSSS,2,even,40492,NA,NA,114783,98375,6501,NA,NA,115920,NA,6528,NA,NA,116034,116559,NA,115907,116033,Flanker Task,41,21556,43,yes,1024
95.45454545,95.45454545,501.3863636,501.3863636,black,legacy,legacy,legacy,0,incongruent,uniform,1,undefined,1,s,0,0,0,43,43,0,43,0,43,0,0,0,0,43,43,NA,43,43,Wed Sep 25 11:14:14 2019,1500,The main experiment item,yes,FlankerTask.osexp,/Users/danielrazo0311/Desktop,no,mono,no,18,no,white,no,yes,768,legacy,43,43,/Users/danielrazo0311/Desktop/DR-Subject-2.csv,legacy,Kafkaesque Koffka,3.2.8,0,s,NA,s,NA,NA,s,NA,505,NA,33879,NA,NA,505,NA,2,legacy,1024,2,48000,-16,experiment,HHSHH,2,even,40492,NA,NA,116576,98375,6501,NA,NA,117707,NA,6528,NA,NA,117819,118326,NA,117695,117819,Flanker Task,42,22061,44,yes,1024
95.55555556,95.55555556,500.9777778,500.9777778,black,legacy,legacy,legacy,0,congruent,uniform,1,undefined,1,h,0,0,0,44,44,0,44,0,44,0,0,0,0,44,44,NA,44,44,Wed Sep 25 11:14:14 2019,1500,The main experiment item,yes,FlankerTask.osexp,/Users/danielrazo0311/Desktop,no,mono,no,18,no,white,no,yes,768,legacy,44,44,/Users/danielrazo0311/Desktop/DR-Subject-2.csv,legacy,Kafkaesque Koffka,3.2.8,0,h,NA,s,NA,NA,h,NA,483,NA,33879,NA,NA,483,NA,2,legacy,1024,2,48000,-16,experiment,HHHHH,2,even,40492,NA,NA,118378,98375,6501,NA,NA,119511,NA,6528,NA,NA,119625,120110,NA,119498,119625,Flanker Task,43,22544,45,yes,1024
95.65217391,95.65217391,503.7608696,503.7608696,black,legacy,legacy,legacy,0,incongruent,uniform,1,undefined,1,s,0,0,0,45,45,0,45,0,45,0,0,0,0,45,45,NA,45,45,Wed Sep 25 11:14:14 2019,1500,The main experiment item,yes,FlankerTask.osexp,/Users/danielrazo0311/Desktop,no,mono,no,18,no,white,no,yes,768,legacy,45,45,/Users/danielrazo0311/Desktop/DR-Subject-2.csv,legacy,Kafkaesque Koffka,3.2.8,0,s,NA,s,NA,NA,s,NA,629,NA,33879,NA,NA,629,NA,2,legacy,1024,2,48000,-16,experiment,HHSHH,2,even,40492,NA,NA,120126,98375,6501,NA,NA,121265,NA,6528,NA,NA,121383,122014,NA,121252,121383,Flanker Task,44,23173,46,yes,1024
95.74468085,95.74468085,506.2978723,506.2978723,black,legacy,legacy,legacy,0,incongruent,uniform,1,undefined,1,s,0,0,0,46,46,0,46,0,46,0,0,0,0,46,46,NA,46,46,Wed Sep 25 11:14:14 2019,1500,The main experiment item,yes,FlankerTask.osexp,/Users/danielrazo0311/Desktop,no,mono,no,18,no,white,no,yes,768,legacy,46,46,/Users/danielrazo0311/Desktop/DR-Subject-2.csv,legacy,Kafkaesque Koffka,3.2.8,0,s,NA,s,NA,NA,s,NA,623,NA,33879,NA,NA,623,NA,2,legacy,1024,2,48000,-16,experiment,HHSHH,2,even,40492,NA,NA,122034,98375,6501,NA,NA,123173,NA,6528,NA,NA,123286,123911,NA,123161,123286,Flanker Task,45,23796,47,yes,1024
95.83333333,95.83333333,509.2083333,509.2083333,black,legacy,legacy,legacy,0,incongruent,uniform,1,undefined,1,h,0,0,0,47,47,0,47,0,47,0,0,0,0,47,47,NA,47,47,Wed Sep 25 11:14:14 2019,1500,The main experiment item,yes,FlankerTask.osexp,/Users/danielrazo0311/Desktop,no,mono,no,18,no,white,no,yes,768,legacy,47,47,/Users/danielrazo0311/Desktop/DR-Subject-2.csv,legacy,Kafkaesque Koffka,3.2.8,0,h,NA,s,NA,NA,h,NA,646,NA,33879,NA,NA,646,NA,2,legacy,1024,2,48000,-16,experiment,SSHSS,2,even,40492,NA,NA,123935,98375,6501,NA,NA,125070,NA,6528,NA,NA,125183,125831,NA,125058,125183,Flanker Task,46,24442,48,yes,1024
95.91836735,95.91836735,507.9183673,507.9183673,black,legacy,legacy,legacy,0,incongruent,uniform,1,undefined,1,h,0,0,0,48,48,0,48,0,48,0,0,0,0,48,48,NA,48,48,Wed Sep 25 11:14:14 2019,1500,The main experiment item,yes,FlankerTask.osexp,/Users/danielrazo0311/Desktop,no,mono,no,18,no,white,no,yes,768,legacy,48,48,/Users/danielrazo0311/Desktop/DR-Subject-2.csv,legacy,Kafkaesque Koffka,3.2.8,0,h,NA,s,NA,NA,h,NA,446,NA,33879,NA,NA,446,NA,2,legacy,1024,2,48000,-16,experiment,SSHSS,2,even,40492,NA,NA,125847,98375,6501,NA,NA,126983,NA,6528,NA,NA,127095,127543,NA,126970,127095,Flanker Task,47,24888,49,yes,1024
96,96,511.98,511.98,black,legacy,legacy,legacy,0,congruent,uniform,1,undefined,1,h,0,0,0,49,49,0,49,0,49,0,0,0,0,49,49,NA,49,49,Wed Sep 25 11:14:14 2019,1500,The main experiment item,yes,FlankerTask.osexp,/Users/danielrazo0311/Desktop,no,mono,no,18,no,white,no,yes,768,legacy,49,49,/Users/danielrazo0311/Desktop/DR-Subject-2.csv,legacy,Kafkaesque Koffka,3.2.8,0,h,NA,s,NA,NA,h,NA,711,NA,33879,NA,NA,711,NA,2,legacy,1024,2,48000,-16,experiment,HHHHH,2,even,40492,NA,NA,127558,98375,6501,NA,NA,128689,NA,6528,NA,NA,128806,129519,NA,128677,128806,Flanker Task,48,25599,50,yes,1024
96.07843137,96.07843137,509.8627451,509.8627451,black,legacy,legacy,legacy,0,congruent,uniform,1,undefined,1,s,0,0,0,50,50,0,50,0,50,0,0,0,0,50,50,NA,50,50,Wed Sep 25 11:14:14 2019,1500,The main experiment item,yes,FlankerTask.osexp,/Users/danielrazo0311/Desktop,no,mono,no,18,no,white,no,yes,768,legacy,50,50,/Users/danielrazo0311/Desktop/DR-Subject-2.csv,legacy,Kafkaesque Koffka,3.2.8,0,s,NA,s,NA,NA,s,NA,404,NA,33879,NA,NA,404,NA,2,legacy,1024,2,48000,-16,experiment,SSSSS,2,even,40492,NA,NA,129535,98375,6501,NA,NA,130671,NA,6528,NA,NA,130784,131190,NA,130658,130784,Flanker Task,49,26003,51,yes,1024
96.15384615,96.15384615,510.9423077,510.9423077,black,legacy,legacy,legacy,0,congruent,uniform,1,undefined,1,s,0,0,0,51,51,0,51,0,51,0,0,0,0,51,51,NA,51,51,Wed Sep 25 11:14:14 2019,1500,The main experiment item,yes,FlankerTask.osexp,/Users/danielrazo0311/Desktop,no,mono,no,18,no,white,no,yes,768,legacy,51,51,/Users/danielrazo0311/Desktop/DR-Subject-2.csv,legacy,Kafkaesque Koffka,3.2.8,0,s,NA,s,NA,NA,s,NA,566,NA,33879,NA,NA,566,NA,2,legacy,1024,2,48000,-16,experiment,SSSSS,2,even,40492,NA,NA,131206,98375,6501,NA,NA,132345,NA,6528,NA,NA,132461,133030,NA,132332,132461,Flanker Task,50,26569,52,yes,1024
96.22641509,96.22641509,511.8679245,511.8679245,black,legacy,legacy,legacy,0,incongruent,uniform,1,undefined,1,s,0,0,0,52,52,0,52,0,52,0,0,0,0,52,52,NA,52,52,Wed Sep 25 11:14:14 2019,1500,The main experiment item,yes,FlankerTask.osexp,/Users/danielrazo0311/Desktop,no,mono,no,18,no,white,no,yes,768,legacy,52,52,/Users/danielrazo0311/Desktop/DR-Subject-2.csv,legacy,Kafkaesque Koffka,3.2.8,0,s,NA,s,NA,NA,s,NA,560,NA,33879,NA,NA,560,NA,2,legacy,1024,2,48000,-16,experiment,HHSHH,2,even,40492,NA,NA,133046,98375,6501,NA,NA,134186,NA,6528,NA,NA,134300,134863,NA,134173,134299,Flanker Task,51,27129,53,yes,1024
96.2962963,96.2962963,511.0925926,511.0925926,black,legacy,legacy,legacy,0,incongruent,uniform,1,undefined,1,s,0,0,0,53,53,0,53,0,53,0,0,0,0,53,53,NA,53,53,Wed Sep 25 11:14:14 2019,1500,The main experiment item,yes,FlankerTask.osexp,/Users/danielrazo0311/Desktop,no,mono,no,18,no,white,no,yes,768,legacy,53,53,/Users/danielrazo0311/Desktop/DR-Subject-2.csv,legacy,Kafkaesque Koffka,3.2.8,0,s,NA,s,NA,NA,s,NA,470,NA,33879,NA,NA,470,NA,2,legacy,1024,2,48000,-16,experiment,HHSHH,2,even,40492,NA,NA,134878,98375,6501,NA,NA,136020,NA,6528,NA,NA,136134,136607,NA,136002,136134,Flanker Task,52,27599,54,yes,1024
96.36363636,96.36363636,509.6727273,509.6727273,black,legacy,legacy,legacy,0,congruent,uniform,1,undefined,1,s,0,0,0,54,54,0,54,0,54,0,0,0,0,54,54,NA,54,54,Wed Sep 25 11:14:14 2019,1500,The main experiment item,yes,FlankerTask.osexp,/Users/danielrazo0311/Desktop,no,mono,no,18,no,white,no,yes,768,legacy,54,54,/Users/danielrazo0311/Desktop/DR-Subject-2.csv,legacy,Kafkaesque Koffka,3.2.8,0,s,NA,s,NA,NA,s,NA,433,NA,33879,NA,NA,433,NA,2,legacy,1024,2,48000,-16,experiment,SSSSS,2,even,40492,NA,NA,136622,98375,6501,NA,NA,137754,NA,6528,NA,NA,137866,138302,NA,137742,137866,Flanker Task,53,28032,55,yes,1024
96.42857143,96.42857143,509.7142857,509.7142857,black,legacy,legacy,legacy,0,congruent,uniform,1,undefined,1,h,0,0,0,55,55,0,55,0,55,0,0,0,0,55,55,NA,55,55,Wed Sep 25 11:14:14 2019,1500,The main experiment item,yes,FlankerTask.osexp,/Users/danielrazo0311/Desktop,no,mono,no,18,no,white,no,yes,768,legacy,55,55,/Users/danielrazo0311/Desktop/DR-Subject-2.csv,legacy,Kafkaesque Koffka,3.2.8,0,h,NA,s,NA,NA,h,NA,512,NA,33879,NA,NA,512,NA,2,legacy,1024,2,48000,-16,experiment,HHHHH,2,even,40492,NA,NA,138318,98375,6501,NA,NA,139457,NA,6528,NA,NA,139571,140086,NA,139444,139570,Flanker Task,54,28544,56,yes,1024
96.49122807,96.49122807,508.1403509,508.1403509,black,legacy,legacy,legacy,0,congruent,uniform,1,undefined,1,h,0,0,0,56,56,0,56,0,56,0,0,0,0,56,56,NA,56,56,Wed Sep 25 11:14:14 2019,1500,The main experiment item,yes,FlankerTask.osexp,/Users/danielrazo0311/Desktop,no,mono,no,18,no,white,no,yes,768,legacy,56,56,/Users/danielrazo0311/Desktop/DR-Subject-2.csv,legacy,Kafkaesque Koffka,3.2.8,0,h,NA,s,NA,NA,h,NA,420,NA,33879,NA,NA,420,NA,2,legacy,1024,2,48000,-16,experiment,HHHHH,2,even,40492,NA,NA,140101,98375,6501,NA,NA,141236,NA,6528,NA,NA,141352,141775,NA,141223,141351,Flanker Task,55,28964,57,yes,1024
96.55172414,96.55172414,507.3448276,507.3448276,black,legacy,legacy,legacy,0,congruent,uniform,1,undefined,1,s,0,0,0,57,57,0,57,0,57,0,0,0,0,57,57,NA,57,57,Wed Sep 25 11:14:14 2019,1500,The main experiment item,yes,FlankerTask.osexp,/Users/danielrazo0311/Desktop,no,mono,no,18,no,white,no,yes,768,legacy,57,57,/Users/danielrazo0311/Desktop/DR-Subject-2.csv,legacy,Kafkaesque Koffka,3.2.8,0,s,NA,s,NA,NA,s,NA,462,NA,33879,NA,NA,462,NA,2,legacy,1024,2,48000,-16,experiment,SSSSS,2,even,40492,NA,NA,141791,98375,6501,NA,NA,142925,NA,6528,NA,NA,143038,143503,NA,142912,143038,Flanker Task,56,29426,58,yes,1024
96.61016949,96.61016949,508.6440678,508.6440678,black,legacy,legacy,legacy,0,incongruent,uniform,1,undefined,1,s,0,0,0,58,58,0,58,0,58,0,0,0,0,58,58,NA,58,58,Wed Sep 25 11:14:14 2019,1500,The main experiment item,yes,FlankerTask.osexp,/Users/danielrazo0311/Desktop,no,mono,no,18,no,white,no,yes,768,legacy,58,58,/Users/danielrazo0311/Desktop/DR-Subject-2.csv,legacy,Kafkaesque Koffka,3.2.8,0,s,NA,s,NA,NA,s,NA,584,NA,33879,NA,NA,584,NA,2,legacy,1024,2,48000,-16,experiment,HHSHH,2,even,40492,NA,NA,143518,98375,6501,NA,NA,144659,NA,6528,NA,NA,144772,145359,NA,144646,144772,Flanker Task,57,30010,59,yes,1024
96.66666667,96.66666667,506.55,506.55,black,legacy,legacy,legacy,0,congruent,uniform,1,undefined,1,s,0,0,0,59,59,0,59,0,59,0,0,0,0,59,59,NA,59,59,Wed Sep 25 11:14:14 2019,1500,The main experiment item,yes,FlankerTask.osexp,/Users/danielrazo0311/Desktop,no,mono,no,18,no,white,no,yes,768,legacy,59,59,/Users/danielrazo0311/Desktop/DR-Subject-2.csv,legacy,Kafkaesque Koffka,3.2.8,0,s,NA,s,NA,NA,s,NA,383,NA,33879,NA,NA,383,NA,2,legacy,1024,2,48000,-16,experiment,SSSSS,2,even,40492,NA,NA,145383,98375,6501,NA,NA,146523,NA,6528,NA,NA,146636,147022,NA,146509,146636,Flanker Task,58,30393,60,yes,1024
96.72131148,96.72131148,508.9016393,508.9016393,black,legacy,legacy,legacy,0,incongruent,uniform,1,undefined,1,s,0,0,0,60,60,0,60,0,60,0,0,0,0,60,60,NA,60,60,Wed Sep 25 11:14:14 2019,1500,The main experiment item,yes,FlankerTask.osexp,/Users/danielrazo0311/Desktop,no,mono,no,18,no,white,no,yes,768,legacy,60,60,/Users/danielrazo0311/Desktop/DR-Subject-2.csv,legacy,Kafkaesque Koffka,3.2.8,0,s,NA,s,NA,NA,s,NA,650,NA,33879,NA,NA,650,NA,2,legacy,1024,2,48000,-16,experiment,HHSHH,2,even,40492,NA,NA,147187,98375,6501,NA,NA,148319,NA,6528,NA,NA,148433,149086,NA,148306,148433,Flanker Task,59,31043,61,yes,1024
96.77419355,96.77419355,510.3870968,510.3870968,black,legacy,legacy,legacy,0,congruent,uniform,1,undefined,1,h,0,0,0,61,61,0,61,0,61,0,0,0,0,61,61,NA,61,61,Wed Sep 25 11:14:14 2019,1500,The main experiment item,yes,FlankerTask.osexp,/Users/danielrazo0311/Desktop,no,mono,no,18,no,white,no,yes,768,legacy,61,61,/Users/danielrazo0311/Desktop/DR-Subject-2.csv,legacy,Kafkaesque Koffka,3.2.8,0,h,NA,s,NA,NA,h,NA,601,NA,33879,NA,NA,601,NA,2,legacy,1024,2,48000,-16,experiment,HHHHH,2,even,40492,NA,NA,149101,98375,6501,NA,NA,150234,NA,6528,NA,NA,150347,150951,NA,150221,150347,Flanker Task,60,31644,62,yes,1024
96.82539683,96.82539683,512.984127,512.984127,black,legacy,legacy,legacy,0,incongruent,uniform,1,undefined,1,s,0,0,0,62,62,0,62,0,62,0,0,0,0,62,62,NA,62,62,Wed Sep 25 11:14:14 2019,1500,The main experiment item,yes,FlankerTask.osexp,/Users/danielrazo0311/Desktop,no,mono,no,18,no,white,no,yes,768,legacy,62,62,/Users/danielrazo0311/Desktop/DR-Subject-2.csv,legacy,Kafkaesque Koffka,3.2.8,0,s,NA,s,NA,NA,s,NA,674,NA,33879,NA,NA,674,NA,2,legacy,1024,2,48000,-16,experiment,HHSHH,2,even,40492,NA,NA,150966,98375,6501,NA,NA,152102,NA,6528,NA,NA,152218,152895,NA,152090,152218,Flanker Task,61,32318,63,yes,1024
96.875,96.875,512.515625,512.515625,black,legacy,legacy,legacy,0,congruent,uniform,1,undefined,1,s,0,0,0,63,63,0,63,0,63,0,0,0,0,63,63,NA,63,63,Wed Sep 25 11:14:14 2019,1500,The main experiment item,yes,FlankerTask.osexp,/Users/danielrazo0311/Desktop,no,mono,no,18,no,white,no,yes,768,legacy,63,63,/Users/danielrazo0311/Desktop/DR-Subject-2.csv,legacy,Kafkaesque Koffka,3.2.8,0,s,NA,s,NA,NA,s,NA,483,NA,33879,NA,NA,483,NA,2,legacy,1024,2,48000,-16,experiment,SSSSS,2,even,40492,NA,NA,152910,98375,6501,NA,NA,154054,NA,6528,NA,NA,154169,154655,NA,154041,154169,Flanker Task,62,32801,64,yes,1024
96.92307692,96.92307692,512.8461538,512.8461538,black,legacy,legacy,legacy,0,incongruent,uniform,1,undefined,1,h,0,0,0,64,64,0,64,0,64,0,0,0,0,64,64,NA,64,64,Wed Sep 25 11:14:14 2019,1500,The main experiment item,yes,FlankerTask.osexp,/Users/danielrazo0311/Desktop,no,mono,no,18,no,white,no,yes,768,legacy,64,64,/Users/danielrazo0311/Desktop/DR-Subject-2.csv,legacy,Kafkaesque Koffka,3.2.8,0,h,NA,s,NA,NA,h,NA,534,NA,33879,NA,NA,534,NA,2,legacy,1024,2,48000,-16,experiment,SSHSS,2,even,40492,NA,NA,154670,98375,6501,NA,NA,155805,NA,6528,NA,NA,155918,156455,NA,155793,155917,Flanker Task,63,33335,65,yes,1024
96.96969697,96.96969697,513.2424242,513.2424242,black,legacy,legacy,legacy,0,incongruent,uniform,1,undefined,1,s,0,0,0,65,65,0,65,0,65,0,0,0,0,65,65,NA,65,65,Wed Sep 25 11:14:14 2019,1500,The main experiment item,yes,FlankerTask.osexp,/Users/danielrazo0311/Desktop,no,mono,no,18,no,white,no,yes,768,legacy,65,65,/Users/danielrazo0311/Desktop/DR-Subject-2.csv,legacy,Kafkaesque Koffka,3.2.8,0,s,NA,s,NA,NA,s,NA,539,NA,33879,NA,NA,539,NA,2,legacy,1024,2,48000,-16,experiment,HHSHH,2,even,40492,NA,NA,156470,98375,6501,NA,NA,157607,NA,6528,NA,NA,157720,158262,NA,157595,157720,Flanker Task,64,33874,66,yes,1024
97.01492537,97.01492537,512.5522388,512.5522388,black,legacy,legacy,legacy,0,congruent,uniform,1,undefined,1,h,0,0,0,66,66,0,66,0,66,0,0,0,0,66,66,NA,66,66,Wed Sep 25 11:14:14 2019,1500,The main experiment item,yes,FlankerTask.osexp,/Users/danielrazo0311/Desktop,no,mono,no,18,no,white,no,yes,768,legacy,66,66,/Users/danielrazo0311/Desktop/DR-Subject-2.csv,legacy,Kafkaesque Koffka,3.2.8,0,h,NA,s,NA,NA,h,NA,467,NA,33879,NA,NA,467,NA,2,legacy,1024,2,48000,-16,experiment,HHHHH,2,even,40492,NA,NA,158277,98375,6501,NA,NA,159417,NA,6528,NA,NA,159529,159999,NA,159404,159529,Flanker Task,65,34341,67,yes,1024
97.05882353,97.05882353,511.0588235,511.0588235,black,legacy,legacy,legacy,0,congruent,uniform,1,undefined,1,h,0,0,0,67,67,0,67,0,67,0,0,0,0,67,67,NA,67,67,Wed Sep 25 11:14:14 2019,1500,The main experiment item,yes,FlankerTask.osexp,/Users/danielrazo0311/Desktop,no,mono,no,18,no,white,no,yes,768,legacy,67,67,/Users/danielrazo0311/Desktop/DR-Subject-2.csv,legacy,Kafkaesque Koffka,3.2.8,0,h,NA,s,NA,NA,h,NA,411,NA,33879,NA,NA,411,NA,2,legacy,1024,2,48000,-16,experiment,HHHHH,2,even,40492,NA,NA,160013,98375,6501,NA,NA,161144,NA,6528,NA,NA,161257,161671,NA,161131,161257,Flanker Task,66,34752,68,yes,1024
97.10144928,97.10144928,511.6376812,511.6376812,black,legacy,legacy,legacy,0,incongruent,uniform,1,undefined,1,h,0,0,0,68,68,0,68,0,68,0,0,0,0,68,68,NA,68,68,Wed Sep 25 11:14:14 2019,1500,The main experiment item,yes,FlankerTask.osexp,/Users/danielrazo0311/Desktop,no,mono,no,18,no,white,no,yes,768,legacy,68,68,/Users/danielrazo0311/Desktop/DR-Subject-2.csv,legacy,Kafkaesque Koffka,3.2.8,0,h,NA,s,NA,NA,h,NA,551,NA,33879,NA,NA,551,NA,2,legacy,1024,2,48000,-16,experiment,SSHSS,2,even,40492,NA,NA,161686,98375,6501,NA,NA,162818,NA,6528,NA,NA,162933,163487,NA,162806,162933,Flanker Task,67,35303,69,yes,1024
95.71428571,95.71428571,511.2285714,511.2285714,black,legacy,legacy,legacy,0,incongruent,uniform,0,undefined,0,s,0,0,0,69,69,0,69,0,69,0,0,0,0,69,69,NA,69,69,Wed Sep 25 11:14:14 2019,1500,The main experiment item,yes,FlankerTask.osexp,/Users/danielrazo0311/Desktop,no,mono,no,18,no,white,no,yes,768,legacy,69,69,/Users/danielrazo0311/Desktop/DR-Subject-2.csv,legacy,Kafkaesque Koffka,3.2.8,0,h,NA,s,NA,NA,h,NA,483,NA,33879,NA,NA,483,NA,2,legacy,1024,2,48000,-16,experiment,HHSHH,2,even,40492,NA,NA,163502,98375,6501,NA,NA,164639,NA,6528,NA,NA,164752,165237,NA,164626,164752,Flanker Task,67,35786,70,yes,1024
95.77464789,95.77464789,511.8732394,511.8732394,black,legacy,legacy,legacy,0,congruent,uniform,1,undefined,1,h,0,0,0,70,70,0,70,0,70,0,0,0,0,70,70,NA,70,70,Wed Sep 25 11:14:14 2019,1500,The main experiment item,yes,FlankerTask.osexp,/Users/danielrazo0311/Desktop,no,mono,no,18,no,white,no,yes,768,legacy,70,70,/Users/danielrazo0311/Desktop/DR-Subject-2.csv,legacy,Kafkaesque Koffka,3.2.8,0,h,NA,s,NA,NA,h,NA,557,NA,33879,NA,NA,557,NA,2,legacy,1024,2,48000,-16,experiment,HHHHH,2,even,40492,NA,NA,165766,165253,6501,NA,NA,166900,NA,6528,NA,NA,167015,167575,NA,166888,167015,Flanker Task,68,36343,71,yes,1024
95.83333333,95.83333333,513.3611111,513.3611111,black,legacy,legacy,legacy,0,incongruent,uniform,1,undefined,1,h,0,0,0,71,71,0,71,0,71,0,0,0,0,71,71,NA,71,71,Wed Sep 25 11:14:14 2019,1500,The main experiment item,yes,FlankerTask.osexp,/Users/danielrazo0311/Desktop,no,mono,no,18,no,white,no,yes,768,legacy,71,71,/Users/danielrazo0311/Desktop/DR-Subject-2.csv,legacy,Kafkaesque Koffka,3.2.8,0,h,NA,s,NA,NA,h,NA,619,NA,33879,NA,NA,619,NA,2,legacy,1024,2,48000,-16,experiment,SSHSS,2,even,40492,NA,NA,167590,165253,6501,NA,NA,168720,NA,6528,NA,NA,168833,169455,NA,168708,168833,Flanker Task,69,36962,72,yes,1024
95.89041096,95.89041096,513.6849315,513.6849315,black,legacy,legacy,legacy,0,congruent,uniform,1,undefined,1,h,0,0,0,72,72,0,72,0,72,0,0,0,0,72,72,NA,72,72,Wed Sep 25 11:14:14 2019,1500,The main experiment item,yes,FlankerTask.osexp,/Users/danielrazo0311/Desktop,no,mono,no,18,no,white,no,yes,768,legacy,72,72,/Users/danielrazo0311/Desktop/DR-Subject-2.csv,legacy,Kafkaesque Koffka,3.2.8,0,h,NA,s,NA,NA,h,NA,537,NA,33879,NA,NA,537,NA,2,legacy,1024,2,48000,-16,experiment,HHHHH,2,even,40492,NA,NA,169470,165253,6501,NA,NA,170600,NA,6528,NA,NA,170714,171254,NA,170588,170713,Flanker Task,70,37499,73,yes,1024
95.94594595,95.94594595,515,515,black,legacy,legacy,legacy,0,incongruent,uniform,1,undefined,1,s,0,0,0,73,73,0,73,0,73,0,0,0,0,73,73,NA,73,73,Wed Sep 25 11:14:14 2019,1500,The main experiment item,yes,FlankerTask.osexp,/Users/danielrazo0311/Desktop,no,mono,no,18,no,white,no,yes,768,legacy,73,73,/Users/danielrazo0311/Desktop/DR-Subject-2.csv,legacy,Kafkaesque Koffka,3.2.8,0,s,NA,s,NA,NA,s,NA,611,NA,33879,NA,NA,611,NA,2,legacy,1024,2,48000,-16,experiment,HHSHH,2,even,40492,NA,NA,171269,165253,6501,NA,NA,172400,NA,6528,NA,NA,172512,173125,NA,172388,172512,Flanker Task,71,38110,74,yes,1024
96,96,515.28,515.28,black,legacy,legacy,legacy,0,incongruent,uniform,1,undefined,1,h,0,0,0,74,74,0,74,0,74,0,0,0,0,74,74,NA,74,74,Wed Sep 25 11:14:14 2019,1500,The main experiment item,yes,FlankerTask.osexp,/Users/danielrazo0311/Desktop,no,mono,no,18,no,white,no,yes,768,legacy,74,74,/Users/danielrazo0311/Desktop/DR-Subject-2.csv,legacy,Kafkaesque Koffka,3.2.8,0,h,NA,s,NA,NA,h,NA,536,NA,33879,NA,NA,536,NA,2,legacy,1024,2,48000,-16,experiment,SSHSS,2,even,40492,NA,NA,173143,165253,6501,NA,NA,174274,NA,6528,NA,NA,174388,174927,NA,174261,174388,Flanker Task,72,38646,75,yes,1024
96.05263158,96.05263158,516.5921053,516.5921053,black,legacy,legacy,legacy,0,incongruent,uniform,1,undefined,1,h,0,0,0,75,75,0,75,0,75,0,0,0,0,75,75,NA,75,75,Wed Sep 25 11:14:14 2019,1500,The main experiment item,yes,FlankerTask.osexp,/Users/danielrazo0311/Desktop,no,mono,no,18,no,white,no,yes,768,legacy,75,75,/Users/danielrazo0311/Desktop/DR-Subject-2.csv,legacy,Kafkaesque Koffka,3.2.8,0,h,NA,s,NA,NA,h,NA,615,NA,33879,NA,NA,615,NA,2,legacy,1024,2,48000,-16,experiment,SSHSS,2,even,40492,NA,NA,175029,165253,6501,NA,NA,176162,NA,6528,NA,NA,176276,176894,NA,176148,176276,Flanker Task,73,39261,76,yes,1024
96.1038961,96.1038961,515.2597403,515.2597403,black,legacy,legacy,legacy,0,congruent,uniform,1,undefined,1,s,0,0,0,76,76,0,76,0,76,0,0,0,0,76,76,NA,76,76,Wed Sep 25 11:14:14 2019,1500,The main experiment item,yes,FlankerTask.osexp,/Users/danielrazo0311/Desktop,no,mono,no,18,no,white,no,yes,768,legacy,76,76,/Users/danielrazo0311/Desktop/DR-Subject-2.csv,legacy,Kafkaesque Koffka,3.2.8,0,s,NA,s,NA,NA,s,NA,414,NA,33879,NA,NA,414,NA,2,legacy,1024,2,48000,-16,experiment,SSSSS,2,even,40492,NA,NA,176947,165253,6501,NA,NA,178075,NA,6528,NA,NA,178190,178606,NA,178063,178190,Flanker Task,74,39675,77,yes,1024
96.15384615,96.15384615,514.3717949,514.3717949,black,legacy,legacy,legacy,0,congruent,uniform,1,undefined,1,h,0,0,0,77,77,0,77,0,77,0,0,0,0,77,77,NA,77,77,Wed Sep 25 11:14:14 2019,1500,The main experiment item,yes,FlankerTask.osexp,/Users/danielrazo0311/Desktop,no,mono,no,18,no,white,no,yes,768,legacy,77,77,/Users/danielrazo0311/Desktop/DR-Subject-2.csv,legacy,Kafkaesque Koffka,3.2.8,0,h,NA,s,NA,NA,h,NA,446,NA,33879,NA,NA,446,NA,2,legacy,1024,2,48000,-16,experiment,HHHHH,2,even,40492,NA,NA,178622,165253,6501,NA,NA,179754,NA,6528,NA,NA,179868,180317,NA,179742,179868,Flanker Task,75,40121,78,yes,1024
96.20253165,96.20253165,514.5189873,514.5189873,black,legacy,legacy,legacy,0,incongruent,uniform,1,undefined,1,s,0,0,0,78,78,0,78,0,78,0,0,0,0,78,78,NA,78,78,Wed Sep 25 11:14:14 2019,1500,The main experiment item,yes,FlankerTask.osexp,/Users/danielrazo0311/Desktop,no,mono,no,18,no,white,no,yes,768,legacy,78,78,/Users/danielrazo0311/Desktop/DR-Subject-2.csv,legacy,Kafkaesque Koffka,3.2.8,0,s,NA,s,NA,NA,s,NA,526,NA,33879,NA,NA,526,NA,2,legacy,1024,2,48000,-16,experiment,HHSHH,2,even,40492,NA,NA,180333,165253,6501,NA,NA,181466,NA,6528,NA,NA,181580,182109,NA,181454,181579,Flanker Task,76,40647,79,yes,1024
96.25,96.25,513.3125,513.3125,black,legacy,legacy,legacy,0,congruent,uniform,1,undefined,1,s,0,0,0,79,79,0,79,0,79,0,0,0,0,79,79,NA,79,79,Wed Sep 25 11:14:14 2019,1500,The main experiment item,yes,FlankerTask.osexp,/Users/danielrazo0311/Desktop,no,mono,no,18,no,white,no,yes,768,legacy,79,79,/Users/danielrazo0311/Desktop/DR-Subject-2.csv,legacy,Kafkaesque Koffka,3.2.8,0,s,NA,s,NA,NA,s,NA,418,NA,33879,NA,NA,418,NA,2,legacy,1024,2,48000,-16,experiment,SSSSS,2,even,40492,NA,NA,182124,165253,6501,NA,NA,183255,NA,6528,NA,NA,183369,183790,NA,183243,183368,Flanker Task,77,41065,80,yes,1024
96.2962963,96.2962963,514.1728395,514.1728395,black,legacy,legacy,legacy,0,congruent,uniform,1,undefined,1,h,0,0,0,80,80,0,80,0,80,0,0,0,0,80,80,NA,80,80,Wed Sep 25 11:14:14 2019,600,The main experiment item,yes,FlankerTask.osexp,/Users/danielrazo0311/Desktop,no,mono,no,18,no,white,no,yes,768,legacy,0,79,/Users/danielrazo0311/Desktop/DR-Subject-2.csv,legacy,Kafkaesque Koffka,3.2.8,0,h,NA,s,s,NA,h,NA,583,NA,33879,21508,NA,583,NA,2,legacy,1024,2,48000,-16,experiment,HHHHH,2,even,40492,206353,NA,183806,165253,6501,NA,NA,206478,NA,6528,184842,NA,206590,207176,NA,206465,206590,Flanker Task,78,41648,81,yes,1024
96.34146341,96.34146341,514.597561,514.597561,black,legacy,legacy,legacy,0,incongruent,uniform,1,undefined,1,h,0,0,0,81,81,0,81,0,81,0,0,0,0,81,81,NA,81,81,Wed Sep 25 11:14:14 2019,600,The main experiment item,yes,FlankerTask.osexp,/Users/danielrazo0311/Desktop,no,mono,no,18,no,white,no,yes,768,legacy,1,79,/Users/danielrazo0311/Desktop/DR-Subject-2.csv,legacy,Kafkaesque Koffka,3.2.8,0,h,NA,s,s,NA,h,NA,549,NA,33879,21508,NA,549,NA,2,legacy,1024,2,48000,-16,experiment,SSHSS,2,even,40492,206353,NA,207191,165253,6501,NA,NA,208326,NA,6528,184842,NA,208441,208993,NA,208314,208441,Flanker Task,79,42197,82,yes,1024
96.38554217,96.38554217,513.5662651,513.5662651,black,legacy,legacy,legacy,0,congruent,uniform,1,undefined,1,s,0,0,0,82,82,0,82,0,82,0,0,0,0,82,82,NA,82,82,Wed Sep 25 11:14:14 2019,600,The main experiment item,yes,FlankerTask.osexp,/Users/danielrazo0311/Desktop,no,mono,no,18,no,white,no,yes,768,legacy,2,79,/Users/danielrazo0311/Desktop/DR-Subject-2.csv,legacy,Kafkaesque Koffka,3.2.8,0,s,NA,s,s,NA,s,NA,429,NA,33879,21508,NA,429,NA,2,legacy,1024,2,48000,-16,experiment,SSSSS,2,even,40492,206353,NA,209007,165253,6501,NA,NA,210145,NA,6528,184842,NA,210257,210689,NA,210133,210257,Flanker Task,80,42626,83,yes,1024
95.23809524,95.23809524,512.047619,512.047619,black,legacy,legacy,legacy,0,incongruent,uniform,0,undefined,0,s,0,0,0,83,83,0,83,0,83,0,0,0,0,83,83,NA,83,83,Wed Sep 25 11:14:14 2019,600,The main experiment item,yes,FlankerTask.osexp,/Users/danielrazo0311/Desktop,no,mono,no,18,no,white,no,yes,768,legacy,3,79,/Users/danielrazo0311/Desktop/DR-Subject-2.csv,legacy,Kafkaesque Koffka,3.2.8,0,h,NA,s,s,NA,h,NA,386,NA,33879,21508,NA,386,NA,2,legacy,1024,2,48000,-16,experiment,HHSHH,2,even,40492,206353,NA,210705,165253,6501,NA,NA,211836,NA,6528,184842,NA,211948,212337,NA,211824,211948,Flanker Task,80,43012,84,yes,1024
95.29411765,95.29411765,511.6352941,511.6352941,black,legacy,legacy,legacy,0,congruent,uniform,1,undefined,1,s,0,0,0,84,84,0,84,0,84,0,0,0,0,84,84,NA,84,84,Wed Sep 25 11:14:14 2019,600,The main experiment item,yes,FlankerTask.osexp,/Users/danielrazo0311/Desktop,no,mono,no,18,no,white,no,yes,768,legacy,4,79,/Users/danielrazo0311/Desktop/DR-Subject-2.csv,legacy,Kafkaesque Koffka,3.2.8,0,s,NA,s,s,NA,s,NA,477,NA,33879,21508,NA,477,NA,2,legacy,1024,2,48000,-16,experiment,SSSSS,2,even,40492,206353,NA,212865,212352,6501,NA,NA,214000,NA,6528,184842,NA,214113,214593,NA,213988,214113,Flanker Task,81,43489,85,yes,1024
95.34883721,95.34883721,510.255814,510.255814,black,legacy,legacy,legacy,0,congruent,uniform,1,undefined,1,s,0,0,0,85,85,0,85,0,85,0,0,0,0,85,85,NA,85,85,Wed Sep 25 11:14:14 2019,600,The main experiment item,yes,FlankerTask.osexp,/Users/danielrazo0311/Desktop,no,mono,no,18,no,white,no,yes,768,legacy,5,79,/Users/danielrazo0311/Desktop/DR-Subject-2.csv,legacy,Kafkaesque Koffka,3.2.8,0,s,NA,s,s,NA,s,NA,393,NA,33879,21508,NA,393,NA,2,legacy,1024,2,48000,-16,experiment,SSSSS,2,even,40492,206353,NA,214608,212352,6501,NA,NA,215746,NA,6528,184842,NA,215860,216256,NA,215734,215859,Flanker Task,82,43882,86,yes,1024
95.40229885,95.40229885,509.4597701,509.4597701,black,legacy,legacy,legacy,0,congruent,uniform,1,undefined,1,h,0,0,0,86,86,0,86,0,86,0,0,0,0,86,86,NA,86,86,Wed Sep 25 11:14:14 2019,600,The main experiment item,yes,FlankerTask.osexp,/Users/danielrazo0311/Desktop,no,mono,no,18,no,white,no,yes,768,legacy,6,79,/Users/danielrazo0311/Desktop/DR-Subject-2.csv,legacy,Kafkaesque Koffka,3.2.8,0,h,NA,s,s,NA,h,NA,441,NA,33879,21508,NA,441,NA,2,legacy,1024,2,48000,-16,experiment,HHHHH,2,even,40492,206353,NA,216271,212352,6501,NA,NA,217412,NA,6528,184842,NA,217525,217969,NA,217398,217524,Flanker Task,83,44323,87,yes,1024
95.45454545,95.45454545,509.1477273,509.1477273,black,legacy,legacy,legacy,0,incongruent,uniform,1,undefined,1,s,0,0,0,87,87,0,87,0,87,0,0,0,0,87,87,NA,87,87,Wed Sep 25 11:14:14 2019,600,The main experiment item,yes,FlankerTask.osexp,/Users/danielrazo0311/Desktop,no,mono,no,18,no,white,no,yes,768,legacy,7,79,/Users/danielrazo0311/Desktop/DR-Subject-2.csv,legacy,Kafkaesque Koffka,3.2.8,0,s,NA,s,s,NA,s,NA,482,NA,33879,21508,NA,482,NA,2,legacy,1024,2,48000,-16,experiment,HHSHH,2,even,40492,206353,NA,217985,212352,6501,NA,NA,219121,NA,6528,184842,NA,219236,219721,NA,219109,219235,Flanker Task,84,44805,88,yes,1024
95.50561798,95.50561798,508.8089888,508.8089888,black,legacy,legacy,legacy,0,incongruent,uniform,1,undefined,1,s,0,0,0,88,88,0,88,0,88,0,0,0,0,88,88,NA,88,88,Wed Sep 25 11:14:14 2019,600,The main experiment item,yes,FlankerTask.osexp,/Users/danielrazo0311/Desktop,no,mono,no,18,no,white,no,yes,768,legacy,8,79,/Users/danielrazo0311/Desktop/DR-Subject-2.csv,legacy,Kafkaesque Koffka,3.2.8,0,s,NA,s,s,NA,s,NA,479,NA,33879,21508,NA,479,NA,2,legacy,1024,2,48000,-16,experiment,HHSHH,2,even,40492,206353,NA,219736,212352,6501,NA,NA,220876,NA,6528,184842,NA,220991,221473,NA,220863,220991,Flanker Task,85,45284,89,yes,1024
95.55555556,95.55555556,507.2777778,507.2777778,black,legacy,legacy,legacy,0,incongruent,uniform,1,undefined,1,s,0,0,0,89,89,0,89,0,89,0,0,0,0,89,89,NA,89,89,Wed Sep 25 11:14:14 2019,600,The main experiment item,yes,FlankerTask.osexp,/Users/danielrazo0311/Desktop,no,mono,no,18,no,white,no,yes,768,legacy,9,79,/Users/danielrazo0311/Desktop/DR-Subject-2.csv,legacy,Kafkaesque Koffka,3.2.8,0,s,NA,s,s,NA,s,NA,371,NA,33879,21508,NA,371,NA,2,legacy,1024,2,48000,-16,experiment,HHSHH,2,even,40492,206353,NA,221488,212352,6501,NA,NA,222630,NA,6528,184842,NA,222746,223120,NA,222618,222745,Flanker Task,86,45655,90,yes,1024
95.6043956,95.6043956,506.4175824,506.4175824,black,legacy,legacy,legacy,0,congruent,uniform,1,undefined,1,h,0,0,0,90,90,0,90,0,90,0,0,0,0,90,90,NA,90,90,Wed Sep 25 11:14:14 2019,600,The main experiment item,yes,FlankerTask.osexp,/Users/danielrazo0311/Desktop,no,mono,no,18,no,white,no,yes,768,legacy,10,79,/Users/danielrazo0311/Desktop/DR-Subject-2.csv,legacy,Kafkaesque Koffka,3.2.8,0,h,NA,s,s,NA,h,NA,429,NA,33879,21508,NA,429,NA,2,legacy,1024,2,48000,-16,experiment,HHHHH,2,even,40492,206353,NA,223135,212352,6501,NA,NA,224284,NA,6528,184842,NA,224401,224833,NA,224271,224401,Flanker Task,87,46084,91,yes,1024
95.65217391,95.65217391,505.923913,505.923913,black,legacy,legacy,legacy,0,incongruent,uniform,1,undefined,1,s,0,0,0,91,91,0,91,0,91,0,0,0,0,91,91,NA,91,91,Wed Sep 25 11:14:14 2019,600,The main experiment item,yes,FlankerTask.osexp,/Users/danielrazo0311/Desktop,no,mono,no,18,no,white,no,yes,768,legacy,11,79,/Users/danielrazo0311/Desktop/DR-Subject-2.csv,legacy,Kafkaesque Koffka,3.2.8,0,s,NA,s,s,NA,s,NA,461,NA,33879,21508,NA,461,NA,2,legacy,1024,2,48000,-16,experiment,HHSHH,2,even,40492,206353,NA,224849,212352,6501,NA,NA,225990,NA,6528,184842,NA,226105,226569,NA,225978,226105,Flanker Task,88,46545,92,yes,1024
95.69892473,95.69892473,504.6129032,504.6129032,black,legacy,legacy,legacy,0,congruent,uniform,1,undefined,1,h,0,0,0,92,92,0,92,0,92,0,0,0,0,92,92,NA,92,92,Wed Sep 25 11:14:14 2019,600,The main experiment item,yes,FlankerTask.osexp,/Users/danielrazo0311/Desktop,no,mono,no,18,no,white,no,yes,768,legacy,12,79,/Users/danielrazo0311/Desktop/DR-Subject-2.csv,legacy,Kafkaesque Koffka,3.2.8,0,h,NA,s,s,NA,h,NA,384,NA,33879,21508,NA,384,NA,2,legacy,1024,2,48000,-16,experiment,HHHHH,2,even,40492,206353,NA,226584,212352,6501,NA,NA,227729,NA,6528,184842,NA,227845,228232,NA,227716,227845,Flanker Task,89,46929,93,yes,1024
95.74468085,95.74468085,504.393617,504.393617,black,legacy,legacy,legacy,0,incongruent,uniform,1,undefined,1,h,0,0,0,93,93,0,93,0,93,0,0,0,0,93,93,NA,93,93,Wed Sep 25 11:14:14 2019,600,The main experiment item,yes,FlankerTask.osexp,/Users/danielrazo0311/Desktop,no,mono,no,18,no,white,no,yes,768,legacy,13,79,/Users/danielrazo0311/Desktop/DR-Subject-2.csv,legacy,Kafkaesque Koffka,3.2.8,0,h,NA,s,s,NA,h,NA,484,NA,33879,21508,NA,484,NA,2,legacy,1024,2,48000,-16,experiment,SSHSS,2,even,40492,206353,NA,228247,212352,6501,NA,NA,229389,NA,6528,184842,NA,229505,229993,NA,229376,229505,Flanker Task,90,47413,94,yes,1024
95.78947368,95.78947368,503.5368421,503.5368421,black,legacy,legacy,legacy,0,congruent,uniform,1,undefined,1,s,0,0,0,94,94,0,94,0,94,0,0,0,0,94,94,NA,94,94,Wed Sep 25 11:14:14 2019,600,The main experiment item,yes,FlankerTask.osexp,/Users/danielrazo0311/Desktop,no,mono,no,18,no,white,no,yes,768,legacy,14,79,/Users/danielrazo0311/Desktop/DR-Subject-2.csv,legacy,Kafkaesque Koffka,3.2.8,0,s,NA,s,s,NA,s,NA,423,NA,33879,21508,NA,423,NA,2,legacy,1024,2,48000,-16,experiment,SSSSS,2,even,40492,206353,NA,230010,212352,6501,NA,NA,231156,NA,6528,184842,NA,231271,231697,NA,231142,231271,Flanker Task,91,47836,95,yes,1024
95.83333333,95.83333333,503.3229167,503.3229167,black,legacy,legacy,legacy,0,incongruent,uniform,1,undefined,1,h,0,0,0,95,95,0,95,0,95,0,0,0,0,95,95,NA,95,95,Wed Sep 25 11:14:14 2019,600,The main experiment item,yes,FlankerTask.osexp,/Users/danielrazo0311/Desktop,no,mono,no,18,no,white,no,yes,768,legacy,15,79,/Users/danielrazo0311/Desktop/DR-Subject-2.csv,legacy,Kafkaesque Koffka,3.2.8,0,h,NA,s,s,NA,h,NA,483,NA,33879,21508,NA,483,NA,2,legacy,1024,2,48000,-16,experiment,SSHSS,2,even,40492,206353,NA,231712,212352,6501,NA,NA,232855,NA,6528,184842,NA,232971,233457,NA,232842,232971,Flanker Task,92,48319,96,yes,1024
95.87628866,95.87628866,502.8762887,502.8762887,black,legacy,legacy,legacy,0,incongruent,uniform,1,undefined,1,s,0,0,0,96,96,0,96,0,96,0,0,0,0,96,96,NA,96,96,Wed Sep 25 11:14:14 2019,600,The main experiment item,yes,FlankerTask.osexp,/Users/danielrazo0311/Desktop,no,mono,no,18,no,white,no,yes,768,legacy,16,79,/Users/danielrazo0311/Desktop/DR-Subject-2.csv,legacy,Kafkaesque Koffka,3.2.8,0,s,NA,s,s,NA,s,NA,460,NA,33879,21508,NA,460,NA,2,legacy,1024,2,48000,-16,experiment,HHSHH,2,even,40492,206353,NA,233472,212352,6501,NA,NA,234607,NA,6528,184842,NA,234720,235184,NA,234594,234720,Flanker Task,93,48779,97,yes,1024
95.91836735,95.91836735,502.744898,502.744898,black,legacy,legacy,legacy,0,incongruent,uniform,1,undefined,1,h,0,0,0,97,97,0,97,0,97,0,0,0,0,97,97,NA,97,97,Wed Sep 25 11:14:14 2019,600,The main experiment item,yes,FlankerTask.osexp,/Users/danielrazo0311/Desktop,no,mono,no,18,no,white,no,yes,768,legacy,17,79,/Users/danielrazo0311/Desktop/DR-Subject-2.csv,legacy,Kafkaesque Koffka,3.2.8,0,h,NA,s,s,NA,h,NA,490,NA,33879,21508,NA,490,NA,2,legacy,1024,2,48000,-16,experiment,SSHSS,2,even,40492,206353,NA,235200,212352,6501,NA,NA,236336,NA,6528,184842,NA,236451,236945,NA,236323,236451,Flanker Task,94,49269,98,yes,1024
95.95959596,95.95959596,502.7575758,502.7575758,black,legacy,legacy,legacy,0,incongruent,uniform,1,undefined,1,s,0,0,0,98,98,0,98,0,98,0,0,0,0,98,98,NA,98,98,Wed Sep 25 11:14:14 2019,600,The main experiment item,yes,FlankerTask.osexp,/Users/danielrazo0311/Desktop,no,mono,no,18,no,white,no,yes,768,legacy,18,79,/Users/danielrazo0311/Desktop/DR-Subject-2.csv,legacy,Kafkaesque Koffka,3.2.8,0,s,NA,s,s,NA,s,NA,504,NA,33879,21508,NA,504,NA,2,legacy,1024,2,48000,-16,experiment,HHSHH,2,even,40492,206353,NA,236960,212352,6501,NA,NA,238105,NA,6528,184842,NA,238221,238729,NA,238090,238220,Flanker Task,95,49773,99,yes,1024
96,96,502.6,502.6,black,legacy,legacy,legacy,0,congruent,uniform,1,undefined,1,s,0,0,0,99,99,0,99,0,99,0,0,0,0,99,99,NA,99,99,Wed Sep 25 11:14:14 2019,600,The main experiment item,yes,FlankerTask.osexp,/Users/danielrazo0311/Desktop,no,mono,no,18,no,white,no,yes,768,legacy,19,79,/Users/danielrazo0311/Desktop/DR-Subject-2.csv,legacy,Kafkaesque Koffka,3.2.8,0,s,NA,s,s,NA,s,NA,487,NA,33879,21508,NA,487,NA,2,legacy,1024,2,48000,-16,experiment,SSSSS,2,even,40492,206353,NA,238745,212352,6501,NA,NA,239878,NA,6528,184842,NA,239990,240480,NA,239863,239990,Flanker Task,96,50260,100,yes,1024
96.03960396,96.03960396,503.049505,503.049505,black,legacy,legacy,legacy,0,incongruent,uniform,1,undefined,1,s,0,0,0,100,100,0,100,0,100,0,0,0,0,100,100,NA,100,100,Wed Sep 25 11:14:14 2019,600,The main experiment item,yes,FlankerTask.osexp,/Users/danielrazo0311/Desktop,no,mono,no,18,no,white,no,yes,768,legacy,20,79,/Users/danielrazo0311/Desktop/DR-Subject-2.csv,legacy,Kafkaesque Koffka,3.2.8,0,s,NA,s,s,NA,s,NA,548,NA,33879,21508,NA,548,NA,2,legacy,1024,2,48000,-16,experiment,HHSHH,2,even,40492,206353,NA,240496,212352,6501,NA,NA,241632,NA,6528,184842,NA,241744,242296,NA,241620,241744,Flanker Task,97,50808,101,yes,1024
96.07843137,96.07843137,502.5882353,502.5882353,black,legacy,legacy,legacy,0,congruent,uniform,1,undefined,1,h,0,0,0,101,101,0,101,0,101,0,0,0,0,101,101,NA,101,101,Wed Sep 25 11:14:14 2019,600,The main experiment item,yes,FlankerTask.osexp,/Users/danielrazo0311/Desktop,no,mono,no,18,no,white,no,yes,768,legacy,21,79,/Users/danielrazo0311/Desktop/DR-Subject-2.csv,legacy,Kafkaesque Koffka,3.2.8,0,h,NA,s,s,NA,h,NA,456,NA,33879,21508,NA,456,NA,2,legacy,1024,2,48000,-16,experiment,HHHHH,2,even,40492,206353,NA,242311,212352,6501,NA,NA,243450,NA,6528,184842,NA,243564,244024,NA,243437,243564,Flanker Task,98,51264,102,yes,1024
96.11650485,96.11650485,502.1553398,502.1553398,black,legacy,legacy,legacy,0,congruent,uniform,1,undefined,1,s,0,0,0,102,102,0,102,0,102,0,0,0,0,102,102,NA,102,102,Wed Sep 25 11:14:14 2019,600,The main experiment item,yes,FlankerTask.osexp,/Users/danielrazo0311/Desktop,no,mono,no,18,no,white,no,yes,768,legacy,22,79,/Users/danielrazo0311/Desktop/DR-Subject-2.csv,legacy,Kafkaesque Koffka,3.2.8,0,s,NA,s,s,NA,s,NA,458,NA,33879,21508,NA,458,NA,2,legacy,1024,2,48000,-16,experiment,SSSSS,2,even,40492,206353,NA,244039,212352,6501,NA,NA,245177,NA,6528,184842,NA,245291,245752,NA,245164,245291,Flanker Task,99,51722,103,yes,1024
96.15384615,96.15384615,501.3846154,501.3846154,black,legacy,legacy,legacy,0,congruent,uniform,1,undefined,1,s,0,0,0,103,103,0,103,0,103,0,0,0,0,103,103,NA,103,103,Wed Sep 25 11:14:14 2019,600,The main experiment item,yes,FlankerTask.osexp,/Users/danielrazo0311/Desktop,no,mono,no,18,no,white,no,yes,768,legacy,23,79,/Users/danielrazo0311/Desktop/DR-Subject-2.csv,legacy,Kafkaesque Koffka,3.2.8,0,s,NA,s,s,NA,s,NA,422,NA,33879,21508,NA,422,NA,2,legacy,1024,2,48000,-16,experiment,SSSSS,2,even,40492,206353,NA,245767,212352,6501,NA,NA,246901,NA,6528,184842,NA,247015,247441,NA,246889,247015,Flanker Task,100,52144,104,yes,1024
96.19047619,96.19047619,500.3142857,500.3142857,black,legacy,legacy,legacy,0,congruent,uniform,1,undefined,1,s,0,0,0,104,104,0,104,0,104,0,0,0,0,104,104,NA,104,104,Wed Sep 25 11:14:14 2019,600,The main experiment item,yes,FlankerTask.osexp,/Users/danielrazo0311/Desktop,no,mono,no,18,no,white,no,yes,768,legacy,24,79,/Users/danielrazo0311/Desktop/DR-Subject-2.csv,legacy,Kafkaesque Koffka,3.2.8,0,s,NA,s,s,NA,s,NA,389,NA,33879,21508,NA,389,NA,2,legacy,1024,2,48000,-16,experiment,SSSSS,2,even,40492,206353,NA,247458,212352,6501,NA,NA,248598,NA,6528,184842,NA,248711,249103,NA,248585,248711,Flanker Task,101,52533,105,yes,1024
95.28301887,95.28301887,499.7735849,499.7735849,black,legacy,legacy,legacy,0,incongruent,uniform,0,undefined,0,s,0,0,0,105,105,0,105,0,105,0,0,0,0,105,105,NA,105,105,Wed Sep 25 11:14:14 2019,600,The main experiment item,yes,FlankerTask.osexp,/Users/danielrazo0311/Desktop,no,mono,no,18,no,white,no,yes,768,legacy,25,79,/Users/danielrazo0311/Desktop/DR-Subject-2.csv,legacy,Kafkaesque Koffka,3.2.8,0,h,NA,s,s,NA,h,NA,443,NA,33879,21508,NA,443,NA,2,legacy,1024,2,48000,-16,experiment,HHSHH,2,even,40492,206353,NA,249118,212352,6501,NA,NA,250250,NA,6528,184842,NA,250362,250808,NA,250237,250362,Flanker Task,101,52976,106,yes,1024
95.3271028,95.3271028,500,500,black,legacy,legacy,legacy,0,congruent,uniform,1,undefined,1,h,0,0,0,106,106,0,106,0,106,0,0,0,0,106,106,NA,106,106,Wed Sep 25 11:14:14 2019,600,The main experiment item,yes,FlankerTask.osexp,/Users/danielrazo0311/Desktop,no,mono,no,18,no,white,no,yes,768,legacy,26,79,/Users/danielrazo0311/Desktop/DR-Subject-2.csv,legacy,Kafkaesque Koffka,3.2.8,0,h,NA,s,s,NA,h,NA,524,NA,33879,21508,NA,524,NA,2,legacy,1024,2,48000,-16,experiment,HHHHH,2,even,40492,206353,NA,251337,250823,6501,NA,NA,252471,NA,6528,184842,NA,252584,253111,NA,252459,252584,Flanker Task,102,53500,107,yes,1024
95.37037037,95.37037037,499.7222222,499.7222222,black,legacy,legacy,legacy,0,congruent,uniform,1,undefined,1,h,0,0,0,107,107,0,107,0,107,0,0,0,0,107,107,NA,107,107,Wed Sep 25 11:14:14 2019,600,The main experiment item,yes,FlankerTask.osexp,/Users/danielrazo0311/Desktop,no,mono,no,18,no,white,no,yes,768,legacy,27,79,/Users/danielrazo0311/Desktop/DR-Subject-2.csv,legacy,Kafkaesque Koffka,3.2.8,0,h,NA,s,s,NA,h,NA,470,NA,33879,21508,NA,470,NA,2,legacy,1024,2,48000,-16,experiment,HHHHH,2,even,40492,206353,NA,253127,250823,6501,NA,NA,254275,NA,6528,184842,NA,254391,254864,NA,254262,254390,Flanker Task,103,53970,108,yes,1024
95.41284404,95.41284404,498.8715596,498.8715596,black,legacy,legacy,legacy,0,congruent,uniform,1,undefined,1,h,0,0,0,108,108,0,108,0,108,0,0,0,0,108,108,NA,108,108,Wed Sep 25 11:14:14 2019,600,The main experiment item,yes,FlankerTask.osexp,/Users/danielrazo0311/Desktop,no,mono,no,18,no,white,no,yes,768,legacy,28,79,/Users/danielrazo0311/Desktop/DR-Subject-2.csv,legacy,Kafkaesque Koffka,3.2.8,0,h,NA,s,s,NA,h,NA,407,NA,33879,21508,NA,407,NA,2,legacy,1024,2,48000,-16,experiment,HHHHH,2,even,40492,206353,NA,254879,250823,6501,NA,NA,256010,NA,6528,184842,NA,256126,256536,NA,255999,256126,Flanker Task,104,54377,109,yes,1024
95.45454545,95.45454545,499.8090909,499.8090909,black,legacy,legacy,legacy,0,incongruent,uniform,1,undefined,1,h,0,0,0,109,109,0,109,0,109,0,0,0,0,109,109,NA,109,109,Wed Sep 25 11:14:14 2019,600,The main experiment item,yes,FlankerTask.osexp,/Users/danielrazo0311/Desktop,no,mono,no,18,no,white,no,yes,768,legacy,29,79,/Users/danielrazo0311/Desktop/DR-Subject-2.csv,legacy,Kafkaesque Koffka,3.2.8,0,h,NA,s,s,NA,h,NA,602,NA,33879,21508,NA,602,NA,2,legacy,1024,2,48000,-16,experiment,SSHSS,2,even,40492,206353,NA,256552,250823,6501,NA,NA,257691,NA,6528,184842,NA,257803,258408,NA,257678,257803,Flanker Task,105,54979,110,yes,1024
95.4954955,95.4954955,499.9279279,499.9279279,black,legacy,legacy,legacy,0,incongruent,uniform,1,undefined,1,h,0,0,0,110,110,0,110,0,110,0,0,0,0,110,110,NA,110,110,Wed Sep 25 11:14:14 2019,600,The main experiment item,yes,FlankerTask.osexp,/Users/danielrazo0311/Desktop,no,mono,no,18,no,white,no,yes,768,legacy,30,79,/Users/danielrazo0311/Desktop/DR-Subject-2.csv,legacy,Kafkaesque Koffka,3.2.8,0,h,NA,s,s,NA,h,NA,513,NA,33879,21508,NA,513,NA,2,legacy,1024,2,48000,-16,experiment,SSHSS,2,even,40492,206353,NA,258938,250823,6501,258425,NA,260073,NA,6528,184842,NA,260188,260704,NA,260060,260188,Flanker Task,106,55492,111,yes,1024
95.53571429,95.53571429,499.2410714,499.2410714,black,legacy,legacy,legacy,0,incongruent,uniform,1,undefined,1,h,0,0,0,111,111,0,111,0,111,0,0,0,0,111,111,NA,111,111,Wed Sep 25 11:14:14 2019,600,The main experiment item,yes,FlankerTask.osexp,/Users/danielrazo0311/Desktop,no,mono,no,18,no,white,no,yes,768,legacy,31,79,/Users/danielrazo0311/Desktop/DR-Subject-2.csv,legacy,Kafkaesque Koffka,3.2.8,0,h,NA,s,s,NA,h,NA,423,NA,33879,21508,NA,423,NA,2,legacy,1024,2,48000,-16,experiment,SSHSS,2,even,40492,206353,NA,260720,250823,6501,258425,NA,261853,NA,6528,184842,NA,261966,262392,NA,261840,261966,Flanker Task,107,55915,112,yes,1024
94.69026549,94.69026549,497.8141593,497.8141593,black,legacy,legacy,legacy,0,incongruent,uniform,0,undefined,0,s,0,0,0,112,112,0,112,0,112,0,0,0,0,112,112,NA,112,112,Wed Sep 25 11:14:14 2019,600,The main experiment item,yes,FlankerTask.osexp,/Users/danielrazo0311/Desktop,no,mono,no,18,no,white,no,yes,768,legacy,32,79,/Users/danielrazo0311/Desktop/DR-Subject-2.csv,legacy,Kafkaesque Koffka,3.2.8,0,h,NA,s,s,NA,h,NA,338,NA,33879,21508,NA,338,NA,2,legacy,1024,2,48000,-16,experiment,HHSHH,2,even,40492,206353,NA,262408,250823,6501,258425,NA,263538,NA,6528,184842,NA,263651,263992,NA,263526,263651,Flanker Task,107,56253,113,yes,1024
94.73684211,94.73684211,498.2280702,498.2280702,black,legacy,legacy,legacy,0,incongruent,uniform,1,undefined,1,h,0,0,0,113,113,0,113,0,113,0,0,0,0,113,113,NA,113,113,Wed Sep 25 11:14:14 2019,600,The main experiment item,yes,FlankerTask.osexp,/Users/danielrazo0311/Desktop,no,mono,no,18,no,white,no,yes,768,legacy,33,79,/Users/danielrazo0311/Desktop/DR-Subject-2.csv,legacy,Kafkaesque Koffka,3.2.8,0,h,NA,s,s,NA,h,NA,545,NA,33879,21508,NA,545,NA,2,legacy,1024,2,48000,-16,experiment,SSHSS,2,even,40492,206353,NA,264520,264007,6501,258425,NA,265650,NA,6528,184842,NA,265763,266311,NA,265638,265763,Flanker Task,108,56798,114,yes,1024
94.7826087,94.7826087,498.2173913,498.2173913,black,legacy,legacy,legacy,0,incongruent,uniform,1,undefined,1,s,0,0,0,114,114,0,114,0,114,0,0,0,0,114,114,NA,114,114,Wed Sep 25 11:14:14 2019,600,The main experiment item,yes,FlankerTask.osexp,/Users/danielrazo0311/Desktop,no,mono,no,18,no,white,no,yes,768,legacy,34,79,/Users/danielrazo0311/Desktop/DR-Subject-2.csv,legacy,Kafkaesque Koffka,3.2.8,0,s,NA,s,s,NA,s,NA,497,NA,33879,21508,NA,497,NA,2,legacy,1024,2,48000,-16,experiment,HHSHH,2,even,40492,206353,NA,266328,264007,6501,258425,NA,267464,NA,6528,184842,NA,267579,268079,NA,267452,267579,Flanker Task,109,57295,115,yes,1024
94.82758621,94.82758621,498.1810345,498.1810345,black,legacy,legacy,legacy,0,incongruent,uniform,1,undefined,1,h,0,0,0,115,115,0,115,0,115,0,0,0,0,115,115,NA,115,115,Wed Sep 25 11:14:14 2019,600,The main experiment item,yes,FlankerTask.osexp,/Users/danielrazo0311/Desktop,no,mono,no,18,no,white,no,yes,768,legacy,35,79,/Users/danielrazo0311/Desktop/DR-Subject-2.csv,legacy,Kafkaesque Koffka,3.2.8,0,h,NA,s,s,NA,h,NA,494,NA,33879,21508,NA,494,NA,2,legacy,1024,2,48000,-16,experiment,SSHSS,2,even,40492,206353,NA,268094,264007,6501,258425,NA,269227,NA,6528,184842,NA,269343,269840,NA,269214,269342,Flanker Task,110,57789,116,yes,1024
94.87179487,94.87179487,500.2820513,500.2820513,black,legacy,legacy,legacy,0,incongruent,uniform,1,undefined,1,s,0,0,0,116,116,0,116,0,116,0,0,0,0,116,116,NA,116,116,Wed Sep 25 11:14:14 2019,600,The main experiment item,yes,FlankerTask.osexp,/Users/danielrazo0311/Desktop,no,mono,no,18,no,white,no,yes,768,legacy,36,79,/Users/danielrazo0311/Desktop/DR-Subject-2.csv,legacy,Kafkaesque Koffka,3.2.8,0,s,NA,s,s,NA,s,NA,744,NA,33879,21508,NA,744,NA,2,legacy,1024,2,48000,-16,experiment,HHSHH,2,even,40492,206353,NA,269855,264007,6501,258425,NA,270995,NA,6528,184842,NA,271109,271856,NA,270982,271109,Flanker Task,111,58533,117,yes,1024
94.91525424,94.91525424,500.3644068,500.3644068,black,legacy,legacy,legacy,0,incongruent,uniform,1,undefined,1,s,0,0,0,117,117,0,117,0,117,0,0,0,0,117,117,NA,117,117,Wed Sep 25 11:14:14 2019,600,The main experiment item,yes,FlankerTask.osexp,/Users/danielrazo0311/Desktop,no,mono,no,18,no,white,no,yes,768,legacy,37,79,/Users/danielrazo0311/Desktop/DR-Subject-2.csv,legacy,Kafkaesque Koffka,3.2.8,0,s,NA,s,s,NA,s,NA,510,NA,33879,21508,NA,510,NA,2,legacy,1024,2,48000,-16,experiment,HHSHH,2,even,40492,206353,NA,272384,264007,6501,271871,NA,273514,NA,6528,184842,NA,273629,274143,NA,273502,273629,Flanker Task,112,59043,118,yes,1024
94.95798319,94.95798319,499.4621849,499.4621849,black,legacy,legacy,legacy,0,incongruent,uniform,1,undefined,1,h,0,0,0,118,118,0,118,0,118,0,0,0,0,118,118,NA,118,118,Wed Sep 25 11:14:14 2019,600,The main experiment item,yes,FlankerTask.osexp,/Users/danielrazo0311/Desktop,no,mono,no,18,no,white,no,yes,768,legacy,38,79,/Users/danielrazo0311/Desktop/DR-Subject-2.csv,legacy,Kafkaesque Koffka,3.2.8,0,h,NA,s,s,NA,h,NA,393,NA,33879,21508,NA,393,NA,2,legacy,1024,2,48000,-16,experiment,SSHSS,2,even,40492,206353,NA,274158,264007,6501,271871,NA,275289,NA,6528,184842,NA,275403,275800,NA,275277,275403,Flanker Task,113,59436,119,yes,1024
94.16666667,94.16666667,499.0333333,499.0333333,black,legacy,legacy,legacy,0,incongruent,uniform,0,undefined,0,s,0,0,0,119,119,0,119,0,119,0,0,0,0,119,119,NA,119,119,Wed Sep 25 11:14:14 2019,600,The main experiment item,yes,FlankerTask.osexp,/Users/danielrazo0311/Desktop,no,mono,no,18,no,white,no,yes,768,legacy,39,79,/Users/danielrazo0311/Desktop/DR-Subject-2.csv,legacy,Kafkaesque Koffka,3.2.8,0,h,NA,s,s,NA,h,NA,448,NA,33879,21508,NA,448,NA,2,legacy,1024,2,48000,-16,experiment,HHSHH,2,even,40492,206353,NA,275815,264007,6501,271871,NA,276947,NA,6528,184842,NA,277060,277512,NA,276934,277060,Flanker Task,113,59884,120,yes,1024
94.21487603,94.21487603,499.5206612,499.5206612,black,legacy,legacy,legacy,0,incongruent,uniform,1,undefined,1,s,0,0,0,120,120,0,120,0,120,0,0,0,0,120,120,NA,120,120,Wed Sep 25 11:14:14 2019,600,The main experiment item,yes,FlankerTask.osexp,/Users/danielrazo0311/Desktop,no,mono,no,18,no,white,no,yes,768,legacy,40,79,/Users/danielrazo0311/Desktop/DR-Subject-2.csv,legacy,Kafkaesque Koffka,3.2.8,0,s,NA,s,s,NA,s,NA,558,NA,33879,21508,NA,558,NA,2,legacy,1024,2,48000,-16,experiment,HHSHH,2,even,40492,206353,NA,278040,277528,6501,271871,NA,279171,NA,6528,184842,NA,279286,279848,NA,279158,279285,Flanker Task,114,60442,121,yes,1024
94.26229508,94.26229508,498.6311475,498.6311475,black,legacy,legacy,legacy,0,congruent,uniform,1,undefined,1,s,0,0,0,121,121,0,121,0,121,0,0,0,0,121,121,NA,121,121,Wed Sep 25 11:14:14 2019,600,The main experiment item,yes,FlankerTask.osexp,/Users/danielrazo0311/Desktop,no,mono,no,18,no,white,no,yes,768,legacy,41,79,/Users/danielrazo0311/Desktop/DR-Subject-2.csv,legacy,Kafkaesque Koffka,3.2.8,0,s,NA,s,s,NA,s,NA,391,NA,33879,21508,NA,391,NA,2,legacy,1024,2,48000,-16,experiment,SSSSS,2,even,40492,206353,NA,279863,277528,6501,271871,NA,280994,NA,6528,184842,NA,281109,281504,NA,280981,281108,Flanker Task,115,60833,122,yes,1024
94.30894309,94.30894309,498.9268293,498.9268293,black,legacy,legacy,legacy,0,congruent,uniform,1,undefined,1,h,0,0,0,122,122,0,122,0,122,0,0,0,0,122,122,NA,122,122,Wed Sep 25 11:14:14 2019,600,The main experiment item,yes,FlankerTask.osexp,/Users/danielrazo0311/Desktop,no,mono,no,18,no,white,no,yes,768,legacy,42,79,/Users/danielrazo0311/Desktop/DR-Subject-2.csv,legacy,Kafkaesque Koffka,3.2.8,0,h,NA,s,s,NA,h,NA,535,NA,33879,21508,NA,535,NA,2,legacy,1024,2,48000,-16,experiment,HHHHH,2,even,40492,206353,NA,281519,277528,6501,271871,NA,282651,NA,6528,184842,NA,282764,283303,NA,282638,282764,Flanker Task,116,61368,123,yes,1024
94.35483871,94.35483871,498.6532258,498.6532258,black,legacy,legacy,legacy,0,incongruent,uniform,1,undefined,1,h,0,0,0,123,123,0,123,0,123,0,0,0,0,123,123,NA,123,123,Wed Sep 25 11:14:14 2019,600,The main experiment item,yes,FlankerTask.osexp,/Users/danielrazo0311/Desktop,no,mono,no,18,no,white,no,yes,768,legacy,43,79,/Users/danielrazo0311/Desktop/DR-Subject-2.csv,legacy,Kafkaesque Koffka,3.2.8,0,h,NA,s,s,NA,h,NA,465,NA,33879,21508,NA,465,NA,2,legacy,1024,2,48000,-16,experiment,SSHSS,2,even,40492,206353,NA,283318,277528,6501,271871,NA,284455,NA,6528,184842,NA,284570,285041,NA,284443,284570,Flanker Task,117,61833,124,yes,1024
94.4,94.4,497.616,497.616,black,legacy,legacy,legacy,0,incongruent,uniform,1,undefined,1,h,0,0,0,124,124,0,124,0,124,0,0,0,0,124,124,NA,124,124,Wed Sep 25 11:14:14 2019,600,The main experiment item,yes,FlankerTask.osexp,/Users/danielrazo0311/Desktop,no,mono,no,18,no,white,no,yes,768,legacy,44,79,/Users/danielrazo0311/Desktop/DR-Subject-2.csv,legacy,Kafkaesque Koffka,3.2.8,0,h,NA,s,s,NA,h,NA,369,NA,33879,21508,NA,369,NA,2,legacy,1024,2,48000,-16,experiment,SSHSS,2,even,40492,206353,NA,285059,277528,6501,271871,NA,286193,NA,6528,184842,NA,286307,286680,NA,286180,286306,Flanker Task,118,62202,125,yes,1024
94.44444444,94.44444444,497.0396825,497.0396825,black,legacy,legacy,legacy,0,congruent,uniform,1,undefined,1,h,0,0,0,125,125,0,125,0,125,0,0,0,0,125,125,NA,125,125,Wed Sep 25 11:14:14 2019,600,The main experiment item,yes,FlankerTask.osexp,/Users/danielrazo0311/Desktop,no,mono,no,18,no,white,no,yes,768,legacy,45,79,/Users/danielrazo0311/Desktop/DR-Subject-2.csv,legacy,Kafkaesque Koffka,3.2.8,0,h,NA,s,s,NA,h,NA,425,NA,33879,21508,NA,425,NA,2,legacy,1024,2,48000,-16,experiment,HHHHH,2,even,40492,206353,NA,286695,277528,6501,271871,NA,287826,NA,6528,184842,NA,287939,288368,NA,287814,287938,Flanker Task,119,62627,126,yes,1024
94.48818898,94.48818898,496.8897638,496.8897638,black,legacy,legacy,legacy,0,congruent,uniform,1,undefined,1,s,0,0,0,126,126,0,126,0,126,0,0,0,0,126,126,NA,126,126,Wed Sep 25 11:14:14 2019,600,The main experiment item,yes,FlankerTask.osexp,/Users/danielrazo0311/Desktop,no,mono,no,18,no,white,no,yes,768,legacy,46,79,/Users/danielrazo0311/Desktop/DR-Subject-2.csv,legacy,Kafkaesque Koffka,3.2.8,0,s,NA,s,s,NA,s,NA,478,NA,33879,21508,NA,478,NA,2,legacy,1024,2,48000,-16,experiment,SSSSS,2,even,40492,206353,NA,288385,277528,6501,271871,NA,289516,NA,6528,184842,NA,289629,290111,NA,289503,289629,Flanker Task,120,63105,127,yes,1024
94.53125,94.53125,496.078125,496.078125,black,legacy,legacy,legacy,0,congruent,uniform,1,undefined,1,h,0,0,0,127,127,0,127,0,127,0,0,0,0,127,127,NA,127,127,Wed Sep 25 11:14:14 2019,600,The main experiment item,yes,FlankerTask.osexp,/Users/danielrazo0311/Desktop,no,mono,no,18,no,white,no,yes,768,legacy,47,79,/Users/danielrazo0311/Desktop/DR-Subject-2.csv,legacy,Kafkaesque Koffka,3.2.8,0,h,NA,s,s,NA,h,NA,393,NA,33879,21508,NA,393,NA,2,legacy,1024,2,48000,-16,experiment,HHHHH,2,even,40492,206353,NA,290126,277528,6501,271871,NA,291256,NA,6528,184842,NA,291371,291768,NA,291244,291371,Flanker Task,121,63498,128,yes,1024
94.57364341,94.57364341,497.0232558,497.0232558,black,legacy,legacy,legacy,0,incongruent,uniform,1,undefined,1,s,0,0,0,128,128,0,128,0,128,0,0,0,0,128,128,NA,128,128,Wed Sep 25 11:14:14 2019,600,The main experiment item,yes,FlankerTask.osexp,/Users/danielrazo0311/Desktop,no,mono,no,18,no,white,no,yes,768,legacy,48,79,/Users/danielrazo0311/Desktop/DR-Subject-2.csv,legacy,Kafkaesque Koffka,3.2.8,0,s,NA,s,s,NA,s,NA,618,NA,33879,21508,NA,618,NA,2,legacy,1024,2,48000,-16,experiment,HHSHH,2,even,40492,206353,NA,291783,277528,6501,271871,NA,292920,NA,6528,184842,NA,293034,293656,NA,292907,293033,Flanker Task,122,64116,129,yes,1024
94.61538462,94.61538462,495.9769231,495.9769231,black,legacy,legacy,legacy,0,congruent,uniform,1,undefined,1,s,0,0,0,129,129,0,129,0,129,0,0,0,0,129,129,NA,129,129,Wed Sep 25 11:14:14 2019,600,The main experiment item,yes,FlankerTask.osexp,/Users/danielrazo0311/Desktop,no,mono,no,18,no,white,no,yes,768,legacy,49,79,/Users/danielrazo0311/Desktop/DR-Subject-2.csv,legacy,Kafkaesque Koffka,3.2.8,0,s,NA,s,s,NA,s,NA,361,NA,33879,21508,NA,361,NA,2,legacy,1024,2,48000,-16,experiment,SSSSS,2,even,40492,206353,NA,294183,277528,6501,293671,NA,295314,NA,6528,184842,NA,295427,295792,NA,295302,295427,Flanker Task,123,64477,130,yes,1024
94.65648855,94.65648855,495.3740458,495.3740458,black,legacy,legacy,legacy,0,congruent,uniform,1,undefined,1,h,0,0,0,130,130,0,130,0,130,0,0,0,0,130,130,NA,130,130,Wed Sep 25 11:14:14 2019,600,The main experiment item,yes,FlankerTask.osexp,/Users/danielrazo0311/Desktop,no,mono,no,18,no,white,no,yes,768,legacy,50,79,/Users/danielrazo0311/Desktop/DR-Subject-2.csv,legacy,Kafkaesque Koffka,3.2.8,0,h,NA,s,s,NA,h,NA,417,NA,33879,21508,NA,417,NA,2,legacy,1024,2,48000,-16,experiment,HHHHH,2,even,40492,206353,NA,295808,277528,6501,293671,NA,296939,NA,6528,184842,NA,297051,297471,NA,296927,297051,Flanker Task,124,64894,131,yes,1024
94.6969697,94.6969697,494.5984848,494.5984848,black,legacy,legacy,legacy,0,congruent,uniform,1,undefined,1,s,0,0,0,131,131,0,131,0,131,0,0,0,0,131,131,NA,131,131,Wed Sep 25 11:14:14 2019,600,The main experiment item,yes,FlankerTask.osexp,/Users/danielrazo0311/Desktop,no,mono,no,18,no,white,no,yes,768,legacy,51,79,/Users/danielrazo0311/Desktop/DR-Subject-2.csv,legacy,Kafkaesque Koffka,3.2.8,0,s,NA,s,s,NA,s,NA,393,NA,33879,21508,NA,393,NA,2,legacy,1024,2,48000,-16,experiment,SSSSS,2,even,40492,206353,NA,297487,277528,6501,293671,NA,298616,NA,6528,184842,NA,298730,299126,NA,298604,298730,Flanker Task,125,65287,132,yes,1024
94.73684211,94.73684211,494.6015038,494.6015038,black,legacy,legacy,legacy,0,incongruent,uniform,1,undefined,1,h,0,0,0,132,132,0,132,0,132,0,0,0,0,132,132,NA,132,132,Wed Sep 25 11:14:14 2019,600,The main experiment item,yes,FlankerTask.osexp,/Users/danielrazo0311/Desktop,no,mono,no,18,no,white,no,yes,768,legacy,52,79,/Users/danielrazo0311/Desktop/DR-Subject-2.csv,legacy,Kafkaesque Koffka,3.2.8,0,h,NA,s,s,NA,h,NA,495,NA,33879,21508,NA,495,NA,2,legacy,1024,2,48000,-16,experiment,SSHSS,2,even,40492,206353,NA,299142,277528,6501,293671,NA,300274,NA,6528,184842,NA,300389,300888,NA,300261,300389,Flanker Task,126,65782,133,yes,1024
94.7761194,94.7761194,494.738806,494.738806,black,legacy,legacy,legacy,0,congruent,uniform,1,undefined,1,s,0,0,0,133,133,0,133,0,133,0,0,0,0,133,133,NA,133,133,Wed Sep 25 11:14:14 2019,600,The main experiment item,yes,FlankerTask.osexp,/Users/danielrazo0311/Desktop,no,mono,no,18,no,white,no,yes,768,legacy,53,79,/Users/danielrazo0311/Desktop/DR-Subject-2.csv,legacy,Kafkaesque Koffka,3.2.8,0,s,NA,s,s,NA,s,NA,513,NA,33879,21508,NA,513,NA,2,legacy,1024,2,48000,-16,experiment,SSSSS,2,even,40492,206353,NA,300903,277528,6501,293671,NA,302033,NA,6528,184842,NA,302147,302663,NA,302020,302147,Flanker Task,127,66295,134,yes,1024
94.81481481,94.81481481,494.3925926,494.3925926,black,legacy,legacy,legacy,0,congruent,uniform,1,undefined,1,h,0,0,0,134,134,0,134,0,134,0,0,0,0,134,134,NA,134,134,Wed Sep 25 11:14:14 2019,600,The main experiment item,yes,FlankerTask.osexp,/Users/danielrazo0311/Desktop,no,mono,no,18,no,white,no,yes,768,legacy,54,79,/Users/danielrazo0311/Desktop/DR-Subject-2.csv,legacy,Kafkaesque Koffka,3.2.8,0,h,NA,s,s,NA,h,NA,448,NA,33879,21508,NA,448,NA,2,legacy,1024,2,48000,-16,experiment,HHHHH,2,even,40492,206353,NA,302679,277528,6501,293671,NA,303810,NA,6528,184842,NA,303924,304375,NA,303797,303924,Flanker Task,128,66743,135,yes,1024
94.85294118,94.85294118,494.0661765,494.0661765,black,legacy,legacy,legacy,0,incongruent,uniform,1,undefined,1,s,0,0,0,135,135,0,135,0,135,0,0,0,0,135,135,NA,135,135,Wed Sep 25 11:14:14 2019,600,The main experiment item,yes,FlankerTask.osexp,/Users/danielrazo0311/Desktop,no,mono,no,18,no,white,no,yes,768,legacy,55,79,/Users/danielrazo0311/Desktop/DR-Subject-2.csv,legacy,Kafkaesque Koffka,3.2.8,0,s,NA,s,s,NA,s,NA,450,NA,33879,21508,NA,450,NA,2,legacy,1024,2,48000,-16,experiment,HHSHH,2,even,40492,206353,NA,304391,277528,6501,293671,NA,305527,NA,6528,184842,NA,305641,306094,NA,305515,305641,Flanker Task,129,67193,136,yes,1024
94.89051095,94.89051095,493.810219,493.810219,black,legacy,legacy,legacy,0,congruent,uniform,1,undefined,1,s,0,0,0,136,136,0,136,0,136,0,0,0,0,136,136,NA,136,136,Wed Sep 25 11:14:14 2019,600,The main experiment item,yes,FlankerTask.osexp,/Users/danielrazo0311/Desktop,no,mono,no,18,no,white,no,yes,768,legacy,56,79,/Users/danielrazo0311/Desktop/DR-Subject-2.csv,legacy,Kafkaesque Koffka,3.2.8,0,s,NA,s,s,NA,s,NA,459,NA,33879,21508,NA,459,NA,2,legacy,1024,2,48000,-16,experiment,SSSSS,2,even,40492,206353,NA,306109,277528,6501,293671,NA,307240,NA,6528,184842,NA,307353,307815,NA,307227,307353,Flanker Task,130,67652,137,yes,1024
94.20289855,94.20289855,492.9492754,492.9492754,black,legacy,legacy,legacy,0,congruent,uniform,0,undefined,0,h,0,0,0,137,137,0,137,0,137,0,0,0,0,137,137,NA,137,137,Wed Sep 25 11:14:14 2019,600,The main experiment item,yes,FlankerTask.osexp,/Users/danielrazo0311/Desktop,no,mono,no,18,no,white,no,yes,768,legacy,57,79,/Users/danielrazo0311/Desktop/DR-Subject-2.csv,legacy,Kafkaesque Koffka,3.2.8,0,s,NA,s,s,NA,s,NA,375,NA,33879,21508,NA,375,NA,2,legacy,1024,2,48000,-16,experiment,HHHHH,2,even,40492,206353,NA,307831,277528,6501,293671,NA,308971,NA,6528,184842,NA,309085,309463,NA,308959,309084,Flanker Task,130,68027,138,yes,1024
94.24460432,94.24460432,492.4892086,492.4892086,black,legacy,legacy,legacy,0,congruent,uniform,1,undefined,1,s,0,0,0,138,138,0,138,0,138,0,0,0,0,138,138,NA,138,138,Wed Sep 25 11:14:14 2019,600,The main experiment item,yes,FlankerTask.osexp,/Users/danielrazo0311/Desktop,no,mono,no,18,no,white,no,yes,768,legacy,58,79,/Users/danielrazo0311/Desktop/DR-Subject-2.csv,legacy,Kafkaesque Koffka,3.2.8,0,s,NA,s,s,NA,s,NA,429,NA,33879,21508,NA,429,NA,2,legacy,1024,2,48000,-16,experiment,SSSSS,2,even,40492,206353,NA,309994,309478,6501,293671,NA,311124,NA,6528,184842,NA,311239,311671,NA,311112,311239,Flanker Task,131,68456,139,yes,1024
94.28571429,94.28571429,492.6071429,492.6071429,black,legacy,legacy,legacy,0,incongruent,uniform,1,undefined,1,h,0,0,0,139,139,0,139,0,139,0,0,0,0,139,139,NA,139,139,Wed Sep 25 11:14:14 2019,600,The main experiment item,yes,FlankerTask.osexp,/Users/danielrazo0311/Desktop,no,mono,no,18,no,white,no,yes,768,legacy,59,79,/Users/danielrazo0311/Desktop/DR-Subject-2.csv,legacy,Kafkaesque Koffka,3.2.8,0,h,NA,s,s,NA,h,NA,509,NA,33879,21508,NA,509,NA,2,legacy,1024,2,48000,-16,experiment,SSHSS,2,even,40492,206353,NA,311686,309478,6501,293671,NA,312821,NA,6528,184842,NA,312934,313447,NA,312808,312934,Flanker Task,132,68965,140,yes,1024
93.61702128,93.61702128,492.0567376,492.0567376,black,legacy,legacy,legacy,0,incongruent,uniform,0,undefined,0,h,0,0,0,140,140,0,140,0,140,0,0,0,0,140,140,NA,140,140,Wed Sep 25 11:14:14 2019,600,The main experiment item,yes,FlankerTask.osexp,/Users/danielrazo0311/Desktop,no,mono,no,18,no,white,no,yes,768,legacy,60,79,/Users/danielrazo0311/Desktop/DR-Subject-2.csv,legacy,Kafkaesque Koffka,3.2.8,0,s,NA,s,s,NA,s,NA,415,NA,33879,21508,NA,415,NA,2,legacy,1024,2,48000,-16,experiment,SSHSS,2,even,40492,206353,NA,313462,309478,6501,293671,NA,314600,NA,6528,184842,NA,314715,315134,NA,314587,314715,Flanker Task,132,69380,141,yes,1024
93.66197183,93.66197183,491.8732394,491.8732394,black,legacy,legacy,legacy,0,incongruent,uniform,1,undefined,1,h,0,0,0,141,141,0,141,0,141,0,0,0,0,141,141,NA,141,141,Wed Sep 25 11:14:14 2019,600,The main experiment item,yes,FlankerTask.osexp,/Users/danielrazo0311/Desktop,no,mono,no,18,no,white,no,yes,768,legacy,61,79,/Users/danielrazo0311/Desktop/DR-Subject-2.csv,legacy,Kafkaesque Koffka,3.2.8,0,h,NA,s,s,NA,h,NA,466,NA,33879,21508,NA,466,NA,2,legacy,1024,2,48000,-16,experiment,SSHSS,2,even,40492,206353,NA,315662,315149,6501,293671,NA,316798,NA,6528,184842,NA,316913,317383,NA,316785,316913,Flanker Task,133,69846,142,yes,1024
93.70629371,93.70629371,491.2797203,491.2797203,black,legacy,legacy,legacy,0,congruent,uniform,1,undefined,1,h,0,0,0,142,142,0,142,0,142,0,0,0,0,142,142,NA,142,142,Wed Sep 25 11:14:14 2019,600,The main experiment item,yes,FlankerTask.osexp,/Users/danielrazo0311/Desktop,no,mono,no,18,no,white,no,yes,768,legacy,62,79,/Users/danielrazo0311/Desktop/DR-Subject-2.csv,legacy,Kafkaesque Koffka,3.2.8,0,h,NA,s,s,NA,h,NA,407,NA,33879,21508,NA,407,NA,2,legacy,1024,2,48000,-16,experiment,HHHHH,2,even,40492,206353,NA,317398,315149,6501,293671,NA,318529,NA,6528,184842,NA,318643,319054,NA,318517,318643,Flanker Task,134,70253,143,yes,1024
93.75,93.75,491.3541667,491.3541667,black,legacy,legacy,legacy,0,incongruent,uniform,1,undefined,1,s,0,0,0,143,143,0,143,0,143,0,0,0,0,143,143,NA,143,143,Wed Sep 25 11:14:14 2019,600,The main experiment item,yes,FlankerTask.osexp,/Users/danielrazo0311/Desktop,no,mono,no,18,no,white,no,yes,768,legacy,63,79,/Users/danielrazo0311/Desktop/DR-Subject-2.csv,legacy,Kafkaesque Koffka,3.2.8,0,s,NA,s,s,NA,s,NA,502,NA,33879,21508,NA,502,NA,2,legacy,1024,2,48000,-16,experiment,HHSHH,2,even,40492,206353,NA,319069,315149,6501,293671,NA,320202,NA,6528,184842,NA,320317,320823,NA,320190,320316,Flanker Task,135,70755,144,yes,1024
93.79310345,93.79310345,491.0551724,491.0551724,black,legacy,legacy,legacy,0,congruent,uniform,1,undefined,1,s,0,0,0,144,144,0,144,0,144,0,0,0,0,144,144,NA,144,144,Wed Sep 25 11:14:14 2019,600,The main experiment item,yes,FlankerTask.osexp,/Users/danielrazo0311/Desktop,no,mono,no,18,no,white,no,yes,768,legacy,64,79,/Users/danielrazo0311/Desktop/DR-Subject-2.csv,legacy,Kafkaesque Koffka,3.2.8,0,s,NA,s,s,NA,s,NA,448,NA,33879,21508,NA,448,NA,2,legacy,1024,2,48000,-16,experiment,SSSSS,2,even,40492,206353,NA,320838,315149,6501,293671,NA,321973,NA,6528,184842,NA,322091,322543,NA,321960,322090,Flanker Task,136,71203,145,yes,1024
93.83561644,93.83561644,491.6712329,491.6712329,black,legacy,legacy,legacy,0,incongruent,uniform,1,undefined,1,s,0,0,0,145,145,0,145,0,145,0,0,0,0,145,145,NA,145,145,Wed Sep 25 11:14:14 2019,600,The main experiment item,yes,FlankerTask.osexp,/Users/danielrazo0311/Desktop,no,mono,no,18,no,white,no,yes,768,legacy,65,79,/Users/danielrazo0311/Desktop/DR-Subject-2.csv,legacy,Kafkaesque Koffka,3.2.8,0,s,NA,s,s,NA,s,NA,581,NA,33879,21508,NA,581,NA,2,legacy,1024,2,48000,-16,experiment,HHSHH,2,even,40492,206353,NA,322558,315149,6501,293671,NA,323692,NA,6528,184842,NA,323806,324391,NA,323679,323806,Flanker Task,137,71784,146,yes,1024
93.19727891,93.19727891,490.7414966,490.7414966,black,legacy,legacy,legacy,0,incongruent,uniform,0,undefined,0,h,0,0,0,146,146,0,146,0,146,0,0,0,0,146,146,NA,146,146,Wed Sep 25 11:14:14 2019,600,The main experiment item,yes,FlankerTask.osexp,/Users/danielrazo0311/Desktop,no,mono,no,18,no,white,no,yes,768,legacy,66,79,/Users/danielrazo0311/Desktop/DR-Subject-2.csv,legacy,Kafkaesque Koffka,3.2.8,0,s,NA,s,s,NA,s,NA,355,NA,33879,21508,NA,355,NA,2,legacy,1024,2,48000,-16,experiment,SSHSS,2,even,40492,206353,NA,324406,315149,6501,293671,NA,325549,NA,6528,184842,NA,325663,326022,NA,325536,325663,Flanker Task,137,72139,147,yes,1024
93.24324324,93.24324324,490.3108108,490.3108108,black,legacy,legacy,legacy,0,congruent,uniform,1,undefined,1,s,0,0,0,147,147,0,147,0,147,0,0,0,0,147,147,NA,147,147,Wed Sep 25 11:14:14 2019,600,The main experiment item,yes,FlankerTask.osexp,/Users/danielrazo0311/Desktop,no,mono,no,18,no,white,no,yes,768,legacy,67,79,/Users/danielrazo0311/Desktop/DR-Subject-2.csv,legacy,Kafkaesque Koffka,3.2.8,0,s,NA,s,s,NA,s,NA,427,NA,33879,21508,NA,427,NA,2,legacy,1024,2,48000,-16,experiment,SSSSS,2,even,40492,206353,NA,326550,326038,6501,293671,NA,327685,NA,6528,184842,NA,327799,328230,NA,327673,327799,Flanker Task,138,72566,148,yes,1024
93.2885906,93.2885906,489.3825503,489.3825503,black,legacy,legacy,legacy,0,congruent,uniform,1,undefined,1,h,0,0,0,148,148,0,148,0,148,0,0,0,0,148,148,NA,148,148,Wed Sep 25 11:14:14 2019,600,The main experiment item,yes,FlankerTask.osexp,/Users/danielrazo0311/Desktop,no,mono,no,18,no,white,no,yes,768,legacy,68,79,/Users/danielrazo0311/Desktop/DR-Subject-2.csv,legacy,Kafkaesque Koffka,3.2.8,0,h,NA,s,s,NA,h,NA,352,NA,33879,21508,NA,352,NA,2,legacy,1024,2,48000,-16,experiment,HHHHH,2,even,40492,206353,NA,328245,326038,6501,293671,NA,329386,NA,6528,184842,NA,329499,329855,NA,329373,329499,Flanker Task,139,72918,149,yes,1024
93.33333333,93.33333333,489.4,489.4,black,legacy,legacy,legacy,0,incongruent,uniform,1,undefined,1,h,0,0,0,149,149,0,149,0,149,0,0,0,0,149,149,NA,149,149,Wed Sep 25 11:14:14 2019,600,The main experiment item,yes,FlankerTask.osexp,/Users/danielrazo0311/Desktop,no,mono,no,18,no,white,no,yes,768,legacy,69,79,/Users/danielrazo0311/Desktop/DR-Subject-2.csv,legacy,Kafkaesque Koffka,3.2.8,0,h,NA,s,s,NA,h,NA,492,NA,33879,21508,NA,492,NA,2,legacy,1024,2,48000,-16,experiment,SSHSS,2,even,40492,206353,NA,329870,326038,6501,293671,NA,331005,NA,6528,184842,NA,331119,331615,NA,330989,331119,Flanker Task,140,73410,150,yes,1024
93.37748344,93.37748344,489.0927152,489.0927152,black,legacy,legacy,legacy,0,incongruent,uniform,1,undefined,1,h,0,0,0,150,150,0,150,0,150,0,0,0,0,150,150,NA,150,150,Wed Sep 25 11:14:14 2019,600,The main experiment item,yes,FlankerTask.osexp,/Users/danielrazo0311/Desktop,no,mono,no,18,no,white,no,yes,768,legacy,70,79,/Users/danielrazo0311/Desktop/DR-Subject-2.csv,legacy,Kafkaesque Koffka,3.2.8,0,h,NA,s,s,NA,h,NA,443,NA,33879,21508,NA,443,NA,2,legacy,1024,2,48000,-16,experiment,SSHSS,2,even,40492,206353,NA,331630,326038,6501,293671,NA,332766,NA,6528,184842,NA,332879,333326,NA,332754,332879,Flanker Task,141,73853,151,yes,1024
93.42105263,93.42105263,489.4473684,489.4473684,black,legacy,legacy,legacy,0,incongruent,uniform,1,undefined,1,s,0,0,0,151,151,0,151,0,151,0,0,0,0,151,151,NA,151,151,Wed Sep 25 11:14:14 2019,600,The main experiment item,yes,FlankerTask.osexp,/Users/danielrazo0311/Desktop,no,mono,no,18,no,white,no,yes,768,legacy,71,79,/Users/danielrazo0311/Desktop/DR-Subject-2.csv,legacy,Kafkaesque Koffka,3.2.8,0,s,NA,s,s,NA,s,NA,543,NA,33879,21508,NA,543,NA,2,legacy,1024,2,48000,-16,experiment,HHSHH,2,even,40492,206353,NA,333342,326038,6501,293671,NA,334475,NA,6528,184842,NA,334587,335134,NA,334462,334587,Flanker Task,142,74396,152,yes,1024
93.46405229,93.46405229,489.2026144,489.2026144,black,legacy,legacy,legacy,0,incongruent,uniform,1,undefined,1,h,0,0,0,152,152,0,152,0,152,0,0,0,0,152,152,NA,152,152,Wed Sep 25 11:14:14 2019,600,The main experiment item,yes,FlankerTask.osexp,/Users/danielrazo0311/Desktop,no,mono,no,18,no,white,no,yes,768,legacy,72,79,/Users/danielrazo0311/Desktop/DR-Subject-2.csv,legacy,Kafkaesque Koffka,3.2.8,0,h,NA,s,s,NA,h,NA,452,NA,33879,21508,NA,452,NA,2,legacy,1024,2,48000,-16,experiment,SSHSS,2,even,40492,206353,NA,335149,326038,6501,293671,NA,336285,NA,6528,184842,NA,336399,336855,NA,336272,336399,Flanker Task,143,74848,153,yes,1024
93.50649351,93.50649351,488.3571429,488.3571429,black,legacy,legacy,legacy,0,congruent,uniform,1,undefined,1,h,0,0,0,153,153,0,153,0,153,0,0,0,0,153,153,NA,153,153,Wed Sep 25 11:14:14 2019,600,The main experiment item,yes,FlankerTask.osexp,/Users/danielrazo0311/Desktop,no,mono,no,18,no,white,no,yes,768,legacy,73,79,/Users/danielrazo0311/Desktop/DR-Subject-2.csv,legacy,Kafkaesque Koffka,3.2.8,0,h,NA,s,s,NA,h,NA,359,NA,33879,21508,NA,359,NA,2,legacy,1024,2,48000,-16,experiment,HHHHH,2,even,40492,206353,NA,336870,326038,6501,293671,NA,338008,NA,6528,184842,NA,338124,338487,NA,337997,338124,Flanker Task,144,75207,154,yes,1024
93.5483871,93.5483871,487.8903226,487.8903226,black,legacy,legacy,legacy,0,congruent,uniform,1,undefined,1,h,0,0,0,154,154,0,154,0,154,0,0,0,0,154,154,NA,154,154,Wed Sep 25 11:14:14 2019,600,The main experiment item,yes,FlankerTask.osexp,/Users/danielrazo0311/Desktop,no,mono,no,18,no,white,no,yes,768,legacy,74,79,/Users/danielrazo0311/Desktop/DR-Subject-2.csv,legacy,Kafkaesque Koffka,3.2.8,0,h,NA,s,s,NA,h,NA,416,NA,33879,21508,NA,416,NA,2,legacy,1024,2,48000,-16,experiment,HHHHH,2,even,40492,206353,NA,338502,326038,6501,293671,NA,339633,NA,6528,184842,NA,339746,340166,NA,339621,339746,Flanker Task,145,75623,155,yes,1024
93.58974359,93.58974359,487.3141026,487.3141026,black,legacy,legacy,legacy,0,congruent,uniform,1,undefined,1,s,0,0,0,155,155,0,155,0,155,0,0,0,0,155,155,NA,155,155,Wed Sep 25 11:14:14 2019,600,The main experiment item,yes,FlankerTask.osexp,/Users/danielrazo0311/Desktop,no,mono,no,18,no,white,no,yes,768,legacy,75,79,/Users/danielrazo0311/Desktop/DR-Subject-2.csv,legacy,Kafkaesque Koffka,3.2.8,0,s,NA,s,s,NA,s,NA,398,NA,33879,21508,NA,398,NA,2,legacy,1024,2,48000,-16,experiment,SSSSS,2,even,40492,206353,NA,340181,326038,6501,293671,NA,341314,NA,6528,184842,NA,341429,341831,NA,341301,341428,Flanker Task,146,76021,156,yes,1024
93.63057325,93.63057325,487.044586,487.044586,black,legacy,legacy,legacy,0,congruent,uniform,1,undefined,1,s,0,0,0,156,156,0,156,0,156,0,0,0,0,156,156,NA,156,156,Wed Sep 25 11:14:14 2019,600,The main experiment item,yes,FlankerTask.osexp,/Users/danielrazo0311/Desktop,no,mono,no,18,no,white,no,yes,768,legacy,76,79,/Users/danielrazo0311/Desktop/DR-Subject-2.csv,legacy,Kafkaesque Koffka,3.2.8,0,s,NA,s,s,NA,s,NA,445,NA,33879,21508,NA,445,NA,2,legacy,1024,2,48000,-16,experiment,SSSSS,2,even,40492,206353,NA,341846,326038,6501,293671,NA,342980,NA,6528,184842,NA,343094,343543,NA,342967,343094,Flanker Task,147,76466,157,yes,1024
93.67088608,93.67088608,486.4873418,486.4873418,black,legacy,legacy,legacy,0,congruent,uniform,1,undefined,1,s,0,0,0,157,157,0,157,0,157,0,0,0,0,157,157,NA,157,157,Wed Sep 25 11:14:14 2019,600,The main experiment item,yes,FlankerTask.osexp,/Users/danielrazo0311/Desktop,no,mono,no,18,no,white,no,yes,768,legacy,77,79,/Users/danielrazo0311/Desktop/DR-Subject-2.csv,legacy,Kafkaesque Koffka,3.2.8,0,s,NA,s,s,NA,s,NA,399,NA,33879,21508,NA,399,NA,2,legacy,1024,2,48000,-16,experiment,SSSSS,2,even,40492,206353,NA,343558,326038,6501,293671,NA,344689,NA,6528,184842,NA,344803,345206,NA,344677,344803,Flanker Task,148,76865,158,yes,1024
93.71069182,93.71069182,486.2389937,486.2389937,black,legacy,legacy,legacy,0,congruent,uniform,1,undefined,1,h,0,0,0,158,158,0,158,0,158,0,0,0,0,158,158,NA,158,158,Wed Sep 25 11:14:14 2019,600,The main experiment item,yes,FlankerTask.osexp,/Users/danielrazo0311/Desktop,no,mono,no,18,no,white,no,yes,768,legacy,78,79,/Users/danielrazo0311/Desktop/DR-Subject-2.csv,legacy,Kafkaesque Koffka,3.2.8,0,h,NA,s,s,NA,h,NA,447,NA,33879,21508,NA,447,NA,2,legacy,1024,2,48000,-16,experiment,HHHHH,2,even,40492,206353,NA,345221,326038,6501,293671,NA,346363,NA,6528,184842,NA,346476,346927,NA,346351,346476,Flanker Task,149,77312,159,yes,1024
93.75,93.75,485.6,485.6,black,legacy,legacy,legacy,0,congruent,uniform,1,undefined,1,h,0,0,0,159,159,0,159,0,159,0,0,0,0,159,159,NA,159,159,Wed Sep 25 11:14:14 2019,600,The main experiment item,yes,FlankerTask.osexp,/Users/danielrazo0311/Desktop,no,mono,no,18,no,white,no,yes,768,legacy,79,79,/Users/danielrazo0311/Desktop/DR-Subject-2.csv,legacy,Kafkaesque Koffka,3.2.8,0,h,NA,s,s,NA,h,NA,384,NA,33879,21508,NA,384,NA,2,legacy,1024,2,48000,-16,experiment,HHHHH,2,even,40492,206353,NA,346942,326038,6501,293671,NA,348079,NA,6528,184842,NA,348195,348583,NA,348060,348194,Flanker Task,150,77696,160,yes,1024
93.16770186,93.16770186,486.0496894,486.0496894,black,legacy,legacy,legacy,0,incongruent,uniform,0,undefined,0,s,0,0,0,160,160,0,160,0,160,0,0,0,0,160,160,NA,160,160,Wed Sep 25 11:14:14 2019,300,The main experiment item,yes,FlankerTask.osexp,/Users/danielrazo0311/Desktop,no,mono,no,18,no,white,no,yes,768,legacy,0,79,/Users/danielrazo0311/Desktop/DR-Subject-2.csv,legacy,Kafkaesque Koffka,3.2.8,0,h,NA,s,s,h,h,NA,558,NA,33879,21508,14001,558,NA,2,legacy,1024,2,48000,-16,experiment,HHSHH,2,even,40492,206353,363641,348598,326038,6501,293671,NA,363765,NA,6528,184842,349636,363879,364441,NA,363752,363879,Flanker Task,150,78254,161,yes,1024
