"acc","accuracy","average_response_time","avg_rt","background","canvas_backend","clock_backend","color_backend","condition","correct","correct_instructions","correct_keyboard_response","correct_response","count_Block1","count_Block2","count_Block3","count_Faster","count_Finish","count_ISI","count_errorFeedback","count_experiment","count_fixation","count_instruction3","count_instructions","count_instructions2","count_keyboard_response","count_new_logger","count_new_sequence","count_stimulus","datetime","deadline","description","disable_garbage_collection","experiment_file","experiment_path","font_bold","font_family","font_italic","font_size","font_underline","foreground","form_clicks","fullscreen","height","keyboard_backend","live_row","live_row_Block1","logfile","mouse_backend","opensesame_codename","opensesame_version","repeat_cycle","response","response_Finish","response_instruction3","response_instructions","response_instructions2","response_keyboard_response","response_time","response_time_Finish","response_time_instruction3","response_time_instructions","response_time_instructions2","response_time_keyboard_response","round_decimals","sampler_backend","sound_buf_size","sound_channels","sound_freq","sound_sample_size","start","stimulus","subject_nr","subject_parity","time_Block1","time_Block2","time_Block3","time_Faster","time_Finish","time_ISI","time_errorFeedback","time_experiment","time_fixation","time_instruction3","time_instructions","time_instructions2","time_keyboard_response","time_new_logger","time_new_sequence","time_stimulus","title","total_correct","total_response_time","total_responses","width"
"100","100","669","669","#3d3846","legacy","legacy","legacy","incongruent","1","undefined","1","h","0","0","0","0","0","0","0","0","0","0","0","0","0","0","0","0","Wed Sep 20 17:42:07 2023","1500","The main experiment item","True","ewm FlankerTask3.edited .osexp","/Users/izzymcgibbon/Desktop/College/Tarleton State /2023 /Fall /Stats /2.1 ","False","mono","False","18","no","white","no","yes","768","legacy","0","0","/Users/izzymcgibbon/Desktop/College/Tarleton State /2023 /Fall /Stats /2.1 /EWM-subject-3.csv","legacy","Melodramatic Milgram","4.0.5","0","h","NA","NA","h","NA","h","669.0","NA","NA","864","NA","669","2","legacy","1024","2","48000","-16","experiment","HHHHH","3","odd","3742","NA","NA","NA","NA","NA","NA","2717","3797","NA","2866","NA","3901","4574","3793","3900","FlankerTask.3","1","669.0","1","1024"
"100","100","645","645","#3d3846","legacy","legacy","legacy","congruent","1","undefined","1","s","0","0","0","1","0","1","1","0","1","0","0","0","1","1","1","1","Wed Sep 20 17:42:07 2023","1500","The main experiment item","True","ewm FlankerTask3.edited .osexp","/Users/izzymcgibbon/Desktop/College/Tarleton State /2023 /Fall /Stats /2.1 ","False","mono","False","18","no","white","no","yes","768","legacy","1","1","/Users/izzymcgibbon/Desktop/College/Tarleton State /2023 /Fall /Stats /2.1 /EWM-subject-3.csv","legacy","Melodramatic Milgram","4.0.5","0","s","NA","NA","h","NA","s","622.0","NA","NA","864","NA","622","2","legacy","1024","2","48000","-16","experiment","HHSHH","3","odd","3742","NA","NA","NA","NA","4579","NA","2717","5621","NA","2866","NA","5724","6347","5619","5723","FlankerTask.3","2","1291.0","2","1024"
"100","100","612","612","#3d3846","legacy","legacy","legacy","incongruent","1","undefined","1","h","0","0","0","2","0","2","2","0","2","0","0","0","2","2","2","2","Wed Sep 20 17:42:07 2023","1500","The main experiment item","True","ewm FlankerTask3.edited .osexp","/Users/izzymcgibbon/Desktop/College/Tarleton State /2023 /Fall /Stats /2.1 ","False","mono","False","18","no","white","no","yes","768","legacy","2","2","/Users/izzymcgibbon/Desktop/College/Tarleton State /2023 /Fall /Stats /2.1 /EWM-subject-3.csv","legacy","Melodramatic Milgram","4.0.5","0","h","NA","NA","h","NA","h","545.0","NA","NA","864","NA","545","2","legacy","1024","2","48000","-16","experiment","HHHHH","3","odd","3742","NA","NA","NA","NA","6349","NA","2717","7385","NA","2866","NA","7487","8032","7383","7487","FlankerTask.3","3","1836.0","3","1024"
"100","100","576","576","#3d3846","legacy","legacy","legacy","incongruent","1","undefined","1","h","0","0","0","3","0","3","3","0","3","0","0","0","3","3","3","3","Wed Sep 20 17:42:07 2023","1500","The main experiment item","True","ewm FlankerTask3.edited .osexp","/Users/izzymcgibbon/Desktop/College/Tarleton State /2023 /Fall /Stats /2.1 ","False","mono","False","18","no","white","no","yes","768","legacy","3","3","/Users/izzymcgibbon/Desktop/College/Tarleton State /2023 /Fall /Stats /2.1 /EWM-subject-3.csv","legacy","Melodramatic Milgram","4.0.5","0","h","NA","NA","h","NA","h","471.0","NA","NA","864","NA","471","2","legacy","1024","2","48000","-16","experiment","HHHHH","3","odd","3742","NA","NA","NA","NA","8036","NA","2717","9077","NA","2866","NA","9181","9652","9075","9180","FlankerTask.3","4","2307.0","4","1024"
"100","100","541","541","#3d3846","legacy","legacy","legacy","congruent","1","undefined","1","s","0","0","0","4","0","4","4","0","4","0","0","0","4","4","4","4","Wed Sep 20 17:42:07 2023","1500","The main experiment item","True","ewm FlankerTask3.edited .osexp","/Users/izzymcgibbon/Desktop/College/Tarleton State /2023 /Fall /Stats /2.1 ","False","mono","False","18","no","white","no","yes","768","legacy","4","4","/Users/izzymcgibbon/Desktop/College/Tarleton State /2023 /Fall /Stats /2.1 /EWM-subject-3.csv","legacy","Melodramatic Milgram","4.0.5","0","s","NA","NA","h","NA","s","402.0","NA","NA","864","NA","402","2","legacy","1024","2","48000","-16","experiment","SSSSS","3","odd","3742","NA","NA","NA","NA","9655","NA","2717","10697","NA","2866","NA","10800","11203","10695","10800","FlankerTask.3","5","2709.0","5","1024"
"100","100","512","512","#3d3846","legacy","legacy","legacy","incongruent","1","undefined","1","h","0","0","0","5","0","5","5","0","5","0","0","0","5","5","5","5","Wed Sep 20 17:42:07 2023","1500","The main experiment item","True","ewm FlankerTask3.edited .osexp","/Users/izzymcgibbon/Desktop/College/Tarleton State /2023 /Fall /Stats /2.1 ","False","mono","False","18","no","white","no","yes","768","legacy","5","5","/Users/izzymcgibbon/Desktop/College/Tarleton State /2023 /Fall /Stats /2.1 /EWM-subject-3.csv","legacy","Melodramatic Milgram","4.0.5","0","h","NA","NA","h","NA","h","367.0","NA","NA","864","NA","367","2","legacy","1024","2","48000","-16","experiment","SSHSS","3","odd","3742","NA","NA","NA","NA","11206","NA","2717","12245","NA","2866","NA","12348","12715","12243","12347","FlankerTask.3","6","3076.0","6","1024"
"100","100","500","500","#3d3846","legacy","legacy","legacy","congruent","1","undefined","1","s","0","0","0","6","0","6","6","0","6","0","0","0","6","6","6","6","Wed Sep 20 17:42:07 2023","1500","The main experiment item","True","ewm FlankerTask3.edited .osexp","/Users/izzymcgibbon/Desktop/College/Tarleton State /2023 /Fall /Stats /2.1 ","False","mono","False","18","no","white","no","yes","768","legacy","6","6","/Users/izzymcgibbon/Desktop/College/Tarleton State /2023 /Fall /Stats /2.1 /EWM-subject-3.csv","legacy","Melodramatic Milgram","4.0.5","0","s","NA","NA","h","NA","s","429.0","NA","NA","864","NA","429","2","legacy","1024","2","48000","-16","experiment","SSSSS","3","odd","3742","NA","NA","NA","NA","12718","NA","2717","13763","NA","2866","NA","13866","14295","13761","13865","FlankerTask.3","7","3505.0","7","1024"
"87","87","480","480","#3d3846","legacy","legacy","legacy","incongruent","0","undefined","0","h","0","0","0","7","0","7","7","0","7","0","0","0","7","7","7","7","Wed Sep 20 17:42:07 2023","1500","The main experiment item","True","ewm FlankerTask3.edited .osexp","/Users/izzymcgibbon/Desktop/College/Tarleton State /2023 /Fall /Stats /2.1 ","False","mono","False","18","no","white","no","yes","768","legacy","7","7","/Users/izzymcgibbon/Desktop/College/Tarleton State /2023 /Fall /Stats /2.1 /EWM-subject-3.csv","legacy","Melodramatic Milgram","4.0.5","0","s","NA","NA","h","NA","s","338.0","NA","NA","864","NA","338","2","legacy","1024","2","48000","-16","experiment","HHHHH","3","odd","3742","NA","NA","NA","NA","14299","NA","2717","15342","NA","2866","NA","15446","15784","15340","15445","FlankerTask.3","7","3843.0","8","1024"
"88","88","465","465","#3d3846","legacy","legacy","legacy","congruent","1","undefined","1","s","0","0","0","8","0","8","8","0","8","0","0","0","8","8","8","8","Wed Sep 20 17:42:07 2023","1500","The main experiment item","True","ewm FlankerTask3.edited .osexp","/Users/izzymcgibbon/Desktop/College/Tarleton State /2023 /Fall /Stats /2.1 ","False","mono","False","18","no","white","no","yes","768","legacy","8","8","/Users/izzymcgibbon/Desktop/College/Tarleton State /2023 /Fall /Stats /2.1 /EWM-subject-3.csv","legacy","Melodramatic Milgram","4.0.5","0","s","NA","NA","h","NA","s","347.0","NA","NA","864","NA","347","2","legacy","1024","2","48000","-16","experiment","SSSSS","3","odd","3742","NA","NA","NA","NA","16291","15788","2717","17333","NA","2866","NA","17437","17785","17331","17436","FlankerTask.3","8","4190.0","9","1024"
"90","90","461","461","#3d3846","legacy","legacy","legacy","incongruent","1","undefined","1","h","0","0","0","9","0","9","9","0","9","0","0","0","9","9","9","9","Wed Sep 20 17:42:07 2023","1500","The main experiment item","True","ewm FlankerTask3.edited .osexp","/Users/izzymcgibbon/Desktop/College/Tarleton State /2023 /Fall /Stats /2.1 ","False","mono","False","18","no","white","no","yes","768","legacy","9","9","/Users/izzymcgibbon/Desktop/College/Tarleton State /2023 /Fall /Stats /2.1 /EWM-subject-3.csv","legacy","Melodramatic Milgram","4.0.5","0","h","NA","NA","h","NA","h","429.0","NA","NA","864","NA","429","2","legacy","1024","2","48000","-16","experiment","HHHHH","3","odd","3742","NA","NA","NA","NA","17789","15788","2717","18835","NA","2866","NA","18937","19366","18833","18937","FlankerTask.3","9","4619.0","10","1024"
"90","90","445","445","#3d3846","legacy","legacy","legacy","congruent","1","undefined","1","s","0","0","0","10","0","10","10","0","10","0","0","0","10","10","10","10","Wed Sep 20 17:42:07 2023","1500","The main experiment item","True","ewm FlankerTask3.edited .osexp","/Users/izzymcgibbon/Desktop/College/Tarleton State /2023 /Fall /Stats /2.1 ","False","mono","False","18","no","white","no","yes","768","legacy","10","10","/Users/izzymcgibbon/Desktop/College/Tarleton State /2023 /Fall /Stats /2.1 /EWM-subject-3.csv","legacy","Melodramatic Milgram","4.0.5","0","s","NA","NA","h","NA","s","279.0","NA","NA","864","NA","279","2","legacy","1024","2","48000","-16","experiment","HHSHH","3","odd","3742","NA","NA","NA","NA","19369","15788","2717","20400","NA","2866","NA","20502","20782","20398","20502","FlankerTask.3","10","4898.0","11","1024"
"91","91","461","461","#3d3846","legacy","legacy","legacy","incongruent","1","undefined","1","h","0","0","0","11","0","11","11","0","11","0","0","0","11","11","11","11","Wed Sep 20 17:42:07 2023","1500","The main experiment item","True","ewm FlankerTask3.edited .osexp","/Users/izzymcgibbon/Desktop/College/Tarleton State /2023 /Fall /Stats /2.1 ","False","mono","False","18","no","white","no","yes","768","legacy","11","11","/Users/izzymcgibbon/Desktop/College/Tarleton State /2023 /Fall /Stats /2.1 /EWM-subject-3.csv","legacy","Melodramatic Milgram","4.0.5","0","h","NA","NA","h","NA","h","635.0","NA","NA","864","NA","635","2","legacy","1024","2","48000","-16","experiment","SSHSS","3","odd","3742","NA","NA","NA","NA","20785","15788","2717","21819","NA","2866","NA","21921","22557","21818","21921","FlankerTask.3","11","5533.0","12","1024"
"92","92","453","453","#3d3846","legacy","legacy","legacy","congruent","1","undefined","1","s","0","0","0","12","0","12","12","0","12","0","0","0","12","12","12","12","Wed Sep 20 17:42:07 2023","1500","The main experiment item","True","ewm FlankerTask3.edited .osexp","/Users/izzymcgibbon/Desktop/College/Tarleton State /2023 /Fall /Stats /2.1 ","False","mono","False","18","no","white","no","yes","768","legacy","12","12","/Users/izzymcgibbon/Desktop/College/Tarleton State /2023 /Fall /Stats /2.1 /EWM-subject-3.csv","legacy","Melodramatic Milgram","4.0.5","0","s","NA","NA","h","NA","s","361.0","NA","NA","864","NA","361","2","legacy","1024","2","48000","-16","experiment","SSSSS","3","odd","3742","NA","NA","NA","NA","22560","15788","2717","23597","NA","2866","NA","23699","24061","23596","23699","FlankerTask.3","12","5894.0","13","1024"
"92","92","454","454","#3d3846","legacy","legacy","legacy","congruent","1","undefined","1","s","0","0","0","13","0","13","13","0","13","0","0","0","13","13","13","13","Wed Sep 20 17:42:07 2023","1500","The main experiment item","True","ewm FlankerTask3.edited .osexp","/Users/izzymcgibbon/Desktop/College/Tarleton State /2023 /Fall /Stats /2.1 ","False","mono","False","18","no","white","no","yes","768","legacy","13","13","/Users/izzymcgibbon/Desktop/College/Tarleton State /2023 /Fall /Stats /2.1 /EWM-subject-3.csv","legacy","Melodramatic Milgram","4.0.5","0","s","NA","NA","h","NA","s","474.0","NA","NA","864","NA","474","2","legacy","1024","2","48000","-16","experiment","HHSHH","3","odd","3742","NA","NA","NA","NA","24065","15788","2717","25104","NA","2866","NA","25206","25681","25103","25206","FlankerTask.3","13","6368.0","14","1024"
"86","86","446","446","#3d3846","legacy","legacy","legacy","congruent","0","undefined","0","s","0","0","0","14","0","14","14","0","14","0","0","0","14","14","14","14","Wed Sep 20 17:42:07 2023","1500","The main experiment item","True","ewm FlankerTask3.edited .osexp","/Users/izzymcgibbon/Desktop/College/Tarleton State /2023 /Fall /Stats /2.1 ","False","mono","False","18","no","white","no","yes","768","legacy","14","14","/Users/izzymcgibbon/Desktop/College/Tarleton State /2023 /Fall /Stats /2.1 /EWM-subject-3.csv","legacy","Melodramatic Milgram","4.0.5","0","h","NA","NA","h","NA","h","323.0","NA","NA","864","NA","323","2","legacy","1024","2","48000","-16","experiment","HHSHH","3","odd","3742","NA","NA","NA","NA","25684","15788","2717","26725","NA","2866","NA","26827","27151","26723","26827","FlankerTask.3","13","6691.0","15","1024"
"87","87","437","437","#3d3846","legacy","legacy","legacy","incongruent","1","undefined","1","h","0","0","0","15","0","15","15","0","15","0","0","0","15","15","15","15","Wed Sep 20 17:42:07 2023","1500","The main experiment item","True","ewm FlankerTask3.edited .osexp","/Users/izzymcgibbon/Desktop/College/Tarleton State /2023 /Fall /Stats /2.1 ","False","mono","False","18","no","white","no","yes","768","legacy","15","15","/Users/izzymcgibbon/Desktop/College/Tarleton State /2023 /Fall /Stats /2.1 /EWM-subject-3.csv","legacy","Melodramatic Milgram","4.0.5","0","h","NA","NA","h","NA","h","311.0","NA","NA","864","NA","311","2","legacy","1024","2","48000","-16","experiment","SSHSS","3","odd","3742","NA","NA","NA","NA","27656","27154","2717","28699","NA","2866","NA","28801","29113","28697","28801","FlankerTask.3","14","7002.0","16","1024"
"88","88","440","440","#3d3846","legacy","legacy","legacy","incongruent","1","undefined","1","h","0","0","0","16","0","16","16","0","16","0","0","0","16","16","16","16","Wed Sep 20 17:42:07 2023","1500","The main experiment item","True","ewm FlankerTask3.edited .osexp","/Users/izzymcgibbon/Desktop/College/Tarleton State /2023 /Fall /Stats /2.1 ","False","mono","False","18","no","white","no","yes","768","legacy","16","16","/Users/izzymcgibbon/Desktop/College/Tarleton State /2023 /Fall /Stats /2.1 /EWM-subject-3.csv","legacy","Melodramatic Milgram","4.0.5","0","h","NA","NA","h","NA","h","491.0","NA","NA","864","NA","491","2","legacy","1024","2","48000","-16","experiment","SSHSS","3","odd","3742","NA","NA","NA","NA","29115","27154","2717","30165","NA","2866","NA","30267","30759","30163","30266","FlankerTask.3","15","7493.0","17","1024"
"88","88","435","435","#3d3846","legacy","legacy","legacy","congruent","1","undefined","1","s","0","0","0","17","0","17","17","0","17","0","0","0","17","17","17","17","Wed Sep 20 17:42:07 2023","1500","The main experiment item","True","ewm FlankerTask3.edited .osexp","/Users/izzymcgibbon/Desktop/College/Tarleton State /2023 /Fall /Stats /2.1 ","False","mono","False","18","no","white","no","yes","768","legacy","17","17","/Users/izzymcgibbon/Desktop/College/Tarleton State /2023 /Fall /Stats /2.1 /EWM-subject-3.csv","legacy","Melodramatic Milgram","4.0.5","0","s","NA","NA","h","NA","s","337.0","NA","NA","864","NA","337","2","legacy","1024","2","48000","-16","experiment","SSSSS","3","odd","3742","NA","NA","NA","NA","30761","27154","2717","31792","NA","2866","NA","31894","32232","31790","31894","FlankerTask.3","16","7830.0","18","1024"
"89","89","431","431","#3d3846","legacy","legacy","legacy","incongruent","1","undefined","1","h","0","0","0","18","0","18","18","0","18","0","0","0","18","18","18","18","Wed Sep 20 17:42:07 2023","1500","The main experiment item","True","ewm FlankerTask3.edited .osexp","/Users/izzymcgibbon/Desktop/College/Tarleton State /2023 /Fall /Stats /2.1 ","False","mono","False","18","no","white","no","yes","768","legacy","18","18","/Users/izzymcgibbon/Desktop/College/Tarleton State /2023 /Fall /Stats /2.1 /EWM-subject-3.csv","legacy","Melodramatic Milgram","4.0.5","0","h","NA","NA","h","NA","h","369.0","NA","NA","864","NA","369","2","legacy","1024","2","48000","-16","experiment","HHHHH","3","odd","3742","NA","NA","NA","NA","32235","27154","2717","33269","NA","2866","NA","33371","33741","33268","33371","FlankerTask.3","17","8199.0","19","1024"
"85","85","424","424","#3d3846","legacy","legacy","legacy","incongruent","0","undefined","0","h","0","0","0","19","0","19","19","0","19","0","0","0","19","19","19","19","Wed Sep 20 17:42:07 2023","1500","The main experiment item","True","ewm FlankerTask3.edited .osexp","/Users/izzymcgibbon/Desktop/College/Tarleton State /2023 /Fall /Stats /2.1 ","False","mono","False","18","no","white","no","yes","768","legacy","19","19","/Users/izzymcgibbon/Desktop/College/Tarleton State /2023 /Fall /Stats /2.1 /EWM-subject-3.csv","legacy","Melodramatic Milgram","4.0.5","0","s","NA","NA","h","NA","s","291.0","NA","NA","864","NA","291","2","legacy","1024","2","48000","-16","experiment","SSHSS","3","odd","3742","NA","NA","NA","NA","33744","27154","2717","34785","NA","2866","NA","34887","35179","34783","34887","FlankerTask.3","17","8490.0","20","1024"
"85","85","434","434","#3d3846","legacy","legacy","legacy","congruent","1","undefined","1","s","0","0","0","20","0","20","20","0","20","0","0","0","20","20","20","20","Wed Sep 20 17:42:07 2023","1500","The main experiment item","True","ewm FlankerTask3.edited .osexp","/Users/izzymcgibbon/Desktop/College/Tarleton State /2023 /Fall /Stats /2.1 ","False","mono","False","18","no","white","no","yes","768","legacy","20","20","/Users/izzymcgibbon/Desktop/College/Tarleton State /2023 /Fall /Stats /2.1 /EWM-subject-3.csv","legacy","Melodramatic Milgram","4.0.5","0","s","NA","NA","h","NA","s","634.0","NA","NA","864","NA","634","2","legacy","1024","2","48000","-16","experiment","HHSHH","3","odd","3742","NA","NA","NA","NA","35685","35182","2717","36731","NA","2866","NA","36834","37468","36730","36834","FlankerTask.3","18","9124.0","21","1024"
"86","86","442","442","#3d3846","legacy","legacy","legacy","incongruent","1","undefined","1","h","0","0","0","21","0","21","21","0","21","0","0","0","21","21","21","21","Wed Sep 20 17:42:07 2023","1500","The main experiment item","True","ewm FlankerTask3.edited .osexp","/Users/izzymcgibbon/Desktop/College/Tarleton State /2023 /Fall /Stats /2.1 ","False","mono","False","18","no","white","no","yes","768","legacy","21","21","/Users/izzymcgibbon/Desktop/College/Tarleton State /2023 /Fall /Stats /2.1 /EWM-subject-3.csv","legacy","Melodramatic Milgram","4.0.5","0","h","NA","NA","h","NA","h","617.0","NA","NA","864","NA","617","2","legacy","1024","2","48000","-16","experiment","SSHSS","3","odd","3742","NA","NA","NA","NA","37472","35182","2717","38515","NA","2866","NA","38617","39234","38514","38617","FlankerTask.3","19","9741.0","22","1024"
"82","82","451","451","#3d3846","legacy","legacy","legacy","incongruent","0","undefined","0","h","0","0","0","22","0","22","22","0","22","0","0","0","22","22","22","22","Wed Sep 20 17:42:07 2023","1500","The main experiment item","True","ewm FlankerTask3.edited .osexp","/Users/izzymcgibbon/Desktop/College/Tarleton State /2023 /Fall /Stats /2.1 ","False","mono","False","18","no","white","no","yes","768","legacy","22","22","/Users/izzymcgibbon/Desktop/College/Tarleton State /2023 /Fall /Stats /2.1 /EWM-subject-3.csv","legacy","Melodramatic Milgram","4.0.5","0","s","NA","NA","h","NA","s","641.0","NA","NA","864","NA","641","2","legacy","1024","2","48000","-16","experiment","SSHSS","3","odd","3742","NA","NA","NA","NA","39238","35182","2717","40280","NA","2866","NA","40383","41024","40278","40383","FlankerTask.3","19","10382.0","23","1024"
"79","79","451","451","#3d3846","legacy","legacy","legacy","congruent","0","undefined","0","s","0","0","0","23","0","23","23","0","23","0","0","0","23","23","23","23","Wed Sep 20 17:42:07 2023","1500","The main experiment item","True","ewm FlankerTask3.edited .osexp","/Users/izzymcgibbon/Desktop/College/Tarleton State /2023 /Fall /Stats /2.1 ","False","mono","False","18","no","white","no","yes","768","legacy","23","23","/Users/izzymcgibbon/Desktop/College/Tarleton State /2023 /Fall /Stats /2.1 /EWM-subject-3.csv","legacy","Melodramatic Milgram","4.0.5","0","h","NA","NA","h","NA","h","448.0","NA","NA","864","NA","448","2","legacy","1024","2","48000","-16","experiment","HHSHH","3","odd","3742","NA","NA","NA","NA","41531","41028","2717","42574","NA","2866","NA","42676","43124","42572","42676","FlankerTask.3","19","10830.0","24","1024"
"80","80","455","455","#3d3846","legacy","legacy","legacy","congruent","1","undefined","1","s","0","0","0","24","0","24","24","0","24","0","0","0","24","24","24","24","Wed Sep 20 17:42:07 2023","1500","The main experiment item","True","ewm FlankerTask3.edited .osexp","/Users/izzymcgibbon/Desktop/College/Tarleton State /2023 /Fall /Stats /2.1 ","False","mono","False","18","no","white","no","yes","768","legacy","24","24","/Users/izzymcgibbon/Desktop/College/Tarleton State /2023 /Fall /Stats /2.1 /EWM-subject-3.csv","legacy","Melodramatic Milgram","4.0.5","0","s","NA","NA","h","NA","s","559.0","NA","NA","864","NA","559","2","legacy","1024","2","48000","-16","experiment","SSSSS","3","odd","3742","NA","NA","NA","NA","43630","43127","2717","44678","NA","2866","NA","44780","45339","44677","44780","FlankerTask.3","20","11389.0","25","1024"
"80","80","454","454","#3d3846","legacy","legacy","legacy","incongruent","1","undefined","1","h","0","0","0","25","0","25","25","0","25","0","0","0","25","25","25","25","Wed Sep 20 17:42:07 2023","1500","The main experiment item","True","ewm FlankerTask3.edited .osexp","/Users/izzymcgibbon/Desktop/College/Tarleton State /2023 /Fall /Stats /2.1 ","False","mono","False","18","no","white","no","yes","768","legacy","25","25","/Users/izzymcgibbon/Desktop/College/Tarleton State /2023 /Fall /Stats /2.1 /EWM-subject-3.csv","legacy","Melodramatic Milgram","4.0.5","0","h","NA","NA","h","NA","h","419.0","NA","NA","864","NA","419","2","legacy","1024","2","48000","-16","experiment","HHHHH","3","odd","3742","NA","NA","NA","NA","45342","43127","2717","46376","NA","2866","NA","46478","46897","46374","46478","FlankerTask.3","21","11808.0","26","1024"
"81","81","447","447","#3d3846","legacy","legacy","legacy","congruent","1","undefined","1","s","0","0","0","26","0","26","26","0","26","0","0","0","26","26","26","26","Wed Sep 20 17:42:07 2023","1500","The main experiment item","True","ewm FlankerTask3.edited .osexp","/Users/izzymcgibbon/Desktop/College/Tarleton State /2023 /Fall /Stats /2.1 ","False","mono","False","18","no","white","no","yes","768","legacy","26","26","/Users/izzymcgibbon/Desktop/College/Tarleton State /2023 /Fall /Stats /2.1 /EWM-subject-3.csv","legacy","Melodramatic Milgram","4.0.5","0","s","NA","NA","h","NA","s","271.0","NA","NA","864","NA","271","2","legacy","1024","2","48000","-16","experiment","SSSSS","3","odd","3742","NA","NA","NA","NA","46900","43127","2717","47936","NA","2866","NA","48038","48310","47934","48038","FlankerTask.3","22","12079.0","27","1024"
"78","78","453","453","#3d3846","legacy","legacy","legacy","congruent","0","undefined","0","s","0","0","0","27","0","27","27","0","27","0","0","0","27","27","27","27","Wed Sep 20 17:42:07 2023","1500","The main experiment item","True","ewm FlankerTask3.edited .osexp","/Users/izzymcgibbon/Desktop/College/Tarleton State /2023 /Fall /Stats /2.1 ","False","mono","False","18","no","white","no","yes","768","legacy","27","27","/Users/izzymcgibbon/Desktop/College/Tarleton State /2023 /Fall /Stats /2.1 /EWM-subject-3.csv","legacy","Melodramatic Milgram","4.0.5","0","h","NA","NA","h","NA","h","626.0","NA","NA","864","NA","626","2","legacy","1024","2","48000","-16","experiment","HHSHH","3","odd","3742","NA","NA","NA","NA","48313","43127","2717","49354","NA","2866","NA","49456","50083","49352","49456","FlankerTask.3","22","12705.0","28","1024"
"79","79","456","456","#3d3846","legacy","legacy","legacy","incongruent","1","undefined","1","h","0","0","0","28","0","28","28","0","28","0","0","0","28","28","28","28","Wed Sep 20 17:42:07 2023","1500","The main experiment item","True","ewm FlankerTask3.edited .osexp","/Users/izzymcgibbon/Desktop/College/Tarleton State /2023 /Fall /Stats /2.1 ","False","mono","False","18","no","white","no","yes","768","legacy","28","28","/Users/izzymcgibbon/Desktop/College/Tarleton State /2023 /Fall /Stats /2.1 /EWM-subject-3.csv","legacy","Melodramatic Milgram","4.0.5","0","h","NA","NA","h","NA","h","544.0","NA","NA","864","NA","544","2","legacy","1024","2","48000","-16","experiment","HHHHH","3","odd","3742","NA","NA","NA","NA","50588","50086","2717","51628","NA","2866","NA","51730","52275","51627","51730","FlankerTask.3","23","13249.0","29","1024"
"80","80","453","453","#3d3846","legacy","legacy","legacy","congruent","1","undefined","1","s","0","0","0","29","0","29","29","0","29","0","0","0","29","29","29","29","Wed Sep 20 17:42:07 2023","1500","The main experiment item","True","ewm FlankerTask3.edited .osexp","/Users/izzymcgibbon/Desktop/College/Tarleton State /2023 /Fall /Stats /2.1 ","False","mono","False","18","no","white","no","yes","768","legacy","29","29","/Users/izzymcgibbon/Desktop/College/Tarleton State /2023 /Fall /Stats /2.1 /EWM-subject-3.csv","legacy","Melodramatic Milgram","4.0.5","0","s","NA","NA","h","NA","s","348.0","NA","NA","864","NA","348","2","legacy","1024","2","48000","-16","experiment","SSSSS","3","odd","3742","NA","NA","NA","NA","52278","50086","2717","53320","NA","2866","NA","53423","53772","53318","53422","FlankerTask.3","24","13597.0","30","1024"
"80","80","451","451","#3d3846","legacy","legacy","legacy","incongruent","1","undefined","1","h","0","0","0","30","0","30","30","0","30","0","0","0","30","30","30","30","Wed Sep 20 17:42:07 2023","1500","The main experiment item","True","ewm FlankerTask3.edited .osexp","/Users/izzymcgibbon/Desktop/College/Tarleton State /2023 /Fall /Stats /2.1 ","False","mono","False","18","no","white","no","yes","768","legacy","30","30","/Users/izzymcgibbon/Desktop/College/Tarleton State /2023 /Fall /Stats /2.1 /EWM-subject-3.csv","legacy","Melodramatic Milgram","4.0.5","0","h","NA","NA","h","NA","h","392.0","NA","NA","864","NA","392","2","legacy","1024","2","48000","-16","experiment","HHHHH","3","odd","3742","NA","NA","NA","NA","53775","50086","2717","54815","NA","2866","NA","54918","55311","54813","54918","FlankerTask.3","25","13989.0","31","1024"
"81","81","449","449","#3d3846","legacy","legacy","legacy","incongruent","1","undefined","1","h","0","0","0","31","0","31","31","0","31","0","0","0","31","31","31","31","Wed Sep 20 17:42:07 2023","1500","The main experiment item","True","ewm FlankerTask3.edited .osexp","/Users/izzymcgibbon/Desktop/College/Tarleton State /2023 /Fall /Stats /2.1 ","False","mono","False","18","no","white","no","yes","768","legacy","31","31","/Users/izzymcgibbon/Desktop/College/Tarleton State /2023 /Fall /Stats /2.1 /EWM-subject-3.csv","legacy","Melodramatic Milgram","4.0.5","0","h","NA","NA","h","NA","h","398.0","NA","NA","864","NA","398","2","legacy","1024","2","48000","-16","experiment","HHHHH","3","odd","3742","NA","NA","NA","NA","55314","50086","2717","56365","NA","2866","NA","56468","56867","56363","56467","FlankerTask.3","26","14387.0","32","1024"
"78","78","446","446","#3d3846","legacy","legacy","legacy","incongruent","0","undefined","0","h","0","0","0","32","0","32","32","0","32","0","0","0","32","32","32","32","Wed Sep 20 17:42:07 2023","1500","The main experiment item","True","ewm FlankerTask3.edited .osexp","/Users/izzymcgibbon/Desktop/College/Tarleton State /2023 /Fall /Stats /2.1 ","False","mono","False","18","no","white","no","yes","768","legacy","32","32","/Users/izzymcgibbon/Desktop/College/Tarleton State /2023 /Fall /Stats /2.1 /EWM-subject-3.csv","legacy","Melodramatic Milgram","4.0.5","0","s","NA","NA","h","NA","s","342.0","NA","NA","864","NA","342","2","legacy","1024","2","48000","-16","experiment","SSHSS","3","odd","3742","NA","NA","NA","NA","56869","50086","2717","57902","NA","2866","NA","58004","58347","57900","58004","FlankerTask.3","26","14729.0","33","1024"
"79","79","445","445","#3d3846","legacy","legacy","legacy","congruent","1","undefined","1","s","0","0","0","33","0","33","33","0","33","0","0","0","33","33","33","33","Wed Sep 20 17:42:07 2023","1500","The main experiment item","True","ewm FlankerTask3.edited .osexp","/Users/izzymcgibbon/Desktop/College/Tarleton State /2023 /Fall /Stats /2.1 ","False","mono","False","18","no","white","no","yes","768","legacy","33","33","/Users/izzymcgibbon/Desktop/College/Tarleton State /2023 /Fall /Stats /2.1 /EWM-subject-3.csv","legacy","Melodramatic Milgram","4.0.5","0","s","NA","NA","h","NA","s","412.0","NA","NA","864","NA","412","2","legacy","1024","2","48000","-16","experiment","SSSSS","3","odd","3742","NA","NA","NA","NA","58853","58349","2717","59887","NA","2866","NA","59989","60402","59885","59988","FlankerTask.3","27","15141.0","34","1024"
"80","80","445","445","#3d3846","legacy","legacy","legacy","incongruent","1","undefined","1","h","0","0","0","34","0","34","34","0","34","0","0","0","34","34","34","34","Wed Sep 20 17:42:07 2023","1500","The main experiment item","True","ewm FlankerTask3.edited .osexp","/Users/izzymcgibbon/Desktop/College/Tarleton State /2023 /Fall /Stats /2.1 ","False","mono","False","18","no","white","no","yes","768","legacy","34","34","/Users/izzymcgibbon/Desktop/College/Tarleton State /2023 /Fall /Stats /2.1 /EWM-subject-3.csv","legacy","Melodramatic Milgram","4.0.5","0","h","NA","NA","h","NA","h","444.0","NA","NA","864","NA","444","2","legacy","1024","2","48000","-16","experiment","HHHHH","3","odd","3742","NA","NA","NA","NA","60404","58349","2717","61446","NA","2866","NA","61549","61994","61444","61549","FlankerTask.3","28","15585.0","35","1024"
"80","80","447","447","#3d3846","legacy","legacy","legacy","congruent","1","undefined","1","s","0","0","0","35","0","35","35","0","35","0","0","0","35","35","35","35","Wed Sep 20 17:42:07 2023","1500","The main experiment item","True","ewm FlankerTask3.edited .osexp","/Users/izzymcgibbon/Desktop/College/Tarleton State /2023 /Fall /Stats /2.1 ","False","mono","False","18","no","white","no","yes","768","legacy","35","35","/Users/izzymcgibbon/Desktop/College/Tarleton State /2023 /Fall /Stats /2.1 /EWM-subject-3.csv","legacy","Melodramatic Milgram","4.0.5","0","s","NA","NA","h","NA","s","534.0","NA","NA","864","NA","534","2","legacy","1024","2","48000","-16","experiment","HHSHH","3","odd","3742","NA","NA","NA","NA","61997","58349","2717","63039","NA","2866","NA","63141","63675","63036","63141","FlankerTask.3","29","16119.0","36","1024"
"81","81","451","451","#3d3846","legacy","legacy","legacy","incongruent","1","undefined","1","h","0","0","0","36","0","36","36","0","36","0","0","0","36","36","36","36","Wed Sep 20 17:42:07 2023","1500","The main experiment item","True","ewm FlankerTask3.edited .osexp","/Users/izzymcgibbon/Desktop/College/Tarleton State /2023 /Fall /Stats /2.1 ","False","mono","False","18","no","white","no","yes","768","legacy","36","36","/Users/izzymcgibbon/Desktop/College/Tarleton State /2023 /Fall /Stats /2.1 /EWM-subject-3.csv","legacy","Melodramatic Milgram","4.0.5","0","h","NA","NA","h","NA","h","574.0","NA","NA","864","NA","574","2","legacy","1024","2","48000","-16","experiment","HHHHH","3","odd","3742","NA","NA","NA","NA","63679","58349","2717","64720","NA","2866","NA","64822","65396","64718","64822","FlankerTask.3","30","16693.0","37","1024"
"81","81","449","449","#3d3846","legacy","legacy","legacy","congruent","1","undefined","1","s","0","0","0","37","0","37","37","0","37","0","0","0","37","37","37","37","Wed Sep 20 17:42:07 2023","1500","The main experiment item","True","ewm FlankerTask3.edited .osexp","/Users/izzymcgibbon/Desktop/College/Tarleton State /2023 /Fall /Stats /2.1 ","False","mono","False","18","no","white","no","yes","768","legacy","37","37","/Users/izzymcgibbon/Desktop/College/Tarleton State /2023 /Fall /Stats /2.1 /EWM-subject-3.csv","legacy","Melodramatic Milgram","4.0.5","0","s","NA","NA","h","NA","s","392.0","NA","NA","864","NA","392","2","legacy","1024","2","48000","-16","experiment","HHSHH","3","odd","3742","NA","NA","NA","NA","65399","58349","2717","66440","NA","2866","NA","66543","66935","66438","66542","FlankerTask.3","31","17085.0","38","1024"
"82","82","451","451","#3d3846","legacy","legacy","legacy","incongruent","1","undefined","1","h","0","0","0","38","0","38","38","0","38","0","0","0","38","38","38","38","Wed Sep 20 17:42:07 2023","1500","The main experiment item","True","ewm FlankerTask3.edited .osexp","/Users/izzymcgibbon/Desktop/College/Tarleton State /2023 /Fall /Stats /2.1 ","False","mono","False","18","no","white","no","yes","768","legacy","38","38","/Users/izzymcgibbon/Desktop/College/Tarleton State /2023 /Fall /Stats /2.1 /EWM-subject-3.csv","legacy","Melodramatic Milgram","4.0.5","0","h","NA","NA","h","NA","h","523.0","NA","NA","864","NA","523","2","legacy","1024","2","48000","-16","experiment","SSHSS","3","odd","3742","NA","NA","NA","NA","66939","58349","2717","67979","NA","2866","NA","68081","68604","67977","68081","FlankerTask.3","32","17608.0","39","1024"
"82","82","453","453","#3d3846","legacy","legacy","legacy","incongruent","1","undefined","1","h","0","0","0","39","0","39","39","0","39","0","0","0","39","39","39","39","Wed Sep 20 17:42:07 2023","1500","The main experiment item","True","ewm FlankerTask3.edited .osexp","/Users/izzymcgibbon/Desktop/College/Tarleton State /2023 /Fall /Stats /2.1 ","False","mono","False","18","no","white","no","yes","768","legacy","39","39","/Users/izzymcgibbon/Desktop/College/Tarleton State /2023 /Fall /Stats /2.1 /EWM-subject-3.csv","legacy","Melodramatic Milgram","4.0.5","0","h","NA","NA","h","NA","h","526.0","NA","NA","864","NA","526","2","legacy","1024","2","48000","-16","experiment","SSHSS","3","odd","3742","NA","NA","NA","NA","68607","58349","2717","69654","NA","2866","NA","69757","70284","69652","69756","FlankerTask.3","33","18134.0","40","1024"
"82","82","452","452","#3d3846","legacy","legacy","legacy","incongruent","1","undefined","1","h","0","0","0","40","0","40","40","0","40","0","0","0","40","40","40","40","Wed Sep 20 17:42:07 2023","1500","The main experiment item","True","ewm FlankerTask3.edited .osexp","/Users/izzymcgibbon/Desktop/College/Tarleton State /2023 /Fall /Stats /2.1 ","False","mono","False","18","no","white","no","yes","768","legacy","40","40","/Users/izzymcgibbon/Desktop/College/Tarleton State /2023 /Fall /Stats /2.1 /EWM-subject-3.csv","legacy","Melodramatic Milgram","4.0.5","0","h","NA","NA","h","NA","h","401.0","NA","NA","864","NA","401","2","legacy","1024","2","48000","-16","experiment","HHHHH","3","odd","3742","NA","NA","NA","NA","70287","58349","2717","71321","NA","2866","NA","71423","71825","71318","71423","FlankerTask.3","34","18535.0","41","1024"
"83","83","450","450","#3d3846","legacy","legacy","legacy","incongruent","1","undefined","1","h","0","0","0","41","0","41","41","0","41","0","0","0","41","41","41","41","Wed Sep 20 17:42:07 2023","1500","The main experiment item","True","ewm FlankerTask3.edited .osexp","/Users/izzymcgibbon/Desktop/College/Tarleton State /2023 /Fall /Stats /2.1 ","False","mono","False","18","no","white","no","yes","768","legacy","41","41","/Users/izzymcgibbon/Desktop/College/Tarleton State /2023 /Fall /Stats /2.1 /EWM-subject-3.csv","legacy","Melodramatic Milgram","4.0.5","0","h","NA","NA","h","NA","h","384.0","NA","NA","864","NA","384","2","legacy","1024","2","48000","-16","experiment","SSHSS","3","odd","3742","NA","NA","NA","NA","71828","58349","2717","72864","NA","2866","NA","72966","73351","72862","72966","FlankerTask.3","35","18919.0","42","1024"
"83","83","449","449","#3d3846","legacy","legacy","legacy","congruent","1","undefined","1","s","0","0","0","42","0","42","42","0","42","0","0","0","42","42","42","42","Wed Sep 20 17:42:07 2023","1500","The main experiment item","True","ewm FlankerTask3.edited .osexp","/Users/izzymcgibbon/Desktop/College/Tarleton State /2023 /Fall /Stats /2.1 ","False","mono","False","18","no","white","no","yes","768","legacy","42","42","/Users/izzymcgibbon/Desktop/College/Tarleton State /2023 /Fall /Stats /2.1 /EWM-subject-3.csv","legacy","Melodramatic Milgram","4.0.5","0","s","NA","NA","h","NA","s","424.0","NA","NA","864","NA","424","2","legacy","1024","2","48000","-16","experiment","SSSSS","3","odd","3742","NA","NA","NA","NA","73354","58349","2717","74394","NA","2866","NA","74496","74921","74392","74496","FlankerTask.3","36","19343.0","43","1024"
"84","84","450","450","#3d3846","legacy","legacy","legacy","incongruent","1","undefined","1","h","0","0","0","43","0","43","43","0","43","0","0","0","43","43","43","43","Wed Sep 20 17:42:07 2023","1500","The main experiment item","True","ewm FlankerTask3.edited .osexp","/Users/izzymcgibbon/Desktop/College/Tarleton State /2023 /Fall /Stats /2.1 ","False","mono","False","18","no","white","no","yes","768","legacy","43","43","/Users/izzymcgibbon/Desktop/College/Tarleton State /2023 /Fall /Stats /2.1 /EWM-subject-3.csv","legacy","Melodramatic Milgram","4.0.5","0","h","NA","NA","h","NA","h","476.0","NA","NA","864","NA","476","2","legacy","1024","2","48000","-16","experiment","SSHSS","3","odd","3742","NA","NA","NA","NA","74924","58349","2717","75965","NA","2866","NA","76067","76544","75963","76067","FlankerTask.3","37","19819.0","44","1024"
"84","84","451","451","#3d3846","legacy","legacy","legacy","incongruent","1","undefined","1","h","0","0","0","44","0","44","44","0","44","0","0","0","44","44","44","44","Wed Sep 20 17:42:07 2023","1500","The main experiment item","True","ewm FlankerTask3.edited .osexp","/Users/izzymcgibbon/Desktop/College/Tarleton State /2023 /Fall /Stats /2.1 ","False","mono","False","18","no","white","no","yes","768","legacy","44","44","/Users/izzymcgibbon/Desktop/College/Tarleton State /2023 /Fall /Stats /2.1 /EWM-subject-3.csv","legacy","Melodramatic Milgram","4.0.5","0","h","NA","NA","h","NA","h","502.0","NA","NA","864","NA","502","2","legacy","1024","2","48000","-16","experiment","SSHSS","3","odd","3742","NA","NA","NA","NA","76547","58349","2717","77587","NA","2866","NA","77690","78193","77586","77689","FlankerTask.3","38","20321.0","45","1024"
"82","82","451","451","#3d3846","legacy","legacy","legacy","incongruent","0","undefined","0","h","0","0","0","45","0","45","45","0","45","0","0","0","45","45","45","45","Wed Sep 20 17:42:07 2023","1500","The main experiment item","True","ewm FlankerTask3.edited .osexp","/Users/izzymcgibbon/Desktop/College/Tarleton State /2023 /Fall /Stats /2.1 ","False","mono","False","18","no","white","no","yes","768","legacy","45","45","/Users/izzymcgibbon/Desktop/College/Tarleton State /2023 /Fall /Stats /2.1 /EWM-subject-3.csv","legacy","Melodramatic Milgram","4.0.5","0","s","NA","NA","h","NA","s","433.0","NA","NA","864","NA","433","2","legacy","1024","2","48000","-16","experiment","SSHSS","3","odd","3742","NA","NA","NA","NA","78196","58349","2717","79236","NA","2866","NA","79338","79771","79234","79338","FlankerTask.3","38","20754.0","46","1024"
"82","82","449","449","#3d3846","legacy","legacy","legacy","incongruent","1","undefined","1","h","0","0","0","46","0","46","46","0","46","0","0","0","46","46","46","46","Wed Sep 20 17:42:07 2023","1500","The main experiment item","True","ewm FlankerTask3.edited .osexp","/Users/izzymcgibbon/Desktop/College/Tarleton State /2023 /Fall /Stats /2.1 ","False","mono","False","18","no","white","no","yes","768","legacy","46","46","/Users/izzymcgibbon/Desktop/College/Tarleton State /2023 /Fall /Stats /2.1 /EWM-subject-3.csv","legacy","Melodramatic Milgram","4.0.5","0","h","NA","NA","h","NA","h","368.0","NA","NA","864","NA","368","2","legacy","1024","2","48000","-16","experiment","HHHHH","3","odd","3742","NA","NA","NA","NA","80278","79775","2717","81346","NA","2866","NA","81450","81819","81345","81449","FlankerTask.3","39","21122.0","47","1024"
"83","83","449","449","#3d3846","legacy","legacy","legacy","incongruent","1","undefined","1","h","0","0","0","47","0","47","47","0","47","0","0","0","47","47","47","47","Wed Sep 20 17:42:07 2023","1500","The main experiment item","True","ewm FlankerTask3.edited .osexp","/Users/izzymcgibbon/Desktop/College/Tarleton State /2023 /Fall /Stats /2.1 ","False","mono","False","18","no","white","no","yes","768","legacy","47","47","/Users/izzymcgibbon/Desktop/College/Tarleton State /2023 /Fall /Stats /2.1 /EWM-subject-3.csv","legacy","Melodramatic Milgram","4.0.5","0","h","NA","NA","h","NA","h","460.0","NA","NA","864","NA","460","2","legacy","1024","2","48000","-16","experiment","SSHSS","3","odd","3742","NA","NA","NA","NA","81822","79775","2717","82854","NA","2866","NA","82957","83418","82853","82957","FlankerTask.3","40","21582.0","48","1024"
"83","83","450","450","#3d3846","legacy","legacy","legacy","congruent","1","undefined","1","s","0","0","0","48","0","48","48","0","48","0","0","0","48","48","48","48","Wed Sep 20 17:42:07 2023","1500","The main experiment item","True","ewm FlankerTask3.edited .osexp","/Users/izzymcgibbon/Desktop/College/Tarleton State /2023 /Fall /Stats /2.1 ","False","mono","False","18","no","white","no","yes","768","legacy","48","48","/Users/izzymcgibbon/Desktop/College/Tarleton State /2023 /Fall /Stats /2.1 /EWM-subject-3.csv","legacy","Melodramatic Milgram","4.0.5","0","s","NA","NA","h","NA","s","503.0","NA","NA","864","NA","503","2","legacy","1024","2","48000","-16","experiment","HHSHH","3","odd","3742","NA","NA","NA","NA","83421","79775","2717","84456","NA","2866","NA","84558","85062","84454","84558","FlankerTask.3","41","22085.0","49","1024"
"84","84","449","449","#3d3846","legacy","legacy","legacy","incongruent","1","undefined","1","h","0","0","0","49","0","49","49","0","49","0","0","0","49","49","49","49","Wed Sep 20 17:42:07 2023","1500","The main experiment item","True","ewm FlankerTask3.edited .osexp","/Users/izzymcgibbon/Desktop/College/Tarleton State /2023 /Fall /Stats /2.1 ","False","mono","False","18","no","white","no","yes","768","legacy","49","49","/Users/izzymcgibbon/Desktop/College/Tarleton State /2023 /Fall /Stats /2.1 /EWM-subject-3.csv","legacy","Melodramatic Milgram","4.0.5","0","h","NA","NA","h","NA","h","368.0","NA","NA","864","NA","368","2","legacy","1024","2","48000","-16","experiment","HHHHH","3","odd","3742","NA","NA","NA","NA","85065","79775","2717","86105","NA","2866","NA","86207","86576","86103","86207","FlankerTask.3","42","22453.0","50","1024"
"84","84","447","447","#3d3846","legacy","legacy","legacy","incongruent","1","undefined","1","h","0","0","0","50","0","50","50","0","50","0","0","0","50","50","50","50","Wed Sep 20 17:42:07 2023","1500","The main experiment item","True","ewm FlankerTask3.edited .osexp","/Users/izzymcgibbon/Desktop/College/Tarleton State /2023 /Fall /Stats /2.1 ","False","mono","False","18","no","white","no","yes","768","legacy","50","50","/Users/izzymcgibbon/Desktop/College/Tarleton State /2023 /Fall /Stats /2.1 /EWM-subject-3.csv","legacy","Melodramatic Milgram","4.0.5","0","h","NA","NA","h","NA","h","379.0","NA","NA","864","NA","379","2","legacy","1024","2","48000","-16","experiment","HHHHH","3","odd","3742","NA","NA","NA","NA","86579","79775","2717","87621","NA","2866","NA","87723","88103","87618","87723","FlankerTask.3","43","22832.0","51","1024"
"84","84","445","445","#3d3846","legacy","legacy","legacy","incongruent","1","undefined","1","h","0","0","0","51","0","51","51","0","51","0","0","0","51","51","51","51","Wed Sep 20 17:42:07 2023","1500","The main experiment item","True","ewm FlankerTask3.edited .osexp","/Users/izzymcgibbon/Desktop/College/Tarleton State /2023 /Fall /Stats /2.1 ","False","mono","False","18","no","white","no","yes","768","legacy","51","51","/Users/izzymcgibbon/Desktop/College/Tarleton State /2023 /Fall /Stats /2.1 /EWM-subject-3.csv","legacy","Melodramatic Milgram","4.0.5","0","h","NA","NA","h","NA","h","336.0","NA","NA","864","NA","336","2","legacy","1024","2","48000","-16","experiment","SSHSS","3","odd","3742","NA","NA","NA","NA","88106","79775","2717","89146","NA","2866","NA","89248","89585","89144","89248","FlankerTask.3","44","23168.0","52","1024"
"84","84","445","445","#3d3846","legacy","legacy","legacy","congruent","1","undefined","1","s","0","0","0","52","0","52","52","0","52","0","0","0","52","52","52","52","Wed Sep 20 17:42:07 2023","1500","The main experiment item","True","ewm FlankerTask3.edited .osexp","/Users/izzymcgibbon/Desktop/College/Tarleton State /2023 /Fall /Stats /2.1 ","False","mono","False","18","no","white","no","yes","768","legacy","52","52","/Users/izzymcgibbon/Desktop/College/Tarleton State /2023 /Fall /Stats /2.1 /EWM-subject-3.csv","legacy","Melodramatic Milgram","4.0.5","0","s","NA","NA","h","NA","s","421.0","NA","NA","864","NA","421","2","legacy","1024","2","48000","-16","experiment","HHSHH","3","odd","3742","NA","NA","NA","NA","89588","79775","2717","90629","NA","2866","NA","90731","91153","90627","90731","FlankerTask.3","45","23589.0","53","1024"
"85","85","444","444","#3d3846","legacy","legacy","legacy","incongruent","1","undefined","1","h","0","0","0","53","0","53","53","0","53","0","0","0","53","53","53","53","Wed Sep 20 17:42:07 2023","1500","The main experiment item","True","ewm FlankerTask3.edited .osexp","/Users/izzymcgibbon/Desktop/College/Tarleton State /2023 /Fall /Stats /2.1 ","False","mono","False","18","no","white","no","yes","768","legacy","53","53","/Users/izzymcgibbon/Desktop/College/Tarleton State /2023 /Fall /Stats /2.1 /EWM-subject-3.csv","legacy","Melodramatic Milgram","4.0.5","0","h","NA","NA","h","NA","h","411.0","NA","NA","864","NA","411","2","legacy","1024","2","48000","-16","experiment","HHHHH","3","odd","3742","NA","NA","NA","NA","91155","79775","2717","92196","NA","2866","NA","92298","92710","92194","92298","FlankerTask.3","46","24000.0","54","1024"
"85","85","443","443","#3d3846","legacy","legacy","legacy","incongruent","1","undefined","1","h","0","0","0","54","0","54","54","0","54","0","0","0","54","54","54","54","Wed Sep 20 17:42:07 2023","1500","The main experiment item","True","ewm FlankerTask3.edited .osexp","/Users/izzymcgibbon/Desktop/College/Tarleton State /2023 /Fall /Stats /2.1 ","False","mono","False","18","no","white","no","yes","768","legacy","54","54","/Users/izzymcgibbon/Desktop/College/Tarleton State /2023 /Fall /Stats /2.1 /EWM-subject-3.csv","legacy","Melodramatic Milgram","4.0.5","0","h","NA","NA","h","NA","h","386.0","NA","NA","864","NA","386","2","legacy","1024","2","48000","-16","experiment","HHHHH","3","odd","3742","NA","NA","NA","NA","92712","79775","2717","93761","NA","2866","NA","93863","94249","93759","93863","FlankerTask.3","47","24386.0","55","1024"
"85","85","441","441","#3d3846","legacy","legacy","legacy","incongruent","1","undefined","1","h","0","0","0","55","0","55","55","0","55","0","0","0","55","55","55","55","Wed Sep 20 17:42:07 2023","1500","The main experiment item","True","ewm FlankerTask3.edited .osexp","/Users/izzymcgibbon/Desktop/College/Tarleton State /2023 /Fall /Stats /2.1 ","False","mono","False","18","no","white","no","yes","768","legacy","55","55","/Users/izzymcgibbon/Desktop/College/Tarleton State /2023 /Fall /Stats /2.1 /EWM-subject-3.csv","legacy","Melodramatic Milgram","4.0.5","0","h","NA","NA","h","NA","h","362.0","NA","NA","864","NA","362","2","legacy","1024","2","48000","-16","experiment","HHHHH","3","odd","3742","NA","NA","NA","NA","94252","79775","2717","95286","NA","2866","NA","95388","95751","95284","95388","FlankerTask.3","48","24748.0","56","1024"
"85","85","441","441","#3d3846","legacy","legacy","legacy","congruent","1","undefined","1","s","0","0","0","56","0","56","56","0","56","0","0","0","56","56","56","56","Wed Sep 20 17:42:07 2023","1500","The main experiment item","True","ewm FlankerTask3.edited .osexp","/Users/izzymcgibbon/Desktop/College/Tarleton State /2023 /Fall /Stats /2.1 ","False","mono","False","18","no","white","no","yes","768","legacy","56","56","/Users/izzymcgibbon/Desktop/College/Tarleton State /2023 /Fall /Stats /2.1 /EWM-subject-3.csv","legacy","Melodramatic Milgram","4.0.5","0","s","NA","NA","h","NA","s","440.0","NA","NA","864","NA","440","2","legacy","1024","2","48000","-16","experiment","HHSHH","3","odd","3742","NA","NA","NA","NA","95753","79775","2717","96790","NA","2866","NA","96892","97332","96788","96892","FlankerTask.3","49","25188.0","57","1024"
"86","86","442","442","#3d3846","legacy","legacy","legacy","congruent","1","undefined","1","s","0","0","0","57","0","57","57","0","57","0","0","0","57","57","57","57","Wed Sep 20 17:42:07 2023","1500","The main experiment item","True","ewm FlankerTask3.edited .osexp","/Users/izzymcgibbon/Desktop/College/Tarleton State /2023 /Fall /Stats /2.1 ","False","mono","False","18","no","white","no","yes","768","legacy","57","57","/Users/izzymcgibbon/Desktop/College/Tarleton State /2023 /Fall /Stats /2.1 /EWM-subject-3.csv","legacy","Melodramatic Milgram","4.0.5","0","s","NA","NA","h","NA","s","472.0","NA","NA","864","NA","472","2","legacy","1024","2","48000","-16","experiment","HHSHH","3","odd","3742","NA","NA","NA","NA","97335","79775","2717","98377","NA","2866","NA","98480","98953","98375","98479","FlankerTask.3","50","25660.0","58","1024"
"86","86","442","442","#3d3846","legacy","legacy","legacy","congruent","1","undefined","1","s","0","0","0","58","0","58","58","0","58","0","0","0","58","58","58","58","Wed Sep 20 17:42:07 2023","1500","The main experiment item","True","ewm FlankerTask3.edited .osexp","/Users/izzymcgibbon/Desktop/College/Tarleton State /2023 /Fall /Stats /2.1 ","False","mono","False","18","no","white","no","yes","768","legacy","58","58","/Users/izzymcgibbon/Desktop/College/Tarleton State /2023 /Fall /Stats /2.1 /EWM-subject-3.csv","legacy","Melodramatic Milgram","4.0.5","0","s","NA","NA","h","NA","s","427.0","NA","NA","864","NA","427","2","legacy","1024","2","48000","-16","experiment","HHSHH","3","odd","3742","NA","NA","NA","NA","98957","79775","2717","99997","NA","2866","NA","100100","100528","99996","100099","FlankerTask.3","51","26087.0","59","1024"
"86","86","445","445","#3d3846","legacy","legacy","legacy","congruent","1","undefined","1","s","0","0","0","59","0","59","59","0","59","0","0","0","59","59","59","59","Wed Sep 20 17:42:07 2023","1500","The main experiment item","True","ewm FlankerTask3.edited .osexp","/Users/izzymcgibbon/Desktop/College/Tarleton State /2023 /Fall /Stats /2.1 ","False","mono","False","18","no","white","no","yes","768","legacy","59","59","/Users/izzymcgibbon/Desktop/College/Tarleton State /2023 /Fall /Stats /2.1 /EWM-subject-3.csv","legacy","Melodramatic Milgram","4.0.5","0","s","NA","NA","h","NA","s","619.0","NA","NA","864","NA","619","2","legacy","1024","2","48000","-16","experiment","HHSHH","3","odd","3742","NA","NA","NA","NA","100531","79775","2717","101572","NA","2866","NA","101674","102294","101570","101674","FlankerTask.3","52","26706.0","60","1024"
"86","86","444","444","#3d3846","legacy","legacy","legacy","congruent","1","undefined","1","s","0","0","0","60","0","60","60","0","60","0","0","0","60","60","60","60","Wed Sep 20 17:42:07 2023","1500","The main experiment item","True","ewm FlankerTask3.edited .osexp","/Users/izzymcgibbon/Desktop/College/Tarleton State /2023 /Fall /Stats /2.1 ","False","mono","False","18","no","white","no","yes","768","legacy","60","60","/Users/izzymcgibbon/Desktop/College/Tarleton State /2023 /Fall /Stats /2.1 /EWM-subject-3.csv","legacy","Melodramatic Milgram","4.0.5","0","s","NA","NA","h","NA","s","389.0","NA","NA","864","NA","389","2","legacy","1024","2","48000","-16","experiment","SSSSS","3","odd","3742","NA","NA","NA","NA","102297","79775","2717","103338","NA","2866","NA","103440","103830","103336","103440","FlankerTask.3","53","27095.0","61","1024"
"87","87","442","442","#3d3846","legacy","legacy","legacy","congruent","1","undefined","1","s","0","0","0","61","0","61","61","0","61","0","0","0","61","61","61","61","Wed Sep 20 17:42:07 2023","1500","The main experiment item","True","ewm FlankerTask3.edited .osexp","/Users/izzymcgibbon/Desktop/College/Tarleton State /2023 /Fall /Stats /2.1 ","False","mono","False","18","no","white","no","yes","768","legacy","61","61","/Users/izzymcgibbon/Desktop/College/Tarleton State /2023 /Fall /Stats /2.1 /EWM-subject-3.csv","legacy","Melodramatic Milgram","4.0.5","0","s","NA","NA","h","NA","s","357.0","NA","NA","864","NA","357","2","legacy","1024","2","48000","-16","experiment","SSSSS","3","odd","3742","NA","NA","NA","NA","103833","79775","2717","104883","NA","2866","NA","104986","105344","104881","104985","FlankerTask.3","54","27452.0","62","1024"
"87","87","442","442","#3d3846","legacy","legacy","legacy","congruent","1","undefined","1","s","0","0","0","62","0","62","62","0","62","0","0","0","62","62","62","62","Wed Sep 20 17:42:07 2023","1500","The main experiment item","True","ewm FlankerTask3.edited .osexp","/Users/izzymcgibbon/Desktop/College/Tarleton State /2023 /Fall /Stats /2.1 ","False","mono","False","18","no","white","no","yes","768","legacy","62","62","/Users/izzymcgibbon/Desktop/College/Tarleton State /2023 /Fall /Stats /2.1 /EWM-subject-3.csv","legacy","Melodramatic Milgram","4.0.5","0","s","NA","NA","h","NA","s","412.0","NA","NA","864","NA","412","2","legacy","1024","2","48000","-16","experiment","HHSHH","3","odd","3742","NA","NA","NA","NA","105347","79775","2717","106380","NA","2866","NA","106483","106896","106379","106482","FlankerTask.3","55","27864.0","63","1024"
"87","87","443","443","#3d3846","legacy","legacy","legacy","congruent","1","undefined","1","s","0","0","0","63","0","63","63","0","63","0","0","0","63","63","63","63","Wed Sep 20 17:42:07 2023","1500","The main experiment item","True","ewm FlankerTask3.edited .osexp","/Users/izzymcgibbon/Desktop/College/Tarleton State /2023 /Fall /Stats /2.1 ","False","mono","False","18","no","white","no","yes","768","legacy","63","63","/Users/izzymcgibbon/Desktop/College/Tarleton State /2023 /Fall /Stats /2.1 /EWM-subject-3.csv","legacy","Melodramatic Milgram","4.0.5","0","s","NA","NA","h","NA","s","526.0","NA","NA","864","NA","526","2","legacy","1024","2","48000","-16","experiment","HHSHH","3","odd","3742","NA","NA","NA","NA","106899","79775","2717","107933","NA","2866","NA","108036","108563","107932","108035","FlankerTask.3","56","28390.0","64","1024"
"87","87","443","443","#3d3846","legacy","legacy","legacy","congruent","1","undefined","1","s","0","0","0","64","0","64","64","0","64","0","0","0","64","64","64","64","Wed Sep 20 17:42:07 2023","1500","The main experiment item","True","ewm FlankerTask3.edited .osexp","/Users/izzymcgibbon/Desktop/College/Tarleton State /2023 /Fall /Stats /2.1 ","False","mono","False","18","no","white","no","yes","768","legacy","64","64","/Users/izzymcgibbon/Desktop/College/Tarleton State /2023 /Fall /Stats /2.1 /EWM-subject-3.csv","legacy","Melodramatic Milgram","4.0.5","0","s","NA","NA","h","NA","s","412.0","NA","NA","864","NA","412","2","legacy","1024","2","48000","-16","experiment","SSSSS","3","odd","3742","NA","NA","NA","NA","108566","79775","2717","109606","NA","2866","NA","109709","110122","109605","109708","FlankerTask.3","57","28802.0","65","1024"
"87","87","443","443","#3d3846","legacy","legacy","legacy","congruent","1","undefined","1","s","0","0","0","65","0","65","65","0","65","0","0","0","65","65","65","65","Wed Sep 20 17:42:07 2023","1500","The main experiment item","True","ewm FlankerTask3.edited .osexp","/Users/izzymcgibbon/Desktop/College/Tarleton State /2023 /Fall /Stats /2.1 ","False","mono","False","18","no","white","no","yes","768","legacy","65","65","/Users/izzymcgibbon/Desktop/College/Tarleton State /2023 /Fall /Stats /2.1 /EWM-subject-3.csv","legacy","Melodramatic Milgram","4.0.5","0","s","NA","NA","h","NA","s","468.0","NA","NA","864","NA","468","2","legacy","1024","2","48000","-16","experiment","HHSHH","3","odd","3742","NA","NA","NA","NA","110125","79775","2717","111167","NA","2866","NA","111269","111738","111166","111269","FlankerTask.3","58","29270.0","66","1024"
"88","88","443","443","#3d3846","legacy","legacy","legacy","incongruent","1","undefined","1","h","0","0","0","66","0","66","66","0","66","0","0","0","66","66","66","66","Wed Sep 20 17:42:07 2023","1500","The main experiment item","True","ewm FlankerTask3.edited .osexp","/Users/izzymcgibbon/Desktop/College/Tarleton State /2023 /Fall /Stats /2.1 ","False","mono","False","18","no","white","no","yes","768","legacy","66","66","/Users/izzymcgibbon/Desktop/College/Tarleton State /2023 /Fall /Stats /2.1 /EWM-subject-3.csv","legacy","Melodramatic Milgram","4.0.5","0","h","NA","NA","h","NA","h","414.0","NA","NA","864","NA","414","2","legacy","1024","2","48000","-16","experiment","HHHHH","3","odd","3742","NA","NA","NA","NA","111741","79775","2717","112782","NA","2866","NA","112884","113299","112780","112884","FlankerTask.3","59","29684.0","67","1024"
"86","86","442","442","#3d3846","legacy","legacy","legacy","congruent","0","undefined","0","s","0","0","0","67","0","67","67","0","67","0","0","0","67","67","67","67","Wed Sep 20 17:42:07 2023","1500","The main experiment item","True","ewm FlankerTask3.edited .osexp","/Users/izzymcgibbon/Desktop/College/Tarleton State /2023 /Fall /Stats /2.1 ","False","mono","False","18","no","white","no","yes","768","legacy","67","67","/Users/izzymcgibbon/Desktop/College/Tarleton State /2023 /Fall /Stats /2.1 /EWM-subject-3.csv","legacy","Melodramatic Milgram","4.0.5","0","h","NA","NA","h","NA","h","381.0","NA","NA","864","NA","381","2","legacy","1024","2","48000","-16","experiment","HHSHH","3","odd","3742","NA","NA","NA","NA","113301","79775","2717","114342","NA","2866","NA","114445","114827","114341","114444","FlankerTask.3","59","30065.0","68","1024"
"86","86","440","440","#3d3846","legacy","legacy","legacy","congruent","1","undefined","1","s","0","0","0","68","0","68","68","0","68","0","0","0","68","68","68","68","Wed Sep 20 17:42:07 2023","1500","The main experiment item","True","ewm FlankerTask3.edited .osexp","/Users/izzymcgibbon/Desktop/College/Tarleton State /2023 /Fall /Stats /2.1 ","False","mono","False","18","no","white","no","yes","768","legacy","68","68","/Users/izzymcgibbon/Desktop/College/Tarleton State /2023 /Fall /Stats /2.1 /EWM-subject-3.csv","legacy","Melodramatic Milgram","4.0.5","0","s","NA","NA","h","NA","s","339.0","NA","NA","864","NA","339","2","legacy","1024","2","48000","-16","experiment","SSSSS","3","odd","3742","NA","NA","NA","NA","115332","114830","2717","116373","NA","2866","NA","116476","116816","116372","116476","FlankerTask.3","60","30404.0","69","1024"
"87","87","439","439","#3d3846","legacy","legacy","legacy","congruent","1","undefined","1","s","0","0","0","69","0","69","69","0","69","0","0","0","69","69","69","69","Wed Sep 20 17:42:07 2023","1500","The main experiment item","True","ewm FlankerTask3.edited .osexp","/Users/izzymcgibbon/Desktop/College/Tarleton State /2023 /Fall /Stats /2.1 ","False","mono","False","18","no","white","no","yes","768","legacy","69","69","/Users/izzymcgibbon/Desktop/College/Tarleton State /2023 /Fall /Stats /2.1 /EWM-subject-3.csv","legacy","Melodramatic Milgram","4.0.5","0","s","NA","NA","h","NA","s","361.0","NA","NA","864","NA","361","2","legacy","1024","2","48000","-16","experiment","SSSSS","3","odd","3742","NA","NA","NA","NA","116819","114830","2717","117864","NA","2866","NA","117968","118330","117863","117967","FlankerTask.3","61","30765.0","70","1024"
"87","87","441","441","#3d3846","legacy","legacy","legacy","congruent","1","undefined","1","s","0","0","0","70","0","70","70","0","70","0","0","0","70","70","70","70","Wed Sep 20 17:42:07 2023","1500","The main experiment item","True","ewm FlankerTask3.edited .osexp","/Users/izzymcgibbon/Desktop/College/Tarleton State /2023 /Fall /Stats /2.1 ","False","mono","False","18","no","white","no","yes","768","legacy","70","70","/Users/izzymcgibbon/Desktop/College/Tarleton State /2023 /Fall /Stats /2.1 /EWM-subject-3.csv","legacy","Melodramatic Milgram","4.0.5","0","s","NA","NA","h","NA","s","614.0","NA","NA","864","NA","614","2","legacy","1024","2","48000","-16","experiment","SSSSS","3","odd","3742","NA","NA","NA","NA","118333","114830","2717","119365","NA","2866","NA","119467","120082","119364","119467","FlankerTask.3","62","31379.0","71","1024"
"86","86","439","439","#3d3846","legacy","legacy","legacy","incongruent","0","undefined","0","h","0","0","0","71","0","71","71","0","71","0","0","0","71","71","71","71","Wed Sep 20 17:42:07 2023","1500","The main experiment item","True","ewm FlankerTask3.edited .osexp","/Users/izzymcgibbon/Desktop/College/Tarleton State /2023 /Fall /Stats /2.1 ","False","mono","False","18","no","white","no","yes","768","legacy","71","71","/Users/izzymcgibbon/Desktop/College/Tarleton State /2023 /Fall /Stats /2.1 /EWM-subject-3.csv","legacy","Melodramatic Milgram","4.0.5","0","s","NA","NA","h","NA","s","276.0","NA","NA","864","NA","276","2","legacy","1024","2","48000","-16","experiment","SSHSS","3","odd","3742","NA","NA","NA","NA","120086","114830","2717","121121","NA","2866","NA","121223","121500","121120","121223","FlankerTask.3","62","31655.0","72","1024"
"86","86","438","438","#3d3846","legacy","legacy","legacy","congruent","1","undefined","1","s","0","0","0","72","0","72","72","0","72","0","0","0","72","72","72","72","Wed Sep 20 17:42:07 2023","1500","The main experiment item","True","ewm FlankerTask3.edited .osexp","/Users/izzymcgibbon/Desktop/College/Tarleton State /2023 /Fall /Stats /2.1 ","False","mono","False","18","no","white","no","yes","768","legacy","72","72","/Users/izzymcgibbon/Desktop/College/Tarleton State /2023 /Fall /Stats /2.1 /EWM-subject-3.csv","legacy","Melodramatic Milgram","4.0.5","0","s","NA","NA","h","NA","s","337.0","NA","NA","864","NA","337","2","legacy","1024","2","48000","-16","experiment","SSSSS","3","odd","3742","NA","NA","NA","NA","122006","121503","2717","123046","NA","2866","NA","123148","123486","123044","123148","FlankerTask.3","63","31992.0","73","1024"
"86","86","436","436","#3d3846","legacy","legacy","legacy","congruent","1","undefined","1","s","0","0","0","73","0","73","73","0","73","0","0","0","73","73","73","73","Wed Sep 20 17:42:07 2023","1500","The main experiment item","True","ewm FlankerTask3.edited .osexp","/Users/izzymcgibbon/Desktop/College/Tarleton State /2023 /Fall /Stats /2.1 ","False","mono","False","18","no","white","no","yes","768","legacy","73","73","/Users/izzymcgibbon/Desktop/College/Tarleton State /2023 /Fall /Stats /2.1 /EWM-subject-3.csv","legacy","Melodramatic Milgram","4.0.5","0","s","NA","NA","h","NA","s","314.0","NA","NA","864","NA","314","2","legacy","1024","2","48000","-16","experiment","SSSSS","3","odd","3742","NA","NA","NA","NA","123489","121503","2717","124529","NA","2866","NA","124632","124947","124527","124631","FlankerTask.3","64","32306.0","74","1024"
"85","85","434","434","#3d3846","legacy","legacy","legacy","incongruent","0","undefined","0","h","0","0","0","74","0","74","74","0","74","0","0","0","74","74","74","74","Wed Sep 20 17:42:07 2023","1500","The main experiment item","True","ewm FlankerTask3.edited .osexp","/Users/izzymcgibbon/Desktop/College/Tarleton State /2023 /Fall /Stats /2.1 ","False","mono","False","18","no","white","no","yes","768","legacy","74","74","/Users/izzymcgibbon/Desktop/College/Tarleton State /2023 /Fall /Stats /2.1 /EWM-subject-3.csv","legacy","Melodramatic Milgram","4.0.5","0","s","NA","NA","h","NA","s","312.0","NA","NA","864","NA","312","2","legacy","1024","2","48000","-16","experiment","SSHSS","3","odd","3742","NA","NA","NA","NA","124950","121503","2717","125990","NA","2866","NA","126092","126405","125988","126092","FlankerTask.3","64","32618.0","75","1024"
"85","85","434","434","#3d3846","legacy","legacy","legacy","congruent","1","undefined","1","s","0","0","0","75","0","75","75","0","75","0","0","0","75","75","75","75","Wed Sep 20 17:42:07 2023","1500","The main experiment item","True","ewm FlankerTask3.edited .osexp","/Users/izzymcgibbon/Desktop/College/Tarleton State /2023 /Fall /Stats /2.1 ","False","mono","False","18","no","white","no","yes","768","legacy","75","75","/Users/izzymcgibbon/Desktop/College/Tarleton State /2023 /Fall /Stats /2.1 /EWM-subject-3.csv","legacy","Melodramatic Milgram","4.0.5","0","s","NA","NA","h","NA","s","439.0","NA","NA","864","NA","439","2","legacy","1024","2","48000","-16","experiment","HHSHH","3","odd","3742","NA","NA","NA","NA","126911","126408","2717","127952","NA","2866","NA","128054","128494","127950","128054","FlankerTask.3","65","33057.0","76","1024"
"85","85","434","434","#3d3846","legacy","legacy","legacy","incongruent","1","undefined","1","h","0","0","0","76","0","76","76","0","76","0","0","0","76","76","76","76","Wed Sep 20 17:42:07 2023","1500","The main experiment item","True","ewm FlankerTask3.edited .osexp","/Users/izzymcgibbon/Desktop/College/Tarleton State /2023 /Fall /Stats /2.1 ","False","mono","False","18","no","white","no","yes","768","legacy","76","76","/Users/izzymcgibbon/Desktop/College/Tarleton State /2023 /Fall /Stats /2.1 /EWM-subject-3.csv","legacy","Melodramatic Milgram","4.0.5","0","h","NA","NA","h","NA","h","382.0","NA","NA","864","NA","382","2","legacy","1024","2","48000","-16","experiment","SSHSS","3","odd","3742","NA","NA","NA","NA","128497","126408","2717","129547","NA","2866","NA","129650","130033","129545","129649","FlankerTask.3","66","33439.0","77","1024"
"85","85","434","434","#3d3846","legacy","legacy","legacy","incongruent","1","undefined","1","h","0","0","0","77","0","77","77","0","77","0","0","0","77","77","77","77","Wed Sep 20 17:42:07 2023","1500","The main experiment item","True","ewm FlankerTask3.edited .osexp","/Users/izzymcgibbon/Desktop/College/Tarleton State /2023 /Fall /Stats /2.1 ","False","mono","False","18","no","white","no","yes","768","legacy","77","77","/Users/izzymcgibbon/Desktop/College/Tarleton State /2023 /Fall /Stats /2.1 /EWM-subject-3.csv","legacy","Melodramatic Milgram","4.0.5","0","h","NA","NA","h","NA","h","484.0","NA","NA","864","NA","484","2","legacy","1024","2","48000","-16","experiment","SSHSS","3","odd","3742","NA","NA","NA","NA","130036","126408","2717","131068","NA","2866","NA","131170","131655","131066","131170","FlankerTask.3","67","33923.0","78","1024"
"84","84","434","434","#3d3846","legacy","legacy","legacy","congruent","0","undefined","0","s","0","0","0","78","0","78","78","0","78","0","0","0","78","78","78","78","Wed Sep 20 17:42:07 2023","1500","The main experiment item","True","ewm FlankerTask3.edited .osexp","/Users/izzymcgibbon/Desktop/College/Tarleton State /2023 /Fall /Stats /2.1 ","False","mono","False","18","no","white","no","yes","768","legacy","78","78","/Users/izzymcgibbon/Desktop/College/Tarleton State /2023 /Fall /Stats /2.1 /EWM-subject-3.csv","legacy","Melodramatic Milgram","4.0.5","0","h","NA","NA","h","NA","h","374.0","NA","NA","864","NA","374","2","legacy","1024","2","48000","-16","experiment","SSSSS","3","odd","3742","NA","NA","NA","NA","131658","126408","2717","132692","NA","2866","NA","132794","133169","132691","132794","FlankerTask.3","67","34297.0","79","1024"
"85","85","434","434","#3d3846","legacy","legacy","legacy","congruent","1","undefined","1","s","0","0","0","79","0","79","79","0","79","0","0","0","79","79","79","79","Wed Sep 20 17:42:07 2023","1500","The main experiment item","True","ewm FlankerTask3.edited .osexp","/Users/izzymcgibbon/Desktop/College/Tarleton State /2023 /Fall /Stats /2.1 ","False","mono","False","18","no","white","no","yes","768","legacy","79","79","/Users/izzymcgibbon/Desktop/College/Tarleton State /2023 /Fall /Stats /2.1 /EWM-subject-3.csv","legacy","Melodramatic Milgram","4.0.5","0","s","NA","NA","h","NA","s","423.0","NA","NA","864","NA","423","2","legacy","1024","2","48000","-16","experiment","SSSSS","3","odd","3742","NA","NA","NA","NA","133674","133172","2717","134714","NA","2866","NA","134816","135240","134713","134816","FlankerTask.3","68","34720.0","80","1024"
"85","85","434","434","#3d3846","legacy","legacy","legacy","incongruent","1","undefined","1","h","0","0","0","80","0","80","80","0","80","0","0","0","80","80","80","80","Wed Sep 20 17:42:07 2023","600","The main experiment item","True","ewm FlankerTask3.edited .osexp","/Users/izzymcgibbon/Desktop/College/Tarleton State /2023 /Fall /Stats /2.1 ","False","mono","False","18","no","white","no","yes","768","legacy","0","79","/Users/izzymcgibbon/Desktop/College/Tarleton State /2023 /Fall /Stats /2.1 /EWM-subject-3.csv","legacy","Melodramatic Milgram","4.0.5","0","h","NA","NA","h","s","h","504.0","NA","NA","864","963","504","2","legacy","1024","2","48000","-16","experiment","SSHSS","3","odd","3742","137210","NA","NA","NA","135243","133172","2717","137247","NA","2866","136246","137350","137855","137246","137349","FlankerTask.3","69","35224.0","81","1024"
"84","84","435","435","#3d3846","legacy","legacy","legacy","incongruent","0","undefined","0","h","0","0","0","81","0","81","81","0","81","0","0","0","81","81","81","81","Wed Sep 20 17:42:07 2023","600","The main experiment item","True","ewm FlankerTask3.edited .osexp","/Users/izzymcgibbon/Desktop/College/Tarleton State /2023 /Fall /Stats /2.1 ","False","mono","False","18","no","white","no","yes","768","legacy","1","79","/Users/izzymcgibbon/Desktop/College/Tarleton State /2023 /Fall /Stats /2.1 /EWM-subject-3.csv","legacy","Melodramatic Milgram","4.0.5","0","s","NA","NA","h","s","s","467.0","NA","NA","864","963","467","2","legacy","1024","2","48000","-16","experiment","SSHSS","3","odd","3742","137210","NA","NA","NA","137858","133172","2717","138891","NA","2866","136246","138993","139461","138889","138993","FlankerTask.3","69","35691.0","82","1024"
"83","83","431","431","#3d3846","legacy","legacy","legacy","incongruent","0","undefined","0","h","0","0","0","82","0","82","82","0","82","0","0","0","82","82","82","82","Wed Sep 20 17:42:07 2023","600","The main experiment item","True","ewm FlankerTask3.edited .osexp","/Users/izzymcgibbon/Desktop/College/Tarleton State /2023 /Fall /Stats /2.1 ","False","mono","False","18","no","white","no","yes","768","legacy","2","79","/Users/izzymcgibbon/Desktop/College/Tarleton State /2023 /Fall /Stats /2.1 /EWM-subject-3.csv","legacy","Melodramatic Milgram","4.0.5","0","s","NA","NA","h","s","s","94.0","NA","NA","864","963","94","2","legacy","1024","2","48000","-16","experiment","HHHHH","3","odd","3742","137210","NA","NA","NA","139967","139464","2717","141002","NA","2866","136246","141104","141199","141000","141104","FlankerTask.3","69","35785.0","83","1024"
"83","83","432","432","#3d3846","legacy","legacy","legacy","congruent","1","undefined","1","s","0","0","0","83","0","83","83","0","83","0","0","0","83","83","83","83","Wed Sep 20 17:42:07 2023","600","The main experiment item","True","ewm FlankerTask3.edited .osexp","/Users/izzymcgibbon/Desktop/College/Tarleton State /2023 /Fall /Stats /2.1 ","False","mono","False","18","no","white","no","yes","768","legacy","3","79","/Users/izzymcgibbon/Desktop/College/Tarleton State /2023 /Fall /Stats /2.1 /EWM-subject-3.csv","legacy","Melodramatic Milgram","4.0.5","0","s","NA","NA","h","s","s","503.0","NA","NA","864","963","503","2","legacy","1024","2","48000","-16","experiment","HHSHH","3","odd","3742","137210","NA","NA","NA","141705","141202","2717","142746","NA","2866","136246","142848","143352","142744","142848","FlankerTask.3","70","36288.0","84","1024"
"83","83","433","433","#3d3846","legacy","legacy","legacy","incongruent","1","undefined","1","h","0","0","0","84","0","84","84","0","84","0","0","0","84","84","84","84","Wed Sep 20 17:42:07 2023","600","The main experiment item","True","ewm FlankerTask3.edited .osexp","/Users/izzymcgibbon/Desktop/College/Tarleton State /2023 /Fall /Stats /2.1 ","False","mono","False","18","no","white","no","yes","768","legacy","4","79","/Users/izzymcgibbon/Desktop/College/Tarleton State /2023 /Fall /Stats /2.1 /EWM-subject-3.csv","legacy","Melodramatic Milgram","4.0.5","0","h","NA","NA","h","s","h","522.0","NA","NA","864","963","522","2","legacy","1024","2","48000","-16","experiment","SSHSS","3","odd","3742","137210","NA","NA","NA","143355","141202","2717","144396","NA","2866","136246","144498","145021","144394","144498","FlankerTask.3","71","36810.0","85","1024"
"83","83","431","431","#3d3846","legacy","legacy","legacy","congruent","1","undefined","1","s","0","0","0","85","0","85","85","0","85","0","0","0","85","85","85","85","Wed Sep 20 17:42:07 2023","600","The main experiment item","True","ewm FlankerTask3.edited .osexp","/Users/izzymcgibbon/Desktop/College/Tarleton State /2023 /Fall /Stats /2.1 ","False","mono","False","18","no","white","no","yes","768","legacy","5","79","/Users/izzymcgibbon/Desktop/College/Tarleton State /2023 /Fall /Stats /2.1 /EWM-subject-3.csv","legacy","Melodramatic Milgram","4.0.5","0","s","NA","NA","h","s","s","336.0","NA","NA","864","963","336","2","legacy","1024","2","48000","-16","experiment","SSSSS","3","odd","3742","137210","NA","NA","NA","145024","141202","2717","146065","NA","2866","136246","146167","146504","146063","146167","FlankerTask.3","72","37146.0","86","1024"
"83","83","432","432","#3d3846","legacy","legacy","legacy","incongruent","1","undefined","1","h","0","0","0","86","0","86","86","0","86","0","0","0","86","86","86","86","Wed Sep 20 17:42:07 2023","600","The main experiment item","True","ewm FlankerTask3.edited .osexp","/Users/izzymcgibbon/Desktop/College/Tarleton State /2023 /Fall /Stats /2.1 ","False","mono","False","18","no","white","no","yes","768","legacy","6","79","/Users/izzymcgibbon/Desktop/College/Tarleton State /2023 /Fall /Stats /2.1 /EWM-subject-3.csv","legacy","Melodramatic Milgram","4.0.5","0","h","NA","NA","h","s","h","441.0","NA","NA","864","963","441","2","legacy","1024","2","48000","-16","experiment","SSHSS","3","odd","3742","137210","NA","NA","NA","146507","141202","2717","147552","NA","2866","136246","147654","148096","147550","147654","FlankerTask.3","73","37587.0","87","1024"
"82","82","431","431","#3d3846","legacy","legacy","legacy","congruent","0","undefined","0","s","0","0","0","87","0","87","87","0","87","0","0","0","87","87","87","87","Wed Sep 20 17:42:07 2023","600","The main experiment item","True","ewm FlankerTask3.edited .osexp","/Users/izzymcgibbon/Desktop/College/Tarleton State /2023 /Fall /Stats /2.1 ","False","mono","False","18","no","white","no","yes","768","legacy","7","79","/Users/izzymcgibbon/Desktop/College/Tarleton State /2023 /Fall /Stats /2.1 /EWM-subject-3.csv","legacy","Melodramatic Milgram","4.0.5","0","h","NA","NA","h","s","h","347.0","NA","NA","864","963","347","2","legacy","1024","2","48000","-16","experiment","SSSSS","3","odd","3742","137210","NA","NA","NA","148100","141202","2717","149143","NA","2866","136246","149245","149593","149141","149245","FlankerTask.3","73","37934.0","88","1024"
"83","83","430","430","#3d3846","legacy","legacy","legacy","incongruent","1","undefined","1","h","0","0","0","88","0","88","88","0","88","0","0","0","88","88","88","88","Wed Sep 20 17:42:07 2023","600","The main experiment item","True","ewm FlankerTask3.edited .osexp","/Users/izzymcgibbon/Desktop/College/Tarleton State /2023 /Fall /Stats /2.1 ","False","mono","False","18","no","white","no","yes","768","legacy","8","79","/Users/izzymcgibbon/Desktop/College/Tarleton State /2023 /Fall /Stats /2.1 /EWM-subject-3.csv","legacy","Melodramatic Milgram","4.0.5","0","h","NA","NA","h","s","h","353.0","NA","NA","864","963","353","2","legacy","1024","2","48000","-16","experiment","HHHHH","3","odd","3742","137210","NA","NA","NA","150100","149597","2717","151145","NA","2866","136246","151247","151601","151143","151247","FlankerTask.3","74","38287.0","89","1024"
"82","82","429","429","#3d3846","legacy","legacy","legacy","congruent","0","undefined","0","s","0","0","0","89","0","89","89","0","89","0","0","0","89","89","89","89","Wed Sep 20 17:42:07 2023","600","The main experiment item","True","ewm FlankerTask3.edited .osexp","/Users/izzymcgibbon/Desktop/College/Tarleton State /2023 /Fall /Stats /2.1 ","False","mono","False","18","no","white","no","yes","768","legacy","9","79","/Users/izzymcgibbon/Desktop/College/Tarleton State /2023 /Fall /Stats /2.1 /EWM-subject-3.csv","legacy","Melodramatic Milgram","4.0.5","0","h","NA","NA","h","s","h","368.0","NA","NA","864","963","368","2","legacy","1024","2","48000","-16","experiment","HHSHH","3","odd","3742","137210","NA","NA","NA","151604","149597","2717","152638","NA","2866","136246","152740","153109","152635","152740","FlankerTask.3","74","38655.0","90","1024"
"82","82","429","429","#3d3846","legacy","legacy","legacy","congruent","1","undefined","1","s","0","0","0","90","0","90","90","0","90","0","0","0","90","90","90","90","Wed Sep 20 17:42:07 2023","600","The main experiment item","True","ewm FlankerTask3.edited .osexp","/Users/izzymcgibbon/Desktop/College/Tarleton State /2023 /Fall /Stats /2.1 ","False","mono","False","18","no","white","no","yes","768","legacy","10","79","/Users/izzymcgibbon/Desktop/College/Tarleton State /2023 /Fall /Stats /2.1 /EWM-subject-3.csv","legacy","Melodramatic Milgram","4.0.5","0","s","NA","NA","h","s","s","466.0","NA","NA","864","963","466","2","legacy","1024","2","48000","-16","experiment","HHSHH","3","odd","3742","137210","NA","NA","NA","153615","153112","2717","154652","NA","2866","136246","154754","155221","154650","154754","FlankerTask.3","75","39121.0","91","1024"
"82","82","429","429","#3d3846","legacy","legacy","legacy","congruent","1","undefined","1","s","0","0","0","91","0","91","91","0","91","0","0","0","91","91","91","91","Wed Sep 20 17:42:07 2023","600","The main experiment item","True","ewm FlankerTask3.edited .osexp","/Users/izzymcgibbon/Desktop/College/Tarleton State /2023 /Fall /Stats /2.1 ","False","mono","False","18","no","white","no","yes","768","legacy","11","79","/Users/izzymcgibbon/Desktop/College/Tarleton State /2023 /Fall /Stats /2.1 /EWM-subject-3.csv","legacy","Melodramatic Milgram","4.0.5","0","s","NA","NA","h","s","s","389.0","NA","NA","864","963","389","2","legacy","1024","2","48000","-16","experiment","SSSSS","3","odd","3742","137210","NA","NA","NA","155225","153112","2717","156265","NA","2866","136246","156367","156757","156263","156367","FlankerTask.3","76","39510.0","92","1024"
"81","81","428","428","#3d3846","legacy","legacy","legacy","incongruent","0","undefined","0","h","0","0","0","92","0","92","92","0","92","0","0","0","92","92","92","92","Wed Sep 20 17:42:07 2023","600","The main experiment item","True","ewm FlankerTask3.edited .osexp","/Users/izzymcgibbon/Desktop/College/Tarleton State /2023 /Fall /Stats /2.1 ","False","mono","False","18","no","white","no","yes","768","legacy","12","79","/Users/izzymcgibbon/Desktop/College/Tarleton State /2023 /Fall /Stats /2.1 /EWM-subject-3.csv","legacy","Melodramatic Milgram","4.0.5","0","s","NA","NA","h","s","s","341.0","NA","NA","864","963","341","2","legacy","1024","2","48000","-16","experiment","SSHSS","3","odd","3742","137210","NA","NA","NA","156759","153112","2717","157799","NA","2866","136246","157901","158243","157797","157901","FlankerTask.3","76","39851.0","93","1024"
"81","81","428","428","#3d3846","legacy","legacy","legacy","incongruent","1","undefined","1","h","0","0","0","93","0","93","93","0","93","0","0","0","93","93","93","93","Wed Sep 20 17:42:07 2023","600","The main experiment item","True","ewm FlankerTask3.edited .osexp","/Users/izzymcgibbon/Desktop/College/Tarleton State /2023 /Fall /Stats /2.1 ","False","mono","False","18","no","white","no","yes","768","legacy","13","79","/Users/izzymcgibbon/Desktop/College/Tarleton State /2023 /Fall /Stats /2.1 /EWM-subject-3.csv","legacy","Melodramatic Milgram","4.0.5","0","h","NA","NA","h","s","h","415.0","NA","NA","864","963","415","2","legacy","1024","2","48000","-16","experiment","SSHSS","3","odd","3742","137210","NA","NA","NA","158750","158246","2717","159791","NA","2866","136246","159893","160309","159789","159893","FlankerTask.3","77","40266.0","94","1024"
"82","82","428","428","#3d3846","legacy","legacy","legacy","congruent","1","undefined","1","s","0","0","0","94","0","94","94","0","94","0","0","0","94","94","94","94","Wed Sep 20 17:42:07 2023","600","The main experiment item","True","ewm FlankerTask3.edited .osexp","/Users/izzymcgibbon/Desktop/College/Tarleton State /2023 /Fall /Stats /2.1 ","False","mono","False","18","no","white","no","yes","768","legacy","14","79","/Users/izzymcgibbon/Desktop/College/Tarleton State /2023 /Fall /Stats /2.1 /EWM-subject-3.csv","legacy","Melodramatic Milgram","4.0.5","0","s","NA","NA","h","s","s","465.0","NA","NA","864","963","465","2","legacy","1024","2","48000","-16","experiment","HHSHH","3","odd","3742","137210","NA","NA","NA","160312","158246","2717","161354","NA","2866","136246","161457","161923","161352","161457","FlankerTask.3","78","40731.0","95","1024"
"82","82","427","427","#3d3846","legacy","legacy","legacy","congruent","1","undefined","1","s","0","0","0","95","0","95","95","0","95","0","0","0","95","95","95","95","Wed Sep 20 17:42:07 2023","600","The main experiment item","True","ewm FlankerTask3.edited .osexp","/Users/izzymcgibbon/Desktop/College/Tarleton State /2023 /Fall /Stats /2.1 ","False","mono","False","18","no","white","no","yes","768","legacy","15","79","/Users/izzymcgibbon/Desktop/College/Tarleton State /2023 /Fall /Stats /2.1 /EWM-subject-3.csv","legacy","Melodramatic Milgram","4.0.5","0","s","NA","NA","h","s","s","300.0","NA","NA","864","963","300","2","legacy","1024","2","48000","-16","experiment","SSSSS","3","odd","3742","137210","NA","NA","NA","161927","158246","2717","162977","NA","2866","136246","163081","163382","162976","163080","FlankerTask.3","79","41031.0","96","1024"
"82","82","426","426","#3d3846","legacy","legacy","legacy","congruent","1","undefined","1","s","0","0","0","96","0","96","96","0","96","0","0","0","96","96","96","96","Wed Sep 20 17:42:07 2023","600","The main experiment item","True","ewm FlankerTask3.edited .osexp","/Users/izzymcgibbon/Desktop/College/Tarleton State /2023 /Fall /Stats /2.1 ","False","mono","False","18","no","white","no","yes","768","legacy","16","79","/Users/izzymcgibbon/Desktop/College/Tarleton State /2023 /Fall /Stats /2.1 /EWM-subject-3.csv","legacy","Melodramatic Milgram","4.0.5","0","s","NA","NA","h","s","s","332.0","NA","NA","864","963","332","2","legacy","1024","2","48000","-16","experiment","HHSHH","3","odd","3742","137210","NA","NA","NA","163385","158246","2717","164418","NA","2866","136246","164520","164853","164416","164520","FlankerTask.3","80","41363.0","97","1024"
"82","82","425","425","#3d3846","legacy","legacy","legacy","incongruent","1","undefined","1","h","0","0","0","97","0","97","97","0","97","0","0","0","97","97","97","97","Wed Sep 20 17:42:07 2023","600","The main experiment item","True","ewm FlankerTask3.edited .osexp","/Users/izzymcgibbon/Desktop/College/Tarleton State /2023 /Fall /Stats /2.1 ","False","mono","False","18","no","white","no","yes","768","legacy","17","79","/Users/izzymcgibbon/Desktop/College/Tarleton State /2023 /Fall /Stats /2.1 /EWM-subject-3.csv","legacy","Melodramatic Milgram","4.0.5","0","h","NA","NA","h","s","h","382.0","NA","NA","864","963","382","2","legacy","1024","2","48000","-16","experiment","HHHHH","3","odd","3742","137210","NA","NA","NA","164856","158246","2717","165890","NA","2866","136246","165992","166375","165889","165992","FlankerTask.3","81","41745.0","98","1024"
"82","82","426","426","#3d3846","legacy","legacy","legacy","incongruent","1","undefined","1","h","0","0","0","98","0","98","98","0","98","0","0","0","98","98","98","98","Wed Sep 20 17:42:07 2023","600","The main experiment item","True","ewm FlankerTask3.edited .osexp","/Users/izzymcgibbon/Desktop/College/Tarleton State /2023 /Fall /Stats /2.1 ","False","mono","False","18","no","white","no","yes","768","legacy","18","79","/Users/izzymcgibbon/Desktop/College/Tarleton State /2023 /Fall /Stats /2.1 /EWM-subject-3.csv","legacy","Melodramatic Milgram","4.0.5","0","h","NA","NA","h","s","h","446.0","NA","NA","864","963","446","2","legacy","1024","2","48000","-16","experiment","SSHSS","3","odd","3742","137210","NA","NA","NA","166378","158246","2717","167419","NA","2866","136246","167521","167968","167417","167521","FlankerTask.3","82","42191.0","99","1024"
"83","83","425","425","#3d3846","legacy","legacy","legacy","congruent","1","undefined","1","s","0","0","0","99","0","99","99","0","99","0","0","0","99","99","99","99","Wed Sep 20 17:42:07 2023","600","The main experiment item","True","ewm FlankerTask3.edited .osexp","/Users/izzymcgibbon/Desktop/College/Tarleton State /2023 /Fall /Stats /2.1 ","False","mono","False","18","no","white","no","yes","768","legacy","19","79","/Users/izzymcgibbon/Desktop/College/Tarleton State /2023 /Fall /Stats /2.1 /EWM-subject-3.csv","legacy","Melodramatic Milgram","4.0.5","0","s","NA","NA","h","s","s","353.0","NA","NA","864","963","353","2","legacy","1024","2","48000","-16","experiment","HHSHH","3","odd","3742","137210","NA","NA","NA","167971","158246","2717","169012","NA","2866","136246","169114","169468","169010","169114","FlankerTask.3","83","42544.0","100","1024"
"83","83","424","424","#3d3846","legacy","legacy","legacy","congruent","1","undefined","1","s","0","0","0","100","0","100","100","0","100","0","0","0","100","100","100","100","Wed Sep 20 17:42:07 2023","600","The main experiment item","True","ewm FlankerTask3.edited .osexp","/Users/izzymcgibbon/Desktop/College/Tarleton State /2023 /Fall /Stats /2.1 ","False","mono","False","18","no","white","no","yes","768","legacy","20","79","/Users/izzymcgibbon/Desktop/College/Tarleton State /2023 /Fall /Stats /2.1 /EWM-subject-3.csv","legacy","Melodramatic Milgram","4.0.5","0","s","NA","NA","h","s","s","346.0","NA","NA","864","963","346","2","legacy","1024","2","48000","-16","experiment","SSSSS","3","odd","3742","137210","NA","NA","NA","169471","158246","2717","170513","NA","2866","136246","170616","170963","170511","170615","FlankerTask.3","84","42890.0","101","1024"
"83","83","424","424","#3d3846","legacy","legacy","legacy","incongruent","1","undefined","1","h","0","0","0","101","0","101","101","0","101","0","0","0","101","101","101","101","Wed Sep 20 17:42:07 2023","600","The main experiment item","True","ewm FlankerTask3.edited .osexp","/Users/izzymcgibbon/Desktop/College/Tarleton State /2023 /Fall /Stats /2.1 ","False","mono","False","18","no","white","no","yes","768","legacy","21","79","/Users/izzymcgibbon/Desktop/College/Tarleton State /2023 /Fall /Stats /2.1 /EWM-subject-3.csv","legacy","Melodramatic Milgram","4.0.5","0","h","NA","NA","h","s","h","383.0","NA","NA","864","963","383","2","legacy","1024","2","48000","-16","experiment","HHHHH","3","odd","3742","137210","NA","NA","NA","170966","158246","2717","172003","NA","2866","136246","172105","172489","172001","172105","FlankerTask.3","85","43273.0","102","1024"
"83","83","423","423","#3d3846","legacy","legacy","legacy","congruent","1","undefined","1","s","0","0","0","102","0","102","102","0","102","0","0","0","102","102","102","102","Wed Sep 20 17:42:07 2023","600","The main experiment item","True","ewm FlankerTask3.edited .osexp","/Users/izzymcgibbon/Desktop/College/Tarleton State /2023 /Fall /Stats /2.1 ","False","mono","False","18","no","white","no","yes","768","legacy","22","79","/Users/izzymcgibbon/Desktop/College/Tarleton State /2023 /Fall /Stats /2.1 /EWM-subject-3.csv","legacy","Melodramatic Milgram","4.0.5","0","s","NA","NA","h","s","s","390.0","NA","NA","864","963","390","2","legacy","1024","2","48000","-16","experiment","SSSSS","3","odd","3742","137210","NA","NA","NA","172492","158246","2717","173533","NA","2866","136246","173636","174027","173531","173635","FlankerTask.3","86","43663.0","103","1024"
"83","83","424","424","#3d3846","legacy","legacy","legacy","incongruent","1","undefined","1","h","0","0","0","103","0","103","103","0","103","0","0","0","103","103","103","103","Wed Sep 20 17:42:07 2023","600","The main experiment item","True","ewm FlankerTask3.edited .osexp","/Users/izzymcgibbon/Desktop/College/Tarleton State /2023 /Fall /Stats /2.1 ","False","mono","False","18","no","white","no","yes","768","legacy","23","79","/Users/izzymcgibbon/Desktop/College/Tarleton State /2023 /Fall /Stats /2.1 /EWM-subject-3.csv","legacy","Melodramatic Milgram","4.0.5","0","h","NA","NA","h","s","h","446.0","NA","NA","864","963","446","2","legacy","1024","2","48000","-16","experiment","HHHHH","3","odd","3742","137210","NA","NA","NA","174030","158246","2717","175077","NA","2866","136246","175179","175626","175076","175179","FlankerTask.3","87","44109.0","104","1024"
"83","83","423","423","#3d3846","legacy","legacy","legacy","incongruent","1","undefined","1","h","0","0","0","104","0","104","104","0","104","0","0","0","104","104","104","104","Wed Sep 20 17:42:07 2023","600","The main experiment item","True","ewm FlankerTask3.edited .osexp","/Users/izzymcgibbon/Desktop/College/Tarleton State /2023 /Fall /Stats /2.1 ","False","mono","False","18","no","white","no","yes","768","legacy","24","79","/Users/izzymcgibbon/Desktop/College/Tarleton State /2023 /Fall /Stats /2.1 /EWM-subject-3.csv","legacy","Melodramatic Milgram","4.0.5","0","h","NA","NA","h","s","h","385.0","NA","NA","864","963","385","2","legacy","1024","2","48000","-16","experiment","SSHSS","3","odd","3742","137210","NA","NA","NA","175629","158246","2717","176663","NA","2866","136246","176765","177151","176660","176765","FlankerTask.3","88","44494.0","105","1024"
"83","83","422","422","#3d3846","legacy","legacy","legacy","congruent","1","undefined","1","s","0","0","0","105","0","105","105","0","105","0","0","0","105","105","105","105","Wed Sep 20 17:42:07 2023","600","The main experiment item","True","ewm FlankerTask3.edited .osexp","/Users/izzymcgibbon/Desktop/College/Tarleton State /2023 /Fall /Stats /2.1 ","False","mono","False","18","no","white","no","yes","768","legacy","25","79","/Users/izzymcgibbon/Desktop/College/Tarleton State /2023 /Fall /Stats /2.1 /EWM-subject-3.csv","legacy","Melodramatic Milgram","4.0.5","0","s","NA","NA","h","s","s","283.0","NA","NA","864","963","283","2","legacy","1024","2","48000","-16","experiment","SSSSS","3","odd","3742","137210","NA","NA","NA","177154","158246","2717","178190","NA","2866","136246","178292","178577","178188","178292","FlankerTask.3","89","44777.0","106","1024"
"84","84","421","421","#3d3846","legacy","legacy","legacy","congruent","1","undefined","1","s","0","0","0","106","0","106","106","0","106","0","0","0","106","106","106","106","Wed Sep 20 17:42:07 2023","600","The main experiment item","True","ewm FlankerTask3.edited .osexp","/Users/izzymcgibbon/Desktop/College/Tarleton State /2023 /Fall /Stats /2.1 ","False","mono","False","18","no","white","no","yes","768","legacy","26","79","/Users/izzymcgibbon/Desktop/College/Tarleton State /2023 /Fall /Stats /2.1 /EWM-subject-3.csv","legacy","Melodramatic Milgram","4.0.5","0","s","NA","NA","h","s","s","359.0","NA","NA","864","963","359","2","legacy","1024","2","48000","-16","experiment","SSSSS","3","odd","3742","137210","NA","NA","NA","178579","158246","2717","179619","NA","2866","136246","179721","180081","179617","179721","FlankerTask.3","90","45136.0","107","1024"
"84","84","423","423","#3d3846","legacy","legacy","legacy","congruent","1","undefined","1","s","0","0","0","107","0","107","107","0","107","0","0","0","107","107","107","107","Wed Sep 20 17:42:07 2023","600","The main experiment item","True","ewm FlankerTask3.edited .osexp","/Users/izzymcgibbon/Desktop/College/Tarleton State /2023 /Fall /Stats /2.1 ","False","mono","False","18","no","white","no","yes","768","legacy","27","79","/Users/izzymcgibbon/Desktop/College/Tarleton State /2023 /Fall /Stats /2.1 /EWM-subject-3.csv","legacy","Melodramatic Milgram","4.0.5","0","s","NA","NA","h","s","s","627.0","NA","NA","864","963","627","2","legacy","1024","2","48000","-16","experiment","SSSSS","3","odd","3742","137210","NA","NA","NA","180084","158246","2717","181124","NA","2866","136246","181226","181854","181122","181226","FlankerTask.3","91","45763.0","108","1024"
"83","83","422","422","#3d3846","legacy","legacy","legacy","incongruent","0","undefined","0","h","0","0","0","108","0","108","108","0","108","0","0","0","108","108","108","108","Wed Sep 20 17:42:07 2023","600","The main experiment item","True","ewm FlankerTask3.edited .osexp","/Users/izzymcgibbon/Desktop/College/Tarleton State /2023 /Fall /Stats /2.1 ","False","mono","False","18","no","white","no","yes","768","legacy","28","79","/Users/izzymcgibbon/Desktop/College/Tarleton State /2023 /Fall /Stats /2.1 /EWM-subject-3.csv","legacy","Melodramatic Milgram","4.0.5","0","s","NA","NA","h","s","s","337.0","NA","NA","864","963","337","2","legacy","1024","2","48000","-16","experiment","SSHSS","3","odd","3742","137210","NA","181858","NA","182361","158246","2717","183402","NA","2866","136246","183504","183842","183400","183504","FlankerTask.3","91","46100.0","109","1024"
"83","83","422","422","#3d3846","legacy","legacy","legacy","incongruent","1","undefined","1","h","0","0","0","109","0","109","109","0","109","0","0","0","109","109","109","109","Wed Sep 20 17:42:07 2023","600","The main experiment item","True","ewm FlankerTask3.edited .osexp","/Users/izzymcgibbon/Desktop/College/Tarleton State /2023 /Fall /Stats /2.1 ","False","mono","False","18","no","white","no","yes","768","legacy","29","79","/Users/izzymcgibbon/Desktop/College/Tarleton State /2023 /Fall /Stats /2.1 /EWM-subject-3.csv","legacy","Melodramatic Milgram","4.0.5","0","h","NA","NA","h","s","h","386.0","NA","NA","864","963","386","2","legacy","1024","2","48000","-16","experiment","HHHHH","3","odd","3742","137210","NA","181858","NA","184349","183845","2717","185391","NA","2866","136246","185494","185881","185389","185493","FlankerTask.3","92","46486.0","110","1024"
"82","82","421","421","#3d3846","legacy","legacy","legacy","incongruent","0","undefined","0","h","0","0","0","110","0","110","110","0","110","0","0","0","110","110","110","110","Wed Sep 20 17:42:07 2023","600","The main experiment item","True","ewm FlankerTask3.edited .osexp","/Users/izzymcgibbon/Desktop/College/Tarleton State /2023 /Fall /Stats /2.1 ","False","mono","False","18","no","white","no","yes","768","legacy","30","79","/Users/izzymcgibbon/Desktop/College/Tarleton State /2023 /Fall /Stats /2.1 /EWM-subject-3.csv","legacy","Melodramatic Milgram","4.0.5","0","s","NA","NA","h","s","s","319.0","NA","NA","864","963","319","2","legacy","1024","2","48000","-16","experiment","HHHHH","3","odd","3742","137210","NA","181858","NA","185885","183845","2717","186937","NA","2866","136246","187039","187359","186934","187039","FlankerTask.3","92","46805.0","111","1024"
"83","83","421","421","#3d3846","legacy","legacy","legacy","incongruent","1","undefined","1","h","0","0","0","111","0","111","111","0","111","0","0","0","111","111","111","111","Wed Sep 20 17:42:07 2023","600","The main experiment item","True","ewm FlankerTask3.edited .osexp","/Users/izzymcgibbon/Desktop/College/Tarleton State /2023 /Fall /Stats /2.1 ","False","mono","False","18","no","white","no","yes","768","legacy","31","79","/Users/izzymcgibbon/Desktop/College/Tarleton State /2023 /Fall /Stats /2.1 /EWM-subject-3.csv","legacy","Melodramatic Milgram","4.0.5","0","h","NA","NA","h","s","h","379.0","NA","NA","864","963","379","2","legacy","1024","2","48000","-16","experiment","HHHHH","3","odd","3742","137210","NA","181858","NA","187865","187362","2717","188898","NA","2866","136246","189000","189380","188896","189000","FlankerTask.3","93","47184.0","112","1024"
"83","83","420","420","#3d3846","legacy","legacy","legacy","congruent","1","undefined","1","s","0","0","0","112","0","112","112","0","112","0","0","0","112","112","112","112","Wed Sep 20 17:42:07 2023","600","The main experiment item","True","ewm FlankerTask3.edited .osexp","/Users/izzymcgibbon/Desktop/College/Tarleton State /2023 /Fall /Stats /2.1 ","False","mono","False","18","no","white","no","yes","768","legacy","32","79","/Users/izzymcgibbon/Desktop/College/Tarleton State /2023 /Fall /Stats /2.1 /EWM-subject-3.csv","legacy","Melodramatic Milgram","4.0.5","0","s","NA","NA","h","s","s","338.0","NA","NA","864","963","338","2","legacy","1024","2","48000","-16","experiment","SSSSS","3","odd","3742","137210","NA","181858","NA","189383","187362","2717","190418","NA","2866","136246","190520","190859","190416","190520","FlankerTask.3","94","47522.0","113","1024"
"83","83","420","420","#3d3846","legacy","legacy","legacy","congruent","1","undefined","1","s","0","0","0","113","0","113","113","0","113","0","0","0","113","113","113","113","Wed Sep 20 17:42:07 2023","600","The main experiment item","True","ewm FlankerTask3.edited .osexp","/Users/izzymcgibbon/Desktop/College/Tarleton State /2023 /Fall /Stats /2.1 ","False","mono","False","18","no","white","no","yes","768","legacy","33","79","/Users/izzymcgibbon/Desktop/College/Tarleton State /2023 /Fall /Stats /2.1 /EWM-subject-3.csv","legacy","Melodramatic Milgram","4.0.5","0","s","NA","NA","h","s","s","374.0","NA","NA","864","963","374","2","legacy","1024","2","48000","-16","experiment","SSSSS","3","odd","3742","137210","NA","181858","NA","190862","187362","2717","191902","NA","2866","136246","192005","192380","191901","192005","FlankerTask.3","95","47896.0","114","1024"
"83","83","421","421","#3d3846","legacy","legacy","legacy","incongruent","1","undefined","1","h","0","0","0","114","0","114","114","0","114","0","0","0","114","114","114","114","Wed Sep 20 17:42:07 2023","600","The main experiment item","True","ewm FlankerTask3.edited .osexp","/Users/izzymcgibbon/Desktop/College/Tarleton State /2023 /Fall /Stats /2.1 ","False","mono","False","18","no","white","no","yes","768","legacy","34","79","/Users/izzymcgibbon/Desktop/College/Tarleton State /2023 /Fall /Stats /2.1 /EWM-subject-3.csv","legacy","Melodramatic Milgram","4.0.5","0","h","NA","NA","h","s","h","533.0","NA","NA","864","963","533","2","legacy","1024","2","48000","-16","experiment","SSHSS","3","odd","3742","137210","NA","181858","NA","192383","187362","2717","193424","NA","2866","136246","193527","194061","193422","193526","FlankerTask.3","96","48429.0","115","1024"
