"acc","accuracy","average_response_time","avg_rt","background","canvas_backend","clock_backend","color_backend","condition","correct","correct_instructions1","correct_keyboard_response","correct_response","count_ISI","count_block1","count_block2","count_block3","count_errorFeedback","count_experiment","count_faster","count_finish","count_fixatiom","count_instructions1","count_instructions2","count_instructions3","count_keyboard_response","count_logger","count_sequence","count_stimulus","datetime","deadline","description","disable_garbage_collection","experiment_file","experiment_path","font_bold","font_family","font_italic","font_size","font_underline","foreground","form_clicks","fullscreen","height","keyboard_backend","live_row","live_row_block1","logfile","mouse_backend","opensesame_codename","opensesame_version","repeat_cycle","response","response_finish","response_instructions1","response_instructions2","response_instructions3","response_keyboard_response","response_time","response_time_finish","response_time_instructions1","response_time_instructions2","response_time_instructions3","response_time_keyboard_response","round_decimals","sampler_backend","sound_buf_size","sound_channels","sound_freq","sound_sample_size","start","stimulus","subject_nr","subject_parity","time_ISI","time_block1","time_block2","time_block3","time_errorFeedback","time_experiment","time_faster","time_finish","time_fixatiom","time_instructions1","time_instructions2","time_instructions3","time_keyboard_response","time_logger","time_sequence","time_stimulus","title","total_correct","total_response_time","total_responses","width"
"100","100","672","672","black","psycho","psycho","psycho","congruent","1","undefined","1","h","0","0","0","0","0","0","0","0","0","0","0","0","0","0","0","0","Thu Sep 21 16:27:11 2023","1500","The main experiment item","True","Flankertask.osexp","/Users/xaleyelyse/Desktop","False","mono","False","18","no","white","no","yes","768","psycho","0","0","/Users/xaleyelyse/Desktop/xw-subject-5.csv","psycho","Melodramatic Milgram","4.0.5","0","h","NA","s","NA","NA","h","672.4520449934062","NA","9666.669186000945","NA","NA","672.4520449934062","2","psycho","1024","2","48000","-16","experiment","HHHHH","5","odd","NA","14789.000149001367","NA","NA","NA","5066.001864004647","NA","NA","14870.771590009099","5105.628666002303","NA","NA","14980.486517015379","15655.017730023246","14843.969877023483","14980.11328902794","Flanker task","1","672.4520449934062","1","1024"
"100","100","558","558","black","psycho","psycho","psycho","congruent","1","undefined","1","s","1","0","0","0","1","0","1","0","1","0","0","0","1","1","1","1","Thu Sep 21 16:27:11 2023","1500","The main experiment item","True","Flankertask.osexp","/Users/xaleyelyse/Desktop","False","mono","False","18","no","white","no","yes","768","psycho","1","1","/Users/xaleyelyse/Desktop/xw-subject-5.csv","psycho","Melodramatic Milgram","4.0.5","0","s","NA","s","NA","NA","s","443.5661880124826","NA","9666.669186000945","NA","NA","443.5661880124826","2","psycho","1024","2","48000","-16","experiment","SSSSS","5","odd","15661.31723302533","14789.000149001367","NA","NA","NA","5066.001864004647","NA","NA","16716.959679004503","5105.628666002303","NA","NA","16824.475127010373","17270.03939502174","16702.930382016348","16823.297971015563","Flanker task","2","1116.0182330058888","2","1024"
"100","100","558","558","black","psycho","psycho","psycho","congruent","1","undefined","1","h","2","0","0","0","2","0","2","0","2","0","0","0","2","2","2","2","Thu Sep 21 16:27:11 2023","1500","The main experiment item","True","Flankertask.osexp","/Users/xaleyelyse/Desktop","False","mono","False","18","no","white","no","yes","768","psycho","2","2","/Users/xaleyelyse/Desktop/xw-subject-5.csv","psycho","Melodramatic Milgram","4.0.5","0","h","NA","s","NA","NA","h","559.031637996668","NA","9666.669186000945","NA","NA","559.031637996668","2","psycho","1024","2","48000","-16","experiment","HHHHH","5","odd","17275.01284502796","14789.000149001367","NA","NA","NA","5066.001864004647","NA","NA","18330.04372002324","5105.628666002303","NA","NA","18436.92591402214","18997.85135802813","18316.78893501521","18436.56638401444","Flanker task","3","1675.0498710025568","3","1024"
"100","100","511","511","black","psycho","psycho","psycho","congruent","1","undefined","1","s","3","0","0","0","3","0","3","0","3","0","0","0","3","3","3","3","Thu Sep 21 16:27:11 2023","1500","The main experiment item","True","Flankertask.osexp","/Users/xaleyelyse/Desktop","False","mono","False","18","no","white","no","yes","768","psycho","3","3","/Users/xaleyelyse/Desktop/xw-subject-5.csv","psycho","Melodramatic Milgram","4.0.5","0","s","NA","s","NA","NA","s","372.731528012082","NA","9666.669186000945","NA","NA","372.731528012082","2","psycho","1024","2","48000","-16","experiment","SSSSS","5","odd","19002.885583002353","14789.000149001367","NA","NA","NA","5066.001864004647","NA","NA","20057.308565999847","5105.628666002303","NA","NA","20164.089842000976","20539.435328013496","20045.965693017934","20163.77286001807","Flanker task","4","2047.7813990146387","4","1024"
"100","100","527","527","black","psycho","psycho","psycho","incongruent","1","undefined","1","s","4","0","0","0","4","0","4","0","4","0","0","0","4","4","4","4","Thu Sep 21 16:27:11 2023","1500","The main experiment item","True","Flankertask.osexp","/Users/xaleyelyse/Desktop","False","mono","False","18","no","white","no","yes","768","psycho","4","4","/Users/xaleyelyse/Desktop/xw-subject-5.csv","psycho","Melodramatic Milgram","4.0.5","0","s","NA","s","NA","NA","s","589.0368969994597","NA","9666.669186000945","NA","NA","589.0368969994597","2","psycho","1024","2","48000","-16","experiment","HHSHH","5","odd","20543.884666025406","14789.000149001367","NA","NA","NA","5066.001864004647","NA","NA","21601.57982300734","5105.628666002303","NA","NA","21708.50198401604","22302.240560005885","21588.44102700823","21708.148257021094","Flanker task","5","2636.8182960140985","5","1024"
"100","100","545","545","black","psycho","psycho","psycho","incongruent","1","undefined","1","h","5","0","0","0","5","0","5","0","5","0","0","0","5","5","5","5","Thu Sep 21 16:27:11 2023","1500","The main experiment item","True","Flankertask.osexp","/Users/xaleyelyse/Desktop","False","mono","False","18","no","white","no","yes","768","psycho","5","5","/Users/xaleyelyse/Desktop/xw-subject-5.csv","psycho","Melodramatic Milgram","4.0.5","0","h","NA","s","NA","NA","h","637.0356789848302","NA","9666.669186000945","NA","NA","637.0356789848302","2","psycho","1024","2","48000","-16","experiment","SSHSS","5","odd","22306.857314019","14789.000149001367","NA","NA","NA","5066.001864004647","NA","NA","23357.944974006386","5105.628666002303","NA","NA","23465.157468017424","24104.176159016788","23347.52017800929","23464.60462300456","Flanker task","6","3273.8539749989286","6","1024"
"100","100","568","568","black","psycho","psycho","psycho","incongruent","1","undefined","1","s","6","0","0","0","6","0","6","0","6","0","0","0","6","6","6","6","Thu Sep 21 16:27:11 2023","1500","The main experiment item","True","Flankertask.osexp","/Users/xaleyelyse/Desktop","False","mono","False","18","no","white","no","yes","768","psycho","6","6","/Users/xaleyelyse/Desktop/xw-subject-5.csv","psycho","Melodramatic Milgram","4.0.5","0","s","NA","s","NA","NA","s","702.2631950094365","NA","9666.669186000945","NA","NA","702.2631950094365","2","psycho","1024","2","48000","-16","experiment","HHSHH","5","odd","24110.77698401641","14789.000149001367","NA","NA","NA","5066.001864004647","NA","NA","25170.51021300722","5105.628666002303","NA","NA","25278.2842250017","25982.660540001234","25157.484449009644","25276.830361020984","Flanker task","7","3976.117170008365","7","1024"
"100","100","562","562","black","psycho","psycho","psycho","congruent","1","undefined","1","h","7","0","0","0","7","0","7","0","7","0","0","0","7","7","7","7","Thu Sep 21 16:27:11 2023","1500","The main experiment item","True","Flankertask.osexp","/Users/xaleyelyse/Desktop","False","mono","False","18","no","white","no","yes","768","psycho","7","7","/Users/xaleyelyse/Desktop/xw-subject-5.csv","psycho","Melodramatic Milgram","4.0.5","0","h","NA","s","NA","NA","h","523.5178750008345","NA","9666.669186000945","NA","NA","523.5178750008345","2","psycho","1024","2","48000","-16","experiment","HHHHH","5","odd","25989.45006701979","14789.000149001367","NA","NA","NA","5066.001864004647","NA","NA","27042.982220009435","5105.628666002303","NA","NA","27152.100014005555","27677.497585013043","27029.998339014128","27151.750155026093","Flanker task","8","4499.6350450091995","8","1024"
"100","100","551","551","black","psycho","psycho","psycho","congruent","1","undefined","1","s","8","0","0","0","8","0","8","0","8","0","0","0","8","8","8","8","Thu Sep 21 16:27:11 2023","1500","The main experiment item","True","Flankertask.osexp","/Users/xaleyelyse/Desktop","False","mono","False","18","no","white","no","yes","768","psycho","8","8","/Users/xaleyelyse/Desktop/xw-subject-5.csv","psycho","Melodramatic Milgram","4.0.5","0","s","NA","s","NA","NA","s","463.4494350175373","NA","9666.669186000945","NA","NA","463.4494350175373","2","psycho","1024","2","48000","-16","experiment","SSSSS","5","odd","27686.096294026356","14789.000149001367","NA","NA","NA","5066.001864004647","NA","NA","28741.96152400691","5105.628666002303","NA","NA","28849.0065500082","29314.292852999642","28728.767100023106","28847.47554801288","Flanker task","9","4963.084480026737","9","1024"
"100","100","550","550","black","psycho","psycho","psycho","congruent","1","undefined","1","s","9","0","0","0","9","0","9","0","9","0","0","0","9","9","9","9","Thu Sep 21 16:27:11 2023","1500","The main experiment item","True","Flankertask.osexp","/Users/xaleyelyse/Desktop","False","mono","False","18","no","white","no","yes","768","psycho","9","9","/Users/xaleyelyse/Desktop/xw-subject-5.csv","psycho","Melodramatic Milgram","4.0.5","0","s","NA","s","NA","NA","s","540.2717719844077","NA","9666.669186000945","NA","NA","540.2717719844077","2","psycho","1024","2","48000","-16","experiment","SSSSS","5","odd","29319.39743302064","14789.000149001367","NA","NA","NA","5066.001864004647","NA","NA","30370.489170018118","5105.628666002303","NA","NA","30477.101601019967","31019.277014012914","30358.99621900171","30475.966182013508","Flanker task","10","5503.3562520111445","10","1024"
"100","100","574","574","black","psycho","psycho","psycho","congruent","1","undefined","1","h","10","0","0","0","10","0","10","0","10","0","0","0","10","10","10","10","Thu Sep 21 16:27:11 2023","1500","The main experiment item","True","Flankertask.osexp","/Users/xaleyelyse/Desktop","False","mono","False","18","no","white","no","yes","768","psycho","10","10","/Users/xaleyelyse/Desktop/xw-subject-5.csv","psycho","Melodramatic Milgram","4.0.5","0","h","NA","s","NA","NA","h","814.1354609979317","NA","9666.669186000945","NA","NA","814.1354609979317","2","psycho","1024","2","48000","-16","experiment","HHHHH","5","odd","31024.30331200594","14789.000149001367","NA","NA","NA","5066.001864004647","NA","NA","32078.6807500117","5105.628666002303","NA","NA","32186.086084024282","33002.253012004076","32067.263083008584","32185.630572028458","Flanker task","11","6317.491713009076","11","1024"
"100","100","565","565","black","psycho","psycho","psycho","congruent","1","undefined","1","s","11","0","0","0","11","0","11","0","11","0","0","0","11","11","11","11","Thu Sep 21 16:27:11 2023","1500","The main experiment item","True","Flankertask.osexp","/Users/xaleyelyse/Desktop","False","mono","False","18","no","white","no","yes","768","psycho","11","11","/Users/xaleyelyse/Desktop/xw-subject-5.csv","psycho","Melodramatic Milgram","4.0.5","0","s","NA","s","NA","NA","s","473.024245002307","NA","9666.669186000945","NA","NA","473.024245002307","2","psycho","1024","2","48000","-16","experiment","SSSSS","5","odd","33007.491112017306","14789.000149001367","NA","NA","NA","5066.001864004647","NA","NA","34060.5622670264","5105.628666002303","NA","NA","34167.23389402614","34642.12632802082","34046.86580901034","34166.01955000078","Flanker task","12","6790.515958011383","12","1024"
"100","100","563","563","black","psycho","psycho","psycho","incongruent","1","undefined","1","s","12","0","0","0","12","0","12","0","12","0","0","0","12","12","12","12","Thu Sep 21 16:27:11 2023","1500","The main experiment item","True","Flankertask.osexp","/Users/xaleyelyse/Desktop","False","mono","False","18","no","white","no","yes","768","psycho","12","12","/Users/xaleyelyse/Desktop/xw-subject-5.csv","psycho","Melodramatic Milgram","4.0.5","0","s","NA","s","NA","NA","s","530.3492739913054","NA","9666.669186000945","NA","NA","530.3492739913054","2","psycho","1024","2","48000","-16","experiment","HHSHH","5","odd","34647.23664202029","14789.000149001367","NA","NA","NA","5066.001864004647","NA","NA","35699.84711101279","5105.628666002303","NA","NA","35805.66666001687","36337.93150802376","35687.49718100298","35804.58357301541","Flanker task","13","7320.865232002689","13","1024"
"100","100","559","559","black","psycho","psycho","psycho","congruent","1","undefined","1","h","13","0","0","0","13","0","13","0","13","0","0","0","13","13","13","13","Thu Sep 21 16:27:11 2023","1500","The main experiment item","True","Flankertask.osexp","/Users/xaleyelyse/Desktop","False","mono","False","18","no","white","no","yes","768","psycho","13","13","/Users/xaleyelyse/Desktop/xw-subject-5.csv","psycho","Melodramatic Milgram","4.0.5","0","h","NA","s","NA","NA","h","510.19492000341415","NA","9666.669186000945","NA","NA","510.19492000341415","2","psycho","1024","2","48000","-16","experiment","HHHHH","5","odd","36342.938210000284","14789.000149001367","NA","NA","NA","5066.001864004647","NA","NA","37401.50676202029","5105.628666002303","NA","NA","37507.770952011924","38019.66932200594","37385.63671900192","37506.63298700238","Flanker task","14","7831.060152006103","14","1024"
"100","100","561","561","black","psycho","psycho","psycho","congruent","1","undefined","1","h","14","0","0","0","14","0","14","0","14","0","0","0","14","14","14","14","Thu Sep 21 16:27:11 2023","1500","The main experiment item","True","Flankertask.osexp","/Users/xaleyelyse/Desktop","False","mono","False","18","no","white","no","yes","768","psycho","14","14","/Users/xaleyelyse/Desktop/xw-subject-5.csv","psycho","Melodramatic Milgram","4.0.5","0","h","NA","s","NA","NA","h","594.1001909959596","NA","9666.669186000945","NA","NA","594.1001909959596","2","psycho","1024","2","48000","-16","experiment","HHHHH","5","odd","38026.2297920126","14789.000149001367","NA","NA","NA","5066.001864004647","NA","NA","39078.10571001028","5105.628666002303","NA","NA","39185.03292801324","39781.2903340091","39065.75899102609","39184.67260300531","Flanker task","15","8425.160343002062","15","1024"
"100","100","558","558","black","psycho","psycho","psycho","congruent","1","undefined","1","h","15","0","0","0","15","0","15","0","15","0","0","0","15","15","15","15","Thu Sep 21 16:27:11 2023","1500","The main experiment item","True","Flankertask.osexp","/Users/xaleyelyse/Desktop","False","mono","False","18","no","white","no","yes","768","psycho","15","15","/Users/xaleyelyse/Desktop/xw-subject-5.csv","psycho","Melodramatic Milgram","4.0.5","0","h","NA","s","NA","NA","h","514.6976690157317","NA","9666.669186000945","NA","NA","514.6976690157317","2","psycho","1024","2","48000","-16","experiment","HHHHH","5","odd","39786.0666840279","14789.000149001367","NA","NA","NA","5066.001864004647","NA","NA","40837.88313102559","5105.628666002303","NA","NA","40945.31269901199","41462.05259801354","40825.821005011676","40944.86070200219","Flanker task","16","8939.858012017794","16","1024"
"100","100","558","558","black","psycho","psycho","psycho","congruent","1","undefined","1","h","16","0","0","0","16","0","16","0","16","0","0","0","16","16","16","16","Thu Sep 21 16:27:11 2023","1500","The main experiment item","True","Flankertask.osexp","/Users/xaleyelyse/Desktop","False","mono","False","18","no","white","no","yes","768","psycho","16","16","/Users/xaleyelyse/Desktop/xw-subject-5.csv","psycho","Melodramatic Milgram","4.0.5","0","h","NA","s","NA","NA","h","549.2406529956497","NA","9666.669186000945","NA","NA","549.2406529956497","2","psycho","1024","2","48000","-16","experiment","HHHHH","5","odd","41470.39028900326","14789.000149001367","NA","NA","NA","5066.001864004647","NA","NA","42529.03316001175","5105.628666002303","NA","NA","42636.63277501473","43187.94432800496","42517.299558006926","42635.43762001791","Flanker task","17","9489.098665013444","17","1024"
"100","100","560","560","black","psycho","psycho","psycho","incongruent","1","undefined","1","h","17","0","0","0","17","0","17","0","17","0","0","0","17","17","17","17","Thu Sep 21 16:27:11 2023","1500","The main experiment item","True","Flankertask.osexp","/Users/xaleyelyse/Desktop","False","mono","False","18","no","white","no","yes","768","psycho","17","17","/Users/xaleyelyse/Desktop/xw-subject-5.csv","psycho","Melodramatic Milgram","4.0.5","0","h","NA","s","NA","NA","h","600.3120749955997","NA","9666.669186000945","NA","NA","600.3120749955997","2","psycho","1024","2","48000","-16","experiment","SSHSS","5","odd","43192.60077900253","14789.000149001367","NA","NA","NA","5066.001864004647","NA","NA","44242.131233011605","5105.628666002303","NA","NA","44349.340612010565","44951.620351028396","44231.38563602697","44348.00862701377","Flanker task","18","10089.410740009043","18","1024"
"100","100","563","563","black","psycho","psycho","psycho","incongruent","1","undefined","1","h","18","0","0","0","18","0","18","0","18","0","0","0","18","18","18","18","Thu Sep 21 16:27:11 2023","1500","The main experiment item","True","Flankertask.osexp","/Users/xaleyelyse/Desktop","False","mono","False","18","no","white","no","yes","768","psycho","18","18","/Users/xaleyelyse/Desktop/xw-subject-5.csv","psycho","Melodramatic Milgram","4.0.5","0","h","NA","s","NA","NA","h","623.0659709835891","NA","9666.669186000945","NA","NA","623.0659709835891","2","psycho","1024","2","48000","-16","experiment","SSHSS","5","odd","44956.6797830048","14789.000149001367","NA","NA","NA","5066.001864004647","NA","NA","46007.48432602268","5105.628666002303","NA","NA","46114.7030290158","46739.787670027","45996.4826060168","46113.09850300313","Flanker task","19","10712.476710992632","19","1024"
"100","100","573","573","black","psycho","psycho","psycho","congruent","1","undefined","1","h","19","0","0","0","19","0","19","0","19","0","0","0","19","19","19","19","Thu Sep 21 16:27:11 2023","1500","The main experiment item","True","Flankertask.osexp","/Users/xaleyelyse/Desktop","False","mono","False","18","no","white","no","yes","768","psycho","19","19","/Users/xaleyelyse/Desktop/xw-subject-5.csv","psycho","Melodramatic Milgram","4.0.5","0","h","NA","s","NA","NA","h","750.2761639771052","NA","9666.669186000945","NA","NA","750.2761639771052","2","psycho","1024","2","48000","-16","experiment","HHHHH","5","odd","46745.38612202741","14789.000149001367","NA","NA","NA","5066.001864004647","NA","NA","47796.28450400196","5105.628666002303","NA","NA","47902.182058023755","48654.97966800467","47785.93499099952","47901.031467015855","Flanker task","20","11462.752874969738","20","1024"
"100","100","570","570","black","psycho","psycho","psycho","incongruent","1","undefined","1","s","20","0","0","0","20","0","20","0","20","0","0","0","20","20","20","20","Thu Sep 21 16:27:11 2023","1500","The main experiment item","True","Flankertask.osexp","/Users/xaleyelyse/Desktop","False","mono","False","18","no","white","no","yes","768","psycho","20","20","/Users/xaleyelyse/Desktop/xw-subject-5.csv","psycho","Melodramatic Milgram","4.0.5","0","s","NA","s","NA","NA","s","514.090282988036","NA","9666.669186000945","NA","NA","514.090282988036","2","psycho","1024","2","48000","-16","experiment","HHSHH","5","odd","48661.543046007864","14789.000149001367","NA","NA","NA","5066.001864004647","NA","NA","49713.34081600071","5105.628666002303","NA","NA","49820.24742302019","50336.29126602318","49702.91053401888","49819.941146008205","Flanker task","21","11976.843157957774","21","1024"
"100","100","565","565","black","psycho","psycho","psycho","congruent","1","undefined","1","s","21","0","0","0","21","0","21","0","21","0","0","0","21","21","21","21","Thu Sep 21 16:27:11 2023","1500","The main experiment item","True","Flankertask.osexp","/Users/xaleyelyse/Desktop","False","mono","False","18","no","white","no","yes","768","psycho","21","21","/Users/xaleyelyse/Desktop/xw-subject-5.csv","psycho","Melodramatic Milgram","4.0.5","0","s","NA","s","NA","NA","s","464.91638000588864","NA","9666.669186000945","NA","NA","464.91638000588864","2","psycho","1024","2","48000","-16","experiment","SSSSS","5","odd","50341.15811501397","14789.000149001367","NA","NA","NA","5066.001864004647","NA","NA","51389.89207101986","5105.628666002303","NA","NA","51495.590317004826","51962.64384401729","51379.95140301064","51494.545507011935","Flanker task","22","12441.759537963662","22","1024"
"100","100","572","572","black","psycho","psycho","psycho","incongruent","1","undefined","1","h","22","0","0","0","22","0","22","0","22","0","0","0","22","22","22","22","Thu Sep 21 16:27:11 2023","1500","The main experiment item","True","Flankertask.osexp","/Users/xaleyelyse/Desktop","False","mono","False","18","no","white","no","yes","768","psycho","22","22","/Users/xaleyelyse/Desktop/xw-subject-5.csv","psycho","Melodramatic Milgram","4.0.5","0","h","NA","s","NA","NA","h","715.8694209938403","NA","9666.669186000945","NA","NA","715.8694209938403","2","psycho","1024","2","48000","-16","experiment","SSHSS","5","odd","51970.491461019265","14789.000149001367","NA","NA","NA","5066.001864004647","NA","NA","53020.353272004286","5105.628666002303","NA","NA","53127.35916301608","53845.18596201087","53011.17233702098","53127.04957701499","Flanker task","23","13157.628958957503","23","1024"
"100","100","572","572","black","psycho","psycho","psycho","incongruent","1","undefined","1","h","23","0","0","0","23","0","23","0","23","0","0","0","23","23","23","23","Thu Sep 21 16:27:11 2023","1500","The main experiment item","True","Flankertask.osexp","/Users/xaleyelyse/Desktop","False","mono","False","18","no","white","no","yes","768","psycho","23","23","/Users/xaleyelyse/Desktop/xw-subject-5.csv","psycho","Melodramatic Milgram","4.0.5","0","h","NA","s","NA","NA","h","589.3125089933164","NA","9666.669186000945","NA","NA","589.3125089933164","2","psycho","1024","2","48000","-16","experiment","SSHSS","5","odd","53853.62120301579","14789.000149001367","NA","NA","NA","5066.001864004647","NA","NA","54917.259092006134","5105.628666002303","NA","NA","55026.01792701171","55617.45099100517","54899.9765770277","55025.75753102428","Flanker task","24","13746.941467950819","24","1024"
"100","100","570","570","black","psycho","psycho","psycho","congruent","1","undefined","1","h","24","0","0","0","24","0","24","0","24","0","0","0","24","24","24","24","Thu Sep 21 16:27:11 2023","1500","The main experiment item","True","Flankertask.osexp","/Users/xaleyelyse/Desktop","False","mono","False","18","no","white","no","yes","768","psycho","24","24","/Users/xaleyelyse/Desktop/xw-subject-5.csv","psycho","Melodramatic Milgram","4.0.5","0","h","NA","s","NA","NA","h","509.5390909991693","NA","9666.669186000945","NA","NA","509.5390909991693","2","psycho","1024","2","48000","-16","experiment","HHHHH","5","odd","55623.90634600888","14789.000149001367","NA","NA","NA","5066.001864004647","NA","NA","56674.85070900875","5105.628666002303","NA","NA","56780.5272610276","57292.44721902069","56663.66370001924","56779.41807301249","Flanker task","25","14256.480558949988","25","1024"
"100","100","566","566","black","psycho","psycho","psycho","congruent","1","undefined","1","s","25","0","0","0","25","0","25","0","25","0","0","0","25","25","25","25","Thu Sep 21 16:27:11 2023","1500","The main experiment item","True","Flankertask.osexp","/Users/xaleyelyse/Desktop","False","mono","False","18","no","white","no","yes","768","psycho","25","25","/Users/xaleyelyse/Desktop/xw-subject-5.csv","psycho","Melodramatic Milgram","4.0.5","0","s","NA","s","NA","NA","s","460.43196800746955","NA","9666.669186000945","NA","NA","460.43196800746955","2","psycho","1024","2","48000","-16","experiment","SSSSS","5","odd","57297.59141500108","14789.000149001367","NA","NA","NA","5066.001864004647","NA","NA","58353.077985026175","5105.628666002303","NA","NA","58459.732260002056","58922.39783902187","58341.824710019864","58459.41374701215","Flanker task","26","14716.912526957458","26","1024"
"100","100","562","562","black","psycho","psycho","psycho","incongruent","1","undefined","1","s","26","0","0","0","26","0","26","0","26","0","0","0","26","26","26","26","Thu Sep 21 16:27:11 2023","1500","The main experiment item","True","Flankertask.osexp","/Users/xaleyelyse/Desktop","False","mono","False","18","no","white","no","yes","768","psycho","26","26","/Users/xaleyelyse/Desktop/xw-subject-5.csv","psycho","Melodramatic Milgram","4.0.5","0","s","NA","s","NA","NA","s","458.189978991868","NA","9666.669186000945","NA","NA","458.189978991868","2","psycho","1024","2","48000","-16","experiment","HHSHH","5","odd","58927.510966022965","14789.000149001367","NA","NA","NA","5066.001864004647","NA","NA","59976.32706700824","5105.628666002303","NA","NA","60084.75560700754","60545.212757017","59966.2417260115","60084.48450200376","Flanker task","27","15175.102505949326","27","1024"
"100","100","561","561","black","psycho","psycho","psycho","incongruent","1","undefined","1","h","27","0","0","0","27","0","27","0","27","0","0","0","27","27","27","27","Thu Sep 21 16:27:11 2023","1500","The main experiment item","True","Flankertask.osexp","/Users/xaleyelyse/Desktop","False","mono","False","18","no","white","no","yes","768","psycho","27","27","/Users/xaleyelyse/Desktop/xw-subject-5.csv","psycho","Melodramatic Milgram","4.0.5","0","h","NA","s","NA","NA","h","554.9179640074726","NA","9666.669186000945","NA","NA","554.9179640074726","2","psycho","1024","2","48000","-16","experiment","SSHSS","5","odd","60553.286013018806","14789.000149001367","NA","NA","NA","5066.001864004647","NA","NA","61603.86497701984","5105.628666002303","NA","NA","61709.961079002824","62267.09049602505","61593.3533750067","61708.91067801858","Flanker task","28","15730.020469956798","28","1024"
"100","100","561","561","black","psycho","psycho","psycho","incongruent","1","undefined","1","s","28","0","0","0","28","0","28","0","28","0","0","0","28","28","28","28","Thu Sep 21 16:27:11 2023","1500","The main experiment item","True","Flankertask.osexp","/Users/xaleyelyse/Desktop","False","mono","False","18","no","white","no","yes","768","psycho","28","28","/Users/xaleyelyse/Desktop/xw-subject-5.csv","psycho","Melodramatic Milgram","4.0.5","0","s","NA","s","NA","NA","s","559.9620749999303","NA","9666.669186000945","NA","NA","559.9620749999303","2","psycho","1024","2","48000","-16","experiment","HHSHH","5","odd","62271.66265400592","14789.000149001367","NA","NA","NA","5066.001864004647","NA","NA","63320.581211009994","5105.628666002303","NA","NA","63427.14149900712","63989.11852200399","63310.02599702333","63425.88305301615","Flanker task","29","16289.982544956729","29","1024"
"100","100","561","561","black","psycho","psycho","psycho","incongruent","1","undefined","1","h","29","0","0","0","29","0","29","0","29","0","0","0","29","29","29","29","Thu Sep 21 16:27:11 2023","1500","The main experiment item","True","Flankertask.osexp","/Users/xaleyelyse/Desktop","False","mono","False","18","no","white","no","yes","768","psycho","29","29","/Users/xaleyelyse/Desktop/xw-subject-5.csv","psycho","Melodramatic Milgram","4.0.5","0","h","NA","s","NA","NA","h","546.4980760007165","NA","9666.669186000945","NA","NA","546.4980760007165","2","psycho","1024","2","48000","-16","experiment","SSHSS","5","odd","63994.33143500937","14789.000149001367","NA","NA","NA","5066.001864004647","NA","NA","65045.95602801419","5105.628666002303","NA","NA","65152.21997600747","65700.90517200879","65034.862126020016","65151.0647770192","Flanker task","30","16836.480620957445","30","1024"
"100","100","557","557","black","psycho","psycho","psycho","incongruent","1","undefined","1","h","30","0","0","0","30","0","30","0","30","0","0","0","30","30","30","30","Thu Sep 21 16:27:11 2023","1500","The main experiment item","True","Flankertask.osexp","/Users/xaleyelyse/Desktop","False","mono","False","18","no","white","no","yes","768","psycho","30","30","/Users/xaleyelyse/Desktop/xw-subject-5.csv","psycho","Melodramatic Milgram","4.0.5","0","h","NA","s","NA","NA","h","454.22740699723363","NA","9666.669186000945","NA","NA","454.22740699723363","2","psycho","1024","2","48000","-16","experiment","SSHSS","5","odd","65706.01691500633","14789.000149001367","NA","NA","NA","5066.001864004647","NA","NA","66758.6073410057","5105.628666002303","NA","NA","66865.60176001512","67321.92547700834","66748.52038401878","66864.37521400512","Flanker task","31","17290.70802795468","31","1024"
"100","100","557","557","black","psycho","psycho","psycho","congruent","1","undefined","1","h","31","0","0","0","31","0","31","0","31","0","0","0","31","31","31","31","Thu Sep 21 16:27:11 2023","1500","The main experiment item","True","Flankertask.osexp","/Users/xaleyelyse/Desktop","False","mono","False","18","no","white","no","yes","768","psycho","31","31","/Users/xaleyelyse/Desktop/xw-subject-5.csv","psycho","Melodramatic Milgram","4.0.5","0","h","NA","s","NA","NA","h","548.0078310065437","NA","9666.669186000945","NA","NA","548.0078310065437","2","psycho","1024","2","48000","-16","experiment","HHHHH","5","odd","67327.41103201988","14789.000149001367","NA","NA","NA","5066.001864004647","NA","NA","68376.6029390099","5105.628666002303","NA","NA","68482.64483400271","69032.82384001068","68366.38448902522","68481.38635701616","Flanker task","32","17838.715858961223","32","1024"
"100","100","554","554","black","psycho","psycho","psycho","congruent","1","undefined","1","s","32","0","0","0","32","0","32","0","32","0","0","0","32","32","32","32","Thu Sep 21 16:27:11 2023","1500","The main experiment item","True","Flankertask.osexp","/Users/xaleyelyse/Desktop","False","mono","False","18","no","white","no","yes","768","psycho","32","32","/Users/xaleyelyse/Desktop/xw-subject-5.csv","psycho","Melodramatic Milgram","4.0.5","0","s","NA","s","NA","NA","s","464.11174899549223","NA","9666.669186000945","NA","NA","464.11174899549223","2","psycho","1024","2","48000","-16","experiment","SSSSS","5","odd","69037.92474602233","14789.000149001367","NA","NA","NA","5066.001864004647","NA","NA","70094.83793901745","5105.628666002303","NA","NA","70201.56984400819","70667.85038702074","70084.17432900751","70201.28747401759","Flanker task","33","18302.827607956715","33","1024"
"100","100","552","552","black","psycho","psycho","psycho","incongruent","1","undefined","1","s","33","0","0","0","33","0","33","0","33","0","0","0","33","33","33","33","Thu Sep 21 16:27:11 2023","1500","The main experiment item","True","Flankertask.osexp","/Users/xaleyelyse/Desktop","False","mono","False","18","no","white","no","yes","768","psycho","33","33","/Users/xaleyelyse/Desktop/xw-subject-5.csv","psycho","Melodramatic Milgram","4.0.5","0","s","NA","s","NA","NA","s","498.384848004207","NA","9666.669186000945","NA","NA","498.384848004207","2","psycho","1024","2","48000","-16","experiment","HHSHH","5","odd","70674.98085202533","14789.000149001367","NA","NA","NA","5066.001864004647","NA","NA","71726.25207202509","5105.628666002303","NA","NA","71832.2951120208","72332.81714902841","71716.29881000263","71831.10472900444","Flanker task","34","18801.212455960922","34","1024"
"100","100","559","559","black","psycho","psycho","psycho","congruent","1","undefined","1","s","34","0","0","0","34","0","34","0","34","0","0","0","34","34","34","34","Thu Sep 21 16:27:11 2023","1500","The main experiment item","True","Flankertask.osexp","/Users/xaleyelyse/Desktop","False","mono","False","18","no","white","no","yes","768","psycho","34","34","/Users/xaleyelyse/Desktop/xw-subject-5.csv","psycho","Melodramatic Milgram","4.0.5","0","s","NA","s","NA","NA","s","792.8035430086311","NA","9666.669186000945","NA","NA","792.8035430086311","2","psycho","1024","2","48000","-16","experiment","SSSSS","5","odd","72337.99190202262","14789.000149001367","NA","NA","NA","5066.001864004647","NA","NA","73389.69945602003","5105.628666002303","NA","NA","73496.8057910155","74291.92722402513","73378.91700101318","73495.59919702006","Flanker task","35","19594.015998969553","35","1024"
"100","100","556","556","black","psycho","psycho","psycho","congruent","1","undefined","1","h","35","0","0","0","35","0","35","0","35","0","0","0","35","35","35","35","Thu Sep 21 16:27:11 2023","1500","The main experiment item","True","Flankertask.osexp","/Users/xaleyelyse/Desktop","False","mono","False","18","no","white","no","yes","768","psycho","35","35","/Users/xaleyelyse/Desktop/xw-subject-5.csv","psycho","Melodramatic Milgram","4.0.5","0","h","NA","s","NA","NA","h","431.37784700957127","NA","9666.669186000945","NA","NA","431.37784700957127","2","psycho","1024","2","48000","-16","experiment","HHHHH","5","odd","74297.0602910209","14789.000149001367","NA","NA","NA","5066.001864004647","NA","NA","75353.25256802025","5105.628666002303","NA","NA","75459.0152540186","75892.46539201122","75343.41387200402","75457.9426929995","Flanker task","36","20025.393845979124","36","1024"
"100","100","553","553","black","psycho","psycho","psycho","congruent","1","undefined","1","h","36","0","0","0","36","0","36","0","36","0","0","0","36","36","36","36","Thu Sep 21 16:27:11 2023","1500","The main experiment item","True","Flankertask.osexp","/Users/xaleyelyse/Desktop","False","mono","False","18","no","white","no","yes","768","psycho","36","36","/Users/xaleyelyse/Desktop/xw-subject-5.csv","psycho","Melodramatic Milgram","4.0.5","0","h","NA","s","NA","NA","h","459.5827889861539","NA","9666.669186000945","NA","NA","459.5827889861539","2","psycho","1024","2","48000","-16","experiment","HHHHH","5","odd","75897.9812360194","14789.000149001367","NA","NA","NA","5066.001864004647","NA","NA","76949.04242901248","5105.628666002303","NA","NA","77055.86961301742","77517.70500300336","76939.05230800738","77055.51357602235","Flanker task","37","20484.97663496528","37","1024"
"100","100","550","550","black","psycho","psycho","psycho","incongruent","1","undefined","1","s","37","0","0","0","37","0","37","0","37","0","0","0","37","37","37","37","Thu Sep 21 16:27:11 2023","1500","The main experiment item","True","Flankertask.osexp","/Users/xaleyelyse/Desktop","False","mono","False","18","no","white","no","yes","768","psycho","37","37","/Users/xaleyelyse/Desktop/xw-subject-5.csv","psycho","Melodramatic Milgram","4.0.5","0","s","NA","s","NA","NA","s","427.68665301264264","NA","9666.669186000945","NA","NA","427.68665301264264","2","psycho","1024","2","48000","-16","experiment","HHSHH","5","odd","77522.78356501483","14789.000149001367","NA","NA","NA","5066.001864004647","NA","NA","78573.45592000638","5105.628666002303","NA","NA","78679.52571201022","79109.54817800666","78563.73126502149","78678.42195401317","Flanker task","38","20912.66328797792","38","1024"
"100","100","556","556","black","psycho","psycho","psycho","incongruent","1","undefined","1","s","38","0","0","0","38","0","38","0","38","0","0","0","38","38","38","38","Thu Sep 21 16:27:11 2023","1500","The main experiment item","True","Flankertask.osexp","/Users/xaleyelyse/Desktop","False","mono","False","18","no","white","no","yes","768","psycho","38","38","/Users/xaleyelyse/Desktop/xw-subject-5.csv","psycho","Melodramatic Milgram","4.0.5","0","s","NA","s","NA","NA","s","787.3230359982699","NA","9666.669186000945","NA","NA","787.3230359982699","2","psycho","1024","2","48000","-16","experiment","HHSHH","5","odd","79114.78559102397","14789.000149001367","NA","NA","NA","5066.001864004647","NA","NA","80166.84859900852","5105.628666002303","NA","NA","80274.43364600185","81063.98434002767","80156.11715300474","80273.3095010044","Flanker task","39","21699.98632397619","39","1024"
"100","100","554","554","black","psycho","psycho","psycho","congruent","1","undefined","1","h","39","0","0","0","39","0","39","0","39","0","0","0","39","39","39","39","Thu Sep 21 16:27:11 2023","1500","The main experiment item","True","Flankertask.osexp","/Users/xaleyelyse/Desktop","False","mono","False","18","no","white","no","yes","768","psycho","39","39","/Users/xaleyelyse/Desktop/xw-subject-5.csv","psycho","Melodramatic Milgram","4.0.5","0","h","NA","s","NA","NA","h","477.0381699781865","NA","9666.669186000945","NA","NA","477.0381699781865","2","psycho","1024","2","48000","-16","experiment","HHHHH","5","odd","81068.48165701376","14789.000149001367","NA","NA","NA","5066.001864004647","NA","NA","82116.80969002191","5105.628666002303","NA","NA","82222.66793102608","82701.68209201074","82107.51042101765","82221.52349201497","Flanker task","40","22177.024493954377","40","1024"
"100","100","554","554","black","psycho","psycho","psycho","incongruent","1","undefined","1","h","40","0","0","0","40","0","40","0","40","0","0","0","40","40","40","40","Thu Sep 21 16:27:11 2023","1500","The main experiment item","True","Flankertask.osexp","/Users/xaleyelyse/Desktop","False","mono","False","18","no","white","no","yes","768","psycho","40","40","/Users/xaleyelyse/Desktop/xw-subject-5.csv","psycho","Melodramatic Milgram","4.0.5","0","h","NA","s","NA","NA","h","562.1528869960457","NA","9666.669186000945","NA","NA","562.1528869960457","2","psycho","1024","2","48000","-16","experiment","SSHSS","5","odd","82706.43663001829","14789.000149001367","NA","NA","NA","5066.001864004647","NA","NA","83757.30361501337","5105.628666002303","NA","NA","83864.90815400612","84429.21009700513","83747.07989601302","83863.62932101474","Flanker task","41","22739.177380950423","41","1024"
"100","100","552","552","black","psycho","psycho","psycho","congruent","1","undefined","1","s","41","0","0","0","41","0","41","0","41","0","0","0","41","41","41","41","Thu Sep 21 16:27:11 2023","1500","The main experiment item","True","Flankertask.osexp","/Users/xaleyelyse/Desktop","False","mono","False","18","no","white","no","yes","768","psycho","41","41","/Users/xaleyelyse/Desktop/xw-subject-5.csv","psycho","Melodramatic Milgram","4.0.5","0","s","NA","s","NA","NA","s","455.5325960100163","NA","9666.669186000945","NA","NA","455.5325960100163","2","psycho","1024","2","48000","-16","experiment","SSSSS","5","odd","84435.99782002275","14789.000149001367","NA","NA","NA","5066.001864004647","NA","NA","85487.51820900361","5105.628666002303","NA","NA","85594.31432801648","86052.01475301874","85476.443364023","85594.00082300999","Flanker task","42","23194.70997696044","42","1024"
"100","100","550","550","black","psycho","psycho","psycho","congruent","1","undefined","1","h","42","0","0","0","42","0","42","0","42","0","0","0","42","42","42","42","Thu Sep 21 16:27:11 2023","1500","The main experiment item","True","Flankertask.osexp","/Users/xaleyelyse/Desktop","False","mono","False","18","no","white","no","yes","768","psycho","42","42","/Users/xaleyelyse/Desktop/xw-subject-5.csv","psycho","Melodramatic Milgram","4.0.5","0","h","NA","s","NA","NA","h","455.6072069972288","NA","9666.669186000945","NA","NA","455.6072069972288","2","psycho","1024","2","48000","-16","experiment","HHHHH","5","odd","86057.4260080175","14789.000149001367","NA","NA","NA","5066.001864004647","NA","NA","87108.61727001611","5105.628666002303","NA","NA","87215.3039080149","87673.07331401389","87097.77270501945","87214.01799400337","Flanker task","43","23650.317183957668","43","1024"
"100","100","550","550","black","psycho","psycho","psycho","incongruent","1","undefined","1","h","43","0","0","0","43","0","43","0","43","0","0","0","43","43","43","43","Thu Sep 21 16:27:11 2023","1500","The main experiment item","True","Flankertask.osexp","/Users/xaleyelyse/Desktop","False","mono","False","18","no","white","no","yes","768","psycho","43","43","/Users/xaleyelyse/Desktop/xw-subject-5.csv","psycho","Melodramatic Milgram","4.0.5","0","h","NA","s","NA","NA","h","572.1177149971481","NA","9666.669186000945","NA","NA","572.1177149971481","2","psycho","1024","2","48000","-16","experiment","SSHSS","5","odd","87678.02611502702","14789.000149001367","NA","NA","NA","5066.001864004647","NA","NA","88726.85227700276","5105.628666002303","NA","NA","88833.75443101977","89408.01213000668","88717.48048701556","88833.43901400804","Flanker task","44","24222.434898954816","44","1024"
"100","100","549","549","black","psycho","psycho","psycho","incongruent","1","undefined","1","s","44","0","0","0","44","0","44","0","44","0","0","0","44","44","44","44","Thu Sep 21 16:27:11 2023","1500","The main experiment item","True","Flankertask.osexp","/Users/xaleyelyse/Desktop","False","mono","False","18","no","white","no","yes","768","psycho","44","44","/Users/xaleyelyse/Desktop/xw-subject-5.csv","psycho","Melodramatic Milgram","4.0.5","0","s","NA","s","NA","NA","s","518.1361910072155","NA","9666.669186000945","NA","NA","518.1361910072155","2","psycho","1024","2","48000","-16","experiment","HHSHH","5","odd","89412.39223102457","14789.000149001367","NA","NA","NA","5066.001864004647","NA","NA","90470.67135802354","5105.628666002303","NA","NA","90577.64222900732","91097.90097901714","90459.4102910196","90576.38173300074","Flanker task","45","24740.57108996203","45","1024"
"100","100","547","547","black","psycho","psycho","psycho","incongruent","1","undefined","1","s","45","0","0","0","45","0","45","0","45","0","0","0","45","45","45","45","Thu Sep 21 16:27:11 2023","1500","The main experiment item","True","Flankertask.osexp","/Users/xaleyelyse/Desktop","False","mono","False","18","no","white","no","yes","768","psycho","45","45","/Users/xaleyelyse/Desktop/xw-subject-5.csv","psycho","Melodramatic Milgram","4.0.5","0","s","NA","s","NA","NA","s","437.47768900357187","NA","9666.669186000945","NA","NA","437.47768900357187","2","psycho","1024","2","48000","-16","experiment","HHSHH","5","odd","91103.0997140042","14789.000149001367","NA","NA","NA","5066.001864004647","NA","NA","92153.30675200676","5105.628666002303","NA","NA","92260.20860302378","92699.97873701504","92142.62748201145","92259.90155301406","Flanker task","46","25178.048778965604","46","1024"
"100","100","547","547","black","psycho","psycho","psycho","incongruent","1","undefined","1","h","46","0","0","0","46","0","46","0","46","0","0","0","46","46","46","46","Thu Sep 21 16:27:11 2023","1500","The main experiment item","True","Flankertask.osexp","/Users/xaleyelyse/Desktop","False","mono","False","18","no","white","no","yes","768","psycho","46","46","/Users/xaleyelyse/Desktop/xw-subject-5.csv","psycho","Melodramatic Milgram","4.0.5","0","h","NA","s","NA","NA","h","549.8189710197039","NA","9666.669186000945","NA","NA","549.8189710197039","2","psycho","1024","2","48000","-16","experiment","SSHSS","5","odd","92705.45660101925","14789.000149001367","NA","NA","NA","5066.001864004647","NA","NA","93754.83162901946","5105.628666002303","NA","NA","93861.64700399968","94413.95786800422","93744.12342000869","93861.30876900279","Flanker task","47","25727.867749985307","47","1024"
"100","100","547","547","black","psycho","psycho","psycho","incongruent","1","undefined","1","h","47","0","0","0","47","0","47","0","47","0","0","0","47","47","47","47","Thu Sep 21 16:27:11 2023","1500","The main experiment item","True","Flankertask.osexp","/Users/xaleyelyse/Desktop","False","mono","False","18","no","white","no","yes","768","psycho","47","47","/Users/xaleyelyse/Desktop/xw-subject-5.csv","psycho","Melodramatic Milgram","4.0.5","0","h","NA","s","NA","NA","h","573.1406930135563","NA","9666.669186000945","NA","NA","573.1406930135563","2","psycho","1024","2","48000","-16","experiment","SSHSS","5","odd","94418.85301200091","14789.000149001367","NA","NA","NA","5066.001864004647","NA","NA","95468.29167602118","5105.628666002303","NA","NA","95575.38967300206","96150.87742000469","95458.17999902647","95574.90459902328","Flanker task","48","26301.008442998864","48","1024"
"100","100","550","550","black","psycho","psycho","psycho","congruent","1","undefined","1","s","48","0","0","0","48","0","48","0","48","0","0","0","48","48","48","48","Thu Sep 21 16:27:11 2023","1500","The main experiment item","True","Flankertask.osexp","/Users/xaleyelyse/Desktop","False","mono","False","18","no","white","no","yes","768","psycho","48","48","/Users/xaleyelyse/Desktop/xw-subject-5.csv","psycho","Melodramatic Milgram","4.0.5","0","s","NA","s","NA","NA","s","662.2881949879229","NA","9666.669186000945","NA","NA","662.2881949879229","2","psycho","1024","2","48000","-16","experiment","SSSSS","5","odd","96155.87723700446","14789.000149001367","NA","NA","NA","5066.001864004647","NA","NA","97209.95118599967","5105.628666002303","NA","NA","97315.9708980238","97980.54712600424","97199.87291601137","97314.69681402086","Flanker task","49","26963.296637986787","49","1024"
"100","100","557","557","black","psycho","psycho","psycho","incongruent","1","undefined","1","s","49","0","0","0","49","0","49","0","49","0","0","0","49","49","49","49","Thu Sep 21 16:27:11 2023","1500","The main experiment item","True","Flankertask.osexp","/Users/xaleyelyse/Desktop","False","mono","False","18","no","white","no","yes","768","psycho","49","49","/Users/xaleyelyse/Desktop/xw-subject-5.csv","psycho","Melodramatic Milgram","4.0.5","0","s","NA","s","NA","NA","s","914.1858840011992","NA","9666.669186000945","NA","NA","914.1858840011992","2","psycho","1024","2","48000","-16","experiment","HHSHH","5","odd","97985.39834201802","14789.000149001367","NA","NA","NA","5066.001864004647","NA","NA","99041.40310900402","5105.628666002303","NA","NA","99148.20588802104","100064.84144402202","99031.15628802334","99147.89714600192","Flanker task","50","27877.482521987986","50","1024"
"100","100","557","557","black","psycho","psycho","psycho","congruent","1","undefined","1","s","50","0","0","0","50","0","50","0","50","0","0","0","50","50","50","50","Thu Sep 21 16:27:11 2023","1500","The main experiment item","True","Flankertask.osexp","/Users/xaleyelyse/Desktop","False","mono","False","18","no","white","no","yes","768","psycho","50","50","/Users/xaleyelyse/Desktop/xw-subject-5.csv","psycho","Melodramatic Milgram","4.0.5","0","s","NA","s","NA","NA","s","555.716382979881","NA","9666.669186000945","NA","NA","555.716382979881","2","psycho","1024","2","48000","-16","experiment","SSSSS","5","odd","100069.76408199989","14789.000149001367","NA","NA","NA","5066.001864004647","NA","NA","101124.35874101357","5105.628666002303","NA","NA","101230.5665940221","101788.41408100561","101115.21395901218","101229.3495410122","Flanker task","51","28433.198904967867","51","1024"
"100","100","555","555","black","psycho","psycho","psycho","incongruent","1","undefined","1","s","51","0","0","0","51","0","51","0","51","0","0","0","51","51","51","51","Thu Sep 21 16:27:11 2023","1500","The main experiment item","True","Flankertask.osexp","/Users/xaleyelyse/Desktop","False","mono","False","18","no","white","no","yes","768","psycho","51","51","/Users/xaleyelyse/Desktop/xw-subject-5.csv","psycho","Melodramatic Milgram","4.0.5","0","s","NA","s","NA","NA","s","475.6233730004169","NA","9666.669186000945","NA","NA","475.6233730004169","2","psycho","1024","2","48000","-16","experiment","HHSHH","5","odd","101793.7950300111","14789.000149001367","NA","NA","NA","5066.001864004647","NA","NA","102843.70741102612","5105.628666002303","NA","NA","102950.63958200626","103428.8104660227","102833.88412202476","102950.32662001904","Flanker task","52","28908.822277968284","52","1024"
"100","100","554","554","black","psycho","psycho","psycho","incongruent","1","undefined","1","s","52","0","0","0","52","0","52","0","52","0","0","0","52","52","52","52","Thu Sep 21 16:27:11 2023","1500","The main experiment item","True","Flankertask.osexp","/Users/xaleyelyse/Desktop","False","mono","False","18","no","white","no","yes","768","psycho","52","52","/Users/xaleyelyse/Desktop/xw-subject-5.csv","psycho","Melodramatic Milgram","4.0.5","0","s","NA","s","NA","NA","s","474.0946000092663","NA","9666.669186000945","NA","NA","474.0946000092663","2","psycho","1024","2","48000","-16","experiment","HHSHH","5","odd","103435.90313300956","14789.000149001367","NA","NA","NA","5066.001864004647","NA","NA","104487.95594100375","5105.628666002303","NA","NA","104595.87790101068","105072.09714100463","104478.25495500001","104595.52398402593","Flanker task","53","29382.91687797755","53","1024"
"100","100","552","552","black","psycho","psycho","psycho","incongruent","1","undefined","1","s","53","0","0","0","53","0","53","0","53","0","0","0","53","53","53","53","Thu Sep 21 16:27:11 2023","1500","The main experiment item","True","Flankertask.osexp","/Users/xaleyelyse/Desktop","False","mono","False","18","no","white","no","yes","768","psycho","53","53","/Users/xaleyelyse/Desktop/xw-subject-5.csv","psycho","Melodramatic Milgram","4.0.5","0","s","NA","s","NA","NA","s","444.7987640160136","NA","9666.669186000945","NA","NA","444.7987640160136","2","psycho","1024","2","48000","-16","experiment","HHSHH","5","odd","105078.45727101085","14789.000149001367","NA","NA","NA","5066.001864004647","NA","NA","106133.29044802231","5105.628666002303","NA","NA","106239.56860200269","106686.71918002656","106120.60633301735","106239.28306699963","Flanker task","54","29827.715641993564","54","1024"
"100","100","551","551","black","psycho","psycho","psycho","congruent","1","undefined","1","h","54","0","0","0","54","0","54","0","54","0","0","0","54","54","54","54","Thu Sep 21 16:27:11 2023","1500","The main experiment item","True","Flankertask.osexp","/Users/xaleyelyse/Desktop","False","mono","False","18","no","white","no","yes","768","psycho","54","54","/Users/xaleyelyse/Desktop/xw-subject-5.csv","psycho","Melodramatic Milgram","4.0.5","0","h","NA","s","NA","NA","h","526.1148829886224","NA","9666.669186000945","NA","NA","526.1148829886224","2","psycho","1024","2","48000","-16","experiment","HHHHH","5","odd","106691.66638402385","14789.000149001367","NA","NA","NA","5066.001864004647","NA","NA","107741.8581340171","5105.628666002303","NA","NA","107847.99720102455","108376.89537502592","107731.78612600896","107846.77657100838","Flanker task","55","30353.830524982186","55","1024"
"100","100","551","551","black","psycho","psycho","psycho","incongruent","1","undefined","1","h","55","0","0","0","55","0","55","0","55","0","0","0","55","55","55","55","Thu Sep 21 16:27:11 2023","1500","The main experiment item","True","Flankertask.osexp","/Users/xaleyelyse/Desktop","False","mono","False","18","no","white","no","yes","768","psycho","55","55","/Users/xaleyelyse/Desktop/xw-subject-5.csv","psycho","Melodramatic Milgram","4.0.5","0","h","NA","s","NA","NA","h","522.5200019776821","NA","9666.669186000945","NA","NA","522.5200019776821","2","psycho","1024","2","48000","-16","experiment","SSHSS","5","odd","108381.78125300328","14789.000149001367","NA","NA","NA","5066.001864004647","NA","NA","109433.39592701523","5105.628666002303","NA","NA","109540.29123202781","110065.13371900655","109420.77320002136","109539.94013002375","Flanker task","56","30876.350526959868","56","1024"
"100","100","550","550","black","psycho","psycho","psycho","congruent","1","undefined","1","s","56","0","0","0","56","0","56","0","56","0","0","0","56","56","56","56","Thu Sep 21 16:27:11 2023","1500","The main experiment item","True","Flankertask.osexp","/Users/xaleyelyse/Desktop","False","mono","False","18","no","white","no","yes","768","psycho","56","56","/Users/xaleyelyse/Desktop/xw-subject-5.csv","psycho","Melodramatic Milgram","4.0.5","0","s","NA","s","NA","NA","s","477.3786529840436","NA","9666.669186000945","NA","NA","477.3786529840436","2","psycho","1024","2","48000","-16","experiment","SSSSS","5","odd","110071.38684001984","14789.000149001367","NA","NA","NA","5066.001864004647","NA","NA","111120.3738200129","5105.628666002303","NA","NA","111227.56146301981","111707.20096401055","111110.64245601301","111226.32683400298","Flanker task","57","31353.72917994391","57","1024"
"100","100","549","549","black","psycho","psycho","psycho","incongruent","1","undefined","1","h","57","0","0","0","57","0","57","0","57","0","0","0","57","57","57","57","Thu Sep 21 16:27:11 2023","1500","The main experiment item","True","Flankertask.osexp","/Users/xaleyelyse/Desktop","False","mono","False","18","no","white","no","yes","768","psycho","57","57","/Users/xaleyelyse/Desktop/xw-subject-5.csv","psycho","Melodramatic Milgram","4.0.5","0","h","NA","s","NA","NA","h","500.7919839990791","NA","9666.669186000945","NA","NA","500.7919839990791","2","psycho","1024","2","48000","-16","experiment","SSHSS","5","odd","111712.29531301651","14789.000149001367","NA","NA","NA","5066.001864004647","NA","NA","112761.34149401332","5105.628666002303","NA","NA","112868.08282800484","113371.24226702144","112750.75701600872","112867.7700740227","Flanker task","58","31854.52116394299","58","1024"
"100","100","548","548","black","psycho","psycho","psycho","incongruent","1","undefined","1","s","58","0","0","0","58","0","58","0","58","0","0","0","58","58","58","58","Thu Sep 21 16:27:11 2023","1500","The main experiment item","True","Flankertask.osexp","/Users/xaleyelyse/Desktop","False","mono","False","18","no","white","no","yes","768","psycho","58","58","/Users/xaleyelyse/Desktop/xw-subject-5.csv","psycho","Melodramatic Milgram","4.0.5","0","s","NA","s","NA","NA","s","519.1935390175786","NA","9666.669186000945","NA","NA","519.1935390175786","2","psycho","1024","2","48000","-16","experiment","HHSHH","5","odd","113375.83446700592","14789.000149001367","NA","NA","NA","5066.001864004647","NA","NA","114426.99055702542","5105.628666002303","NA","NA","114533.59208200709","115054.94674399961","114416.60840000259","114532.44987301878","Flanker task","59","32373.71470296057","59","1024"
"100","100","547","547","black","psycho","psycho","psycho","incongruent","1","undefined","1","h","59","0","0","0","59","0","59","0","59","0","0","0","59","59","59","59","Thu Sep 21 16:27:11 2023","1500","The main experiment item","True","Flankertask.osexp","/Users/xaleyelyse/Desktop","False","mono","False","18","no","white","no","yes","768","psycho","59","59","/Users/xaleyelyse/Desktop/xw-subject-5.csv","psycho","Melodramatic Milgram","4.0.5","0","h","NA","s","NA","NA","h","463.946315983776","NA","9666.669186000945","NA","NA","463.946315983776","2","psycho","1024","2","48000","-16","experiment","SSHSS","5","odd","115061.33257702459","14789.000149001367","NA","NA","NA","5066.001864004647","NA","NA","116112.23104601959","5105.628666002303","NA","NA","116217.85992002697","116684.23158401856","116101.94939302164","116216.74771202379","Flanker task","60","32837.661018944345","60","1024"
"100","100","550","550","black","psycho","psycho","psycho","incongruent","1","undefined","1","s","60","0","0","0","60","0","60","0","60","0","0","0","60","60","60","60","Thu Sep 21 16:27:11 2023","1500","The main experiment item","True","Flankertask.osexp","/Users/xaleyelyse/Desktop","False","mono","False","18","no","white","no","yes","768","psycho","60","60","/Users/xaleyelyse/Desktop/xw-subject-5.csv","psycho","Melodramatic Milgram","4.0.5","0","s","NA","s","NA","NA","s","763.2056990114506","NA","9666.669186000945","NA","NA","763.2056990114506","2","psycho","1024","2","48000","-16","experiment","HHSHH","5","odd","116689.80637899949","14789.000149001367","NA","NA","NA","5066.001864004647","NA","NA","117740.04273902392","5105.628666002303","NA","NA","117847.48489200138","118612.96239000512","117729.88755701226","117846.16548201302","Flanker task","61","33600.866717955796","61","1024"
"100","100","549","549","black","psycho","psycho","psycho","incongruent","1","undefined","1","s","61","0","0","0","61","0","61","0","61","0","0","0","61","61","61","61","Thu Sep 21 16:27:11 2023","1500","The main experiment item","True","Flankertask.osexp","/Users/xaleyelyse/Desktop","False","mono","False","18","no","white","no","yes","768","psycho","61","61","/Users/xaleyelyse/Desktop/xw-subject-5.csv","psycho","Melodramatic Milgram","4.0.5","0","s","NA","s","NA","NA","s","489.28269400494173","NA","9666.669186000945","NA","NA","489.28269400494173","2","psycho","1024","2","48000","-16","experiment","HHSHH","5","odd","118618.03310801042","14789.000149001367","NA","NA","NA","5066.001864004647","NA","NA","119667.49683802482","5105.628666002303","NA","NA","119773.41848201468","120264.98474902473","119657.04117601854","119772.25404902129","Flanker task","62","34090.14941196074","62","1024"
"100","100","549","549","black","psycho","psycho","psycho","incongruent","1","undefined","1","h","62","0","0","0","62","0","62","0","62","0","0","0","62","62","62","62","Thu Sep 21 16:27:11 2023","1500","The main experiment item","True","Flankertask.osexp","/Users/xaleyelyse/Desktop","False","mono","False","18","no","white","no","yes","768","psycho","62","62","/Users/xaleyelyse/Desktop/xw-subject-5.csv","psycho","Melodramatic Milgram","4.0.5","0","h","NA","s","NA","NA","h","510.309649980627","NA","9666.669186000945","NA","NA","510.309649980627","2","psycho","1024","2","48000","-16","experiment","SSHSS","5","odd","120270.27881200775","14789.000149001367","NA","NA","NA","5066.001864004647","NA","NA","121326.06697501615","5105.628666002303","NA","NA","121432.04952802625","121944.5398900134","121316.68487502611","121430.81730700214","Flanker task","63","34600.459061941365","63","1024"
"100","100","545","545","black","psycho","psycho","psycho","congruent","1","undefined","1","s","63","0","0","0","63","0","63","0","63","0","0","0","63","63","63","63","Thu Sep 21 16:27:11 2023","1500","The main experiment item","True","Flankertask.osexp","/Users/xaleyelyse/Desktop","False","mono","False","18","no","white","no","yes","768","psycho","63","63","/Users/xaleyelyse/Desktop/xw-subject-5.csv","psycho","Melodramatic Milgram","4.0.5","0","s","NA","s","NA","NA","s","340.1545070228167","NA","9666.669186000945","NA","NA","340.1545070228167","2","psycho","1024","2","48000","-16","experiment","SSSSS","5","odd","121952.85000701551","14789.000149001367","NA","NA","NA","5066.001864004647","NA","NA","123004.16867301101","5105.628666002303","NA","NA","123111.43266200088","123453.910035023","122994.37356099952","123110.17213802552","Flanker task","64","34940.61356896418","64","1024"
"100","100","545","545","black","psycho","psycho","psycho","congruent","1","undefined","1","h","64","0","0","0","64","0","64","0","64","0","0","0","64","64","64","64","Thu Sep 21 16:27:11 2023","1500","The main experiment item","True","Flankertask.osexp","/Users/xaleyelyse/Desktop","False","mono","False","18","no","white","no","yes","768","psycho","64","64","/Users/xaleyelyse/Desktop/xw-subject-5.csv","psycho","Melodramatic Milgram","4.0.5","0","h","NA","s","NA","NA","h","498.38911500410177","NA","9666.669186000945","NA","NA","498.38911500410177","2","psycho","1024","2","48000","-16","experiment","HHHHH","5","odd","123458.45008501783","14789.000149001367","NA","NA","NA","5066.001864004647","NA","NA","124512.14668300236","5105.628666002303","NA","NA","124618.92663201434","125119.54794000485","124502.24381801672","124618.64482300007","Flanker task","65","35439.00268396828","65","1024"
"100","100","545","545","black","psycho","psycho","psycho","congruent","1","undefined","1","h","65","0","0","0","65","0","65","0","65","0","0","0","65","65","65","65","Thu Sep 21 16:27:11 2023","1500","The main experiment item","True","Flankertask.osexp","/Users/xaleyelyse/Desktop","False","mono","False","18","no","white","no","yes","768","psycho","65","65","/Users/xaleyelyse/Desktop/xw-subject-5.csv","psycho","Melodramatic Milgram","4.0.5","0","h","NA","s","NA","NA","h","551.3914529874455","NA","9666.669186000945","NA","NA","551.3914529874455","2","psycho","1024","2","48000","-16","experiment","HHHHH","5","odd","125126.67479601805","14789.000149001367","NA","NA","NA","5066.001864004647","NA","NA","126175.84260701551","5105.628666002303","NA","NA","126282.02350801439","126835.82064602524","126166.73552402062","126280.75242802151","Flanker task","66","35990.39413695573","66","1024"
"100","100","543","543","black","psycho","psycho","psycho","congruent","1","undefined","1","s","66","0","0","0","66","0","66","0","66","0","0","0","66","66","66","66","Thu Sep 21 16:27:11 2023","1500","The main experiment item","True","Flankertask.osexp","/Users/xaleyelyse/Desktop","False","mono","False","18","no","white","no","yes","768","psycho","66","66","/Users/xaleyelyse/Desktop/xw-subject-5.csv","psycho","Melodramatic Milgram","4.0.5","0","s","NA","s","NA","NA","s","398.56371699715964","NA","9666.669186000945","NA","NA","398.56371699715964","2","psycho","1024","2","48000","-16","experiment","SSSSS","5","odd","126840.6990780204","14789.000149001367","NA","NA","NA","5066.001864004647","NA","NA","127899.63781202096","5105.628666002303","NA","NA","128006.20753501425","128406.85199201107","127887.11741901352","128005.87840401568","Flanker task","67","36388.95785395289","67","1024"
"100","100","541","541","black","psycho","psycho","psycho","congruent","1","undefined","1","h","67","0","0","0","67","0","67","0","67","0","0","0","67","67","67","67","Thu Sep 21 16:27:11 2023","1500","The main experiment item","True","Flankertask.osexp","/Users/xaleyelyse/Desktop","False","mono","False","18","no","white","no","yes","768","psycho","67","67","/Users/xaleyelyse/Desktop/xw-subject-5.csv","psycho","Melodramatic Milgram","4.0.5","0","h","NA","s","NA","NA","h","443.7268429901451","NA","9666.669186000945","NA","NA","443.7268429901451","2","psycho","1024","2","48000","-16","experiment","HHHHH","5","odd","128411.38696100097","14789.000149001367","NA","NA","NA","5066.001864004647","NA","NA","129463.11636001337","5105.628666002303","NA","NA","129570.39262601756","130016.3781340234","129453.97701102775","129569.94583402411","Flanker task","68","36832.68469694303","68","1024"
"100","100","541","541","black","psycho","psycho","psycho","incongruent","1","undefined","1","h","68","0","0","0","68","0","68","0","68","0","0","0","68","68","68","68","Thu Sep 21 16:27:11 2023","1500","The main experiment item","True","Flankertask.osexp","/Users/xaleyelyse/Desktop","False","mono","False","18","no","white","no","yes","768","psycho","68","68","/Users/xaleyelyse/Desktop/xw-subject-5.csv","psycho","Melodramatic Milgram","4.0.5","0","h","NA","s","NA","NA","h","543.1669120152947","NA","9666.669186000945","NA","NA","543.1669120152947","2","psycho","1024","2","48000","-16","experiment","SSHSS","5","odd","130021.20654701139","14789.000149001367","NA","NA","NA","5066.001864004647","NA","NA","131071.79157700739","5105.628666002303","NA","NA","131179.82796000433","131725.25612902245","131061.73519301228","131179.47160400217","Flanker task","69","37375.85160895833","69","1024"
"100","100","540","540","black","psycho","psycho","psycho","congruent","1","undefined","1","s","69","0","0","0","69","0","69","0","69","0","0","0","69","69","69","69","Thu Sep 21 16:27:11 2023","1500","The main experiment item","True","Flankertask.osexp","/Users/xaleyelyse/Desktop","False","mono","False","18","no","white","no","yes","768","psycho","69","69","/Users/xaleyelyse/Desktop/xw-subject-5.csv","psycho","Melodramatic Milgram","4.0.5","0","s","NA","s","NA","NA","s","467.37340599065647","NA","9666.669186000945","NA","NA","467.37340599065647","2","psycho","1024","2","48000","-16","experiment","SSSSS","5","odd","131730.43420902104","14789.000149001367","NA","NA","NA","5066.001864004647","NA","NA","132785.46622701106","5105.628666002303","NA","NA","132892.43658201303","133362.00083402218","132775.91661701445","132892.1283070231","Flanker task","70","37843.225014948985","70","1024"
"100","100","541","541","black","psycho","psycho","psycho","incongruent","1","undefined","1","h","70","0","0","0","70","0","70","0","70","0","0","0","70","70","70","70","Thu Sep 21 16:27:11 2023","1500","The main experiment item","True","Flankertask.osexp","/Users/xaleyelyse/Desktop","False","mono","False","18","no","white","no","yes","768","psycho","70","70","/Users/xaleyelyse/Desktop/xw-subject-5.csv","psycho","Melodramatic Milgram","4.0.5","0","h","NA","s","NA","NA","h","575.3043050062843","NA","9666.669186000945","NA","NA","575.3043050062843","2","psycho","1024","2","48000","-16","experiment","SSHSS","5","odd","133367.0822790009","14789.000149001367","NA","NA","NA","5066.001864004647","NA","NA","134417.80238001957","5105.628666002303","NA","NA","134524.7719400213","135102.30079700705","134408.22636100347","134523.37766101118","Flanker task","71","38418.52931995527","71","1024"
"100","100","540","540","black","psycho","psycho","psycho","incongruent","1","undefined","1","h","71","0","0","0","71","0","71","0","71","0","0","0","71","71","71","71","Thu Sep 21 16:27:11 2023","1500","The main experiment item","True","Flankertask.osexp","/Users/xaleyelyse/Desktop","False","mono","False","18","no","white","no","yes","768","psycho","71","71","/Users/xaleyelyse/Desktop/xw-subject-5.csv","psycho","Melodramatic Milgram","4.0.5","0","h","NA","s","NA","NA","h","518.5046409897041","NA","9666.669186000945","NA","NA","518.5046409897041","2","psycho","1024","2","48000","-16","experiment","SSHSS","5","odd","135108.95248802262","14789.000149001367","NA","NA","NA","5066.001864004647","NA","NA","136161.42271101126","5105.628666002303","NA","NA","136268.42926902464","136789.33523700107","136152.71710901288","136267.9870610009","Flanker task","72","38937.03396094497","72","1024"
"100","100","540","540","black","psycho","psycho","psycho","congruent","1","undefined","1","s","72","0","0","0","72","0","72","0","72","0","0","0","72","72","72","72","Thu Sep 21 16:27:11 2023","1500","The main experiment item","True","Flankertask.osexp","/Users/xaleyelyse/Desktop","False","mono","False","18","no","white","no","yes","768","psycho","72","72","/Users/xaleyelyse/Desktop/xw-subject-5.csv","psycho","Melodramatic Milgram","4.0.5","0","s","NA","s","NA","NA","s","501.8606899830047","NA","9666.669186000945","NA","NA","501.8606899830047","2","psycho","1024","2","48000","-16","experiment","SSSSS","5","odd","136793.6812400003","14789.000149001367","NA","NA","NA","5066.001864004647","NA","NA","137849.84669700498","5105.628666002303","NA","NA","137956.93786101765","138461.08100601123","137837.65812200727","137956.62602901575","Flanker task","73","39438.89465092798","73","1024"
"100","100","539","539","black","psycho","psycho","psycho","congruent","1","undefined","1","h","73","0","0","0","73","0","73","0","73","0","0","0","73","73","73","73","Thu Sep 21 16:27:11 2023","1500","The main experiment item","True","Flankertask.osexp","/Users/xaleyelyse/Desktop","False","mono","False","18","no","white","no","yes","768","psycho","73","73","/Users/xaleyelyse/Desktop/xw-subject-5.csv","psycho","Melodramatic Milgram","4.0.5","0","h","NA","s","NA","NA","h","458.2401600200683","NA","9666.669186000945","NA","NA","458.2401600200683","2","psycho","1024","2","48000","-16","experiment","HHHHH","5","odd","138469.1756540269","14789.000149001367","NA","NA","NA","5066.001864004647","NA","NA","139519.19890200952","5105.628666002303","NA","NA","139625.29768500826","140085.8090670081","139509.43720299983","139624.14897201234","Flanker task","74","39897.134810948046","74","1024"
"100","100","537","537","black","psycho","psycho","psycho","incongruent","1","undefined","1","s","74","0","0","0","74","0","74","0","74","0","0","0","74","74","74","74","Thu Sep 21 16:27:11 2023","1500","The main experiment item","True","Flankertask.osexp","/Users/xaleyelyse/Desktop","False","mono","False","18","no","white","no","yes","768","psycho","74","74","/Users/xaleyelyse/Desktop/xw-subject-5.csv","psycho","Melodramatic Milgram","4.0.5","0","s","NA","s","NA","NA","s","449.81745700351894","NA","9666.669186000945","NA","NA","449.81745700351894","2","psycho","1024","2","48000","-16","experiment","HHSHH","5","odd","140091.3118320168","14789.000149001367","NA","NA","NA","5066.001864004647","NA","NA","141141.7033809994","5105.628666002303","NA","NA","141248.7567210046","141700.83139601047","141131.5385060152","141247.22535102046","Flanker task","75","40346.952267951565","75","1024"
"100","100","537","537","black","psycho","psycho","psycho","congruent","1","undefined","1","s","75","0","0","0","75","0","75","0","75","0","0","0","75","75","75","75","Thu Sep 21 16:27:11 2023","1500","The main experiment item","True","Flankertask.osexp","/Users/xaleyelyse/Desktop","False","mono","False","18","no","white","no","yes","768","psycho","75","75","/Users/xaleyelyse/Desktop/xw-subject-5.csv","psycho","Melodramatic Milgram","4.0.5","0","s","NA","s","NA","NA","s","470.6449520017486","NA","9666.669186000945","NA","NA","470.6449520017486","2","psycho","1024","2","48000","-16","experiment","SSSSS","5","odd","141706.1395290075","14789.000149001367","NA","NA","NA","5066.001864004647","NA","NA","142759.29018500028","5105.628666002303","NA","NA","142865.34379801014","143338.11099102604","142749.01640802273","142864.0459550079","Flanker task","76","40817.59721995331","76","1024"
"100","100","536","536","black","psycho","psycho","psycho","congruent","1","undefined","1","s","76","0","0","0","76","0","76","0","76","0","0","0","76","76","76","76","Thu Sep 21 16:27:11 2023","1500","The main experiment item","True","Flankertask.osexp","/Users/xaleyelyse/Desktop","False","mono","False","18","no","white","no","yes","768","psycho","76","76","/Users/xaleyelyse/Desktop/xw-subject-5.csv","psycho","Melodramatic Milgram","4.0.5","0","s","NA","s","NA","NA","s","506.41620499663986","NA","9666.669186000945","NA","NA","506.41620499663986","2","psycho","1024","2","48000","-16","experiment","SSSSS","5","odd","143342.99118700437","14789.000149001367","NA","NA","NA","5066.001864004647","NA","NA","144397.76618301403","5105.628666002303","NA","NA","144505.01233202522","145013.87482101563","144388.6987210135","144503.8431500143","Flanker task","77","41324.01342494995","77","1024"
"100","100","536","536","black","psycho","psycho","psycho","incongruent","1","undefined","1","h","77","0","0","0","77","0","77","0","77","0","0","0","77","77","77","77","Thu Sep 21 16:27:11 2023","1500","The main experiment item","True","Flankertask.osexp","/Users/xaleyelyse/Desktop","False","mono","False","18","no","white","no","yes","768","psycho","77","77","/Users/xaleyelyse/Desktop/xw-subject-5.csv","psycho","Melodramatic Milgram","4.0.5","0","h","NA","s","NA","NA","h","492.27973699453287","NA","9666.669186000945","NA","NA","492.27973699453287","2","psycho","1024","2","48000","-16","experiment","SSHSS","5","odd","145021.1723750108","14789.000149001367","NA","NA","NA","5066.001864004647","NA","NA","146073.48967000144","5105.628666002303","NA","NA","146181.05887100683","146675.74726001476","146063.90887702582","146179.78691402823","Flanker task","78","41816.293161944486","78","1024"
"100","100","534","534","black","psycho","psycho","psycho","congruent","1","undefined","1","s","78","0","0","0","78","0","78","0","78","0","0","0","78","78","78","78","Thu Sep 21 16:27:11 2023","1500","The main experiment item","True","Flankertask.osexp","/Users/xaleyelyse/Desktop","False","mono","False","18","no","white","no","yes","768","psycho","78","78","/Users/xaleyelyse/Desktop/xw-subject-5.csv","psycho","Melodramatic Milgram","4.0.5","0","s","NA","s","NA","NA","s","392.67643401399255","NA","9666.669186000945","NA","NA","392.67643401399255","2","psycho","1024","2","48000","-16","experiment","SSSSS","5","odd","146681.00936102564","14789.000149001367","NA","NA","NA","5066.001864004647","NA","NA","147735.78338502557","5105.628666002303","NA","NA","147841.73616301268","148236.7818110215","147725.36966000916","147840.6526200124","Flanker task","79","42208.96959595848","79","1024"
"100","100","534","534","black","psycho","psycho","psycho","incongruent","1","undefined","1","s","79","0","0","0","79","0","79","0","79","0","0","0","79","79","79","79","Thu Sep 21 16:27:11 2023","1500","The main experiment item","True","Flankertask.osexp","/Users/xaleyelyse/Desktop","False","mono","False","18","no","white","no","yes","768","psycho","79","79","/Users/xaleyelyse/Desktop/xw-subject-5.csv","psycho","Melodramatic Milgram","4.0.5","0","s","NA","s","NA","NA","s","522.8685379843228","NA","9666.669186000945","NA","NA","522.8685379843228","2","psycho","1024","2","48000","-16","experiment","HHSHH","5","odd","148242.1437810117","14789.000149001367","NA","NA","NA","5066.001864004647","NA","NA","149291.32238501916","5105.628666002303","NA","NA","149398.3756970265","149923.38005502825","149282.35123501508","149396.9994840154","Flanker task","80","42731.8381339428","80","1024"
"100","100","534","534","black","psycho","psycho","psycho","congruent","1","undefined","1","h","80","0","0","0","80","0","80","0","80","0","0","0","80","80","80","80","Thu Sep 21 16:27:11 2023","600","The main experiment item","True","Flankertask.osexp","/Users/xaleyelyse/Desktop","False","mono","False","18","no","white","no","yes","768","psycho","0","79","/Users/xaleyelyse/Desktop/xw-subject-5.csv","psycho","Melodramatic Milgram","4.0.5","0","h","NA","s","h","NA","h","535.9523739898577","NA","9666.669186000945","3578.1897220003884","NA","535.9523739898577","2","psycho","1024","2","48000","-16","experiment","HHHHH","5","odd","149928.89832501533","14789.000149001367","154524.36228300212","NA","NA","5066.001864004647","NA","NA","154575.71433702833","5105.628666002303","150943.82954901084","NA","154684.2736750259","155222.50334901037","154566.59529200988","154683.99727300857","Flanker task","81","43267.79050793266","81","1024"
"100","100","533","533","black","psycho","psycho","psycho","incongruent","1","undefined","1","s","81","0","0","0","81","0","81","0","81","0","0","0","81","81","81","81","Thu Sep 21 16:27:11 2023","600","The main experiment item","True","Flankertask.osexp","/Users/xaleyelyse/Desktop","False","mono","False","18","no","white","no","yes","768","psycho","1","79","/Users/xaleyelyse/Desktop/xw-subject-5.csv","psycho","Melodramatic Milgram","4.0.5","0","s","NA","s","h","NA","s","518.8263570016716","NA","9666.669186000945","3578.1897220003884","NA","518.8263570016716","2","psycho","1024","2","48000","-16","experiment","HHSHH","5","odd","155246.58782299957","14789.000149001367","154524.36228300212","NA","NA","5066.001864004647","NA","NA","156300.31771201175","5105.628666002303","150943.82954901084","NA","156407.12475799955","156928.50002800697","156290.8213220071","156406.6698780225","Flanker task","82","43786.61686493433","82","1024"
"100","100","533","533","black","psycho","psycho","psycho","incongruent","1","undefined","1","s","82","0","0","0","82","0","82","0","82","0","0","0","82","82","82","82","Thu Sep 21 16:27:11 2023","600","The main experiment item","True","Flankertask.osexp","/Users/xaleyelyse/Desktop","False","mono","False","18","no","white","no","yes","768","psycho","2","79","/Users/xaleyelyse/Desktop/xw-subject-5.csv","psycho","Melodramatic Milgram","4.0.5","0","s","NA","s","h","NA","s","484.2519870144315","NA","9666.669186000945","3578.1897220003884","NA","484.2519870144315","2","psycho","1024","2","48000","-16","experiment","HHSHH","5","odd","156933.96845500683","14789.000149001367","154524.36228300212","NA","NA","5066.001864004647","NA","NA","157982.84580302425","5105.628666002303","150943.82954901084","NA","158089.53289900091","158576.09332201537","157973.28920301516","158089.1820670222","Flanker task","83","44270.86885194876","83","1024"
"100","100","532","532","black","psycho","psycho","psycho","incongruent","1","undefined","1","h","83","0","0","0","83","0","83","0","83","0","0","0","83","83","83","83","Thu Sep 21 16:27:11 2023","600","The main experiment item","True","Flankertask.osexp","/Users/xaleyelyse/Desktop","False","mono","False","18","no","white","no","yes","768","psycho","3","79","/Users/xaleyelyse/Desktop/xw-subject-5.csv","psycho","Melodramatic Milgram","4.0.5","0","h","NA","s","h","NA","h","491.5752360248007","NA","9666.669186000945","3578.1897220003884","NA","491.5752360248007","2","psycho","1024","2","48000","-16","experiment","SSHSS","5","odd","158581.13201500964","14789.000149001367","154524.36228300212","NA","NA","5066.001864004647","NA","NA","159629.49221901363","5105.628666002303","150943.82954901084","NA","159736.4122250001","160230.2543130063","159619.62696100818","159736.09985402436","Flanker task","84","44762.44408797356","84","1024"
"100","100","532","532","black","psycho","psycho","psycho","congruent","1","undefined","1","s","84","0","0","0","84","0","84","0","84","0","0","0","84","84","84","84","Thu Sep 21 16:27:11 2023","600","The main experiment item","True","Flankertask.osexp","/Users/xaleyelyse/Desktop","False","mono","False","18","no","white","no","yes","768","psycho","4","79","/Users/xaleyelyse/Desktop/xw-subject-5.csv","psycho","Melodramatic Milgram","4.0.5","0","s","NA","s","h","NA","s","534.089597989805","NA","9666.669186000945","3578.1897220003884","NA","534.089597989805","2","psycho","1024","2","48000","-16","experiment","SSSSS","5","odd","160235.0862250023","14789.000149001367","154524.36228300212","NA","NA","5066.001864004647","NA","NA","161283.98595401086","5105.628666002303","150943.82954901084","NA","161390.3661550139","161927.05869901692","161274.2124760116","161389.20539902756","Flanker task","85","45296.53368596337","85","1024"
"100","100","532","532","black","psycho","psycho","psycho","congruent","1","undefined","1","h","85","0","0","0","85","0","85","0","85","0","0","0","85","85","85","85","Thu Sep 21 16:27:11 2023","600","The main experiment item","True","Flankertask.osexp","/Users/xaleyelyse/Desktop","False","mono","False","18","no","white","no","yes","768","psycho","5","79","/Users/xaleyelyse/Desktop/xw-subject-5.csv","psycho","Melodramatic Milgram","4.0.5","0","h","NA","s","h","NA","h","480.5212119827047","NA","9666.669186000945","3578.1897220003884","NA","480.5212119827047","2","psycho","1024","2","48000","-16","experiment","HHHHH","5","odd","161935.17029299983","14789.000149001367","154524.36228300212","NA","NA","5066.001864004647","NA","NA","162985.21018301835","5105.628666002303","150943.82954901084","NA","163092.21101502771","163575.11456200154","162975.03350902116","163091.85084301862","Flanker task","86","45777.05489794607","86","1024"
"100","100","529","529","black","psycho","psycho","psycho","congruent","1","undefined","1","s","86","0","0","0","86","0","86","0","86","0","0","0","86","86","86","86","Thu Sep 21 16:27:11 2023","600","The main experiment item","True","Flankertask.osexp","/Users/xaleyelyse/Desktop","False","mono","False","18","no","white","no","yes","768","psycho","6","79","/Users/xaleyelyse/Desktop/xw-subject-5.csv","psycho","Melodramatic Milgram","4.0.5","0","s","NA","s","h","NA","s","329.6234959852882","NA","9666.669186000945","3578.1897220003884","NA","329.6234959852882","2","psycho","1024","2","48000","-16","experiment","SSSSS","5","odd","163580.71506000124","14789.000149001367","154524.36228300212","NA","NA","5066.001864004647","NA","NA","164629.5618120057","5105.628666002303","150943.82954901084","NA","164736.83228102163","165068.66345900926","164620.03075901885","164735.54348800099","Flanker task","87","46106.67839393136","87","1024"
"100","100","530","530","black","psycho","psycho","psycho","incongruent","1","undefined","1","h","87","0","0","0","87","0","87","0","87","0","0","0","87","87","87","87","Thu Sep 21 16:27:11 2023","600","The main experiment item","True","Flankertask.osexp","/Users/xaleyelyse/Desktop","False","mono","False","18","no","white","no","yes","768","psycho","7","79","/Users/xaleyelyse/Desktop/xw-subject-5.csv","psycho","Melodramatic Milgram","4.0.5","0","h","NA","s","h","NA","h","565.621458023088","NA","9666.669186000945","3578.1897220003884","NA","565.621458023088","2","psycho","1024","2","48000","-16","experiment","SSHSS","5","odd","165074.9912810279","14789.000149001367","154524.36228300212","NA","NA","5066.001864004647","NA","NA","166127.87921002018","5105.628666002303","150943.82954901084","NA","166235.86381800123","166803.72015602188","166118.1851820147","166234.5255840046","Flanker task","88","46672.29985195445","88","1024"
"100","100","528","528","black","psycho","psycho","psycho","congruent","1","undefined","1","s","88","0","0","0","88","0","88","0","88","0","0","0","88","88","88","88","Thu Sep 21 16:27:11 2023","600","The main experiment item","True","Flankertask.osexp","/Users/xaleyelyse/Desktop","False","mono","False","18","no","white","no","yes","768","psycho","8","79","/Users/xaleyelyse/Desktop/xw-subject-5.csv","psycho","Melodramatic Milgram","4.0.5","0","s","NA","s","h","NA","s","325.19489200785756","NA","9666.669186000945","3578.1897220003884","NA","325.19489200785756","2","psycho","1024","2","48000","-16","experiment","SSSSS","5","odd","166808.4673580015","14789.000149001367","154524.36228300212","NA","NA","5066.001864004647","NA","NA","167864.66133402428","5105.628666002303","150943.82954901084","NA","167971.35200700723","168299.22912199982","167854.8029330268","167970.1793740096","Flanker task","89","46997.49474396231","89","1024"
"100","100","528","528","black","psycho","psycho","psycho","incongruent","1","undefined","1","h","89","0","0","0","89","0","89","0","89","0","0","0","89","89","89","89","Thu Sep 21 16:27:11 2023","600","The main experiment item","True","Flankertask.osexp","/Users/xaleyelyse/Desktop","False","mono","False","18","no","white","no","yes","768","psycho","9","79","/Users/xaleyelyse/Desktop/xw-subject-5.csv","psycho","Melodramatic Milgram","4.0.5","0","h","NA","s","h","NA","h","540.30529098236","NA","9666.669186000945","3578.1897220003884","NA","540.30529098236","2","psycho","1024","2","48000","-16","experiment","SSHSS","5","odd","168304.06204602332","14789.000149001367","154524.36228300212","NA","NA","5066.001864004647","NA","NA","169352.29283801164","5105.628666002303","150943.82954901084","NA","169458.23342402582","170000.72237601853","169343.29821300344","169457.0826680283","Flanker task","90","47537.80003494467","90","1024"
"100","100","527","527","black","psycho","psycho","psycho","incongruent","1","undefined","1","s","90","0","0","0","90","0","90","0","90","0","0","0","90","90","90","90","Thu Sep 21 16:27:11 2023","600","The main experiment item","True","Flankertask.osexp","/Users/xaleyelyse/Desktop","False","mono","False","18","no","white","no","yes","768","psycho","10","79","/Users/xaleyelyse/Desktop/xw-subject-5.csv","psycho","Melodramatic Milgram","4.0.5","0","s","NA","s","h","NA","s","479.4154810078908","NA","9666.669186000945","3578.1897220003884","NA","479.4154810078908","2","psycho","1024","2","48000","-16","experiment","HHSHH","5","odd","170005.70043400512","14789.000149001367","154524.36228300212","NA","NA","5066.001864004647","NA","NA","171056.10670300666","5105.628666002303","150943.82954901084","NA","171163.02031101077","171644.70906701172","171046.3718410174","171162.6645810029","Flanker task","91","48017.21551595256","91","1024"
"100","100","528","528","black","psycho","psycho","psycho","congruent","1","undefined","1","h","91","0","0","0","91","0","91","0","91","0","0","0","91","91","91","91","Thu Sep 21 16:27:11 2023","600","The main experiment item","True","Flankertask.osexp","/Users/xaleyelyse/Desktop","False","mono","False","18","no","white","no","yes","768","psycho","11","79","/Users/xaleyelyse/Desktop/xw-subject-5.csv","psycho","Melodramatic Milgram","4.0.5","0","h","NA","s","h","NA","h","618.0066319939215","NA","9666.669186000945","3578.1897220003884","NA","618.0066319939215","2","psycho","1024","2","48000","-16","experiment","HHHHH","5","odd","171650.1108330267","14789.000149001367","154524.36228300212","NA","NA","5066.001864004647","NA","NA","172699.09897900652","5105.628666002303","150943.82954901084","NA","172806.24131602235","173426.59957002616","172688.88141500065","172804.95621101","Flanker task","92","48635.22214794648","92","1024"
"100","100","528","528","black","psycho","psycho","psycho","congruent","1","undefined","1","s","92","0","0","0","92","0","92","0","92","0","0","0","92","92","92","92","Thu Sep 21 16:27:11 2023","600","The main experiment item","True","Flankertask.osexp","/Users/xaleyelyse/Desktop","False","mono","False","18","no","white","no","yes","768","psycho","12","79","/Users/xaleyelyse/Desktop/xw-subject-5.csv","psycho","Melodramatic Milgram","4.0.5","0","s","NA","s","h","NA","s","515.212973987218","NA","9666.669186000945","3578.1897220003884","NA","515.212973987218","2","psycho","1024","2","48000","-16","experiment","SSSSS","5","odd","173940.89318500482","14789.000149001367","154524.36228300212","NA","NA","5066.001864004647","173433.66081401473","NA","174992.3146390065","5105.628666002303","150943.82954901084","NA","175098.9422860148","175616.8992400053","174981.64239901234","175098.637632007","Flanker task","93","49150.4351219337","93","1024"
"98","98","526","526","black","psycho","psycho","psycho","incongruent","0","undefined","0","s","93","0","0","0","93","0","93","0","93","0","0","0","93","93","93","93","Thu Sep 21 16:27:11 2023","600","The main experiment item","True","Flankertask.osexp","/Users/xaleyelyse/Desktop","False","mono","False","18","no","white","no","yes","768","psycho","13","79","/Users/xaleyelyse/Desktop/xw-subject-5.csv","psycho","Melodramatic Milgram","4.0.5","0","h","NA","s","h","NA","h","326.32163498783484","NA","9666.669186000945","3578.1897220003884","NA","326.32163498783484","2","psycho","1024","2","48000","-16","experiment","HHSHH","5","odd","175622.82161501935","14789.000149001367","154524.36228300212","NA","NA","5066.001864004647","173433.66081401473","NA","176672.93456100742","5105.628666002303","150943.82954901084","NA","176779.65333202155","177108.3496400097","176663.20781302056","176778.22949702386","Flanker task","93","49476.75675692153","94","1024"
"98","98","525","525","black","psycho","psycho","psycho","incongruent","1","undefined","1","s","94","0","0","0","94","0","94","0","94","0","0","0","94","94","94","94","Thu Sep 21 16:27:11 2023","600","The main experiment item","True","Flankertask.osexp","/Users/xaleyelyse/Desktop","False","mono","False","18","no","white","no","yes","768","psycho","14","79","/Users/xaleyelyse/Desktop/xw-subject-5.csv","psycho","Melodramatic Milgram","4.0.5","0","s","NA","s","h","NA","s","443.2166939950548","NA","9666.669186000945","3578.1897220003884","NA","443.2166939950548","2","psycho","1024","2","48000","-16","experiment","HHSHH","5","odd","177619.1761830123","14789.000149001367","154524.36228300212","NA","177114.03217702173","5066.001864004647","173433.66081401473","NA","178668.46920302487","5105.628666002303","150943.82954901084","NA","178775.92033101246","179221.55006602407","178658.8513099996","178775.4699610232","Flanker task","94","49919.97345091659","95","1024"
"98","98","525","525","black","psycho","psycho","psycho","congruent","1","undefined","1","s","95","0","0","0","95","0","95","0","95","0","0","0","95","95","95","95","Thu Sep 21 16:27:11 2023","600","The main experiment item","True","Flankertask.osexp","/Users/xaleyelyse/Desktop","False","mono","False","18","no","white","no","yes","768","psycho","15","79","/Users/xaleyelyse/Desktop/xw-subject-5.csv","psycho","Melodramatic Milgram","4.0.5","0","s","NA","s","h","NA","s","496.2945459992625","NA","9666.669186000945","3578.1897220003884","NA","496.2945459992625","2","psycho","1024","2","48000","-16","experiment","SSSSS","5","odd","179225.85623600753","14789.000149001367","154524.36228300212","NA","177114.03217702173","5066.001864004647","173433.66081401473","NA","180282.90710700094","5105.628666002303","150943.82954901084","NA","180388.63837500685","180887.95376900816","180271.6370820126","180387.5201100018","Flanker task","95","50416.26799691585","96","1024"
"98","98","524","524","black","psycho","psycho","psycho","congruent","1","undefined","1","s","96","0","0","0","96","0","96","0","96","0","0","0","96","96","96","96","Thu Sep 21 16:27:11 2023","600","The main experiment item","True","Flankertask.osexp","/Users/xaleyelyse/Desktop","False","mono","False","18","no","white","no","yes","768","psycho","16","79","/Users/xaleyelyse/Desktop/xw-subject-5.csv","psycho","Melodramatic Milgram","4.0.5","0","s","NA","s","h","NA","s","412.8384659998119","NA","9666.669186000945","3578.1897220003884","NA","412.8384659998119","2","psycho","1024","2","48000","-16","experiment","SSSSS","5","odd","180892.6860950014","14789.000149001367","154524.36228300212","NA","177114.03217702173","5066.001864004647","173433.66081401473","NA","181941.51659600902","5105.628666002303","150943.82954901084","NA","182048.03666402586","182463.1953900098","181932.28966902825","182046.8748230196","Flanker task","96","50829.10646291566","97","1024"
"98","98","523","523","black","psycho","psycho","psycho","incongruent","1","undefined","1","s","97","0","0","0","97","0","97","0","97","0","0","0","97","97","97","97","Thu Sep 21 16:27:11 2023","600","The main experiment item","True","Flankertask.osexp","/Users/xaleyelyse/Desktop","False","mono","False","18","no","white","no","yes","768","psycho","17","79","/Users/xaleyelyse/Desktop/xw-subject-5.csv","psycho","Melodramatic Milgram","4.0.5","0","s","NA","s","h","NA","s","483.48909299238585","NA","9666.669186000945","3578.1897220003884","NA","483.48909299238585","2","psycho","1024","2","48000","-16","experiment","HHSHH","5","odd","182468.28558601555","14789.000149001367","154524.36228300212","NA","177114.03217702173","5066.001864004647","173433.66081401473","NA","183522.01756602153","5105.628666002303","150943.82954901084","NA","183628.46096901922","184114.23287302023","183512.44121001218","183627.2529210255","Flanker task","97","51312.59555590805","98","1024"
"98","98","522","522","black","psycho","psycho","psycho","incongruent","1","undefined","1","s","98","0","0","0","98","0","98","0","98","0","0","0","98","98","98","98","Thu Sep 21 16:27:11 2023","600","The main experiment item","True","Flankertask.osexp","/Users/xaleyelyse/Desktop","False","mono","False","18","no","white","no","yes","768","psycho","18","79","/Users/xaleyelyse/Desktop/xw-subject-5.csv","psycho","Melodramatic Milgram","4.0.5","0","s","NA","s","h","NA","s","395.5485240148846","NA","9666.669186000945","3578.1897220003884","NA","395.5485240148846","2","psycho","1024","2","48000","-16","experiment","HHSHH","5","odd","184119.2710820178","14789.000149001367","154524.36228300212","NA","177114.03217702173","5066.001864004647","173433.66081401473","NA","185170.16563002835","5105.628666002303","150943.82954901084","NA","185277.26344400435","185675.27786502615","185159.87530702841","185276.90449202782","Flanker task","98","51708.14407992293","99","1024"
"99","99","521","521","black","psycho","psycho","psycho","congruent","1","undefined","1","h","99","0","0","0","99","0","99","0","99","0","0","0","99","99","99","99","Thu Sep 21 16:27:11 2023","600","The main experiment item","True","Flankertask.osexp","/Users/xaleyelyse/Desktop","False","mono","False","18","no","white","no","yes","768","psycho","19","79","/Users/xaleyelyse/Desktop/xw-subject-5.csv","psycho","Melodramatic Milgram","4.0.5","0","h","NA","s","h","NA","h","406.87772099045105","NA","9666.669186000945","3578.1897220003884","NA","406.87772099045105","2","psycho","1024","2","48000","-16","experiment","HHHHH","5","odd","185680.96923601115","14789.000149001367","154524.36228300212","NA","177114.03217702173","5066.001864004647","173433.66081401473","NA","186729.84113902203","5105.628666002303","150943.82954901084","NA","186836.79094101535","187245.98238701583","186720.69519400247","186836.34086401435","Flanker task","99","52115.02180091338","100","1024"
"99","99","520","520","black","psycho","psycho","psycho","incongruent","1","undefined","1","s","100","0","0","0","100","0","100","0","100","0","0","0","100","100","100","100","Thu Sep 21 16:27:11 2023","600","The main experiment item","True","Flankertask.osexp","/Users/xaleyelyse/Desktop","False","mono","False","18","no","white","no","yes","768","psycho","20","79","/Users/xaleyelyse/Desktop/xw-subject-5.csv","psycho","Melodramatic Milgram","4.0.5","0","s","NA","s","h","NA","s","430.28814799617976","NA","9666.669186000945","3578.1897220003884","NA","430.28814799617976","2","psycho","1024","2","48000","-16","experiment","HHSHH","5","odd","187251.32096302696","14789.000149001367","154524.36228300212","NA","177114.03217702173","5066.001864004647","173433.66081401473","NA","188300.61199402553","5105.628666002303","150943.82954901084","NA","188406.3767690095","188838.93280802295","188290.61677400023","188405.12264400604","Flanker task","100","52545.30994890956","101","1024"
"99","99","519","519","black","psycho","psycho","psycho","congruent","1","undefined","1","h","101","0","0","0","101","0","101","0","101","0","0","0","101","101","101","101","Thu Sep 21 16:27:11 2023","600","The main experiment item","True","Flankertask.osexp","/Users/xaleyelyse/Desktop","False","mono","False","18","no","white","no","yes","768","psycho","21","79","/Users/xaleyelyse/Desktop/xw-subject-5.csv","psycho","Melodramatic Milgram","4.0.5","0","h","NA","s","h","NA","h","446.19272599811666","NA","9666.669186000945","3578.1897220003884","NA","446.19272599811666","2","psycho","1024","2","48000","-16","experiment","HHHHH","5","odd","188843.98516002693","14789.000149001367","154524.36228300212","NA","177114.03217702173","5066.001864004647","173433.66081401473","NA","189893.29309601453","5105.628666002303","150943.82954901084","NA","190000.90584901045","190449.45265600109","189883.50867800182","190000.45666002552","Flanker task","101","52991.50267490768","102","1024"
"99","99","521","521","black","psycho","psycho","psycho","congruent","1","undefined","1","h","102","0","0","0","102","0","102","0","102","0","0","0","102","102","102","102","Thu Sep 21 16:27:11 2023","600","The main experiment item","True","Flankertask.osexp","/Users/xaleyelyse/Desktop","False","mono","False","18","no","white","no","yes","768","psycho","22","79","/Users/xaleyelyse/Desktop/xw-subject-5.csv","psycho","Melodramatic Milgram","4.0.5","0","h","NA","s","h","NA","h","722.5390860112384","NA","9666.669186000945","3578.1897220003884","NA","722.5390860112384","2","psycho","1024","2","48000","-16","experiment","HHHHH","5","odd","190453.75094402698","14789.000149001367","154524.36228300212","NA","177114.03217702173","5066.001864004647","173433.66081401473","NA","191506.7855270172","5105.628666002303","150943.82954901084","NA","191613.92891200376","192338.92733600806","191497.07427300746","191612.55058602546","Flanker task","102","53714.04176091892","103","1024"
"99","99","520","520","black","psycho","psycho","psycho","congruent","1","undefined","1","h","103","0","0","0","103","0","103","0","103","0","0","0","103","103","103","103","Thu Sep 21 16:27:11 2023","600","The main experiment item","True","Flankertask.osexp","/Users/xaleyelyse/Desktop","False","mono","False","18","no","white","no","yes","768","psycho","23","79","/Users/xaleyelyse/Desktop/xw-subject-5.csv","psycho","Melodramatic Milgram","4.0.5","0","h","NA","s","h","NA","h","398.60772099928","NA","9666.669186000945","3578.1897220003884","NA","398.60772099928","2","psycho","1024","2","48000","-16","experiment","HHHHH","5","odd","192854.07968400978","14789.000149001367","154524.36228300212","NA","177114.03217702173","5066.001864004647","192349.69596902374","NA","193903.25114500592","5105.628666002303","150943.82954901084","NA","194009.72934201127","194410.5969260272","193893.24098601355","194008.59633801156","Flanker task","103","54112.6494819182","104","1024"
"98","98","519","519","black","psycho","psycho","psycho","incongruent","0","undefined","0","h","104","0","0","0","104","0","104","0","104","0","0","0","104","104","104","104","Thu Sep 21 16:27:11 2023","600","The main experiment item","True","Flankertask.osexp","/Users/xaleyelyse/Desktop","False","mono","False","18","no","white","no","yes","768","psycho","24","79","/Users/xaleyelyse/Desktop/xw-subject-5.csv","psycho","Melodramatic Milgram","4.0.5","0","s","NA","s","h","NA","s","437.76561997947283","NA","9666.669186000945","3578.1897220003884","NA","437.76561997947283","2","psycho","1024","2","48000","-16","experiment","SSHSS","5","odd","194418.79286701442","14789.000149001367","154524.36228300212","NA","177114.03217702173","5066.001864004647","192349.69596902374","NA","195469.8099750094","5105.628666002303","150943.82954901084","NA","195577.47162802843","196017.70587300416","195460.2560820058","195577.0165740105","Flanker task","103","54550.41510189767","105","1024"
"98","98","519","519","black","psycho","psycho","psycho","incongruent","1","undefined","1","h","105","0","0","0","105","0","105","0","105","0","0","0","105","105","105","105","Thu Sep 21 16:27:11 2023","600","The main experiment item","True","Flankertask.osexp","/Users/xaleyelyse/Desktop","False","mono","False","18","no","white","no","yes","768","psycho","25","79","/Users/xaleyelyse/Desktop/xw-subject-5.csv","psycho","Melodramatic Milgram","4.0.5","0","h","NA","s","h","NA","h","504.8250630206894","NA","9666.669186000945","3578.1897220003884","NA","504.8250630206894","2","psycho","1024","2","48000","-16","experiment","SSHSS","5","odd","196527.40004300722","14789.000149001367","154524.36228300212","NA","196022.64737401856","5066.001864004647","192349.69596902374","NA","197577.04188802745","5105.628666002303","150943.82954901084","NA","197683.6718340055","198190.867961006","197566.63260201458","197683.35730500985","Flanker task","104","55055.24016491836","106","1024"
"98","98","518","518","black","psycho","psycho","psycho","congruent","1","undefined","1","h","106","0","0","0","106","0","106","0","106","0","0","0","106","106","106","106","Thu Sep 21 16:27:11 2023","600","The main experiment item","True","Flankertask.osexp","/Users/xaleyelyse/Desktop","False","mono","False","18","no","white","no","yes","768","psycho","26","79","/Users/xaleyelyse/Desktop/xw-subject-5.csv","psycho","Melodramatic Milgram","4.0.5","0","h","NA","s","h","NA","h","404.9979449773673","NA","9666.669186000945","3578.1897220003884","NA","404.9979449773673","2","psycho","1024","2","48000","-16","experiment","HHHHH","5","odd","198196.18854200235","14789.000149001367","154524.36228300212","NA","196022.64737401856","5066.001864004647","192349.69596902374","NA","199245.54248101776","5105.628666002303","150943.82954901084","NA","199353.08524902212","199760.6594840181","199235.07036201772","199351.70782002388","Flanker task","105","55460.23810989573","107","1024"
"98","98","517","517","black","psycho","psycho","psycho","incongruent","1","undefined","1","h","107","0","0","0","107","0","107","0","107","0","0","0","107","107","107","107","Thu Sep 21 16:27:11 2023","600","The main experiment item","True","Flankertask.osexp","/Users/xaleyelyse/Desktop","False","mono","False","18","no","white","no","yes","768","psycho","27","79","/Users/xaleyelyse/Desktop/xw-subject-5.csv","psycho","Melodramatic Milgram","4.0.5","0","h","NA","s","h","NA","h","445.08526200661436","NA","9666.669186000945","3578.1897220003884","NA","445.08526200661436","2","psycho","1024","2","48000","-16","experiment","SSHSS","5","odd","199769.0496170253","14789.000149001367","154524.36228300212","NA","196022.64737401856","5066.001864004647","192349.69596902374","NA","200817.22273601918","5105.628666002303","150943.82954901084","NA","200922.93275901466","201370.27374401805","200807.2627550282","200921.79892401327","Flanker task","106","55905.32337190234","108","1024"
