"acc","accuracy","average_response_time","avg_rt","background","canvas_backend","clock_backend","color_backend","condition","correct","correct_Instuctions1","correct_keyboard_response","correct_response","count_Block1","count_Block2","count_Block3","count_ISI","count_Instructions2","count_Instructions3","count_Instuctions1","count_errorFeedback","count_experiment","count_faster","count_finish","count_fixation","count_keyboard_response","count_logger","count_sequence","count_stimulus","datetime","deadline","description","disable_garbage_collection","experiment_file","experiment_path","font_bold","font_family","font_italic","font_size","font_underline","foreground","form_clicks","fullscreen","height","keyboard_backend","live_row","live_row_Block1","logfile","mouse_backend","opensesame_codename","opensesame_version","repeat_cycle","response","response_Instructions2","response_Instructions3","response_Instuctions1","response_finish","response_keyboard_response","response_time","response_time_Instructions2","response_time_Instructions3","response_time_Instuctions1","response_time_finish","response_time_keyboard_response","round_decimals","sampler_backend","sound_buf_size","sound_channels","sound_freq","sound_sample_size","start","stimulus","subject_nr","subject_parity","time_Block1","time_Block2","time_Block3","time_ISI","time_Instructions2","time_Instructions3","time_Instuctions1","time_errorFeedback","time_experiment","time_faster","time_finish","time_fixation","time_keyboard_response","time_logger","time_sequence","time_stimulus","title","total_correct","total_response_time","total_responses","width"
"0","0","1500","1500","#000000","legacy","legacy","legacy","congruent","0","undefined","0","h","0","0","0","0","0","0","0","0","0","0","0","0","0","0","0","0","Fri Sep 22 20:17:18 2023","1500","The main experiment item","True","FlankerTask.osexp","C:\Users\Hannah Laskoskie\Downloads","False","mono","False","18","no","white","no","yes","768","legacy","0","0","C:/Users/Hannah Laskoskie/Downloads/HL-subject-2.csv","legacy","Melodramatic Milgram","4.0.5","0","None","NA","NA","right ctrl","NA","None","1500.0","NA","NA","34891","NA","1500","2","legacy","1024","2","48000","-16","experiment","HHHHH","2","even","38102","NA","NA","NA","NA","NA","3210","NA","3208","NA","NA","38152","38253","39753","38151","38253","Flanker Task","0","1500.0","1","1024"
"50","50","1115","1115","#000000","legacy","legacy","legacy","incongruent","1","undefined","1","h","0","0","0","1","0","0","0","1","0","1","0","1","1","1","1","1","Fri Sep 22 20:17:18 2023","1500","The main experiment item","True","FlankerTask.osexp","C:\Users\Hannah Laskoskie\Downloads","False","mono","False","18","no","white","no","yes","768","legacy","1","1","C:/Users/Hannah Laskoskie/Downloads/HL-subject-2.csv","legacy","Melodramatic Milgram","4.0.5","0","h","NA","NA","right ctrl","NA","h","730.0","NA","NA","34891","NA","730","2","legacy","1024","2","48000","-16","experiment","SSHSS","2","even","38102","NA","NA","40259","NA","NA","3210","39758","3208","NA","NA","41293","41394","42125","41292","41394","Flanker Task","1","2230.0","2","1024"
"66","66","969","969","#000000","legacy","legacy","legacy","congruent","1","undefined","1","s","0","0","0","2","0","0","0","2","0","2","0","2","2","2","2","2","Fri Sep 22 20:17:18 2023","1500","The main experiment item","True","FlankerTask.osexp","C:\Users\Hannah Laskoskie\Downloads","False","mono","False","18","no","white","no","yes","768","legacy","2","2","C:/Users/Hannah Laskoskie/Downloads/HL-subject-2.csv","legacy","Melodramatic Milgram","4.0.5","0","s","NA","NA","right ctrl","NA","s","677.0","NA","NA","34891","NA","677","2","legacy","1024","2","48000","-16","experiment","SSSSS","2","even","38102","NA","NA","42128","NA","NA","3210","39758","3208","NA","NA","43156","43256","43934","43154","43256","Flanker Task","2","2907.0","3","1024"
"75","75","850","850","#000000","legacy","legacy","legacy","congruent","1","undefined","1","h","0","0","0","3","0","0","0","3","0","3","0","3","3","3","3","3","Fri Sep 22 20:17:18 2023","1500","The main experiment item","True","FlankerTask.osexp","C:\Users\Hannah Laskoskie\Downloads","False","mono","False","18","no","white","no","yes","768","legacy","3","3","C:/Users/Hannah Laskoskie/Downloads/HL-subject-2.csv","legacy","Melodramatic Milgram","4.0.5","0","h","NA","NA","right ctrl","NA","h","495.0","NA","NA","34891","NA","495","2","legacy","1024","2","48000","-16","experiment","HHHHH","2","even","38102","NA","NA","43937","NA","NA","3210","39758","3208","NA","NA","44966","45067","45563","44964","45066","Flanker Task","3","3402.0","4","1024"
"60","60","777","777","#000000","legacy","legacy","legacy","incongruent","0","undefined","0","s","0","0","0","4","0","0","0","4","0","4","0","4","4","4","4","4","Fri Sep 22 20:17:18 2023","1500","The main experiment item","True","FlankerTask.osexp","C:\Users\Hannah Laskoskie\Downloads","False","mono","False","18","no","white","no","yes","768","legacy","4","4","C:/Users/Hannah Laskoskie/Downloads/HL-subject-2.csv","legacy","Melodramatic Milgram","4.0.5","0","h","NA","NA","right ctrl","NA","h","483.0","NA","NA","34891","NA","483","2","legacy","1024","2","48000","-16","experiment","HHSHH","2","even","38102","NA","NA","45565","NA","NA","3210","39758","3208","NA","NA","46595","46695","47179","46594","46695","Flanker Task","3","3885.0","5","1024"
"66","66","777","777","#000000","legacy","legacy","legacy","incongruent","1","undefined","1","h","0","0","0","5","0","0","0","5","0","5","0","5","5","5","5","5","Fri Sep 22 20:17:18 2023","1500","The main experiment item","True","FlankerTask.osexp","C:\Users\Hannah Laskoskie\Downloads","False","mono","False","18","no","white","no","yes","768","legacy","5","5","C:/Users/Hannah Laskoskie/Downloads/HL-subject-2.csv","legacy","Melodramatic Milgram","4.0.5","0","h","NA","NA","right ctrl","NA","h","781.0","NA","NA","34891","NA","781","2","legacy","1024","2","48000","-16","experiment","SSHSS","2","even","38102","NA","NA","47689","NA","NA","3210","47188","3208","NA","NA","48713","48813","49594","48712","48813","Flanker Task","4","4666.0","6","1024"
"57","57","746","746","#000000","legacy","legacy","legacy","congruent","0","undefined","0","s","0","0","0","6","0","0","0","6","0","6","0","6","6","6","6","6","Fri Sep 22 20:17:18 2023","1500","The main experiment item","True","FlankerTask.osexp","C:\Users\Hannah Laskoskie\Downloads","False","mono","False","18","no","white","no","yes","768","legacy","6","6","C:/Users/Hannah Laskoskie/Downloads/HL-subject-2.csv","legacy","Melodramatic Milgram","4.0.5","0","h","NA","NA","right ctrl","NA","h","562.0","NA","NA","34891","NA","562","2","legacy","1024","2","48000","-16","experiment","SSSSS","2","even","38102","NA","NA","49604","NA","NA","3210","47188","3208","NA","NA","50629","50729","51292","50628","50729","Flanker Task","4","5228.0","7","1024"
"62","62","724","724","#000000","legacy","legacy","legacy","congruent","1","undefined","1","h","0","0","0","7","0","0","0","7","0","7","0","7","7","7","7","7","Fri Sep 22 20:17:18 2023","1500","The main experiment item","True","FlankerTask.osexp","C:\Users\Hannah Laskoskie\Downloads","False","mono","False","18","no","white","no","yes","768","legacy","7","7","C:/Users/Hannah Laskoskie/Downloads/HL-subject-2.csv","legacy","Melodramatic Milgram","4.0.5","0","h","NA","NA","right ctrl","NA","h","564.0","NA","NA","34891","NA","564","2","legacy","1024","2","48000","-16","experiment","HHHHH","2","even","38102","NA","NA","51794","NA","NA","3210","51294","3208","NA","NA","52821","52921","53486","52819","52921","Flanker Task","5","5792.0","8","1024"
"66","66","715","715","#000000","legacy","legacy","legacy","incongruent","1","undefined","1","s","0","0","0","8","0","0","0","8","0","8","0","8","8","8","8","8","Fri Sep 22 20:17:18 2023","1500","The main experiment item","True","FlankerTask.osexp","C:\Users\Hannah Laskoskie\Downloads","False","mono","False","18","no","white","no","yes","768","legacy","8","8","C:/Users/Hannah Laskoskie/Downloads/HL-subject-2.csv","legacy","Melodramatic Milgram","4.0.5","0","s","NA","NA","right ctrl","NA","s","643.0","NA","NA","34891","NA","643","2","legacy","1024","2","48000","-16","experiment","HHSHH","2","even","38102","NA","NA","53495","NA","NA","3210","51294","3208","NA","NA","54528","54629","55272","54527","54629","Flanker Task","6","6435.0","9","1024"
"70","70","751","751","#000000","legacy","legacy","legacy","incongruent","1","undefined","1","h","0","0","0","9","0","0","0","9","0","9","0","9","9","9","9","9","Fri Sep 22 20:17:18 2023","1500","The main experiment item","True","FlankerTask.osexp","C:\Users\Hannah Laskoskie\Downloads","False","mono","False","18","no","white","no","yes","768","legacy","9","9","C:/Users/Hannah Laskoskie/Downloads/HL-subject-2.csv","legacy","Melodramatic Milgram","4.0.5","0","h","NA","NA","right ctrl","NA","h","1080.0","NA","NA","34891","NA","1080","2","legacy","1024","2","48000","-16","experiment","SSHSS","2","even","38102","NA","NA","55281","NA","NA","3210","51294","3208","NA","NA","56309","56411","57491","56307","56411","Flanker Task","7","7515.0","10","1024"
"72","72","732","732","#000000","legacy","legacy","legacy","congruent","1","undefined","1","s","0","0","0","10","0","0","0","10","0","10","0","10","10","10","10","10","Fri Sep 22 20:17:18 2023","1500","The main experiment item","True","FlankerTask.osexp","C:\Users\Hannah Laskoskie\Downloads","False","mono","False","18","no","white","no","yes","768","legacy","10","10","C:/Users/Hannah Laskoskie/Downloads/HL-subject-2.csv","legacy","Melodramatic Milgram","4.0.5","0","s","NA","NA","right ctrl","NA","s","540.0","NA","NA","34891","NA","540","2","legacy","1024","2","48000","-16","experiment","SSSSS","2","even","38102","NA","NA","57501","NA","NA","3210","51294","3208","NA","NA","58537","58638","59179","58528","58638","Flanker Task","8","8055.0","11","1024"
"75","75","723","723","#000000","legacy","legacy","legacy","incongruent","1","undefined","1","s","0","0","0","11","0","0","0","11","0","11","0","11","11","11","11","11","Fri Sep 22 20:17:18 2023","1500","The main experiment item","True","FlankerTask.osexp","C:\Users\Hannah Laskoskie\Downloads","False","mono","False","18","no","white","no","yes","768","legacy","11","11","C:/Users/Hannah Laskoskie/Downloads/HL-subject-2.csv","legacy","Melodramatic Milgram","4.0.5","0","s","NA","NA","right ctrl","NA","s","621.0","NA","NA","34891","NA","621","2","legacy","1024","2","48000","-16","experiment","HHSHH","2","even","38102","NA","NA","59187","NA","NA","3210","51294","3208","NA","NA","60215","60315","60938","60213","60315","Flanker Task","9","8676.0","12","1024"
"76","76","703","703","#000000","legacy","legacy","legacy","congruent","1","undefined","1","h","0","0","0","12","0","0","0","12","0","12","0","12","12","12","12","12","Fri Sep 22 20:17:18 2023","1500","The main experiment item","True","FlankerTask.osexp","C:\Users\Hannah Laskoskie\Downloads","False","mono","False","18","no","white","no","yes","768","legacy","12","12","C:/Users/Hannah Laskoskie/Downloads/HL-subject-2.csv","legacy","Melodramatic Milgram","4.0.5","0","h","NA","NA","right ctrl","NA","h","469.0","NA","NA","34891","NA","469","2","legacy","1024","2","48000","-16","experiment","HHHHH","2","even","38102","NA","NA","60939","NA","NA","3210","51294","3208","NA","NA","61971","62072","62542","61969","62072","Flanker Task","10","9145.0","13","1024"
"78","78","690","690","#000000","legacy","legacy","legacy","incongruent","1","undefined","1","s","0","0","0","13","0","0","0","13","0","13","0","13","13","13","13","13","Fri Sep 22 20:17:18 2023","1500","The main experiment item","True","FlankerTask.osexp","C:\Users\Hannah Laskoskie\Downloads","False","mono","False","18","no","white","no","yes","768","legacy","13","13","C:/Users/Hannah Laskoskie/Downloads/HL-subject-2.csv","legacy","Melodramatic Milgram","4.0.5","0","s","NA","NA","right ctrl","NA","s","524.0","NA","NA","34891","NA","524","2","legacy","1024","2","48000","-16","experiment","HHSHH","2","even","38102","NA","NA","62543","NA","NA","3210","51294","3208","NA","NA","63570","63671","64195","63569","63670","Flanker Task","11","9669.0","14","1024"
"80","80","674","674","#000000","legacy","legacy","legacy","congruent","1","undefined","1","h","0","0","0","14","0","0","0","14","0","14","0","14","14","14","14","14","Fri Sep 22 20:17:18 2023","1500","The main experiment item","True","FlankerTask.osexp","C:\Users\Hannah Laskoskie\Downloads","False","mono","False","18","no","white","no","yes","768","legacy","14","14","C:/Users/Hannah Laskoskie/Downloads/HL-subject-2.csv","legacy","Melodramatic Milgram","4.0.5","0","h","NA","NA","right ctrl","NA","h","446.0","NA","NA","34891","NA","446","2","legacy","1024","2","48000","-16","experiment","HHHHH","2","even","38102","NA","NA","64204","NA","NA","3210","51294","3208","NA","NA","65238","65338","65784","65236","65338","Flanker Task","12","10115.0","15","1024"
"81","81","669","669","#000000","legacy","legacy","legacy","incongruent","1","undefined","1","s","0","0","0","15","0","0","0","15","0","15","0","15","15","15","15","15","Fri Sep 22 20:17:18 2023","1500","The main experiment item","True","FlankerTask.osexp","C:\Users\Hannah Laskoskie\Downloads","False","mono","False","18","no","white","no","yes","768","legacy","15","15","C:/Users/Hannah Laskoskie/Downloads/HL-subject-2.csv","legacy","Melodramatic Milgram","4.0.5","0","s","NA","NA","right ctrl","NA","s","594.0","NA","NA","34891","NA","594","2","legacy","1024","2","48000","-16","experiment","HHSHH","2","even","38102","NA","NA","65787","NA","NA","3210","51294","3208","NA","NA","66816","66917","67511","66815","66916","Flanker Task","13","10709.0","16","1024"
"82","82","654","654","#000000","legacy","legacy","legacy","congruent","1","undefined","1","s","0","0","0","16","0","0","0","16","0","16","0","16","16","16","16","16","Fri Sep 22 20:17:18 2023","1500","The main experiment item","True","FlankerTask.osexp","C:\Users\Hannah Laskoskie\Downloads","False","mono","False","18","no","white","no","yes","768","legacy","16","16","C:/Users/Hannah Laskoskie/Downloads/HL-subject-2.csv","legacy","Melodramatic Milgram","4.0.5","0","s","NA","NA","right ctrl","NA","s","409.0","NA","NA","34891","NA","409","2","legacy","1024","2","48000","-16","experiment","SSSSS","2","even","38102","NA","NA","67513","NA","NA","3210","51294","3208","NA","NA","68552","68652","69062","68550","68652","Flanker Task","14","11118.0","17","1024"
"83","83","648","648","#000000","legacy","legacy","legacy","congruent","1","undefined","1","s","0","0","0","17","0","0","0","17","0","17","0","17","17","17","17","17","Fri Sep 22 20:17:18 2023","1500","The main experiment item","True","FlankerTask.osexp","C:\Users\Hannah Laskoskie\Downloads","False","mono","False","18","no","white","no","yes","768","legacy","17","17","C:/Users/Hannah Laskoskie/Downloads/HL-subject-2.csv","legacy","Melodramatic Milgram","4.0.5","0","s","NA","NA","right ctrl","NA","s","549.0","NA","NA","34891","NA","549","2","legacy","1024","2","48000","-16","experiment","SSSSS","2","even","38102","NA","NA","69064","NA","NA","3210","51294","3208","NA","NA","70094","70195","70744","70092","70195","Flanker Task","15","11667.0","18","1024"
"84","84","634","634","#000000","legacy","legacy","legacy","incongruent","1","undefined","1","s","0","0","0","18","0","0","0","18","0","18","0","18","18","18","18","18","Fri Sep 22 20:17:18 2023","1500","The main experiment item","True","FlankerTask.osexp","C:\Users\Hannah Laskoskie\Downloads","False","mono","False","18","no","white","no","yes","768","legacy","18","18","C:/Users/Hannah Laskoskie/Downloads/HL-subject-2.csv","legacy","Melodramatic Milgram","4.0.5","0","s","NA","NA","right ctrl","NA","s","379.0","NA","NA","34891","NA","379","2","legacy","1024","2","48000","-16","experiment","HHSHH","2","even","38102","NA","NA","70747","NA","NA","3210","51294","3208","NA","NA","71772","71872","72252","71771","71872","Flanker Task","16","12046.0","19","1024"
"80","80","622","622","#000000","legacy","legacy","legacy","incongruent","0","undefined","0","h","0","0","0","19","0","0","0","19","0","19","0","19","19","19","19","19","Fri Sep 22 20:17:18 2023","1500","The main experiment item","True","FlankerTask.osexp","C:\Users\Hannah Laskoskie\Downloads","False","mono","False","18","no","white","no","yes","768","legacy","19","19","C:/Users/Hannah Laskoskie/Downloads/HL-subject-2.csv","legacy","Melodramatic Milgram","4.0.5","0","s","NA","NA","right ctrl","NA","s","407.0","NA","NA","34891","NA","407","2","legacy","1024","2","48000","-16","experiment","SSHSS","2","even","38102","NA","NA","72254","NA","NA","3210","51294","3208","NA","NA","73285","73385","73793","73284","73385","Flanker Task","16","12453.0","20","1024"
"80","80","617","617","#000000","legacy","legacy","legacy","congruent","1","undefined","1","s","0","0","0","20","0","0","0","20","0","20","0","20","20","20","20","20","Fri Sep 22 20:17:18 2023","1500","The main experiment item","True","FlankerTask.osexp","C:\Users\Hannah Laskoskie\Downloads","False","mono","False","18","no","white","no","yes","768","legacy","20","20","C:/Users/Hannah Laskoskie/Downloads/HL-subject-2.csv","legacy","Melodramatic Milgram","4.0.5","0","s","NA","NA","right ctrl","NA","s","518.0","NA","NA","34891","NA","518","2","legacy","1024","2","48000","-16","experiment","SSSSS","2","even","38102","NA","NA","74295","NA","NA","3210","73795","3208","NA","NA","75321","75421","75941","75320","75421","Flanker Task","17","12971.0","21","1024"
"81","81","609","609","#000000","legacy","legacy","legacy","congruent","1","undefined","1","s","0","0","0","21","0","0","0","21","0","21","0","21","21","21","21","21","Fri Sep 22 20:17:18 2023","1500","The main experiment item","True","FlankerTask.osexp","C:\Users\Hannah Laskoskie\Downloads","False","mono","False","18","no","white","no","yes","768","legacy","21","21","C:/Users/Hannah Laskoskie/Downloads/HL-subject-2.csv","legacy","Melodramatic Milgram","4.0.5","0","s","NA","NA","right ctrl","NA","s","432.0","NA","NA","34891","NA","432","2","legacy","1024","2","48000","-16","experiment","SSSSS","2","even","38102","NA","NA","75947","NA","NA","3210","73795","3208","NA","NA","76974","77076","77508","76972","77076","Flanker Task","18","13403.0","22","1024"
"82","82","602","602","#000000","legacy","legacy","legacy","incongruent","1","undefined","1","s","0","0","0","22","0","0","0","22","0","22","0","22","22","22","22","22","Fri Sep 22 20:17:18 2023","1500","The main experiment item","True","FlankerTask.osexp","C:\Users\Hannah Laskoskie\Downloads","False","mono","False","18","no","white","no","yes","768","legacy","22","22","C:/Users/Hannah Laskoskie/Downloads/HL-subject-2.csv","legacy","Melodramatic Milgram","4.0.5","0","s","NA","NA","right ctrl","NA","s","446.0","NA","NA","34891","NA","446","2","legacy","1024","2","48000","-16","experiment","HHSHH","2","even","38102","NA","NA","77512","NA","NA","3210","73795","3208","NA","NA","78537","78638","79085","78535","78638","Flanker Task","19","13849.0","23","1024"
"83","83","596","596","#000000","legacy","legacy","legacy","congruent","1","undefined","1","s","0","0","0","23","0","0","0","23","0","23","0","23","23","23","23","23","Fri Sep 22 20:17:18 2023","1500","The main experiment item","True","FlankerTask.osexp","C:\Users\Hannah Laskoskie\Downloads","False","mono","False","18","no","white","no","yes","768","legacy","23","23","C:/Users/Hannah Laskoskie/Downloads/HL-subject-2.csv","legacy","Melodramatic Milgram","4.0.5","0","s","NA","NA","right ctrl","NA","s","455.0","NA","NA","34891","NA","455","2","legacy","1024","2","48000","-16","experiment","SSSSS","2","even","38102","NA","NA","79088","NA","NA","3210","73795","3208","NA","NA","80114","80215","80671","80113","80214","Flanker Task","20","14304.0","24","1024"
"84","84","589","589","#000000","legacy","legacy","legacy","congruent","1","undefined","1","h","0","0","0","24","0","0","0","24","0","24","0","24","24","24","24","24","Fri Sep 22 20:17:18 2023","1500","The main experiment item","True","FlankerTask.osexp","C:\Users\Hannah Laskoskie\Downloads","False","mono","False","18","no","white","no","yes","768","legacy","24","24","C:/Users/Hannah Laskoskie/Downloads/HL-subject-2.csv","legacy","Melodramatic Milgram","4.0.5","0","h","NA","NA","right ctrl","NA","h","439.0","NA","NA","34891","NA","439","2","legacy","1024","2","48000","-16","experiment","HHHHH","2","even","38102","NA","NA","80673","NA","NA","3210","73795","3208","NA","NA","81705","81806","82246","81703","81806","Flanker Task","21","14743.0","25","1024"
"80","80","585","585","#000000","legacy","legacy","legacy","incongruent","0","undefined","0","h","0","0","0","25","0","0","0","25","0","25","0","25","25","25","25","25","Fri Sep 22 20:17:18 2023","1500","The main experiment item","True","FlankerTask.osexp","C:\Users\Hannah Laskoskie\Downloads","False","mono","False","18","no","white","no","yes","768","legacy","25","25","C:/Users/Hannah Laskoskie/Downloads/HL-subject-2.csv","legacy","Melodramatic Milgram","4.0.5","0","s","NA","NA","right ctrl","NA","s","482.0","NA","NA","34891","NA","482","2","legacy","1024","2","48000","-16","experiment","SSHSS","2","even","38102","NA","NA","82248","NA","NA","3210","73795","3208","NA","NA","83276","83377","83860","83274","83377","Flanker Task","21","15225.0","26","1024"
"81","81","586","586","#000000","legacy","legacy","legacy","congruent","1","undefined","1","h","0","0","0","26","0","0","0","26","0","26","0","26","26","26","26","26","Fri Sep 22 20:17:18 2023","1500","The main experiment item","True","FlankerTask.osexp","C:\Users\Hannah Laskoskie\Downloads","False","mono","False","18","no","white","no","yes","768","legacy","26","26","C:/Users/Hannah Laskoskie/Downloads/HL-subject-2.csv","legacy","Melodramatic Milgram","4.0.5","0","h","NA","NA","right ctrl","NA","h","603.0","NA","NA","34891","NA","603","2","legacy","1024","2","48000","-16","experiment","HHHHH","2","even","38102","NA","NA","84363","NA","NA","3210","83863","3208","NA","NA","85400","85501","86106","85398","85500","Flanker Task","22","15828.0","27","1024"
"82","82","581","581","#000000","legacy","legacy","legacy","incongruent","1","undefined","1","s","0","0","0","27","0","0","0","27","0","27","0","27","27","27","27","27","Fri Sep 22 20:17:18 2023","1500","The main experiment item","True","FlankerTask.osexp","C:\Users\Hannah Laskoskie\Downloads","False","mono","False","18","no","white","no","yes","768","legacy","27","27","C:/Users/Hannah Laskoskie/Downloads/HL-subject-2.csv","legacy","Melodramatic Milgram","4.0.5","0","s","NA","NA","right ctrl","NA","s","444.0","NA","NA","34891","NA","444","2","legacy","1024","2","48000","-16","experiment","HHSHH","2","even","38102","NA","NA","86109","NA","NA","3210","83863","3208","NA","NA","87137","87237","87682","87135","87237","Flanker Task","23","16272.0","28","1024"
"82","82","590","590","#000000","legacy","legacy","legacy","congruent","1","undefined","1","s","0","0","0","28","0","0","0","28","0","28","0","28","28","28","28","28","Fri Sep 22 20:17:18 2023","1500","The main experiment item","True","FlankerTask.osexp","C:\Users\Hannah Laskoskie\Downloads","False","mono","False","18","no","white","no","yes","768","legacy","28","28","C:/Users/Hannah Laskoskie/Downloads/HL-subject-2.csv","legacy","Melodramatic Milgram","4.0.5","0","s","NA","NA","right ctrl","NA","s","852.0","NA","NA","34891","NA","852","2","legacy","1024","2","48000","-16","experiment","SSSSS","2","even","38102","NA","NA","87686","NA","NA","3210","83863","3208","NA","NA","88711","88812","89664","88710","88811","Flanker Task","24","17124.0","29","1024"
"83","83","586","586","#000000","legacy","legacy","legacy","incongruent","1","undefined","1","h","0","0","0","29","0","0","0","29","0","29","0","29","29","29","29","29","Fri Sep 22 20:17:18 2023","1500","The main experiment item","True","FlankerTask.osexp","C:\Users\Hannah Laskoskie\Downloads","False","mono","False","18","no","white","no","yes","768","legacy","29","29","C:/Users/Hannah Laskoskie/Downloads/HL-subject-2.csv","legacy","Melodramatic Milgram","4.0.5","0","h","NA","NA","right ctrl","NA","h","481.0","NA","NA","34891","NA","481","2","legacy","1024","2","48000","-16","experiment","SSHSS","2","even","38102","NA","NA","89666","NA","NA","3210","83863","3208","NA","NA","90692","90793","91274","90691","90793","Flanker Task","25","17605.0","30","1024"
"83","83","585","585","#000000","legacy","legacy","legacy","incongruent","1","undefined","1","s","0","0","0","30","0","0","0","30","0","30","0","30","30","30","30","30","Fri Sep 22 20:17:18 2023","1500","The main experiment item","True","FlankerTask.osexp","C:\Users\Hannah Laskoskie\Downloads","False","mono","False","18","no","white","no","yes","768","legacy","30","30","C:/Users/Hannah Laskoskie/Downloads/HL-subject-2.csv","legacy","Melodramatic Milgram","4.0.5","0","s","NA","NA","right ctrl","NA","s","544.0","NA","NA","34891","NA","544","2","legacy","1024","2","48000","-16","experiment","HHSHH","2","even","38102","NA","NA","91276","NA","NA","3210","83863","3208","NA","NA","92301","92402","92947","92300","92401","Flanker Task","26","18149.0","31","1024"
"84","84","583","583","#000000","legacy","legacy","legacy","incongruent","1","undefined","1","h","0","0","0","31","0","0","0","31","0","31","0","31","31","31","31","31","Fri Sep 22 20:17:18 2023","1500","The main experiment item","True","FlankerTask.osexp","C:\Users\Hannah Laskoskie\Downloads","False","mono","False","18","no","white","no","yes","768","legacy","31","31","C:/Users/Hannah Laskoskie/Downloads/HL-subject-2.csv","legacy","Melodramatic Milgram","4.0.5","0","h","NA","NA","right ctrl","NA","h","536.0","NA","NA","34891","NA","536","2","legacy","1024","2","48000","-16","experiment","SSHSS","2","even","38102","NA","NA","92948","NA","NA","3210","83863","3208","NA","NA","93975","94076","94613","93973","94076","Flanker Task","27","18685.0","32","1024"
"84","84","580","580","#000000","legacy","legacy","legacy","incongruent","1","undefined","1","s","0","0","0","32","0","0","0","32","0","32","0","32","32","32","32","32","Fri Sep 22 20:17:18 2023","1500","The main experiment item","True","FlankerTask.osexp","C:\Users\Hannah Laskoskie\Downloads","False","mono","False","18","no","white","no","yes","768","legacy","32","32","C:/Users/Hannah Laskoskie/Downloads/HL-subject-2.csv","legacy","Melodramatic Milgram","4.0.5","0","s","NA","NA","right ctrl","NA","s","476.0","NA","NA","34891","NA","476","2","legacy","1024","2","48000","-16","experiment","HHSHH","2","even","38102","NA","NA","94616","NA","NA","3210","83863","3208","NA","NA","95647","95747","96224","95646","95747","Flanker Task","28","19161.0","33","1024"
"85","85","575","575","#000000","legacy","legacy","legacy","incongruent","1","undefined","1","h","0","0","0","33","0","0","0","33","0","33","0","33","33","33","33","33","Fri Sep 22 20:17:18 2023","1500","The main experiment item","True","FlankerTask.osexp","C:\Users\Hannah Laskoskie\Downloads","False","mono","False","18","no","white","no","yes","768","legacy","33","33","C:/Users/Hannah Laskoskie/Downloads/HL-subject-2.csv","legacy","Melodramatic Milgram","4.0.5","0","h","NA","NA","right ctrl","NA","h","396.0","NA","NA","34891","NA","396","2","legacy","1024","2","48000","-16","experiment","SSHSS","2","even","38102","NA","NA","96226","NA","NA","3210","83863","3208","NA","NA","97256","97357","97753","97255","97357","Flanker Task","29","19557.0","34","1024"
"85","85","572","572","#000000","legacy","legacy","legacy","congruent","1","undefined","1","s","0","0","0","34","0","0","0","34","0","34","0","34","34","34","34","34","Fri Sep 22 20:17:18 2023","1500","The main experiment item","True","FlankerTask.osexp","C:\Users\Hannah Laskoskie\Downloads","False","mono","False","18","no","white","no","yes","768","legacy","34","34","C:/Users/Hannah Laskoskie/Downloads/HL-subject-2.csv","legacy","Melodramatic Milgram","4.0.5","0","s","NA","NA","right ctrl","NA","s","467.0","NA","NA","34891","NA","467","2","legacy","1024","2","48000","-16","experiment","SSSSS","2","even","38102","NA","NA","97756","NA","NA","3210","83863","3208","NA","NA","98787","98888","99356","98786","98888","Flanker Task","30","20024.0","35","1024"
"86","86","567","567","#000000","legacy","legacy","legacy","congruent","1","undefined","1","s","0","0","0","35","0","0","0","35","0","35","0","35","35","35","35","35","Fri Sep 22 20:17:18 2023","1500","The main experiment item","True","FlankerTask.osexp","C:\Users\Hannah Laskoskie\Downloads","False","mono","False","18","no","white","no","yes","768","legacy","35","35","C:/Users/Hannah Laskoskie/Downloads/HL-subject-2.csv","legacy","Melodramatic Milgram","4.0.5","0","s","NA","NA","right ctrl","NA","s","416.0","NA","NA","34891","NA","416","2","legacy","1024","2","48000","-16","experiment","SSSSS","2","even","38102","NA","NA","99359","NA","NA","3210","83863","3208","NA","NA","100389","100490","100907","100388","100490","Flanker Task","31","20440.0","36","1024"
"86","86","569","569","#000000","legacy","legacy","legacy","incongruent","1","undefined","1","h","0","0","0","36","0","0","0","36","0","36","0","36","36","36","36","36","Fri Sep 22 20:17:18 2023","1500","The main experiment item","True","FlankerTask.osexp","C:\Users\Hannah Laskoskie\Downloads","False","mono","False","18","no","white","no","yes","768","legacy","36","36","C:/Users/Hannah Laskoskie/Downloads/HL-subject-2.csv","legacy","Melodramatic Milgram","4.0.5","0","h","NA","NA","right ctrl","NA","h","616.0","NA","NA","34891","NA","616","2","legacy","1024","2","48000","-16","experiment","SSHSS","2","even","38102","NA","NA","100909","NA","NA","3210","83863","3208","NA","NA","101936","102037","102654","101934","102037","Flanker Task","32","21056.0","37","1024"
"86","86","569","569","#000000","legacy","legacy","legacy","incongruent","1","undefined","1","s","0","0","0","37","0","0","0","37","0","37","0","37","37","37","37","37","Fri Sep 22 20:17:18 2023","1500","The main experiment item","True","FlankerTask.osexp","C:\Users\Hannah Laskoskie\Downloads","False","mono","False","18","no","white","no","yes","768","legacy","37","37","C:/Users/Hannah Laskoskie/Downloads/HL-subject-2.csv","legacy","Melodramatic Milgram","4.0.5","0","s","NA","NA","right ctrl","NA","s","599.0","NA","NA","34891","NA","599","2","legacy","1024","2","48000","-16","experiment","HHSHH","2","even","38102","NA","NA","102656","NA","NA","3210","83863","3208","NA","NA","103685","103787","104387","103684","103786","Flanker Task","33","21655.0","38","1024"
"87","87","567","567","#000000","legacy","legacy","legacy","congruent","1","undefined","1","h","0","0","0","38","0","0","0","38","0","38","0","38","38","38","38","38","Fri Sep 22 20:17:18 2023","1500","The main experiment item","True","FlankerTask.osexp","C:\Users\Hannah Laskoskie\Downloads","False","mono","False","18","no","white","no","yes","768","legacy","38","38","C:/Users/Hannah Laskoskie/Downloads/HL-subject-2.csv","legacy","Melodramatic Milgram","4.0.5","0","h","NA","NA","right ctrl","NA","h","490.0","NA","NA","34891","NA","490","2","legacy","1024","2","48000","-16","experiment","HHHHH","2","even","38102","NA","NA","104396","NA","NA","3210","83863","3208","NA","NA","105429","105530","106020","105428","105530","Flanker Task","34","22145.0","39","1024"
"87","87","570","570","#000000","legacy","legacy","legacy","incongruent","1","undefined","1","h","0","0","0","39","0","0","0","39","0","39","0","39","39","39","39","39","Fri Sep 22 20:17:18 2023","1500","The main experiment item","True","FlankerTask.osexp","C:\Users\Hannah Laskoskie\Downloads","False","mono","False","18","no","white","no","yes","768","legacy","39","39","C:/Users/Hannah Laskoskie/Downloads/HL-subject-2.csv","legacy","Melodramatic Milgram","4.0.5","0","h","NA","NA","right ctrl","NA","h","672.0","NA","NA","34891","NA","672","2","legacy","1024","2","48000","-16","experiment","SSHSS","2","even","38102","NA","NA","106022","NA","NA","3210","83863","3208","NA","NA","107051","107152","107825","107049","107152","Flanker Task","35","22817.0","40","1024"
"87","87","572","572","#000000","legacy","legacy","legacy","incongruent","1","undefined","1","h","0","0","0","40","0","0","0","40","0","40","0","40","40","40","40","40","Fri Sep 22 20:17:18 2023","1500","The main experiment item","True","FlankerTask.osexp","C:\Users\Hannah Laskoskie\Downloads","False","mono","False","18","no","white","no","yes","768","legacy","40","40","C:/Users/Hannah Laskoskie/Downloads/HL-subject-2.csv","legacy","Melodramatic Milgram","4.0.5","0","h","NA","NA","right ctrl","NA","h","637.0","NA","NA","34891","NA","637","2","legacy","1024","2","48000","-16","experiment","SSHSS","2","even","38102","NA","NA","107827","NA","NA","3210","83863","3208","NA","NA","108853","108953","109591","108852","108953","Flanker Task","36","23454.0","41","1024"
"88","88","569","569","#000000","legacy","legacy","legacy","congruent","1","undefined","1","h","0","0","0","41","0","0","0","41","0","41","0","41","41","41","41","41","Fri Sep 22 20:17:18 2023","1500","The main experiment item","True","FlankerTask.osexp","C:\Users\Hannah Laskoskie\Downloads","False","mono","False","18","no","white","no","yes","768","legacy","41","41","C:/Users/Hannah Laskoskie/Downloads/HL-subject-2.csv","legacy","Melodramatic Milgram","4.0.5","0","h","NA","NA","right ctrl","NA","h","459.0","NA","NA","34891","NA","459","2","legacy","1024","2","48000","-16","experiment","HHHHH","2","even","38102","NA","NA","109594","NA","NA","3210","83863","3208","NA","NA","110621","110722","111182","110620","110722","Flanker Task","37","23913.0","42","1024"
"88","88","577","577","#000000","legacy","legacy","legacy","incongruent","1","undefined","1","s","0","0","0","42","0","0","0","42","0","42","0","42","42","42","42","42","Fri Sep 22 20:17:18 2023","1500","The main experiment item","True","FlankerTask.osexp","C:\Users\Hannah Laskoskie\Downloads","False","mono","False","18","no","white","no","yes","768","legacy","42","42","C:/Users/Hannah Laskoskie/Downloads/HL-subject-2.csv","legacy","Melodramatic Milgram","4.0.5","0","s","NA","NA","right ctrl","NA","s","933.0","NA","NA","34891","NA","933","2","legacy","1024","2","48000","-16","experiment","HHSHH","2","even","38102","NA","NA","111186","NA","NA","3210","83863","3208","NA","NA","112213","112314","113248","112211","112313","Flanker Task","38","24846.0","43","1024"
"88","88","574","574","#000000","legacy","legacy","legacy","congruent","1","undefined","1","h","0","0","0","43","0","0","0","43","0","43","0","43","43","43","43","43","Fri Sep 22 20:17:18 2023","1500","The main experiment item","True","FlankerTask.osexp","C:\Users\Hannah Laskoskie\Downloads","False","mono","False","18","no","white","no","yes","768","legacy","43","43","C:/Users/Hannah Laskoskie/Downloads/HL-subject-2.csv","legacy","Melodramatic Milgram","4.0.5","0","h","NA","NA","right ctrl","NA","h","450.0","NA","NA","34891","NA","450","2","legacy","1024","2","48000","-16","experiment","HHHHH","2","even","38102","NA","NA","113259","NA","NA","3210","83863","3208","NA","NA","114290","114391","114843","114288","114391","Flanker Task","39","25296.0","44","1024"
"88","88","573","573","#000000","legacy","legacy","legacy","incongruent","1","undefined","1","h","0","0","0","44","0","0","0","44","0","44","0","44","44","44","44","44","Fri Sep 22 20:17:18 2023","1500","The main experiment item","True","FlankerTask.osexp","C:\Users\Hannah Laskoskie\Downloads","False","mono","False","18","no","white","no","yes","768","legacy","44","44","C:/Users/Hannah Laskoskie/Downloads/HL-subject-2.csv","legacy","Melodramatic Milgram","4.0.5","0","h","NA","NA","right ctrl","NA","h","520.0","NA","NA","34891","NA","520","2","legacy","1024","2","48000","-16","experiment","SSHSS","2","even","38102","NA","NA","114845","NA","NA","3210","83863","3208","NA","NA","115887","115989","116510","115886","115988","Flanker Task","40","25816.0","45","1024"
"89","89","571","571","#000000","legacy","legacy","legacy","congruent","1","undefined","1","s","0","0","0","45","0","0","0","45","0","45","0","45","45","45","45","45","Fri Sep 22 20:17:18 2023","1500","The main experiment item","True","FlankerTask.osexp","C:\Users\Hannah Laskoskie\Downloads","False","mono","False","18","no","white","no","yes","768","legacy","45","45","C:/Users/Hannah Laskoskie/Downloads/HL-subject-2.csv","legacy","Melodramatic Milgram","4.0.5","0","s","NA","NA","right ctrl","NA","s","450.0","NA","NA","34891","NA","450","2","legacy","1024","2","48000","-16","experiment","SSSSS","2","even","38102","NA","NA","116513","NA","NA","3210","83863","3208","NA","NA","117542","117643","118094","117540","117643","Flanker Task","41","26266.0","46","1024"
"89","89","568","568","#000000","legacy","legacy","legacy","incongruent","1","undefined","1","h","0","0","0","46","0","0","0","46","0","46","0","46","46","46","46","46","Fri Sep 22 20:17:18 2023","1500","The main experiment item","True","FlankerTask.osexp","C:\Users\Hannah Laskoskie\Downloads","False","mono","False","18","no","white","no","yes","768","legacy","46","46","C:/Users/Hannah Laskoskie/Downloads/HL-subject-2.csv","legacy","Melodramatic Milgram","4.0.5","0","h","NA","NA","right ctrl","NA","h","439.0","NA","NA","34891","NA","439","2","legacy","1024","2","48000","-16","experiment","SSHSS","2","even","38102","NA","NA","118104","NA","NA","3210","83863","3208","NA","NA","119134","119234","119674","119133","119234","Flanker Task","42","26705.0","47","1024"
"89","89","579","579","#000000","legacy","legacy","legacy","incongruent","1","undefined","1","s","0","0","0","47","0","0","0","47","0","47","0","47","47","47","47","47","Fri Sep 22 20:17:18 2023","1500","The main experiment item","True","FlankerTask.osexp","C:\Users\Hannah Laskoskie\Downloads","False","mono","False","18","no","white","no","yes","768","legacy","47","47","C:/Users/Hannah Laskoskie/Downloads/HL-subject-2.csv","legacy","Melodramatic Milgram","4.0.5","0","s","NA","NA","right ctrl","NA","s","1133.0","NA","NA","34891","NA","1133","2","legacy","1024","2","48000","-16","experiment","HHSHH","2","even","38102","NA","NA","119676","NA","NA","3210","83863","3208","NA","NA","120708","120809","121943","120707","120808","Flanker Task","43","27838.0","48","1024"
"89","89","576","576","#000000","legacy","legacy","legacy","congruent","1","undefined","1","h","0","0","0","48","0","0","0","48","0","48","0","48","48","48","48","48","Fri Sep 22 20:17:18 2023","1500","The main experiment item","True","FlankerTask.osexp","C:\Users\Hannah Laskoskie\Downloads","False","mono","False","18","no","white","no","yes","768","legacy","48","48","C:/Users/Hannah Laskoskie/Downloads/HL-subject-2.csv","legacy","Melodramatic Milgram","4.0.5","0","h","NA","NA","right ctrl","NA","h","400.0","NA","NA","34891","NA","400","2","legacy","1024","2","48000","-16","experiment","HHHHH","2","even","38102","NA","NA","121954","NA","NA","3210","83863","3208","NA","NA","122981","123082","123483","122979","123081","Flanker Task","44","28238.0","49","1024"
"90","90","573","573","#000000","legacy","legacy","legacy","incongruent","1","undefined","1","s","0","0","0","49","0","0","0","49","0","49","0","49","49","49","49","49","Fri Sep 22 20:17:18 2023","1500","The main experiment item","True","FlankerTask.osexp","C:\Users\Hannah Laskoskie\Downloads","False","mono","False","18","no","white","no","yes","768","legacy","49","49","C:/Users/Hannah Laskoskie/Downloads/HL-subject-2.csv","legacy","Melodramatic Milgram","4.0.5","0","s","NA","NA","right ctrl","NA","s","430.0","NA","NA","34891","NA","430","2","legacy","1024","2","48000","-16","experiment","HHSHH","2","even","38102","NA","NA","123486","NA","NA","3210","83863","3208","NA","NA","124516","124616","125047","124515","124616","Flanker Task","45","28668.0","50","1024"
"90","90","571","571","#000000","legacy","legacy","legacy","incongruent","1","undefined","1","h","0","0","0","50","0","0","0","50","0","50","0","50","50","50","50","50","Fri Sep 22 20:17:18 2023","1500","The main experiment item","True","FlankerTask.osexp","C:\Users\Hannah Laskoskie\Downloads","False","mono","False","18","no","white","no","yes","768","legacy","50","50","C:/Users/Hannah Laskoskie/Downloads/HL-subject-2.csv","legacy","Melodramatic Milgram","4.0.5","0","h","NA","NA","right ctrl","NA","h","468.0","NA","NA","34891","NA","468","2","legacy","1024","2","48000","-16","experiment","SSHSS","2","even","38102","NA","NA","125051","NA","NA","3210","83863","3208","NA","NA","126080","126180","126649","126079","126180","Flanker Task","46","29136.0","51","1024"
"90","90","568","568","#000000","legacy","legacy","legacy","congruent","1","undefined","1","s","0","0","0","51","0","0","0","51","0","51","0","51","51","51","51","51","Fri Sep 22 20:17:18 2023","1500","The main experiment item","True","FlankerTask.osexp","C:\Users\Hannah Laskoskie\Downloads","False","mono","False","18","no","white","no","yes","768","legacy","51","51","C:/Users/Hannah Laskoskie/Downloads/HL-subject-2.csv","legacy","Melodramatic Milgram","4.0.5","0","s","NA","NA","right ctrl","NA","s","436.0","NA","NA","34891","NA","436","2","legacy","1024","2","48000","-16","experiment","SSSSS","2","even","38102","NA","NA","126651","NA","NA","3210","83863","3208","NA","NA","127678","127779","128216","127677","127778","Flanker Task","47","29572.0","52","1024"
"90","90","566","566","#000000","legacy","legacy","legacy","congruent","1","undefined","1","s","0","0","0","52","0","0","0","52","0","52","0","52","52","52","52","52","Fri Sep 22 20:17:18 2023","1500","The main experiment item","True","FlankerTask.osexp","C:\Users\Hannah Laskoskie\Downloads","False","mono","False","18","no","white","no","yes","768","legacy","52","52","C:/Users/Hannah Laskoskie/Downloads/HL-subject-2.csv","legacy","Melodramatic Milgram","4.0.5","0","s","NA","NA","right ctrl","NA","s","435.0","NA","NA","34891","NA","435","2","legacy","1024","2","48000","-16","experiment","SSSSS","2","even","38102","NA","NA","128218","NA","NA","3210","83863","3208","NA","NA","129246","129346","129783","129244","129346","Flanker Task","48","30007.0","53","1024"
"90","90","563","563","#000000","legacy","legacy","legacy","congruent","1","undefined","1","s","0","0","0","53","0","0","0","53","0","53","0","53","53","53","53","53","Fri Sep 22 20:17:18 2023","1500","The main experiment item","True","FlankerTask.osexp","C:\Users\Hannah Laskoskie\Downloads","False","mono","False","18","no","white","no","yes","768","legacy","53","53","C:/Users/Hannah Laskoskie/Downloads/HL-subject-2.csv","legacy","Melodramatic Milgram","4.0.5","0","s","NA","NA","right ctrl","NA","s","408.0","NA","NA","34891","NA","408","2","legacy","1024","2","48000","-16","experiment","SSSSS","2","even","38102","NA","NA","129786","NA","NA","3210","83863","3208","NA","NA","130818","130919","131328","130817","130918","Flanker Task","49","30415.0","54","1024"
"90","90","561","561","#000000","legacy","legacy","legacy","incongruent","1","undefined","1","h","0","0","0","54","0","0","0","54","0","54","0","54","54","54","54","54","Fri Sep 22 20:17:18 2023","1500","The main experiment item","True","FlankerTask.osexp","C:\Users\Hannah Laskoskie\Downloads","False","mono","False","18","no","white","no","yes","768","legacy","54","54","C:/Users/Hannah Laskoskie/Downloads/HL-subject-2.csv","legacy","Melodramatic Milgram","4.0.5","0","h","NA","NA","right ctrl","NA","h","492.0","NA","NA","34891","NA","492","2","legacy","1024","2","48000","-16","experiment","SSHSS","2","even","38102","NA","NA","131331","NA","NA","3210","83863","3208","NA","NA","132360","132461","132953","132358","132460","Flanker Task","50","30907.0","55","1024"
"91","91","562","562","#000000","legacy","legacy","legacy","incongruent","1","undefined","1","s","0","0","0","55","0","0","0","55","0","55","0","55","55","55","55","55","Fri Sep 22 20:17:18 2023","1500","The main experiment item","True","FlankerTask.osexp","C:\Users\Hannah Laskoskie\Downloads","False","mono","False","18","no","white","no","yes","768","legacy","55","55","C:/Users/Hannah Laskoskie/Downloads/HL-subject-2.csv","legacy","Melodramatic Milgram","4.0.5","0","s","NA","NA","right ctrl","NA","s","573.0","NA","NA","34891","NA","573","2","legacy","1024","2","48000","-16","experiment","HHSHH","2","even","38102","NA","NA","132955","NA","NA","3210","83863","3208","NA","NA","133988","134089","134662","133986","134089","Flanker Task","51","31480.0","56","1024"
"91","91","560","560","#000000","legacy","legacy","legacy","incongruent","1","undefined","1","s","0","0","0","56","0","0","0","56","0","56","0","56","56","56","56","56","Fri Sep 22 20:17:18 2023","1500","The main experiment item","True","FlankerTask.osexp","C:\Users\Hannah Laskoskie\Downloads","False","mono","False","18","no","white","no","yes","768","legacy","56","56","C:/Users/Hannah Laskoskie/Downloads/HL-subject-2.csv","legacy","Melodramatic Milgram","4.0.5","0","s","NA","NA","right ctrl","NA","s","465.0","NA","NA","34891","NA","465","2","legacy","1024","2","48000","-16","experiment","HHSHH","2","even","38102","NA","NA","134665","NA","NA","3210","83863","3208","NA","NA","135695","135796","136262","135694","135796","Flanker Task","52","31945.0","57","1024"
"91","91","559","559","#000000","legacy","legacy","legacy","incongruent","1","undefined","1","s","0","0","0","57","0","0","0","57","0","57","0","57","57","57","57","57","Fri Sep 22 20:17:18 2023","1500","The main experiment item","True","FlankerTask.osexp","C:\Users\Hannah Laskoskie\Downloads","False","mono","False","18","no","white","no","yes","768","legacy","57","57","C:/Users/Hannah Laskoskie/Downloads/HL-subject-2.csv","legacy","Melodramatic Milgram","4.0.5","0","s","NA","NA","right ctrl","NA","s","480.0","NA","NA","34891","NA","480","2","legacy","1024","2","48000","-16","experiment","HHSHH","2","even","38102","NA","NA","136271","NA","NA","3210","83863","3208","NA","NA","137301","137401","137882","137299","137401","Flanker Task","53","32425.0","58","1024"
"91","91","558","558","#000000","legacy","legacy","legacy","incongruent","1","undefined","1","h","0","0","0","58","0","0","0","58","0","58","0","58","58","58","58","58","Fri Sep 22 20:17:18 2023","1500","The main experiment item","True","FlankerTask.osexp","C:\Users\Hannah Laskoskie\Downloads","False","mono","False","18","no","white","no","yes","768","legacy","58","58","C:/Users/Hannah Laskoskie/Downloads/HL-subject-2.csv","legacy","Melodramatic Milgram","4.0.5","0","h","NA","NA","right ctrl","NA","h","505.0","NA","NA","34891","NA","505","2","legacy","1024","2","48000","-16","experiment","SSHSS","2","even","38102","NA","NA","137884","NA","NA","3210","83863","3208","NA","NA","138914","139015","139521","138912","139015","Flanker Task","54","32930.0","59","1024"
"90","90","558","558","#000000","legacy","legacy","legacy","congruent","0","undefined","0","h","0","0","0","59","0","0","0","59","0","59","0","59","59","59","59","59","Fri Sep 22 20:17:18 2023","1500","The main experiment item","True","FlankerTask.osexp","C:\Users\Hannah Laskoskie\Downloads","False","mono","False","18","no","white","no","yes","768","legacy","59","59","C:/Users/Hannah Laskoskie/Downloads/HL-subject-2.csv","legacy","Melodramatic Milgram","4.0.5","0","s","NA","NA","right ctrl","NA","s","556.0","NA","NA","34891","NA","556","2","legacy","1024","2","48000","-16","experiment","HHHHH","2","even","38102","NA","NA","139530","NA","NA","3210","83863","3208","NA","NA","140562","140663","141220","140561","140663","Flanker Task","54","33486.0","60","1024"
"90","90","555","555","#000000","legacy","legacy","legacy","congruent","1","undefined","1","h","0","0","0","60","0","0","0","60","0","60","0","60","60","60","60","60","Fri Sep 22 20:17:18 2023","1500","The main experiment item","True","FlankerTask.osexp","C:\Users\Hannah Laskoskie\Downloads","False","mono","False","18","no","white","no","yes","768","legacy","60","60","C:/Users/Hannah Laskoskie/Downloads/HL-subject-2.csv","legacy","Melodramatic Milgram","4.0.5","0","h","NA","NA","right ctrl","NA","h","406.0","NA","NA","34891","NA","406","2","legacy","1024","2","48000","-16","experiment","HHHHH","2","even","38102","NA","NA","141723","NA","NA","3210","141223","3208","NA","NA","142750","142851","143258","142748","142851","Flanker Task","55","33892.0","61","1024"
"90","90","553","553","#000000","legacy","legacy","legacy","congruent","1","undefined","1","h","0","0","0","61","0","0","0","61","0","61","0","61","61","61","61","61","Fri Sep 22 20:17:18 2023","1500","The main experiment item","True","FlankerTask.osexp","C:\Users\Hannah Laskoskie\Downloads","False","mono","False","18","no","white","no","yes","768","legacy","61","61","C:/Users/Hannah Laskoskie/Downloads/HL-subject-2.csv","legacy","Melodramatic Milgram","4.0.5","0","h","NA","NA","right ctrl","NA","h","409.0","NA","NA","34891","NA","409","2","legacy","1024","2","48000","-16","experiment","HHHHH","2","even","38102","NA","NA","143268","NA","NA","3210","141223","3208","NA","NA","144296","144397","144807","144295","144397","Flanker Task","56","34301.0","62","1024"
"90","90","552","552","#000000","legacy","legacy","legacy","congruent","1","undefined","1","s","0","0","0","62","0","0","0","62","0","62","0","62","62","62","62","62","Fri Sep 22 20:17:18 2023","1500","The main experiment item","True","FlankerTask.osexp","C:\Users\Hannah Laskoskie\Downloads","False","mono","False","18","no","white","no","yes","768","legacy","62","62","C:/Users/Hannah Laskoskie/Downloads/HL-subject-2.csv","legacy","Melodramatic Milgram","4.0.5","0","s","NA","NA","right ctrl","NA","s","479.0","NA","NA","34891","NA","479","2","legacy","1024","2","48000","-16","experiment","SSSSS","2","even","38102","NA","NA","144810","NA","NA","3210","141223","3208","NA","NA","145854","145955","146434","145851","145955","Flanker Task","57","34780.0","63","1024"
"90","90","549","549","#000000","legacy","legacy","legacy","congruent","1","undefined","1","h","0","0","0","63","0","0","0","63","0","63","0","63","63","63","63","63","Fri Sep 22 20:17:18 2023","1500","The main experiment item","True","FlankerTask.osexp","C:\Users\Hannah Laskoskie\Downloads","False","mono","False","18","no","white","no","yes","768","legacy","63","63","C:/Users/Hannah Laskoskie/Downloads/HL-subject-2.csv","legacy","Melodramatic Milgram","4.0.5","0","h","NA","NA","right ctrl","NA","h","417.0","NA","NA","34891","NA","417","2","legacy","1024","2","48000","-16","experiment","HHHHH","2","even","38102","NA","NA","146436","NA","NA","3210","141223","3208","NA","NA","147464","147565","147983","147463","147565","Flanker Task","58","35197.0","64","1024"
"90","90","547","547","#000000","legacy","legacy","legacy","incongruent","1","undefined","1","s","0","0","0","64","0","0","0","64","0","64","0","64","64","64","64","64","Fri Sep 22 20:17:18 2023","1500","The main experiment item","True","FlankerTask.osexp","C:\Users\Hannah Laskoskie\Downloads","False","mono","False","18","no","white","no","yes","768","legacy","64","64","C:/Users/Hannah Laskoskie/Downloads/HL-subject-2.csv","legacy","Melodramatic Milgram","4.0.5","0","s","NA","NA","right ctrl","NA","s","401.0","NA","NA","34891","NA","401","2","legacy","1024","2","48000","-16","experiment","HHSHH","2","even","38102","NA","NA","147985","NA","NA","3210","141223","3208","NA","NA","149013","149113","149515","149011","149113","Flanker Task","59","35598.0","65","1024"
"89","89","545","545","#000000","legacy","legacy","legacy","congruent","0","undefined","0","s","0","0","0","65","0","0","0","65","0","65","0","65","65","65","65","65","Fri Sep 22 20:17:18 2023","1500","The main experiment item","True","FlankerTask.osexp","C:\Users\Hannah Laskoskie\Downloads","False","mono","False","18","no","white","no","yes","768","legacy","65","65","C:/Users/Hannah Laskoskie/Downloads/HL-subject-2.csv","legacy","Melodramatic Milgram","4.0.5","0","h","NA","NA","right ctrl","NA","h","385.0","NA","NA","34891","NA","385","2","legacy","1024","2","48000","-16","experiment","SSSSS","2","even","38102","NA","NA","149524","NA","NA","3210","141223","3208","NA","NA","150555","150656","151042","150554","150656","Flanker Task","59","35983.0","66","1024"
"89","89","557","557","#000000","legacy","legacy","legacy","incongruent","1","undefined","1","h","0","0","0","66","0","0","0","66","0","66","0","66","66","66","66","66","Fri Sep 22 20:17:18 2023","1500","The main experiment item","True","FlankerTask.osexp","C:\Users\Hannah Laskoskie\Downloads","False","mono","False","18","no","white","no","yes","768","legacy","66","66","C:/Users/Hannah Laskoskie/Downloads/HL-subject-2.csv","legacy","Melodramatic Milgram","4.0.5","0","h","NA","NA","right ctrl","NA","h","1345.0","NA","NA","34891","NA","1345","2","legacy","1024","2","48000","-16","experiment","SSHSS","2","even","38102","NA","NA","151552","NA","NA","3210","151052","3208","NA","NA","152584","152685","154031","152583","152684","Flanker Task","60","37328.0","67","1024"
"89","89","559","559","#000000","legacy","legacy","legacy","congruent","1","undefined","1","s","0","0","0","67","0","0","0","67","0","67","0","67","67","67","67","67","Fri Sep 22 20:17:18 2023","1500","The main experiment item","True","FlankerTask.osexp","C:\Users\Hannah Laskoskie\Downloads","False","mono","False","18","no","white","no","yes","768","legacy","67","67","C:/Users/Hannah Laskoskie/Downloads/HL-subject-2.csv","legacy","Melodramatic Milgram","4.0.5","0","s","NA","NA","right ctrl","NA","s","710.0","NA","NA","34891","NA","710","2","legacy","1024","2","48000","-16","experiment","SSSSS","2","even","38102","NA","NA","154033","NA","NA","3210","151052","3208","NA","NA","155064","155165","155876","155062","155164","Flanker Task","61","38038.0","68","1024"
"89","89","558","558","#000000","legacy","legacy","legacy","congruent","1","undefined","1","s","0","0","0","68","0","0","0","68","0","68","0","68","68","68","68","68","Fri Sep 22 20:17:18 2023","1500","The main experiment item","True","FlankerTask.osexp","C:\Users\Hannah Laskoskie\Downloads","False","mono","False","18","no","white","no","yes","768","legacy","68","68","C:/Users/Hannah Laskoskie/Downloads/HL-subject-2.csv","legacy","Melodramatic Milgram","4.0.5","0","s","NA","NA","right ctrl","NA","s","504.0","NA","NA","34891","NA","504","2","legacy","1024","2","48000","-16","experiment","SSSSS","2","even","38102","NA","NA","155880","NA","NA","3210","151052","3208","NA","NA","156911","157011","157517","156909","157011","Flanker Task","62","38542.0","69","1024"
"90","90","557","557","#000000","legacy","legacy","legacy","incongruent","1","undefined","1","h","0","0","0","69","0","0","0","69","0","69","0","69","69","69","69","69","Fri Sep 22 20:17:18 2023","1500","The main experiment item","True","FlankerTask.osexp","C:\Users\Hannah Laskoskie\Downloads","False","mono","False","18","no","white","no","yes","768","legacy","69","69","C:/Users/Hannah Laskoskie/Downloads/HL-subject-2.csv","legacy","Melodramatic Milgram","4.0.5","0","h","NA","NA","right ctrl","NA","h","485.0","NA","NA","34891","NA","485","2","legacy","1024","2","48000","-16","experiment","SSHSS","2","even","38102","NA","NA","157525","NA","NA","3210","151052","3208","NA","NA","158559","158660","159146","158558","158660","Flanker Task","63","39027.0","70","1024"
"90","90","556","556","#000000","legacy","legacy","legacy","congruent","1","undefined","1","s","0","0","0","70","0","0","0","70","0","70","0","70","70","70","70","70","Fri Sep 22 20:17:18 2023","1500","The main experiment item","True","FlankerTask.osexp","C:\Users\Hannah Laskoskie\Downloads","False","mono","False","18","no","white","no","yes","768","legacy","70","70","C:/Users/Hannah Laskoskie/Downloads/HL-subject-2.csv","legacy","Melodramatic Milgram","4.0.5","0","s","NA","NA","right ctrl","NA","s","492.0","NA","NA","34891","NA","492","2","legacy","1024","2","48000","-16","experiment","SSSSS","2","even","38102","NA","NA","159148","NA","NA","3210","151052","3208","NA","NA","160184","160285","160778","160181","160285","Flanker Task","64","39519.0","71","1024"
"90","90","554","554","#000000","legacy","legacy","legacy","congruent","1","undefined","1","h","0","0","0","71","0","0","0","71","0","71","0","71","71","71","71","71","Fri Sep 22 20:17:18 2023","1500","The main experiment item","True","FlankerTask.osexp","C:\Users\Hannah Laskoskie\Downloads","False","mono","False","18","no","white","no","yes","768","legacy","71","71","C:/Users/Hannah Laskoskie/Downloads/HL-subject-2.csv","legacy","Melodramatic Milgram","4.0.5","0","h","NA","NA","right ctrl","NA","h","422.0","NA","NA","34891","NA","422","2","legacy","1024","2","48000","-16","experiment","HHHHH","2","even","38102","NA","NA","160782","NA","NA","3210","151052","3208","NA","NA","161814","161915","162338","161812","161914","Flanker Task","65","39941.0","72","1024"
"89","89","553","553","#000000","legacy","legacy","legacy","incongruent","0","undefined","0","h","0","0","0","72","0","0","0","72","0","72","0","72","72","72","72","72","Fri Sep 22 20:17:18 2023","1500","The main experiment item","True","FlankerTask.osexp","C:\Users\Hannah Laskoskie\Downloads","False","mono","False","18","no","white","no","yes","768","legacy","72","72","C:/Users/Hannah Laskoskie/Downloads/HL-subject-2.csv","legacy","Melodramatic Milgram","4.0.5","0","s","NA","NA","right ctrl","NA","s","440.0","NA","NA","34891","NA","440","2","legacy","1024","2","48000","-16","experiment","SSHSS","2","even","38102","NA","NA","162340","NA","NA","3210","151052","3208","NA","NA","163386","163489","163930","163382","163488","Flanker Task","65","40381.0","73","1024"
"89","89","551","551","#000000","legacy","legacy","legacy","congruent","1","undefined","1","h","0","0","0","73","0","0","0","73","0","73","0","73","73","73","73","73","Fri Sep 22 20:17:18 2023","1500","The main experiment item","True","FlankerTask.osexp","C:\Users\Hannah Laskoskie\Downloads","False","mono","False","18","no","white","no","yes","768","legacy","73","73","C:/Users/Hannah Laskoskie/Downloads/HL-subject-2.csv","legacy","Melodramatic Milgram","4.0.5","0","h","NA","NA","right ctrl","NA","h","431.0","NA","NA","34891","NA","431","2","legacy","1024","2","48000","-16","experiment","HHHHH","2","even","38102","NA","NA","164435","NA","NA","3210","163933","3208","NA","NA","165474","165575","166007","165472","165575","Flanker Task","66","40812.0","74","1024"
"89","89","550","550","#000000","legacy","legacy","legacy","incongruent","1","undefined","1","h","0","0","0","74","0","0","0","74","0","74","0","74","74","74","74","74","Fri Sep 22 20:17:18 2023","1500","The main experiment item","True","FlankerTask.osexp","C:\Users\Hannah Laskoskie\Downloads","False","mono","False","18","no","white","no","yes","768","legacy","74","74","C:/Users/Hannah Laskoskie/Downloads/HL-subject-2.csv","legacy","Melodramatic Milgram","4.0.5","0","h","NA","NA","right ctrl","NA","h","482.0","NA","NA","34891","NA","482","2","legacy","1024","2","48000","-16","experiment","SSHSS","2","even","38102","NA","NA","166009","NA","NA","3210","163933","3208","NA","NA","167050","167151","167634","167049","167151","Flanker Task","67","41294.0","75","1024"
"89","89","549","549","#000000","legacy","legacy","legacy","incongruent","1","undefined","1","s","0","0","0","75","0","0","0","75","0","75","0","75","75","75","75","75","Fri Sep 22 20:17:18 2023","1500","The main experiment item","True","FlankerTask.osexp","C:\Users\Hannah Laskoskie\Downloads","False","mono","False","18","no","white","no","yes","768","legacy","75","75","C:/Users/Hannah Laskoskie/Downloads/HL-subject-2.csv","legacy","Melodramatic Milgram","4.0.5","0","s","NA","NA","right ctrl","NA","s","500.0","NA","NA","34891","NA","500","2","legacy","1024","2","48000","-16","experiment","HHSHH","2","even","38102","NA","NA","167636","NA","NA","3210","163933","3208","NA","NA","168676","168778","169279","168674","168778","Flanker Task","68","41794.0","76","1024"
"89","89","548","548","#000000","legacy","legacy","legacy","congruent","1","undefined","1","h","0","0","0","76","0","0","0","76","0","76","0","76","76","76","76","76","Fri Sep 22 20:17:18 2023","1500","The main experiment item","True","FlankerTask.osexp","C:\Users\Hannah Laskoskie\Downloads","False","mono","False","18","no","white","no","yes","768","legacy","76","76","C:/Users/Hannah Laskoskie/Downloads/HL-subject-2.csv","legacy","Melodramatic Milgram","4.0.5","0","h","NA","NA","right ctrl","NA","h","428.0","NA","NA","34891","NA","428","2","legacy","1024","2","48000","-16","experiment","HHHHH","2","even","38102","NA","NA","169281","NA","NA","3210","163933","3208","NA","NA","170314","170415","170844","170312","170415","Flanker Task","69","42222.0","77","1024"
"89","89","546","546","#000000","legacy","legacy","legacy","congruent","1","undefined","1","h","0","0","0","77","0","0","0","77","0","77","0","77","77","77","77","77","Fri Sep 22 20:17:18 2023","1500","The main experiment item","True","FlankerTask.osexp","C:\Users\Hannah Laskoskie\Downloads","False","mono","False","18","no","white","no","yes","768","legacy","77","77","C:/Users/Hannah Laskoskie/Downloads/HL-subject-2.csv","legacy","Melodramatic Milgram","4.0.5","0","h","NA","NA","right ctrl","NA","h","424.0","NA","NA","34891","NA","424","2","legacy","1024","2","48000","-16","experiment","HHHHH","2","even","38102","NA","NA","170846","NA","NA","3210","163933","3208","NA","NA","171878","171978","172402","171877","171978","Flanker Task","70","42646.0","78","1024"
"89","89","546","546","#000000","legacy","legacy","legacy","congruent","1","undefined","1","h","0","0","0","78","0","0","0","78","0","78","0","78","78","78","78","78","Fri Sep 22 20:17:18 2023","1500","The main experiment item","True","FlankerTask.osexp","C:\Users\Hannah Laskoskie\Downloads","False","mono","False","18","no","white","no","yes","768","legacy","78","78","C:/Users/Hannah Laskoskie/Downloads/HL-subject-2.csv","legacy","Melodramatic Milgram","4.0.5","0","h","NA","NA","right ctrl","NA","h","495.0","NA","NA","34891","NA","495","2","legacy","1024","2","48000","-16","experiment","HHHHH","2","even","38102","NA","NA","172406","NA","NA","3210","163933","3208","NA","NA","173443","173544","174040","173442","173543","Flanker Task","71","43141.0","79","1024"
"90","90","545","545","#000000","legacy","legacy","legacy","incongruent","1","undefined","1","s","0","0","0","79","0","0","0","79","0","79","0","79","79","79","79","79","Fri Sep 22 20:17:18 2023","1500","The main experiment item","True","FlankerTask.osexp","C:\Users\Hannah Laskoskie\Downloads","False","mono","False","18","no","white","no","yes","768","legacy","79","79","C:/Users/Hannah Laskoskie/Downloads/HL-subject-2.csv","legacy","Melodramatic Milgram","4.0.5","0","s","NA","NA","right ctrl","NA","s","538.0","NA","NA","34891","NA","538","2","legacy","1024","2","48000","-16","experiment","HHSHH","2","even","38102","NA","NA","174042","NA","NA","3210","163933","3208","NA","NA","175069","175170","175709","175068","175170","Flanker Task","72","43679.0","80","1024"
"90","90","545","545","#000000","legacy","legacy","legacy","congruent","1","undefined","1","h","0","0","0","80","0","0","0","80","0","80","0","80","80","80","80","80","Fri Sep 22 20:17:18 2023","600","The main experiment item","True","FlankerTask.osexp","C:\Users\Hannah Laskoskie\Downloads","False","mono","False","18","no","white","no","yes","768","legacy","0","79","C:/Users/Hannah Laskoskie/Downloads/HL-subject-2.csv","legacy","Melodramatic Milgram","4.0.5","0","h","s","NA","right ctrl","NA","h","534.0","12341","NA","34891","NA","534","2","legacy","1024","2","48000","-16","experiment","HHHHH","2","even","38102","189054","NA","175711","176712","NA","3210","163933","3208","NA","NA","189105","189206","189741","189104","189206","Flanker Task","73","44213.0","81","1024"
"90","90","544","544","#000000","legacy","legacy","legacy","incongruent","1","undefined","1","h","0","0","0","81","0","0","0","81","0","81","0","81","81","81","81","81","Fri Sep 22 20:17:18 2023","600","The main experiment item","True","FlankerTask.osexp","C:\Users\Hannah Laskoskie\Downloads","False","mono","False","18","no","white","no","yes","768","legacy","1","79","C:/Users/Hannah Laskoskie/Downloads/HL-subject-2.csv","legacy","Melodramatic Milgram","4.0.5","0","h","s","NA","right ctrl","NA","h","476.0","12341","NA","34891","NA","476","2","legacy","1024","2","48000","-16","experiment","SSHSS","2","even","38102","189054","NA","189742","176712","NA","3210","163933","3208","NA","NA","190772","190872","191349","190770","190872","Flanker Task","74","44689.0","82","1024"
"90","90","542","542","#000000","legacy","legacy","legacy","congruent","1","undefined","1","h","0","0","0","82","0","0","0","82","0","82","0","82","82","82","82","82","Fri Sep 22 20:17:18 2023","600","The main experiment item","True","FlankerTask.osexp","C:\Users\Hannah Laskoskie\Downloads","False","mono","False","18","no","white","no","yes","768","legacy","2","79","C:/Users/Hannah Laskoskie/Downloads/HL-subject-2.csv","legacy","Melodramatic Milgram","4.0.5","0","h","s","NA","right ctrl","NA","h","355.0","12341","NA","34891","NA","355","2","legacy","1024","2","48000","-16","experiment","HHHHH","2","even","38102","189054","NA","191351","176712","NA","3210","163933","3208","NA","NA","192383","192483","192839","192382","192483","Flanker Task","75","45044.0","83","1024"
"90","90","541","541","#000000","legacy","legacy","legacy","incongruent","1","undefined","1","s","0","0","0","83","0","0","0","83","0","83","0","83","83","83","83","83","Fri Sep 22 20:17:18 2023","600","The main experiment item","True","FlankerTask.osexp","C:\Users\Hannah Laskoskie\Downloads","False","mono","False","18","no","white","no","yes","768","legacy","3","79","C:/Users/Hannah Laskoskie/Downloads/HL-subject-2.csv","legacy","Melodramatic Milgram","4.0.5","0","s","s","NA","right ctrl","NA","s","463.0","12341","NA","34891","NA","463","2","legacy","1024","2","48000","-16","experiment","HHSHH","2","even","38102","189054","NA","192842","176712","NA","3210","163933","3208","NA","NA","193867","193967","194431","193866","193967","Flanker Task","76","45507.0","84","1024"
"90","90","541","541","#000000","legacy","legacy","legacy","incongruent","1","undefined","1","s","0","0","0","84","0","0","0","84","0","84","0","84","84","84","84","84","Fri Sep 22 20:17:18 2023","600","The main experiment item","True","FlankerTask.osexp","C:\Users\Hannah Laskoskie\Downloads","False","mono","False","18","no","white","no","yes","768","legacy","4","79","C:/Users/Hannah Laskoskie/Downloads/HL-subject-2.csv","legacy","Melodramatic Milgram","4.0.5","0","s","s","NA","right ctrl","NA","s","532.0","12341","NA","34891","NA","532","2","legacy","1024","2","48000","-16","experiment","HHSHH","2","even","38102","189054","NA","194435","176712","NA","3210","163933","3208","NA","NA","195459","195559","196092","195457","195559","Flanker Task","77","46039.0","85","1024"
"90","90","541","541","#000000","legacy","legacy","legacy","incongruent","1","undefined","1","s","0","0","0","85","0","0","0","85","0","85","0","85","85","85","85","85","Fri Sep 22 20:17:18 2023","600","The main experiment item","True","FlankerTask.osexp","C:\Users\Hannah Laskoskie\Downloads","False","mono","False","18","no","white","no","yes","768","legacy","5","79","C:/Users/Hannah Laskoskie/Downloads/HL-subject-2.csv","legacy","Melodramatic Milgram","4.0.5","0","s","s","NA","right ctrl","NA","s","559.0","12341","NA","34891","NA","559","2","legacy","1024","2","48000","-16","experiment","HHSHH","2","even","38102","189054","NA","196096","176712","NA","3210","163933","3208","NA","NA","197127","197228","197789","197125","197227","Flanker Task","78","46598.0","86","1024"
"89","89","542","542","#000000","legacy","legacy","legacy","incongruent","0","undefined","0","h","0","0","0","86","0","0","0","86","0","86","0","86","86","86","86","86","Fri Sep 22 20:17:18 2023","600","The main experiment item","True","FlankerTask.osexp","C:\Users\Hannah Laskoskie\Downloads","False","mono","False","18","no","white","no","yes","768","legacy","6","79","C:/Users/Hannah Laskoskie/Downloads/HL-subject-2.csv","legacy","Melodramatic Milgram","4.0.5","0","s","s","NA","right ctrl","NA","s","569.0","12341","NA","34891","NA","569","2","legacy","1024","2","48000","-16","experiment","SSHSS","2","even","38102","189054","NA","197795","176712","NA","3210","163933","3208","NA","NA","198827","198927","199497","198825","198927","Flanker Task","78","47167.0","87","1024"
"89","89","541","541","#000000","legacy","legacy","legacy","congruent","1","undefined","1","h","0","0","0","87","0","0","0","87","0","87","0","87","87","87","87","87","Fri Sep 22 20:17:18 2023","600","The main experiment item","True","FlankerTask.osexp","C:\Users\Hannah Laskoskie\Downloads","False","mono","False","18","no","white","no","yes","768","legacy","7","79","C:/Users/Hannah Laskoskie/Downloads/HL-subject-2.csv","legacy","Melodramatic Milgram","4.0.5","0","h","s","NA","right ctrl","NA","h","467.0","12341","NA","34891","NA","467","2","legacy","1024","2","48000","-16","experiment","HHHHH","2","even","38102","189054","NA","200000","176712","NA","3210","199499","3208","NA","NA","201034","201137","201606","201032","201137","Flanker Task","79","47634.0","88","1024"
"89","89","540","540","#000000","legacy","legacy","legacy","congruent","1","undefined","1","h","0","0","0","88","0","0","0","88","0","88","0","88","88","88","88","88","Fri Sep 22 20:17:18 2023","600","The main experiment item","True","FlankerTask.osexp","C:\Users\Hannah Laskoskie\Downloads","False","mono","False","18","no","white","no","yes","768","legacy","8","79","C:/Users/Hannah Laskoskie/Downloads/HL-subject-2.csv","legacy","Melodramatic Milgram","4.0.5","0","h","s","NA","right ctrl","NA","h","487.0","12341","NA","34891","NA","487","2","legacy","1024","2","48000","-16","experiment","HHHHH","2","even","38102","189054","NA","201608","176712","NA","3210","199499","3208","NA","NA","202638","202740","203228","202636","202740","Flanker Task","80","48121.0","89","1024"
"90","90","538","538","#000000","legacy","legacy","legacy","congruent","1","undefined","1","h","0","0","0","89","0","0","0","89","0","89","0","89","89","89","89","89","Fri Sep 22 20:17:18 2023","600","The main experiment item","True","FlankerTask.osexp","C:\Users\Hannah Laskoskie\Downloads","False","mono","False","18","no","white","no","yes","768","legacy","9","79","C:/Users/Hannah Laskoskie/Downloads/HL-subject-2.csv","legacy","Melodramatic Milgram","4.0.5","0","h","s","NA","right ctrl","NA","h","371.0","12341","NA","34891","NA","371","2","legacy","1024","2","48000","-16","experiment","HHHHH","2","even","38102","189054","NA","203230","176712","NA","3210","199499","3208","NA","NA","204259","204359","204731","204258","204359","Flanker Task","81","48492.0","90","1024"
"90","90","537","537","#000000","legacy","legacy","legacy","incongruent","1","undefined","1","h","0","0","0","90","0","0","0","90","0","90","0","90","90","90","90","90","Fri Sep 22 20:17:18 2023","600","The main experiment item","True","FlankerTask.osexp","C:\Users\Hannah Laskoskie\Downloads","False","mono","False","18","no","white","no","yes","768","legacy","10","79","C:/Users/Hannah Laskoskie/Downloads/HL-subject-2.csv","legacy","Melodramatic Milgram","4.0.5","0","h","s","NA","right ctrl","NA","h","440.0","12341","NA","34891","NA","440","2","legacy","1024","2","48000","-16","experiment","SSHSS","2","even","38102","189054","NA","204733","176712","NA","3210","199499","3208","NA","NA","205764","205864","206306","205763","205864","Flanker Task","82","48932.0","91","1024"
"90","90","538","538","#000000","legacy","legacy","legacy","congruent","1","undefined","1","s","0","0","0","91","0","0","0","91","0","91","0","91","91","91","91","91","Fri Sep 22 20:17:18 2023","600","The main experiment item","True","FlankerTask.osexp","C:\Users\Hannah Laskoskie\Downloads","False","mono","False","18","no","white","no","yes","768","legacy","11","79","C:/Users/Hannah Laskoskie/Downloads/HL-subject-2.csv","legacy","Melodramatic Milgram","4.0.5","0","s","s","NA","right ctrl","NA","s","614.0","12341","NA","34891","NA","614","2","legacy","1024","2","48000","-16","experiment","SSSSS","2","even","38102","189054","NA","206315","176712","NA","3210","199499","3208","NA","NA","207352","207453","208068","207350","207453","Flanker Task","83","49546.0","92","1024"
"90","90","537","537","#000000","legacy","legacy","legacy","congruent","1","undefined","1","h","0","0","0","92","0","0","0","92","0","92","0","92","92","92","92","92","Fri Sep 22 20:17:18 2023","600","The main experiment item","True","FlankerTask.osexp","C:\Users\Hannah Laskoskie\Downloads","False","mono","False","18","no","white","no","yes","768","legacy","12","79","C:/Users/Hannah Laskoskie/Downloads/HL-subject-2.csv","legacy","Melodramatic Milgram","4.0.5","0","h","s","NA","right ctrl","NA","h","433.0","12341","NA","34891","NA","433","2","legacy","1024","2","48000","-16","experiment","HHHHH","2","even","38102","189054","NA","208577","176712","NA","3210","199499","3208","208077","NA","209600","209700","210135","209599","209700","Flanker Task","84","49979.0","93","1024"
"90","90","537","537","#000000","legacy","legacy","legacy","incongruent","1","undefined","1","s","0","0","0","93","0","0","0","93","0","93","0","93","93","93","93","93","Fri Sep 22 20:17:18 2023","600","The main experiment item","True","FlankerTask.osexp","C:\Users\Hannah Laskoskie\Downloads","False","mono","False","18","no","white","no","yes","768","legacy","13","79","C:/Users/Hannah Laskoskie/Downloads/HL-subject-2.csv","legacy","Melodramatic Milgram","4.0.5","0","s","s","NA","right ctrl","NA","s","520.0","12341","NA","34891","NA","520","2","legacy","1024","2","48000","-16","experiment","HHSHH","2","even","38102","189054","NA","210144","176712","NA","3210","199499","3208","208077","NA","211173","211274","211795","211171","211273","Flanker Task","85","50499.0","94","1024"
"90","90","536","536","#000000","legacy","legacy","legacy","congruent","1","undefined","1","s","0","0","0","94","0","0","0","94","0","94","0","94","94","94","94","94","Fri Sep 22 20:17:18 2023","600","The main experiment item","True","FlankerTask.osexp","C:\Users\Hannah Laskoskie\Downloads","False","mono","False","18","no","white","no","yes","768","legacy","14","79","C:/Users/Hannah Laskoskie/Downloads/HL-subject-2.csv","legacy","Melodramatic Milgram","4.0.5","0","s","s","NA","right ctrl","NA","s","428.0","12341","NA","34891","NA","428","2","legacy","1024","2","48000","-16","experiment","SSSSS","2","even","38102","189054","NA","211804","176712","NA","3210","199499","3208","208077","NA","212833","212944","213373","212831","212944","Flanker Task","86","50927.0","95","1024"
"89","89","534","534","#000000","legacy","legacy","legacy","incongruent","0","undefined","0","s","0","0","0","95","0","0","0","95","0","95","0","95","95","95","95","95","Fri Sep 22 20:17:18 2023","600","The main experiment item","True","FlankerTask.osexp","C:\Users\Hannah Laskoskie\Downloads","False","mono","False","18","no","white","no","yes","768","legacy","15","79","C:/Users/Hannah Laskoskie/Downloads/HL-subject-2.csv","legacy","Melodramatic Milgram","4.0.5","0","h","s","NA","right ctrl","NA","h","418.0","12341","NA","34891","NA","418","2","legacy","1024","2","48000","-16","experiment","HHSHH","2","even","38102","189054","NA","213381","176712","NA","3210","199499","3208","208077","NA","214407","214507","214927","214405","214507","Flanker Task","86","51345.0","96","1024"
"88","88","533","533","#000000","legacy","legacy","legacy","incongruent","0","undefined","0","s","0","0","0","96","0","0","0","96","0","96","0","96","96","96","96","96","Fri Sep 22 20:17:18 2023","600","The main experiment item","True","FlankerTask.osexp","C:\Users\Hannah Laskoskie\Downloads","False","mono","False","18","no","white","no","yes","768","legacy","16","79","C:/Users/Hannah Laskoskie/Downloads/HL-subject-2.csv","legacy","Melodramatic Milgram","4.0.5","0","h","s","NA","right ctrl","NA","h","423.0","12341","NA","34891","NA","423","2","legacy","1024","2","48000","-16","experiment","HHSHH","2","even","38102","189054","NA","215431","176712","NA","3210","214930","3208","208077","NA","216465","216565","216989","216463","216565","Flanker Task","86","51768.0","97","1024"
"88","88","535","535","#000000","legacy","legacy","legacy","incongruent","1","undefined","1","h","0","0","0","97","0","0","0","97","0","97","0","97","97","97","97","97","Fri Sep 22 20:17:18 2023","600","The main experiment item","True","FlankerTask.osexp","C:\Users\Hannah Laskoskie\Downloads","False","mono","False","18","no","white","no","yes","768","legacy","17","79","C:/Users/Hannah Laskoskie/Downloads/HL-subject-2.csv","legacy","Melodramatic Milgram","4.0.5","0","h","s","NA","right ctrl","NA","h","668.0","12341","NA","34891","NA","668","2","legacy","1024","2","48000","-16","experiment","SSHSS","2","even","38102","189054","NA","217491","176712","NA","3210","216991","3208","208077","NA","218514","218615","219284","218513","218614","Flanker Task","87","52436.0","98","1024"
"88","88","534","534","#000000","legacy","legacy","legacy","incongruent","1","undefined","1","s","0","0","0","98","0","0","0","98","0","98","0","98","98","98","98","98","Fri Sep 22 20:17:18 2023","600","The main experiment item","True","FlankerTask.osexp","C:\Users\Hannah Laskoskie\Downloads","False","mono","False","18","no","white","no","yes","768","legacy","18","79","C:/Users/Hannah Laskoskie/Downloads/HL-subject-2.csv","legacy","Melodramatic Milgram","4.0.5","0","s","s","NA","right ctrl","NA","s","470.0","12341","NA","34891","NA","470","2","legacy","1024","2","48000","-16","experiment","HHSHH","2","even","38102","189054","NA","219793","176712","NA","3210","216991","3208","219293","NA","220822","220923","221394","220821","220922","Flanker Task","88","52906.0","99","1024"
"88","88","532","532","#000000","legacy","legacy","legacy","incongruent","0","undefined","0","s","0","0","0","99","0","0","0","99","0","99","0","99","99","99","99","99","Fri Sep 22 20:17:18 2023","600","The main experiment item","True","FlankerTask.osexp","C:\Users\Hannah Laskoskie\Downloads","False","mono","False","18","no","white","no","yes","768","legacy","19","79","C:/Users/Hannah Laskoskie/Downloads/HL-subject-2.csv","legacy","Melodramatic Milgram","4.0.5","0","h","s","NA","right ctrl","NA","h","331.0","12341","NA","34891","NA","331","2","legacy","1024","2","48000","-16","experiment","HHSHH","2","even","38102","189054","NA","221398","176712","NA","3210","216991","3208","219293","NA","222428","222529","222861","222426","222528","Flanker Task","88","53237.0","100","1024"
"87","87","531","531","#000000","legacy","legacy","legacy","congruent","0","undefined","0","h","0","0","0","100","0","0","0","100","0","100","0","100","100","100","100","100","Fri Sep 22 20:17:18 2023","600","The main experiment item","True","FlankerTask.osexp","C:\Users\Hannah Laskoskie\Downloads","False","mono","False","18","no","white","no","yes","768","legacy","20","79","C:/Users/Hannah Laskoskie/Downloads/HL-subject-2.csv","legacy","Melodramatic Milgram","4.0.5","0","s","s","NA","right ctrl","NA","s","453.0","12341","NA","34891","NA","453","2","legacy","1024","2","48000","-16","experiment","HHHHH","2","even","38102","189054","NA","223371","176712","NA","3210","222870","3208","219293","NA","224406","224506","224960","224403","224506","Flanker Task","88","53690.0","101","1024"
"87","87","532","532","#000000","legacy","legacy","legacy","incongruent","1","undefined","1","h","0","0","0","101","0","0","0","101","0","101","0","101","101","101","101","101","Fri Sep 22 20:17:18 2023","600","The main experiment item","True","FlankerTask.osexp","C:\Users\Hannah Laskoskie\Downloads","False","mono","False","18","no","white","no","yes","768","legacy","21","79","C:/Users/Hannah Laskoskie/Downloads/HL-subject-2.csv","legacy","Melodramatic Milgram","4.0.5","0","h","s","NA","right ctrl","NA","h","576.0","12341","NA","34891","NA","576","2","legacy","1024","2","48000","-16","experiment","SSHSS","2","even","38102","189054","NA","225464","176712","NA","3210","224963","3208","219293","NA","226493","226594","227172","226491","226593","Flanker Task","89","54266.0","102","1024"
"87","87","531","531","#000000","legacy","legacy","legacy","congruent","1","undefined","1","h","0","0","0","102","0","0","0","102","0","102","0","102","102","102","102","102","Fri Sep 22 20:17:18 2023","600","The main experiment item","True","FlankerTask.osexp","C:\Users\Hannah Laskoskie\Downloads","False","mono","False","18","no","white","no","yes","768","legacy","22","79","C:/Users/Hannah Laskoskie/Downloads/HL-subject-2.csv","legacy","Melodramatic Milgram","4.0.5","0","h","s","NA","right ctrl","NA","h","435.0","12341","NA","34891","NA","435","2","legacy","1024","2","48000","-16","experiment","HHHHH","2","even","38102","189054","NA","227181","176712","NA","3210","224963","3208","219293","NA","228211","228312","228748","228210","228312","Flanker Task","90","54701.0","103","1024"
"86","86","530","530","#000000","legacy","legacy","legacy","incongruent","0","undefined","0","s","0","0","0","103","0","0","0","103","0","103","0","103","103","103","103","103","Fri Sep 22 20:17:18 2023","600","The main experiment item","True","FlankerTask.osexp","C:\Users\Hannah Laskoskie\Downloads","False","mono","False","18","no","white","no","yes","768","legacy","23","79","C:/Users/Hannah Laskoskie/Downloads/HL-subject-2.csv","legacy","Melodramatic Milgram","4.0.5","0","h","s","NA","right ctrl","NA","h","448.0","12341","NA","34891","NA","448","2","legacy","1024","2","48000","-16","experiment","HHSHH","2","even","38102","189054","NA","228758","176712","NA","3210","224963","3208","219293","NA","229787","229887","230336","229784","229887","Flanker Task","90","55149.0","104","1024"
"86","86","530","530","#000000","legacy","legacy","legacy","congruent","1","undefined","1","s","0","0","0","104","0","0","0","104","0","104","0","104","104","104","104","104","Fri Sep 22 20:17:18 2023","600","The main experiment item","True","FlankerTask.osexp","C:\Users\Hannah Laskoskie\Downloads","False","mono","False","18","no","white","no","yes","768","legacy","24","79","C:/Users/Hannah Laskoskie/Downloads/HL-subject-2.csv","legacy","Melodramatic Milgram","4.0.5","0","s","s","NA","right ctrl","NA","s","549.0","12341","NA","34891","NA","549","2","legacy","1024","2","48000","-16","experiment","SSSSS","2","even","38102","189054","NA","230839","176712","NA","3210","230338","3208","219293","NA","231864","231964","232514","231863","231964","Flanker Task","91","55698.0","105","1024"
"86","86","529","529","#000000","legacy","legacy","legacy","congruent","1","undefined","1","s","0","0","0","105","0","0","0","105","0","105","0","105","105","105","105","105","Fri Sep 22 20:17:18 2023","600","The main experiment item","True","FlankerTask.osexp","C:\Users\Hannah Laskoskie\Downloads","False","mono","False","18","no","white","no","yes","768","legacy","25","79","C:/Users/Hannah Laskoskie/Downloads/HL-subject-2.csv","legacy","Melodramatic Milgram","4.0.5","0","s","s","NA","right ctrl","NA","s","439.0","12341","NA","34891","NA","439","2","legacy","1024","2","48000","-16","experiment","SSSSS","2","even","38102","189054","NA","232517","176712","NA","3210","230338","3208","219293","NA","233549","233649","234089","233548","233649","Flanker Task","92","56137.0","106","1024"
"86","86","529","529","#000000","legacy","legacy","legacy","congruent","1","undefined","1","s","0","0","0","106","0","0","0","106","0","106","0","106","106","106","106","106","Fri Sep 22 20:17:18 2023","600","The main experiment item","True","FlankerTask.osexp","C:\Users\Hannah Laskoskie\Downloads","False","mono","False","18","no","white","no","yes","768","legacy","26","79","C:/Users/Hannah Laskoskie/Downloads/HL-subject-2.csv","legacy","Melodramatic Milgram","4.0.5","0","s","s","NA","right ctrl","NA","s","493.0","12341","NA","34891","NA","493","2","legacy","1024","2","48000","-16","experiment","SSSSS","2","even","38102","189054","NA","234097","176712","NA","3210","230338","3208","219293","NA","235126","235227","235721","235125","235226","Flanker Task","93","56630.0","107","1024"
"87","87","528","528","#000000","legacy","legacy","legacy","congruent","1","undefined","1","s","0","0","0","107","0","0","0","107","0","107","0","107","107","107","107","107","Fri Sep 22 20:17:18 2023","600","The main experiment item","True","FlankerTask.osexp","C:\Users\Hannah Laskoskie\Downloads","False","mono","False","18","no","white","no","yes","768","legacy","27","79","C:/Users/Hannah Laskoskie/Downloads/HL-subject-2.csv","legacy","Melodramatic Milgram","4.0.5","0","s","s","NA","right ctrl","NA","s","409.0","12341","NA","34891","NA","409","2","legacy","1024","2","48000","-16","experiment","SSSSS","2","even","38102","189054","NA","235730","176712","NA","3210","230338","3208","219293","NA","236753","236853","237263","236752","236853","Flanker Task","94","57039.0","108","1024"
"87","87","527","527","#000000","legacy","legacy","legacy","incongruent","1","undefined","1","s","0","0","0","108","0","0","0","108","0","108","0","108","108","108","108","108","Fri Sep 22 20:17:18 2023","600","The main experiment item","True","FlankerTask.osexp","C:\Users\Hannah Laskoskie\Downloads","False","mono","False","18","no","white","no","yes","768","legacy","28","79","C:/Users/Hannah Laskoskie/Downloads/HL-subject-2.csv","legacy","Melodramatic Milgram","4.0.5","0","s","s","NA","right ctrl","NA","s","409.0","12341","NA","34891","NA","409","2","legacy","1024","2","48000","-16","experiment","HHSHH","2","even","38102","189054","NA","237266","176712","NA","3210","230338","3208","219293","NA","238297","238398","238809","238296","238398","Flanker Task","95","57448.0","109","1024"
"87","87","526","526","#000000","legacy","legacy","legacy","incongruent","1","undefined","1","s","0","0","0","109","0","0","0","109","0","109","0","109","109","109","109","109","Fri Sep 22 20:17:18 2023","600","The main experiment item","True","FlankerTask.osexp","C:\Users\Hannah Laskoskie\Downloads","False","mono","False","18","no","white","no","yes","768","legacy","29","79","C:/Users/Hannah Laskoskie/Downloads/HL-subject-2.csv","legacy","Melodramatic Milgram","4.0.5","0","s","s","NA","right ctrl","NA","s","414.0","12341","NA","34891","NA","414","2","legacy","1024","2","48000","-16","experiment","HHSHH","2","even","38102","189054","NA","238811","176712","NA","3210","230338","3208","219293","NA","239844","239945","240361","239841","239945","Flanker Task","96","57862.0","110","1024"
"87","87","524","524","#000000","legacy","legacy","legacy","congruent","1","undefined","1","s","0","0","0","110","0","0","0","110","0","110","0","110","110","110","110","110","Fri Sep 22 20:17:18 2023","600","The main experiment item","True","FlankerTask.osexp","C:\Users\Hannah Laskoskie\Downloads","False","mono","False","18","no","white","no","yes","768","legacy","30","79","C:/Users/Hannah Laskoskie/Downloads/HL-subject-2.csv","legacy","Melodramatic Milgram","4.0.5","0","s","s","NA","right ctrl","NA","s","364.0","12341","NA","34891","NA","364","2","legacy","1024","2","48000","-16","experiment","SSSSS","2","even","38102","189054","NA","240370","176712","NA","3210","230338","3208","219293","NA","241412","241513","241879","241410","241513","Flanker Task","97","58226.0","111","1024"
"86","86","523","523","#000000","legacy","legacy","legacy","congruent","0","undefined","0","h","0","0","0","111","0","0","0","111","0","111","0","111","111","111","111","111","Fri Sep 22 20:17:18 2023","600","The main experiment item","True","FlankerTask.osexp","C:\Users\Hannah Laskoskie\Downloads","False","mono","False","18","no","white","no","yes","768","legacy","31","79","C:/Users/Hannah Laskoskie/Downloads/HL-subject-2.csv","legacy","Melodramatic Milgram","4.0.5","0","s","s","NA","right ctrl","NA","s","460.0","12341","NA","34891","NA","460","2","legacy","1024","2","48000","-16","experiment","HHHHH","2","even","38102","189054","NA","241883","176712","NA","3210","230338","3208","219293","NA","242922","243023","243486","242919","243023","Flanker Task","97","58686.0","112","1024"
"86","86","524","524","#000000","legacy","legacy","legacy","incongruent","1","undefined","1","h","0","0","0","112","0","0","0","112","0","112","0","112","112","112","112","112","Fri Sep 22 20:17:18 2023","600","The main experiment item","True","FlankerTask.osexp","C:\Users\Hannah Laskoskie\Downloads","False","mono","False","18","no","white","no","yes","768","legacy","32","79","C:/Users/Hannah Laskoskie/Downloads/HL-subject-2.csv","legacy","Melodramatic Milgram","4.0.5","0","h","s","NA","right ctrl","NA","h","581.0","12341","NA","34891","NA","581","2","legacy","1024","2","48000","-16","experiment","SSHSS","2","even","38102","189054","NA","243997","176712","NA","3210","243496","3208","219293","NA","245035","245136","245719","245032","245136","Flanker Task","98","59267.0","113","1024"
"86","86","524","524","#000000","legacy","legacy","legacy","congruent","1","undefined","1","h","0","0","0","113","0","0","0","113","0","113","0","113","113","113","113","113","Fri Sep 22 20:17:18 2023","600","The main experiment item","True","FlankerTask.osexp","C:\Users\Hannah Laskoskie\Downloads","False","mono","False","18","no","white","no","yes","768","legacy","33","79","C:/Users/Hannah Laskoskie/Downloads/HL-subject-2.csv","legacy","Melodramatic Milgram","4.0.5","0","h","s","NA","right ctrl","NA","h","477.0","12341","NA","34891","NA","477","2","legacy","1024","2","48000","-16","experiment","HHHHH","2","even","38102","189054","NA","245728","176712","NA","3210","243496","3208","219293","NA","246773","246874","247352","246770","246874","Flanker Task","99","59744.0","114","1024"
"86","86","523","523","#000000","legacy","legacy","legacy","incongruent","1","undefined","1","s","0","0","0","114","0","0","0","114","0","114","0","114","114","114","114","114","Fri Sep 22 20:17:18 2023","600","The main experiment item","True","FlankerTask.osexp","C:\Users\Hannah Laskoskie\Downloads","False","mono","False","18","no","white","no","yes","768","legacy","34","79","C:/Users/Hannah Laskoskie/Downloads/HL-subject-2.csv","legacy","Melodramatic Milgram","4.0.5","0","s","s","NA","right ctrl","NA","s","508.0","12341","NA","34891","NA","508","2","legacy","1024","2","48000","-16","experiment","HHSHH","2","even","38102","189054","NA","247362","176712","NA","3210","243496","3208","219293","NA","248407","248507","249017","248406","248507","Flanker Task","100","60252.0","115","1024"
"87","87","524","524","#000000","legacy","legacy","legacy","incongruent","1","undefined","1","s","0","0","0","115","0","0","0","115","0","115","0","115","115","115","115","115","Fri Sep 22 20:17:18 2023","600","The main experiment item","True","FlankerTask.osexp","C:\Users\Hannah Laskoskie\Downloads","False","mono","False","18","no","white","no","yes","768","legacy","35","79","C:/Users/Hannah Laskoskie/Downloads/HL-subject-2.csv","legacy","Melodramatic Milgram","4.0.5","0","s","s","NA","right ctrl","NA","s","595.0","12341","NA","34891","NA","595","2","legacy","1024","2","48000","-16","experiment","HHSHH","2","even","38102","189054","NA","249020","176712","NA","3210","243496","3208","219293","NA","250059","250160","250757","250057","250159","Flanker Task","101","60847.0","116","1024"
"87","87","525","525","#000000","legacy","legacy","legacy","congruent","1","undefined","1","s","0","0","0","116","0","0","0","116","0","116","0","116","116","116","116","116","Fri Sep 22 20:17:18 2023","600","The main experiment item","True","FlankerTask.osexp","C:\Users\Hannah Laskoskie\Downloads","False","mono","False","18","no","white","no","yes","768","legacy","36","79","C:/Users/Hannah Laskoskie/Downloads/HL-subject-2.csv","legacy","Melodramatic Milgram","4.0.5","0","s","s","NA","right ctrl","NA","s","613.0","12341","NA","34891","NA","613","2","legacy","1024","2","48000","-16","experiment","SSSSS","2","even","38102","189054","NA","250766","176712","NA","3210","243496","3208","219293","NA","251800","251902","252517","251798","251902","Flanker Task","102","61460.0","117","1024"
"87","87","523","523","#000000","legacy","legacy","legacy","incongruent","1","undefined","1","s","0","0","0","117","0","0","0","117","0","117","0","117","117","117","117","117","Fri Sep 22 20:17:18 2023","600","The main experiment item","True","FlankerTask.osexp","C:\Users\Hannah Laskoskie\Downloads","False","mono","False","18","no","white","no","yes","768","legacy","37","79","C:/Users/Hannah Laskoskie/Downloads/HL-subject-2.csv","legacy","Melodramatic Milgram","4.0.5","0","s","s","NA","right ctrl","NA","s","330.0","12341","NA","34891","NA","330","2","legacy","1024","2","48000","-16","experiment","HHSHH","2","even","38102","189054","NA","253028","176712","NA","3210","243496","3208","252527","NA","254069","254169","254500","254067","254169","Flanker Task","103","61790.0","118","1024"
"87","87","523","523","#000000","legacy","legacy","legacy","congruent","1","undefined","1","h","0","0","0","118","0","0","0","118","0","118","0","118","118","118","118","118","Fri Sep 22 20:17:18 2023","600","The main experiment item","True","FlankerTask.osexp","C:\Users\Hannah Laskoskie\Downloads","False","mono","False","18","no","white","no","yes","768","legacy","38","79","C:/Users/Hannah Laskoskie/Downloads/HL-subject-2.csv","legacy","Melodramatic Milgram","4.0.5","0","h","s","NA","right ctrl","NA","h","459.0","12341","NA","34891","NA","459","2","legacy","1024","2","48000","-16","experiment","HHHHH","2","even","38102","189054","NA","254503","176712","NA","3210","243496","3208","252527","NA","255528","255629","256089","255527","255629","Flanker Task","104","62249.0","119","1024"
"86","86","522","522","#000000","legacy","legacy","legacy","incongruent","0","undefined","0","s","0","0","0","119","0","0","0","119","0","119","0","119","119","119","119","119","Fri Sep 22 20:17:18 2023","600","The main experiment item","True","FlankerTask.osexp","C:\Users\Hannah Laskoskie\Downloads","False","mono","False","18","no","white","no","yes","768","legacy","39","79","C:/Users/Hannah Laskoskie/Downloads/HL-subject-2.csv","legacy","Melodramatic Milgram","4.0.5","0","h","s","NA","right ctrl","NA","h","429.0","12341","NA","34891","NA","429","2","legacy","1024","2","48000","-16","experiment","HHSHH","2","even","38102","189054","NA","256098","176712","NA","3210","243496","3208","252527","NA","257131","257232","257663","257129","257232","Flanker Task","104","62678.0","120","1024"
"85","85","521","521","#000000","legacy","legacy","legacy","incongruent","0","undefined","0","h","0","0","0","120","0","0","0","120","0","120","0","120","120","120","120","120","Fri Sep 22 20:17:18 2023","600","The main experiment item","True","FlankerTask.osexp","C:\Users\Hannah Laskoskie\Downloads","False","mono","False","18","no","white","no","yes","768","legacy","40","79","C:/Users/Hannah Laskoskie/Downloads/HL-subject-2.csv","legacy","Melodramatic Milgram","4.0.5","0","s","s","NA","right ctrl","NA","s","464.0","12341","NA","34891","NA","464","2","legacy","1024","2","48000","-16","experiment","SSHSS","2","even","38102","189054","NA","258173","176712","NA","3210","257672","3208","252527","NA","259205","259305","259771","259204","259305","Flanker Task","104","63142.0","121","1024"
"85","85","520","520","#000000","legacy","legacy","legacy","incongruent","0","undefined","0","h","0","0","0","121","0","0","0","121","0","121","0","121","121","121","121","121","Fri Sep 22 20:17:18 2023","600","The main experiment item","True","FlankerTask.osexp","C:\Users\Hannah Laskoskie\Downloads","False","mono","False","18","no","white","no","yes","768","legacy","41","79","C:/Users/Hannah Laskoskie/Downloads/HL-subject-2.csv","legacy","Melodramatic Milgram","4.0.5","0","s","s","NA","right ctrl","NA","s","344.0","12341","NA","34891","NA","344","2","legacy","1024","2","48000","-16","experiment","SSHSS","2","even","38102","189054","NA","260273","176712","NA","3210","259773","3208","252527","NA","261301","261401","261747","261299","261401","Flanker Task","104","63486.0","122","1024"
"85","85","519","519","#000000","legacy","legacy","legacy","incongruent","1","undefined","1","s","0","0","0","122","0","0","0","122","0","122","0","122","122","122","122","122","Fri Sep 22 20:17:18 2023","600","The main experiment item","True","FlankerTask.osexp","C:\Users\Hannah Laskoskie\Downloads","False","mono","False","18","no","white","no","yes","768","legacy","42","79","C:/Users/Hannah Laskoskie/Downloads/HL-subject-2.csv","legacy","Melodramatic Milgram","4.0.5","0","s","s","NA","right ctrl","NA","s","453.0","12341","NA","34891","NA","453","2","legacy","1024","2","48000","-16","experiment","HHSHH","2","even","38102","189054","NA","262249","176712","NA","3210","261749","3208","252527","NA","263275","263376","263830","263273","263376","Flanker Task","105","63939.0","123","1024"
"85","85","518","518","#000000","legacy","legacy","legacy","congruent","1","undefined","1","s","0","0","0","123","0","0","0","123","0","123","0","123","123","123","123","123","Fri Sep 22 20:17:18 2023","600","The main experiment item","True","FlankerTask.osexp","C:\Users\Hannah Laskoskie\Downloads","False","mono","False","18","no","white","no","yes","768","legacy","43","79","C:/Users/Hannah Laskoskie/Downloads/HL-subject-2.csv","legacy","Melodramatic Milgram","4.0.5","0","s","s","NA","right ctrl","NA","s","337.0","12341","NA","34891","NA","337","2","legacy","1024","2","48000","-16","experiment","SSSSS","2","even","38102","189054","NA","263839","176712","NA","3210","261749","3208","252527","NA","264886","264987","265325","264884","264987","Flanker Task","106","64276.0","124","1024"
"85","85","517","517","#000000","legacy","legacy","legacy","congruent","1","undefined","1","s","0","0","0","124","0","0","0","124","0","124","0","124","124","124","124","124","Fri Sep 22 20:17:18 2023","600","The main experiment item","True","FlankerTask.osexp","C:\Users\Hannah Laskoskie\Downloads","False","mono","False","18","no","white","no","yes","768","legacy","44","79","C:/Users/Hannah Laskoskie/Downloads/HL-subject-2.csv","legacy","Melodramatic Milgram","4.0.5","0","s","s","NA","right ctrl","NA","s","464.0","12341","NA","34891","NA","464","2","legacy","1024","2","48000","-16","experiment","SSSSS","2","even","38102","189054","NA","265327","176712","NA","3210","261749","3208","252527","NA","266353","266453","266919","266351","266453","Flanker Task","107","64740.0","125","1024"
"85","85","517","517","#000000","legacy","legacy","legacy","congruent","1","undefined","1","s","0","0","0","125","0","0","0","125","0","125","0","125","125","125","125","125","Fri Sep 22 20:17:18 2023","600","The main experiment item","True","FlankerTask.osexp","C:\Users\Hannah Laskoskie\Downloads","False","mono","False","18","no","white","no","yes","768","legacy","45","79","C:/Users/Hannah Laskoskie/Downloads/HL-subject-2.csv","legacy","Melodramatic Milgram","4.0.5","0","s","s","NA","right ctrl","NA","s","481.0","12341","NA","34891","NA","481","2","legacy","1024","2","48000","-16","experiment","SSSSS","2","even","38102","189054","NA","266921","176712","NA","3210","261749","3208","252527","NA","267948","268048","268531","267947","268048","Flanker Task","108","65221.0","126","1024"
"85","85","517","517","#000000","legacy","legacy","legacy","congruent","1","undefined","1","s","0","0","0","126","0","0","0","126","0","126","0","126","126","126","126","126","Fri Sep 22 20:17:18 2023","600","The main experiment item","True","FlankerTask.osexp","C:\Users\Hannah Laskoskie\Downloads","False","mono","False","18","no","white","no","yes","768","legacy","46","79","C:/Users/Hannah Laskoskie/Downloads/HL-subject-2.csv","legacy","Melodramatic Milgram","4.0.5","0","s","s","NA","right ctrl","NA","s","453.0","12341","NA","34891","NA","453","2","legacy","1024","2","48000","-16","experiment","SSSSS","2","even","38102","189054","NA","268533","176712","NA","3210","261749","3208","252527","NA","269564","269665","270119","269562","269664","Flanker Task","109","65674.0","127","1024"
