"acc","accuracy","average_response_time","avg_rt","background","canvas_backend","clock_backend","color_backend","compensation","condition","coordinates","correct","correct_instructions1","correct_keyboard_response","correct_response","count_Block1","count_Block2","count_Block3","count_ISI","count_errorFeedback","count_experiment","count_faster","count_finish","count_fixation","count_instructions1","count_instructions2","count_instructons3","count_keyboard_response","count_logger","count_sequence","count_stimulus","datetime","deadline","description","disable_garbage_collection","experiment_file","experiment_path","font_bold","font_family","font_italic","font_size","font_underline","foreground","form_clicks","fullscreen","height","keyboard_backend","live_row","live_row_Block1","logfile","mouse_backend","opensesame_codename","opensesame_version","repeat_cycle","response","response_finish","response_instructions1","response_instructions2","response_instructons3","response_keyboard_response","response_time","response_time_finish","response_time_instructions1","response_time_instructions2","response_time_instructons3","response_time_keyboard_response","round_decimals","sampler_backend","sound_buf_size","sound_channels","sound_freq","sound_sample_size","start","stimulus","subject_nr","subject_parity","time_Block1","time_Block2","time_Block3","time_ISI","time_errorFeedback","time_experiment","time_faster","time_finish","time_fixation","time_instructions1","time_instructions2","time_instructons3","time_keyboard_response","time_logger","time_sequence","time_stimulus","title","total_correct","total_response_time","total_responses","uniform_coordinates","width"
"100","100","489","489","black","legacy","legacy","legacy","0","congruent","uniform","1","undefined","1","s","0","0","0","0","0","0","0","0","0","0","0","0","0","0","0","0","Sun Sep 26 20:12:06 2021","1500","The main experiment item","yes","SR-FlankerTask.osexp","C:/Users/Simon M. Rook/Documents/School/1Tarleton/Classes/Adv Quant/Lab 2","no","mono","no","18","no","white","no","no","768","legacy","0","0","C:/Users/Simon M. Rook/Documents/School/1Tarleton/Classes/Adv Quant/Lab 2/flanker-data/sr-subject-4.csv","legacy","Lentiform Loewenfeld","3.3.10","0","s","NA","s","NA","NA","s","489","NA","51055","NA","NA","489","2","legacy","1024","2","48000","-16","experiment","SSSSS","4","even","52599","NA","NA","NA","NA","1540","NA","NA","52664","1543","NA","NA","52765","53254","52662","52765","Flanker Task","1","489","1","yes","1024"
"100","100","444.5","444.5","black","legacy","legacy","legacy","0","incongruent","uniform","1","undefined","1","h","0","0","0","1","1","0","1","0","1","0","0","0","1","1","1","1","Sun Sep 26 20:12:06 2021","1500","The main experiment item","yes","SR-FlankerTask.osexp","C:/Users/Simon M. Rook/Documents/School/1Tarleton/Classes/Adv Quant/Lab 2","no","mono","no","18","no","white","no","no","768","legacy","1","1","C:/Users/Simon M. Rook/Documents/School/1Tarleton/Classes/Adv Quant/Lab 2/flanker-data/sr-subject-4.csv","legacy","Lentiform Loewenfeld","3.3.10","0","h","NA","s","NA","NA","h","400","NA","51055","NA","NA","400","2","legacy","1024","2","48000","-16","experiment","SSHSS","4","even","52599","NA","NA","53261","NA","1540","NA","NA","54314","1543","NA","NA","54415","54815","54312","54415","Flanker Task","2","889","2","yes","1024"
"66.66666666666667","66.66666666666667","409","409","black","legacy","legacy","legacy","0","incongruent","uniform","0","undefined","0","h","0","0","0","2","2","0","2","0","2","0","0","0","2","2","2","2","Sun Sep 26 20:12:06 2021","1500","The main experiment item","yes","SR-FlankerTask.osexp","C:/Users/Simon M. Rook/Documents/School/1Tarleton/Classes/Adv Quant/Lab 2","no","mono","no","18","no","white","no","no","768","legacy","2","2","C:/Users/Simon M. Rook/Documents/School/1Tarleton/Classes/Adv Quant/Lab 2/flanker-data/sr-subject-4.csv","legacy","Lentiform Loewenfeld","3.3.10","0","s","NA","s","NA","NA","s","338","NA","51055","NA","NA","338","2","legacy","1024","2","48000","-16","experiment","SSHSS","4","even","52599","NA","NA","54818","NA","1540","NA","NA","55871","1543","NA","NA","55972","56311","55869","55972","Flanker Task","2","1227","3","yes","1024"
"75","75","462.25","462.25","black","legacy","legacy","legacy","0","incongruent","uniform","1","undefined","1","s","0","0","0","3","3","0","3","0","3","0","0","0","3","3","3","3","Sun Sep 26 20:12:06 2021","1500","The main experiment item","yes","SR-FlankerTask.osexp","C:/Users/Simon M. Rook/Documents/School/1Tarleton/Classes/Adv Quant/Lab 2","no","mono","no","18","no","white","no","no","768","legacy","3","3","C:/Users/Simon M. Rook/Documents/School/1Tarleton/Classes/Adv Quant/Lab 2/flanker-data/sr-subject-4.csv","legacy","Lentiform Loewenfeld","3.3.10","0","s","NA","s","NA","NA","s","622","NA","51055","NA","NA","622","2","legacy","1024","2","48000","-16","experiment","HHSHH","4","even","52599","NA","NA","56815","56314","1540","NA","NA","57868","1543","NA","NA","57969","58592","57866","57969","Flanker Task","3","1849","4","yes","1024"
"80","80","451.8","451.8","black","legacy","legacy","legacy","0","congruent","uniform","1","undefined","1","h","0","0","0","4","4","0","4","0","4","0","0","0","4","4","4","4","Sun Sep 26 20:12:06 2021","1500","The main experiment item","yes","SR-FlankerTask.osexp","C:/Users/Simon M. Rook/Documents/School/1Tarleton/Classes/Adv Quant/Lab 2","no","mono","no","18","no","white","no","no","768","legacy","4","4","C:/Users/Simon M. Rook/Documents/School/1Tarleton/Classes/Adv Quant/Lab 2/flanker-data/sr-subject-4.csv","legacy","Lentiform Loewenfeld","3.3.10","0","h","NA","s","NA","NA","h","410","NA","51055","NA","NA","410","2","legacy","1024","2","48000","-16","experiment","HHHHH","4","even","52599","NA","NA","58595","56314","1540","NA","NA","59648","1543","NA","NA","59749","60159","59646","59749","Flanker Task","4","2259","5","yes","1024"
"83.33333333333333","83.33333333333333","444.8333333333333","444.8333333333333","black","legacy","legacy","legacy","0","incongruent","uniform","1","undefined","1","h","0","0","0","5","5","0","5","0","5","0","0","0","5","5","5","5","Sun Sep 26 20:12:06 2021","1500","The main experiment item","yes","SR-FlankerTask.osexp","C:/Users/Simon M. Rook/Documents/School/1Tarleton/Classes/Adv Quant/Lab 2","no","mono","no","18","no","white","no","no","768","legacy","5","5","C:/Users/Simon M. Rook/Documents/School/1Tarleton/Classes/Adv Quant/Lab 2/flanker-data/sr-subject-4.csv","legacy","Lentiform Loewenfeld","3.3.10","0","h","NA","s","NA","NA","h","410","NA","51055","NA","NA","410","2","legacy","1024","2","48000","-16","experiment","SSHSS","4","even","52599","NA","NA","60163","56314","1540","NA","NA","61216","1543","NA","NA","61317","61727","61215","61317","Flanker Task","5","2669","6","yes","1024"
"85.71428571428571","85.71428571428571","439","439","black","legacy","legacy","legacy","0","incongruent","uniform","1","undefined","1","h","0","0","0","6","6","0","6","0","6","0","0","0","6","6","6","6","Sun Sep 26 20:12:06 2021","1500","The main experiment item","yes","SR-FlankerTask.osexp","C:/Users/Simon M. Rook/Documents/School/1Tarleton/Classes/Adv Quant/Lab 2","no","mono","no","18","no","white","no","no","768","legacy","6","6","C:/Users/Simon M. Rook/Documents/School/1Tarleton/Classes/Adv Quant/Lab 2/flanker-data/sr-subject-4.csv","legacy","Lentiform Loewenfeld","3.3.10","0","h","NA","s","NA","NA","h","404","NA","51055","NA","NA","404","2","legacy","1024","2","48000","-16","experiment","SSHSS","4","even","52599","NA","NA","61730","56314","1540","NA","NA","62783","1543","NA","NA","62884","63288","62781","62884","Flanker Task","6","3073","7","yes","1024"
"87.5","87.5","450.375","450.375","black","legacy","legacy","legacy","0","congruent","uniform","1","undefined","1","h","0","0","0","7","7","0","7","0","7","0","0","0","7","7","7","7","Sun Sep 26 20:12:06 2021","1500","The main experiment item","yes","SR-FlankerTask.osexp","C:/Users/Simon M. Rook/Documents/School/1Tarleton/Classes/Adv Quant/Lab 2","no","mono","no","18","no","white","no","no","768","legacy","7","7","C:/Users/Simon M. Rook/Documents/School/1Tarleton/Classes/Adv Quant/Lab 2/flanker-data/sr-subject-4.csv","legacy","Lentiform Loewenfeld","3.3.10","0","h","NA","s","NA","NA","h","530","NA","51055","NA","NA","530","2","legacy","1024","2","48000","-16","experiment","HHHHH","4","even","52599","NA","NA","63292","56314","1540","NA","NA","64345","1543","NA","NA","64446","64976","64343","64446","Flanker Task","7","3603","8","yes","1024"
"88.88888888888889","88.88888888888889","459.22222222222223","459.22222222222223","black","legacy","legacy","legacy","0","incongruent","uniform","1","undefined","1","s","0","0","0","8","8","0","8","0","8","0","0","0","8","8","8","8","Sun Sep 26 20:12:06 2021","1500","The main experiment item","yes","SR-FlankerTask.osexp","C:/Users/Simon M. Rook/Documents/School/1Tarleton/Classes/Adv Quant/Lab 2","no","mono","no","18","no","white","no","no","768","legacy","8","8","C:/Users/Simon M. Rook/Documents/School/1Tarleton/Classes/Adv Quant/Lab 2/flanker-data/sr-subject-4.csv","legacy","Lentiform Loewenfeld","3.3.10","0","s","NA","s","NA","NA","s","530","NA","51055","NA","NA","530","2","legacy","1024","2","48000","-16","experiment","HHSHH","4","even","52599","NA","NA","64979","56314","1540","NA","NA","66041","1543","NA","NA","66142","66672","66040","66142","Flanker Task","8","4133","9","yes","1024"
"90","90","459.2","459.2","black","legacy","legacy","legacy","0","congruent","uniform","1","undefined","1","h","0","0","0","9","9","0","9","0","9","0","0","0","9","9","9","9","Sun Sep 26 20:12:06 2021","1500","The main experiment item","yes","SR-FlankerTask.osexp","C:/Users/Simon M. Rook/Documents/School/1Tarleton/Classes/Adv Quant/Lab 2","no","mono","no","18","no","white","no","no","768","legacy","9","9","C:/Users/Simon M. Rook/Documents/School/1Tarleton/Classes/Adv Quant/Lab 2/flanker-data/sr-subject-4.csv","legacy","Lentiform Loewenfeld","3.3.10","0","h","NA","s","NA","NA","h","459","NA","51055","NA","NA","459","2","legacy","1024","2","48000","-16","experiment","HHHHH","4","even","52599","NA","NA","66675","56314","1540","NA","NA","67728","1543","NA","NA","67829","68289","67726","67829","Flanker Task","9","4592","10","yes","1024"
"90.9090909090909","90.9090909090909","462","462","black","legacy","legacy","legacy","0","incongruent","uniform","1","undefined","1","s","0","0","0","10","10","0","10","0","10","0","0","0","10","10","10","10","Sun Sep 26 20:12:06 2021","1500","The main experiment item","yes","SR-FlankerTask.osexp","C:/Users/Simon M. Rook/Documents/School/1Tarleton/Classes/Adv Quant/Lab 2","no","mono","no","18","no","white","no","no","768","legacy","10","10","C:/Users/Simon M. Rook/Documents/School/1Tarleton/Classes/Adv Quant/Lab 2/flanker-data/sr-subject-4.csv","legacy","Lentiform Loewenfeld","3.3.10","0","s","NA","s","NA","NA","s","490","NA","51055","NA","NA","490","2","legacy","1024","2","48000","-16","experiment","HHSHH","4","even","52599","NA","NA","68292","56314","1540","NA","NA","69345","1543","NA","NA","69446","69936","69343","69446","Flanker Task","10","5082","11","yes","1024"
"91.66666666666667","91.66666666666667","460.6666666666667","460.6666666666667","black","legacy","legacy","legacy","0","congruent","uniform","1","undefined","1","s","0","0","0","11","11","0","11","0","11","0","0","0","11","11","11","11","Sun Sep 26 20:12:06 2021","1500","The main experiment item","yes","SR-FlankerTask.osexp","C:/Users/Simon M. Rook/Documents/School/1Tarleton/Classes/Adv Quant/Lab 2","no","mono","no","18","no","white","no","no","768","legacy","11","11","C:/Users/Simon M. Rook/Documents/School/1Tarleton/Classes/Adv Quant/Lab 2/flanker-data/sr-subject-4.csv","legacy","Lentiform Loewenfeld","3.3.10","0","s","NA","s","NA","NA","s","446","NA","51055","NA","NA","446","2","legacy","1024","2","48000","-16","experiment","SSSSS","4","even","52599","NA","NA","69940","56314","1540","NA","NA","70995","1543","NA","NA","71098","71544","70994","71098","Flanker Task","11","5528","12","yes","1024"
"92.3076923076923","92.3076923076923","458.6923076923077","458.6923076923077","black","legacy","legacy","legacy","0","congruent","uniform","1","undefined","1","s","0","0","0","12","12","0","12","0","12","0","0","0","12","12","12","12","Sun Sep 26 20:12:06 2021","1500","The main experiment item","yes","SR-FlankerTask.osexp","C:/Users/Simon M. Rook/Documents/School/1Tarleton/Classes/Adv Quant/Lab 2","no","mono","no","18","no","white","no","no","768","legacy","12","12","C:/Users/Simon M. Rook/Documents/School/1Tarleton/Classes/Adv Quant/Lab 2/flanker-data/sr-subject-4.csv","legacy","Lentiform Loewenfeld","3.3.10","0","s","NA","s","NA","NA","s","435","NA","51055","NA","NA","435","2","legacy","1024","2","48000","-16","experiment","SSSSS","4","even","52599","NA","NA","71548","56314","1540","NA","NA","72601","1543","NA","NA","72702","73137","72600","72702","Flanker Task","12","5963","13","yes","1024"
"92.85714285714286","92.85714285714286","460.85714285714283","460.85714285714283","black","legacy","legacy","legacy","0","incongruent","uniform","1","undefined","1","h","0","0","0","13","13","0","13","0","13","0","0","0","13","13","13","13","Sun Sep 26 20:12:06 2021","1500","The main experiment item","yes","SR-FlankerTask.osexp","C:/Users/Simon M. Rook/Documents/School/1Tarleton/Classes/Adv Quant/Lab 2","no","mono","no","18","no","white","no","no","768","legacy","13","13","C:/Users/Simon M. Rook/Documents/School/1Tarleton/Classes/Adv Quant/Lab 2/flanker-data/sr-subject-4.csv","legacy","Lentiform Loewenfeld","3.3.10","0","h","NA","s","NA","NA","h","489","NA","51055","NA","NA","489","2","legacy","1024","2","48000","-16","experiment","SSHSS","4","even","52599","NA","NA","73140","56314","1540","NA","NA","74194","1543","NA","NA","74295","74785","74192","74295","Flanker Task","13","6452","14","yes","1024"
"93.33333333333333","93.33333333333333","461.26666666666665","461.26666666666665","black","legacy","legacy","legacy","0","incongruent","uniform","1","undefined","1","h","0","0","0","14","14","0","14","0","14","0","0","0","14","14","14","14","Sun Sep 26 20:12:06 2021","1500","The main experiment item","yes","SR-FlankerTask.osexp","C:/Users/Simon M. Rook/Documents/School/1Tarleton/Classes/Adv Quant/Lab 2","no","mono","no","18","no","white","no","no","768","legacy","14","14","C:/Users/Simon M. Rook/Documents/School/1Tarleton/Classes/Adv Quant/Lab 2/flanker-data/sr-subject-4.csv","legacy","Lentiform Loewenfeld","3.3.10","0","h","NA","s","NA","NA","h","467","NA","51055","NA","NA","467","2","legacy","1024","2","48000","-16","experiment","SSHSS","4","even","52599","NA","NA","74788","56314","1540","NA","NA","75841","1543","NA","NA","75942","76410","75839","75942","Flanker Task","14","6919","15","yes","1024"
"93.75","93.75","467.0625","467.0625","black","legacy","legacy","legacy","0","incongruent","uniform","1","undefined","1","h","0","0","0","15","15","0","15","0","15","0","0","0","15","15","15","15","Sun Sep 26 20:12:06 2021","1500","The main experiment item","yes","SR-FlankerTask.osexp","C:/Users/Simon M. Rook/Documents/School/1Tarleton/Classes/Adv Quant/Lab 2","no","mono","no","18","no","white","no","no","768","legacy","15","15","C:/Users/Simon M. Rook/Documents/School/1Tarleton/Classes/Adv Quant/Lab 2/flanker-data/sr-subject-4.csv","legacy","Lentiform Loewenfeld","3.3.10","0","h","NA","s","NA","NA","h","554","NA","51055","NA","NA","554","2","legacy","1024","2","48000","-16","experiment","SSHSS","4","even","52599","NA","NA","76413","56314","1540","NA","NA","77466","1543","NA","NA","77567","78122","77464","77567","Flanker Task","15","7473","16","yes","1024"
"94.11764705882354","94.11764705882354","464.6470588235294","464.6470588235294","black","legacy","legacy","legacy","0","incongruent","uniform","1","undefined","1","h","0","0","0","16","16","0","16","0","16","0","0","0","16","16","16","16","Sun Sep 26 20:12:06 2021","1500","The main experiment item","yes","SR-FlankerTask.osexp","C:/Users/Simon M. Rook/Documents/School/1Tarleton/Classes/Adv Quant/Lab 2","no","mono","no","18","no","white","no","no","768","legacy","16","16","C:/Users/Simon M. Rook/Documents/School/1Tarleton/Classes/Adv Quant/Lab 2/flanker-data/sr-subject-4.csv","legacy","Lentiform Loewenfeld","3.3.10","0","h","NA","s","NA","NA","h","426","NA","51055","NA","NA","426","2","legacy","1024","2","48000","-16","experiment","SSHSS","4","even","52599","NA","NA","78125","56314","1540","NA","NA","79178","1543","NA","NA","79279","79706","79176","79279","Flanker Task","16","7899","17","yes","1024"
"94.44444444444444","94.44444444444444","465.6666666666667","465.6666666666667","black","legacy","legacy","legacy","0","congruent","uniform","1","undefined","1","s","0","0","0","17","17","0","17","0","17","0","0","0","17","17","17","17","Sun Sep 26 20:12:06 2021","1500","The main experiment item","yes","SR-FlankerTask.osexp","C:/Users/Simon M. Rook/Documents/School/1Tarleton/Classes/Adv Quant/Lab 2","no","mono","no","18","no","white","no","no","768","legacy","17","17","C:/Users/Simon M. Rook/Documents/School/1Tarleton/Classes/Adv Quant/Lab 2/flanker-data/sr-subject-4.csv","legacy","Lentiform Loewenfeld","3.3.10","0","s","NA","s","NA","NA","s","483","NA","51055","NA","NA","483","2","legacy","1024","2","48000","-16","experiment","SSSSS","4","even","52599","NA","NA","79709","56314","1540","NA","NA","80762","1543","NA","NA","80863","81346","80760","80863","Flanker Task","17","8382","18","yes","1024"
"94.73684210526316","94.73684210526316","460.2631578947368","460.2631578947368","black","legacy","legacy","legacy","0","incongruent","uniform","1","undefined","1","s","0","0","0","18","18","0","18","0","18","0","0","0","18","18","18","18","Sun Sep 26 20:12:06 2021","1500","The main experiment item","yes","SR-FlankerTask.osexp","C:/Users/Simon M. Rook/Documents/School/1Tarleton/Classes/Adv Quant/Lab 2","no","mono","no","18","no","white","no","no","768","legacy","18","18","C:/Users/Simon M. Rook/Documents/School/1Tarleton/Classes/Adv Quant/Lab 2/flanker-data/sr-subject-4.csv","legacy","Lentiform Loewenfeld","3.3.10","0","s","NA","s","NA","NA","s","363","NA","51055","NA","NA","363","2","legacy","1024","2","48000","-16","experiment","HHSHH","4","even","52599","NA","NA","81349","56314","1540","NA","NA","82402","1543","NA","NA","82503","82866","82400","82503","Flanker Task","18","8745","19","yes","1024"
"95","95","461.8","461.8","black","legacy","legacy","legacy","0","incongruent","uniform","1","undefined","1","h","0","0","0","19","19","0","19","0","19","0","0","0","19","19","19","19","Sun Sep 26 20:12:06 2021","1500","The main experiment item","yes","SR-FlankerTask.osexp","C:/Users/Simon M. Rook/Documents/School/1Tarleton/Classes/Adv Quant/Lab 2","no","mono","no","18","no","white","no","no","768","legacy","19","19","C:/Users/Simon M. Rook/Documents/School/1Tarleton/Classes/Adv Quant/Lab 2/flanker-data/sr-subject-4.csv","legacy","Lentiform Loewenfeld","3.3.10","0","h","NA","s","NA","NA","h","491","NA","51055","NA","NA","491","2","legacy","1024","2","48000","-16","experiment","SSHSS","4","even","52599","NA","NA","82869","56314","1540","NA","NA","83922","1543","NA","NA","84023","84514","83920","84023","Flanker Task","19","9236","20","yes","1024"
"95.23809523809524","95.23809523809524","465.3809523809524","465.3809523809524","black","legacy","legacy","legacy","0","incongruent","uniform","1","undefined","1","h","0","0","0","20","20","0","20","0","20","0","0","0","20","20","20","20","Sun Sep 26 20:12:06 2021","1500","The main experiment item","yes","SR-FlankerTask.osexp","C:/Users/Simon M. Rook/Documents/School/1Tarleton/Classes/Adv Quant/Lab 2","no","mono","no","18","no","white","no","no","768","legacy","20","20","C:/Users/Simon M. Rook/Documents/School/1Tarleton/Classes/Adv Quant/Lab 2/flanker-data/sr-subject-4.csv","legacy","Lentiform Loewenfeld","3.3.10","0","h","NA","s","NA","NA","h","537","NA","51055","NA","NA","537","2","legacy","1024","2","48000","-16","experiment","SSHSS","4","even","52599","NA","NA","84518","56314","1540","NA","NA","85572","1543","NA","NA","85673","86210","85570","85673","Flanker Task","20","9773","21","yes","1024"
"95.45454545454545","95.45454545454545","463.59090909090907","463.59090909090907","black","legacy","legacy","legacy","0","congruent","uniform","1","undefined","1","h","0","0","0","21","21","0","21","0","21","0","0","0","21","21","21","21","Sun Sep 26 20:12:06 2021","1500","The main experiment item","yes","SR-FlankerTask.osexp","C:/Users/Simon M. Rook/Documents/School/1Tarleton/Classes/Adv Quant/Lab 2","no","mono","no","18","no","white","no","no","768","legacy","21","21","C:/Users/Simon M. Rook/Documents/School/1Tarleton/Classes/Adv Quant/Lab 2/flanker-data/sr-subject-4.csv","legacy","Lentiform Loewenfeld","3.3.10","0","h","NA","s","NA","NA","h","426","NA","51055","NA","NA","426","2","legacy","1024","2","48000","-16","experiment","HHHHH","4","even","52599","NA","NA","86213","56314","1540","NA","NA","87268","1543","NA","NA","87369","87795","87266","87369","Flanker Task","21","10199","22","yes","1024"
"95.65217391304348","95.65217391304348","462.30434782608694","462.30434782608694","black","legacy","legacy","legacy","0","incongruent","uniform","1","undefined","1","h","0","0","0","22","22","0","22","0","22","0","0","0","22","22","22","22","Sun Sep 26 20:12:06 2021","1500","The main experiment item","yes","SR-FlankerTask.osexp","C:/Users/Simon M. Rook/Documents/School/1Tarleton/Classes/Adv Quant/Lab 2","no","mono","no","18","no","white","no","no","768","legacy","22","22","C:/Users/Simon M. Rook/Documents/School/1Tarleton/Classes/Adv Quant/Lab 2/flanker-data/sr-subject-4.csv","legacy","Lentiform Loewenfeld","3.3.10","0","h","NA","s","NA","NA","h","434","NA","51055","NA","NA","434","2","legacy","1024","2","48000","-16","experiment","SSHSS","4","even","52599","NA","NA","87798","56314","1540","NA","NA","88852","1543","NA","NA","88953","89387","88850","88953","Flanker Task","22","10633","23","yes","1024"
"95.83333333333333","95.83333333333333","462.125","462.125","black","legacy","legacy","legacy","0","congruent","uniform","1","undefined","1","h","0","0","0","23","23","0","23","0","23","0","0","0","23","23","23","23","Sun Sep 26 20:12:06 2021","1500","The main experiment item","yes","SR-FlankerTask.osexp","C:/Users/Simon M. Rook/Documents/School/1Tarleton/Classes/Adv Quant/Lab 2","no","mono","no","18","no","white","no","no","768","legacy","23","23","C:/Users/Simon M. Rook/Documents/School/1Tarleton/Classes/Adv Quant/Lab 2/flanker-data/sr-subject-4.csv","legacy","Lentiform Loewenfeld","3.3.10","0","h","NA","s","NA","NA","h","458","NA","51055","NA","NA","458","2","legacy","1024","2","48000","-16","experiment","HHHHH","4","even","52599","NA","NA","89390","56314","1540","NA","NA","90443","1543","NA","NA","90544","91003","90442","90544","Flanker Task","23","11091","24","yes","1024"
"96","96","459.4","459.4","black","legacy","legacy","legacy","0","incongruent","uniform","1","undefined","1","h","0","0","0","24","24","0","24","0","24","0","0","0","24","24","24","24","Sun Sep 26 20:12:06 2021","1500","The main experiment item","yes","SR-FlankerTask.osexp","C:/Users/Simon M. Rook/Documents/School/1Tarleton/Classes/Adv Quant/Lab 2","no","mono","no","18","no","white","no","no","768","legacy","24","24","C:/Users/Simon M. Rook/Documents/School/1Tarleton/Classes/Adv Quant/Lab 2/flanker-data/sr-subject-4.csv","legacy","Lentiform Loewenfeld","3.3.10","0","h","NA","s","NA","NA","h","394","NA","51055","NA","NA","394","2","legacy","1024","2","48000","-16","experiment","SSHSS","4","even","52599","NA","NA","91006","56314","1540","NA","NA","92060","1543","NA","NA","92161","92556","92058","92161","Flanker Task","24","11485","25","yes","1024"
"96.15384615384616","96.15384615384616","467.9230769230769","467.9230769230769","black","legacy","legacy","legacy","0","congruent","uniform","1","undefined","1","s","0","0","0","25","25","0","25","0","25","0","0","0","25","25","25","25","Sun Sep 26 20:12:06 2021","1500","The main experiment item","yes","SR-FlankerTask.osexp","C:/Users/Simon M. Rook/Documents/School/1Tarleton/Classes/Adv Quant/Lab 2","no","mono","no","18","no","white","no","no","768","legacy","25","25","C:/Users/Simon M. Rook/Documents/School/1Tarleton/Classes/Adv Quant/Lab 2/flanker-data/sr-subject-4.csv","legacy","Lentiform Loewenfeld","3.3.10","0","s","NA","s","NA","NA","s","681","NA","51055","NA","NA","681","2","legacy","1024","2","48000","-16","experiment","SSSSS","4","even","52599","NA","NA","92558","56314","1540","NA","NA","93613","1543","NA","NA","93714","94395","93611","93714","Flanker Task","25","12166","26","yes","1024"
"96.29629629629629","96.29629629629629","470.0740740740741","470.0740740740741","black","legacy","legacy","legacy","0","congruent","uniform","1","undefined","1","s","0","0","0","26","26","0","26","0","26","0","0","0","26","26","26","26","Sun Sep 26 20:12:06 2021","1500","The main experiment item","yes","SR-FlankerTask.osexp","C:/Users/Simon M. Rook/Documents/School/1Tarleton/Classes/Adv Quant/Lab 2","no","mono","no","18","no","white","no","no","768","legacy","26","26","C:/Users/Simon M. Rook/Documents/School/1Tarleton/Classes/Adv Quant/Lab 2/flanker-data/sr-subject-4.csv","legacy","Lentiform Loewenfeld","3.3.10","0","s","NA","s","NA","NA","s","526","NA","51055","NA","NA","526","2","legacy","1024","2","48000","-16","experiment","SSSSS","4","even","52599","NA","NA","94401","56314","1540","NA","NA","95456","1543","NA","NA","95557","96084","95455","95557","Flanker Task","26","12692","27","yes","1024"
"96.42857142857143","96.42857142857143","478.60714285714283","478.60714285714283","black","legacy","legacy","legacy","0","incongruent","uniform","1","undefined","1","h","0","0","0","27","27","0","27","0","27","0","0","0","27","27","27","27","Sun Sep 26 20:12:06 2021","1500","The main experiment item","yes","SR-FlankerTask.osexp","C:/Users/Simon M. Rook/Documents/School/1Tarleton/Classes/Adv Quant/Lab 2","no","mono","no","18","no","white","no","no","768","legacy","27","27","C:/Users/Simon M. Rook/Documents/School/1Tarleton/Classes/Adv Quant/Lab 2/flanker-data/sr-subject-4.csv","legacy","Lentiform Loewenfeld","3.3.10","0","h","NA","s","NA","NA","h","709","NA","51055","NA","NA","709","2","legacy","1024","2","48000","-16","experiment","SSHSS","4","even","52599","NA","NA","96087","56314","1540","NA","NA","97145","1543","NA","NA","97246","97956","97144","97246","Flanker Task","27","13401","28","yes","1024"
"96.55172413793103","96.55172413793103","481.13793103448273","481.13793103448273","black","legacy","legacy","legacy","0","congruent","uniform","1","undefined","1","s","0","0","0","28","28","0","28","0","28","0","0","0","28","28","28","28","Sun Sep 26 20:12:06 2021","1500","The main experiment item","yes","SR-FlankerTask.osexp","C:/Users/Simon M. Rook/Documents/School/1Tarleton/Classes/Adv Quant/Lab 2","no","mono","no","18","no","white","no","no","768","legacy","28","28","C:/Users/Simon M. Rook/Documents/School/1Tarleton/Classes/Adv Quant/Lab 2/flanker-data/sr-subject-4.csv","legacy","Lentiform Loewenfeld","3.3.10","0","s","NA","s","NA","NA","s","552","NA","51055","NA","NA","552","2","legacy","1024","2","48000","-16","experiment","SSSSS","4","even","52599","NA","NA","97959","56314","1540","NA","NA","99014","1543","NA","NA","99115","99668","99012","99115","Flanker Task","28","13953","29","yes","1024"
"96.66666666666667","96.66666666666667","492.4","492.4","black","legacy","legacy","legacy","0","congruent","uniform","1","undefined","1","s","0","0","0","29","29","0","29","0","29","0","0","0","29","29","29","29","Sun Sep 26 20:12:06 2021","1500","The main experiment item","yes","SR-FlankerTask.osexp","C:/Users/Simon M. Rook/Documents/School/1Tarleton/Classes/Adv Quant/Lab 2","no","mono","no","18","no","white","no","no","768","legacy","29","29","C:/Users/Simon M. Rook/Documents/School/1Tarleton/Classes/Adv Quant/Lab 2/flanker-data/sr-subject-4.csv","legacy","Lentiform Loewenfeld","3.3.10","0","s","NA","s","NA","NA","s","819","NA","51055","NA","NA","819","2","legacy","1024","2","48000","-16","experiment","SSSSS","4","even","52599","NA","NA","99671","56314","1540","NA","NA","100724","1543","NA","NA","100825","101644","100722","100825","Flanker Task","29","14772","30","yes","1024"
"96.7741935483871","96.7741935483871","493.03225806451616","493.03225806451616","black","legacy","legacy","legacy","0","incongruent","uniform","1","undefined","1","h","0","0","0","30","30","0","30","0","30","0","0","0","30","30","30","30","Sun Sep 26 20:12:06 2021","1500","The main experiment item","yes","SR-FlankerTask.osexp","C:/Users/Simon M. Rook/Documents/School/1Tarleton/Classes/Adv Quant/Lab 2","no","mono","no","18","no","white","no","no","768","legacy","30","30","C:/Users/Simon M. Rook/Documents/School/1Tarleton/Classes/Adv Quant/Lab 2/flanker-data/sr-subject-4.csv","legacy","Lentiform Loewenfeld","3.3.10","0","h","NA","s","NA","NA","h","512","NA","51055","NA","NA","512","2","legacy","1024","2","48000","-16","experiment","SSHSS","4","even","52599","NA","NA","101650","56314","1540","NA","NA","102703","1543","NA","NA","102804","103317","102702","102804","Flanker Task","30","15284","31","yes","1024"
"93.75","93.75","492.34375","492.34375","black","legacy","legacy","legacy","0","incongruent","uniform","0","undefined","0","s","0","0","0","31","31","0","31","0","31","0","0","0","31","31","31","31","Sun Sep 26 20:12:06 2021","1500","The main experiment item","yes","SR-FlankerTask.osexp","C:/Users/Simon M. Rook/Documents/School/1Tarleton/Classes/Adv Quant/Lab 2","no","mono","no","18","no","white","no","no","768","legacy","31","31","C:/Users/Simon M. Rook/Documents/School/1Tarleton/Classes/Adv Quant/Lab 2/flanker-data/sr-subject-4.csv","legacy","Lentiform Loewenfeld","3.3.10","0","h","NA","s","NA","NA","h","471","NA","51055","NA","NA","471","2","legacy","1024","2","48000","-16","experiment","HHSHH","4","even","52599","NA","NA","103322","56314","1540","NA","NA","104376","1543","NA","NA","104477","104949","104374","104477","Flanker Task","30","15755","32","yes","1024"
"90.9090909090909","90.9090909090909","490.45454545454544","490.45454545454544","black","legacy","legacy","legacy","0","incongruent","uniform","0","undefined","0","s","0","0","0","32","32","0","32","0","32","0","0","0","32","32","32","32","Sun Sep 26 20:12:06 2021","1500","The main experiment item","yes","SR-FlankerTask.osexp","C:/Users/Simon M. Rook/Documents/School/1Tarleton/Classes/Adv Quant/Lab 2","no","mono","no","18","no","white","no","no","768","legacy","32","32","C:/Users/Simon M. Rook/Documents/School/1Tarleton/Classes/Adv Quant/Lab 2/flanker-data/sr-subject-4.csv","legacy","Lentiform Loewenfeld","3.3.10","0","h","NA","s","NA","NA","h","430","NA","51055","NA","NA","430","2","legacy","1024","2","48000","-16","experiment","HHSHH","4","even","52599","NA","NA","105453","104952","1540","NA","NA","106506","1543","NA","NA","106607","107037","106504","106607","Flanker Task","30","16185","33","yes","1024"
"91.17647058823529","91.17647058823529","489.9117647058824","489.9117647058824","black","legacy","legacy","legacy","0","congruent","uniform","1","undefined","1","s","0","0","0","33","33","0","33","0","33","0","0","0","33","33","33","33","Sun Sep 26 20:12:06 2021","1500","The main experiment item","yes","SR-FlankerTask.osexp","C:/Users/Simon M. Rook/Documents/School/1Tarleton/Classes/Adv Quant/Lab 2","no","mono","no","18","no","white","no","no","768","legacy","33","33","C:/Users/Simon M. Rook/Documents/School/1Tarleton/Classes/Adv Quant/Lab 2/flanker-data/sr-subject-4.csv","legacy","Lentiform Loewenfeld","3.3.10","0","s","NA","s","NA","NA","s","472","NA","51055","NA","NA","472","2","legacy","1024","2","48000","-16","experiment","SSSSS","4","even","52599","NA","NA","107542","107041","1540","NA","NA","108608","1543","NA","NA","108709","109182","108606","108709","Flanker Task","31","16657","34","yes","1024"
"91.42857142857143","91.42857142857143","488.3142857142857","488.3142857142857","black","legacy","legacy","legacy","0","congruent","uniform","1","undefined","1","h","0","0","0","34","34","0","34","0","34","0","0","0","34","34","34","34","Sun Sep 26 20:12:06 2021","1500","The main experiment item","yes","SR-FlankerTask.osexp","C:/Users/Simon M. Rook/Documents/School/1Tarleton/Classes/Adv Quant/Lab 2","no","mono","no","18","no","white","no","no","768","legacy","34","34","C:/Users/Simon M. Rook/Documents/School/1Tarleton/Classes/Adv Quant/Lab 2/flanker-data/sr-subject-4.csv","legacy","Lentiform Loewenfeld","3.3.10","0","h","NA","s","NA","NA","h","434","NA","51055","NA","NA","434","2","legacy","1024","2","48000","-16","experiment","HHHHH","4","even","52599","NA","NA","109185","107041","1540","NA","NA","110238","1543","NA","NA","110339","110774","110236","110339","Flanker Task","32","17091","35","yes","1024"
"91.66666666666667","91.66666666666667","486.5833333333333","486.5833333333333","black","legacy","legacy","legacy","0","incongruent","uniform","1","undefined","1","s","0","0","0","35","35","0","35","0","35","0","0","0","35","35","35","35","Sun Sep 26 20:12:06 2021","1500","The main experiment item","yes","SR-FlankerTask.osexp","C:/Users/Simon M. Rook/Documents/School/1Tarleton/Classes/Adv Quant/Lab 2","no","mono","no","18","no","white","no","no","768","legacy","35","35","C:/Users/Simon M. Rook/Documents/School/1Tarleton/Classes/Adv Quant/Lab 2/flanker-data/sr-subject-4.csv","legacy","Lentiform Loewenfeld","3.3.10","0","s","NA","s","NA","NA","s","426","NA","51055","NA","NA","426","2","legacy","1024","2","48000","-16","experiment","HHSHH","4","even","52599","NA","NA","110777","107041","1540","NA","NA","111830","1543","NA","NA","111931","112358","111829","111931","Flanker Task","33","17517","36","yes","1024"
"91.89189189189189","91.89189189189189","487.5405405405405","487.5405405405405","black","legacy","legacy","legacy","0","incongruent","uniform","1","undefined","1","s","0","0","0","36","36","0","36","0","36","0","0","0","36","36","36","36","Sun Sep 26 20:12:06 2021","1500","The main experiment item","yes","SR-FlankerTask.osexp","C:/Users/Simon M. Rook/Documents/School/1Tarleton/Classes/Adv Quant/Lab 2","no","mono","no","18","no","white","no","no","768","legacy","36","36","C:/Users/Simon M. Rook/Documents/School/1Tarleton/Classes/Adv Quant/Lab 2/flanker-data/sr-subject-4.csv","legacy","Lentiform Loewenfeld","3.3.10","0","s","NA","s","NA","NA","s","522","NA","51055","NA","NA","522","2","legacy","1024","2","48000","-16","experiment","HHSHH","4","even","52599","NA","NA","112361","107041","1540","NA","NA","113414","1543","NA","NA","113515","114037","113412","113515","Flanker Task","34","18039","37","yes","1024"
"92.10526315789474","92.10526315789474","487.42105263157896","487.42105263157896","black","legacy","legacy","legacy","0","congruent","uniform","1","undefined","1","h","0","0","0","37","37","0","37","0","37","0","0","0","37","37","37","37","Sun Sep 26 20:12:06 2021","1500","The main experiment item","yes","SR-FlankerTask.osexp","C:/Users/Simon M. Rook/Documents/School/1Tarleton/Classes/Adv Quant/Lab 2","no","mono","no","18","no","white","no","no","768","legacy","37","37","C:/Users/Simon M. Rook/Documents/School/1Tarleton/Classes/Adv Quant/Lab 2/flanker-data/sr-subject-4.csv","legacy","Lentiform Loewenfeld","3.3.10","0","h","NA","s","NA","NA","h","483","NA","51055","NA","NA","483","2","legacy","1024","2","48000","-16","experiment","HHHHH","4","even","52599","NA","NA","114041","107041","1540","NA","NA","115094","1543","NA","NA","115195","115678","115092","115195","Flanker Task","35","18522","38","yes","1024"
"92.3076923076923","92.3076923076923","488.3076923076923","488.3076923076923","black","legacy","legacy","legacy","0","congruent","uniform","1","undefined","1","h","0","0","0","38","38","0","38","0","38","0","0","0","38","38","38","38","Sun Sep 26 20:12:06 2021","1500","The main experiment item","yes","SR-FlankerTask.osexp","C:/Users/Simon M. Rook/Documents/School/1Tarleton/Classes/Adv Quant/Lab 2","no","mono","no","18","no","white","no","no","768","legacy","38","38","C:/Users/Simon M. Rook/Documents/School/1Tarleton/Classes/Adv Quant/Lab 2/flanker-data/sr-subject-4.csv","legacy","Lentiform Loewenfeld","3.3.10","0","h","NA","s","NA","NA","h","522","NA","51055","NA","NA","522","2","legacy","1024","2","48000","-16","experiment","HHHHH","4","even","52599","NA","NA","115683","107041","1540","NA","NA","116742","1543","NA","NA","116843","117366","116740","116843","Flanker Task","36","19044","39","yes","1024"
"90","90","491.375","491.375","black","legacy","legacy","legacy","0","incongruent","uniform","0","undefined","0","h","0","0","0","39","39","0","39","0","39","0","0","0","39","39","39","39","Sun Sep 26 20:12:06 2021","1500","The main experiment item","yes","SR-FlankerTask.osexp","C:/Users/Simon M. Rook/Documents/School/1Tarleton/Classes/Adv Quant/Lab 2","no","mono","no","18","no","white","no","no","768","legacy","39","39","C:/Users/Simon M. Rook/Documents/School/1Tarleton/Classes/Adv Quant/Lab 2/flanker-data/sr-subject-4.csv","legacy","Lentiform Loewenfeld","3.3.10","0","s","NA","s","NA","NA","s","611","NA","51055","NA","NA","611","2","legacy","1024","2","48000","-16","experiment","SSHSS","4","even","52599","NA","NA","117369","107041","1540","NA","NA","118422","1543","NA","NA","118523","119135","118420","118523","Flanker Task","36","19655","40","yes","1024"
"90.2439024390244","90.2439024390244","490.4390243902439","490.4390243902439","black","legacy","legacy","legacy","0","congruent","uniform","1","undefined","1","h","0","0","0","40","40","0","40","0","40","0","0","0","40","40","40","40","Sun Sep 26 20:12:06 2021","1500","The main experiment item","yes","SR-FlankerTask.osexp","C:/Users/Simon M. Rook/Documents/School/1Tarleton/Classes/Adv Quant/Lab 2","no","mono","no","18","no","white","no","no","768","legacy","40","40","C:/Users/Simon M. Rook/Documents/School/1Tarleton/Classes/Adv Quant/Lab 2/flanker-data/sr-subject-4.csv","legacy","Lentiform Loewenfeld","3.3.10","0","h","NA","s","NA","NA","h","453","NA","51055","NA","NA","453","2","legacy","1024","2","48000","-16","experiment","HHHHH","4","even","52599","NA","NA","119639","119138","1540","NA","NA","120692","1543","NA","NA","120793","121247","120690","120793","Flanker Task","37","20108","41","yes","1024"
"90.47619047619048","90.47619047619048","492.3333333333333","492.3333333333333","black","legacy","legacy","legacy","0","congruent","uniform","1","undefined","1","s","0","0","0","41","41","0","41","0","41","0","0","0","41","41","41","41","Sun Sep 26 20:12:06 2021","1500","The main experiment item","yes","SR-FlankerTask.osexp","C:/Users/Simon M. Rook/Documents/School/1Tarleton/Classes/Adv Quant/Lab 2","no","mono","no","18","no","white","no","no","768","legacy","41","41","C:/Users/Simon M. Rook/Documents/School/1Tarleton/Classes/Adv Quant/Lab 2/flanker-data/sr-subject-4.csv","legacy","Lentiform Loewenfeld","3.3.10","0","s","NA","s","NA","NA","s","570","NA","51055","NA","NA","570","2","legacy","1024","2","48000","-16","experiment","SSSSS","4","even","52599","NA","NA","121250","119138","1540","NA","NA","122303","1543","NA","NA","122404","122974","122301","122404","Flanker Task","38","20678","42","yes","1024"
"90.69767441860465","90.69767441860465","494.30232558139534","494.30232558139534","black","legacy","legacy","legacy","0","incongruent","uniform","1","undefined","1","s","0","0","0","42","42","0","42","0","42","0","0","0","42","42","42","42","Sun Sep 26 20:12:06 2021","1500","The main experiment item","yes","SR-FlankerTask.osexp","C:/Users/Simon M. Rook/Documents/School/1Tarleton/Classes/Adv Quant/Lab 2","no","mono","no","18","no","white","no","no","768","legacy","42","42","C:/Users/Simon M. Rook/Documents/School/1Tarleton/Classes/Adv Quant/Lab 2/flanker-data/sr-subject-4.csv","legacy","Lentiform Loewenfeld","3.3.10","0","s","NA","s","NA","NA","s","577","NA","51055","NA","NA","577","2","legacy","1024","2","48000","-16","experiment","HHSHH","4","even","52599","NA","NA","122978","119138","1540","NA","NA","124033","1543","NA","NA","124134","124712","124031","124134","Flanker Task","39","21255","43","yes","1024"
"90.9090909090909","90.9090909090909","493.40909090909093","493.40909090909093","black","legacy","legacy","legacy","0","incongruent","uniform","1","undefined","1","s","0","0","0","43","43","0","43","0","43","0","0","0","43","43","43","43","Sun Sep 26 20:12:06 2021","1500","The main experiment item","yes","SR-FlankerTask.osexp","C:/Users/Simon M. Rook/Documents/School/1Tarleton/Classes/Adv Quant/Lab 2","no","mono","no","18","no","white","no","no","768","legacy","43","43","C:/Users/Simon M. Rook/Documents/School/1Tarleton/Classes/Adv Quant/Lab 2/flanker-data/sr-subject-4.csv","legacy","Lentiform Loewenfeld","3.3.10","0","s","NA","s","NA","NA","s","455","NA","51055","NA","NA","455","2","legacy","1024","2","48000","-16","experiment","HHSHH","4","even","52599","NA","NA","124714","119138","1540","NA","NA","125770","1543","NA","NA","125871","126327","125768","125871","Flanker Task","40","21710","44","yes","1024"
"91.11111111111111","91.11111111111111","493","493","black","legacy","legacy","legacy","0","congruent","uniform","1","undefined","1","h","0","0","0","44","44","0","44","0","44","0","0","0","44","44","44","44","Sun Sep 26 20:12:06 2021","1500","The main experiment item","yes","SR-FlankerTask.osexp","C:/Users/Simon M. Rook/Documents/School/1Tarleton/Classes/Adv Quant/Lab 2","no","mono","no","18","no","white","no","no","768","legacy","44","44","C:/Users/Simon M. Rook/Documents/School/1Tarleton/Classes/Adv Quant/Lab 2/flanker-data/sr-subject-4.csv","legacy","Lentiform Loewenfeld","3.3.10","0","h","NA","s","NA","NA","h","475","NA","51055","NA","NA","475","2","legacy","1024","2","48000","-16","experiment","HHHHH","4","even","52599","NA","NA","126330","119138","1540","NA","NA","127383","1543","NA","NA","127484","127960","127381","127484","Flanker Task","41","22185","45","yes","1024"
"89.1304347826087","89.1304347826087","491.19565217391306","491.19565217391306","black","legacy","legacy","legacy","0","incongruent","uniform","0","undefined","0","s","0","0","0","45","45","0","45","0","45","0","0","0","45","45","45","45","Sun Sep 26 20:12:06 2021","1500","The main experiment item","yes","SR-FlankerTask.osexp","C:/Users/Simon M. Rook/Documents/School/1Tarleton/Classes/Adv Quant/Lab 2","no","mono","no","18","no","white","no","no","768","legacy","45","45","C:/Users/Simon M. Rook/Documents/School/1Tarleton/Classes/Adv Quant/Lab 2/flanker-data/sr-subject-4.csv","legacy","Lentiform Loewenfeld","3.3.10","0","h","NA","s","NA","NA","h","410","NA","51055","NA","NA","410","2","legacy","1024","2","48000","-16","experiment","HHSHH","4","even","52599","NA","NA","127963","119138","1540","NA","NA","129016","1543","NA","NA","129117","129528","129014","129117","Flanker Task","41","22595","46","yes","1024"
"89.36170212765957","89.36170212765957","491.93617021276594","491.93617021276594","black","legacy","legacy","legacy","0","congruent","uniform","1","undefined","1","s","0","0","0","46","46","0","46","0","46","0","0","0","46","46","46","46","Sun Sep 26 20:12:06 2021","1500","The main experiment item","yes","SR-FlankerTask.osexp","C:/Users/Simon M. Rook/Documents/School/1Tarleton/Classes/Adv Quant/Lab 2","no","mono","no","18","no","white","no","no","768","legacy","46","46","C:/Users/Simon M. Rook/Documents/School/1Tarleton/Classes/Adv Quant/Lab 2/flanker-data/sr-subject-4.csv","legacy","Lentiform Loewenfeld","3.3.10","0","s","NA","s","NA","NA","s","526","NA","51055","NA","NA","526","2","legacy","1024","2","48000","-16","experiment","SSSSS","4","even","52599","NA","NA","130032","129531","1540","NA","NA","131084","1543","NA","NA","131185","131712","131083","131185","Flanker Task","42","23121","47","yes","1024"
"89.58333333333333","89.58333333333333","502.4166666666667","502.4166666666667","black","legacy","legacy","legacy","0","congruent","uniform","1","undefined","1","h","0","0","0","47","47","0","47","0","47","0","0","0","47","47","47","47","Sun Sep 26 20:12:06 2021","1500","The main experiment item","yes","SR-FlankerTask.osexp","C:/Users/Simon M. Rook/Documents/School/1Tarleton/Classes/Adv Quant/Lab 2","no","mono","no","18","no","white","no","no","768","legacy","47","47","C:/Users/Simon M. Rook/Documents/School/1Tarleton/Classes/Adv Quant/Lab 2/flanker-data/sr-subject-4.csv","legacy","Lentiform Loewenfeld","3.3.10","0","h","NA","s","NA","NA","h","995","NA","51055","NA","NA","995","2","legacy","1024","2","48000","-16","experiment","HHHHH","4","even","52599","NA","NA","131715","129531","1540","NA","NA","132768","1543","NA","NA","132869","133864","132766","132869","Flanker Task","43","24116","48","yes","1024"
"89.79591836734694","89.79591836734694","506.46938775510205","506.46938775510205","black","legacy","legacy","legacy","0","incongruent","uniform","1","undefined","1","h","0","0","0","48","48","0","48","0","48","0","0","0","48","48","48","48","Sun Sep 26 20:12:06 2021","1500","The main experiment item","yes","SR-FlankerTask.osexp","C:/Users/Simon M. Rook/Documents/School/1Tarleton/Classes/Adv Quant/Lab 2","no","mono","no","18","no","white","no","no","768","legacy","48","48","C:/Users/Simon M. Rook/Documents/School/1Tarleton/Classes/Adv Quant/Lab 2/flanker-data/sr-subject-4.csv","legacy","Lentiform Loewenfeld","3.3.10","0","h","NA","s","NA","NA","h","701","NA","51055","NA","NA","701","2","legacy","1024","2","48000","-16","experiment","SSHSS","4","even","52599","NA","NA","133867","129531","1540","NA","NA","134925","1543","NA","NA","135026","135728","134918","135026","Flanker Task","44","24817","49","yes","1024"
"90","90","507.6","507.6","black","legacy","legacy","legacy","0","incongruent","uniform","1","undefined","1","s","0","0","0","49","49","0","49","0","49","0","0","0","49","49","49","49","Sun Sep 26 20:12:06 2021","1500","The main experiment item","yes","SR-FlankerTask.osexp","C:/Users/Simon M. Rook/Documents/School/1Tarleton/Classes/Adv Quant/Lab 2","no","mono","no","18","no","white","no","no","768","legacy","49","49","C:/Users/Simon M. Rook/Documents/School/1Tarleton/Classes/Adv Quant/Lab 2/flanker-data/sr-subject-4.csv","legacy","Lentiform Loewenfeld","3.3.10","0","s","NA","s","NA","NA","s","563","NA","51055","NA","NA","563","2","legacy","1024","2","48000","-16","experiment","HHSHH","4","even","52599","NA","NA","135731","129531","1540","NA","NA","136784","1543","NA","NA","136885","137449","136782","136885","Flanker Task","45","25380","50","yes","1024"
"90.19607843137256","90.19607843137256","509.7647058823529","509.7647058823529","black","legacy","legacy","legacy","0","congruent","uniform","1","undefined","1","s","0","0","0","50","50","0","50","0","50","0","0","0","50","50","50","50","Sun Sep 26 20:12:06 2021","1500","The main experiment item","yes","SR-FlankerTask.osexp","C:/Users/Simon M. Rook/Documents/School/1Tarleton/Classes/Adv Quant/Lab 2","no","mono","no","18","no","white","no","no","768","legacy","50","50","C:/Users/Simon M. Rook/Documents/School/1Tarleton/Classes/Adv Quant/Lab 2/flanker-data/sr-subject-4.csv","legacy","Lentiform Loewenfeld","3.3.10","0","s","NA","s","NA","NA","s","618","NA","51055","NA","NA","618","2","legacy","1024","2","48000","-16","experiment","SSSSS","4","even","52599","NA","NA","137452","129531","1540","NA","NA","138505","1543","NA","NA","138606","139225","138504","138606","Flanker Task","46","25998","51","yes","1024"
"90.38461538461539","90.38461538461539","513.6923076923077","513.6923076923077","black","legacy","legacy","legacy","0","congruent","uniform","1","undefined","1","h","0","0","0","51","51","0","51","0","51","0","0","0","51","51","51","51","Sun Sep 26 20:12:06 2021","1500","The main experiment item","yes","SR-FlankerTask.osexp","C:/Users/Simon M. Rook/Documents/School/1Tarleton/Classes/Adv Quant/Lab 2","no","mono","no","18","no","white","no","no","768","legacy","51","51","C:/Users/Simon M. Rook/Documents/School/1Tarleton/Classes/Adv Quant/Lab 2/flanker-data/sr-subject-4.csv","legacy","Lentiform Loewenfeld","3.3.10","0","h","NA","s","NA","NA","h","714","NA","51055","NA","NA","714","2","legacy","1024","2","48000","-16","experiment","HHHHH","4","even","52599","NA","NA","139228","129531","1540","NA","NA","140281","1543","NA","NA","140382","141097","140279","140382","Flanker Task","47","26712","52","yes","1024"
"90.56603773584905","90.56603773584905","520.7924528301887","520.7924528301887","black","legacy","legacy","legacy","0","congruent","uniform","1","undefined","1","s","0","0","0","52","52","0","52","0","52","0","0","0","52","52","52","52","Sun Sep 26 20:12:06 2021","1500","The main experiment item","yes","SR-FlankerTask.osexp","C:/Users/Simon M. Rook/Documents/School/1Tarleton/Classes/Adv Quant/Lab 2","no","mono","no","18","no","white","no","no","768","legacy","52","52","C:/Users/Simon M. Rook/Documents/School/1Tarleton/Classes/Adv Quant/Lab 2/flanker-data/sr-subject-4.csv","legacy","Lentiform Loewenfeld","3.3.10","0","s","NA","s","NA","NA","s","890","NA","51055","NA","NA","890","2","legacy","1024","2","48000","-16","experiment","SSSSS","4","even","52599","NA","NA","141100","129531","1540","NA","NA","142153","1543","NA","NA","142254","143145","142151","142254","Flanker Task","48","27602","53","yes","1024"
"90.74074074074075","90.74074074074075","526","526","black","legacy","legacy","legacy","0","incongruent","uniform","1","undefined","1","s","0","0","0","53","53","0","53","0","53","0","0","0","53","53","53","53","Sun Sep 26 20:12:06 2021","1500","The main experiment item","yes","SR-FlankerTask.osexp","C:/Users/Simon M. Rook/Documents/School/1Tarleton/Classes/Adv Quant/Lab 2","no","mono","no","18","no","white","no","no","768","legacy","53","53","C:/Users/Simon M. Rook/Documents/School/1Tarleton/Classes/Adv Quant/Lab 2/flanker-data/sr-subject-4.csv","legacy","Lentiform Loewenfeld","3.3.10","0","s","NA","s","NA","NA","s","802","NA","51055","NA","NA","802","2","legacy","1024","2","48000","-16","experiment","HHSHH","4","even","52599","NA","NA","143148","129531","1540","NA","NA","144201","1543","NA","NA","144302","145105","144199","144302","Flanker Task","49","28404","54","yes","1024"
"90.9090909090909","90.9090909090909","536.5272727272727","536.5272727272727","black","legacy","legacy","legacy","0","congruent","uniform","1","undefined","1","h","0","0","0","54","54","0","54","0","54","0","0","0","54","54","54","54","Sun Sep 26 20:12:06 2021","1500","The main experiment item","yes","SR-FlankerTask.osexp","C:/Users/Simon M. Rook/Documents/School/1Tarleton/Classes/Adv Quant/Lab 2","no","mono","no","18","no","white","no","no","768","legacy","54","54","C:/Users/Simon M. Rook/Documents/School/1Tarleton/Classes/Adv Quant/Lab 2/flanker-data/sr-subject-4.csv","legacy","Lentiform Loewenfeld","3.3.10","0","h","NA","s","NA","NA","h","1105","NA","51055","NA","NA","1105","2","legacy","1024","2","48000","-16","experiment","HHHHH","4","even","52599","NA","NA","145108","129531","1540","NA","NA","146171","1543","NA","NA","146272","147378","146169","146272","Flanker Task","50","29509","55","yes","1024"
"91.07142857142857","91.07142857142857","540.5535714285714","540.5535714285714","black","legacy","legacy","legacy","0","congruent","uniform","1","undefined","1","h","0","0","0","55","55","0","55","0","55","0","0","0","55","55","55","55","Sun Sep 26 20:12:06 2021","1500","The main experiment item","yes","SR-FlankerTask.osexp","C:/Users/Simon M. Rook/Documents/School/1Tarleton/Classes/Adv Quant/Lab 2","no","mono","no","18","no","white","no","no","768","legacy","55","55","C:/Users/Simon M. Rook/Documents/School/1Tarleton/Classes/Adv Quant/Lab 2/flanker-data/sr-subject-4.csv","legacy","Lentiform Loewenfeld","3.3.10","0","h","NA","s","NA","NA","h","762","NA","51055","NA","NA","762","2","legacy","1024","2","48000","-16","experiment","HHHHH","4","even","52599","NA","NA","147381","129531","1540","NA","NA","148434","1543","NA","NA","148535","149298","148432","148535","Flanker Task","51","30271","56","yes","1024"
"91.2280701754386","91.2280701754386","544.578947368421","544.578947368421","black","legacy","legacy","legacy","0","incongruent","uniform","1","undefined","1","s","0","0","0","56","56","0","56","0","56","0","0","0","56","56","56","56","Sun Sep 26 20:12:06 2021","1500","The main experiment item","yes","SR-FlankerTask.osexp","C:/Users/Simon M. Rook/Documents/School/1Tarleton/Classes/Adv Quant/Lab 2","no","mono","no","18","no","white","no","no","768","legacy","56","56","C:/Users/Simon M. Rook/Documents/School/1Tarleton/Classes/Adv Quant/Lab 2/flanker-data/sr-subject-4.csv","legacy","Lentiform Loewenfeld","3.3.10","0","s","NA","s","NA","NA","s","770","NA","51055","NA","NA","770","2","legacy","1024","2","48000","-16","experiment","HHSHH","4","even","52599","NA","NA","149302","129531","1540","NA","NA","150355","1543","NA","NA","150456","151227","150354","150456","Flanker Task","52","31041","57","yes","1024"
"91.37931034482759","91.37931034482759","544.6034482758621","544.6034482758621","black","legacy","legacy","legacy","0","incongruent","uniform","1","undefined","1","h","0","0","0","57","57","0","57","0","57","0","0","0","57","57","57","57","Sun Sep 26 20:12:06 2021","1500","The main experiment item","yes","SR-FlankerTask.osexp","C:/Users/Simon M. Rook/Documents/School/1Tarleton/Classes/Adv Quant/Lab 2","no","mono","no","18","no","white","no","no","768","legacy","57","57","C:/Users/Simon M. Rook/Documents/School/1Tarleton/Classes/Adv Quant/Lab 2/flanker-data/sr-subject-4.csv","legacy","Lentiform Loewenfeld","3.3.10","0","h","NA","s","NA","NA","h","546","NA","51055","NA","NA","546","2","legacy","1024","2","48000","-16","experiment","SSHSS","4","even","52599","NA","NA","151230","129531","1540","NA","NA","152283","1543","NA","NA","152384","152930","152281","152384","Flanker Task","53","31587","58","yes","1024"
"91.52542372881356","91.52542372881356","545.1525423728814","545.1525423728814","black","legacy","legacy","legacy","0","incongruent","uniform","1","undefined","1","s","0","0","0","58","58","0","58","0","58","0","0","0","58","58","58","58","Sun Sep 26 20:12:06 2021","1500","The main experiment item","yes","SR-FlankerTask.osexp","C:/Users/Simon M. Rook/Documents/School/1Tarleton/Classes/Adv Quant/Lab 2","no","mono","no","18","no","white","no","no","768","legacy","58","58","C:/Users/Simon M. Rook/Documents/School/1Tarleton/Classes/Adv Quant/Lab 2/flanker-data/sr-subject-4.csv","legacy","Lentiform Loewenfeld","3.3.10","0","s","NA","s","NA","NA","s","577","NA","51055","NA","NA","577","2","legacy","1024","2","48000","-16","experiment","HHSHH","4","even","52599","NA","NA","152933","129531","1540","NA","NA","153987","1543","NA","NA","154088","154666","153986","154088","Flanker Task","54","32164","59","yes","1024"
"91.66666666666667","91.66666666666667","544.5166666666667","544.5166666666667","black","legacy","legacy","legacy","0","congruent","uniform","1","undefined","1","s","0","0","0","59","59","0","59","0","59","0","0","0","59","59","59","59","Sun Sep 26 20:12:06 2021","1500","The main experiment item","yes","SR-FlankerTask.osexp","C:/Users/Simon M. Rook/Documents/School/1Tarleton/Classes/Adv Quant/Lab 2","no","mono","no","18","no","white","no","no","768","legacy","59","59","C:/Users/Simon M. Rook/Documents/School/1Tarleton/Classes/Adv Quant/Lab 2/flanker-data/sr-subject-4.csv","legacy","Lentiform Loewenfeld","3.3.10","0","s","NA","s","NA","NA","s","507","NA","51055","NA","NA","507","2","legacy","1024","2","48000","-16","experiment","SSSSS","4","even","52599","NA","NA","154669","129531","1540","NA","NA","155722","1543","NA","NA","155823","156331","155721","155823","Flanker Task","55","32671","60","yes","1024"
"91.80327868852459","91.80327868852459","544.8032786885246","544.8032786885246","black","legacy","legacy","legacy","0","incongruent","uniform","1","undefined","1","s","0","0","0","60","60","0","60","0","60","0","0","0","60","60","60","60","Sun Sep 26 20:12:06 2021","1500","The main experiment item","yes","SR-FlankerTask.osexp","C:/Users/Simon M. Rook/Documents/School/1Tarleton/Classes/Adv Quant/Lab 2","no","mono","no","18","no","white","no","no","768","legacy","60","60","C:/Users/Simon M. Rook/Documents/School/1Tarleton/Classes/Adv Quant/Lab 2/flanker-data/sr-subject-4.csv","legacy","Lentiform Loewenfeld","3.3.10","0","s","NA","s","NA","NA","s","562","NA","51055","NA","NA","562","2","legacy","1024","2","48000","-16","experiment","HHSHH","4","even","52599","NA","NA","156334","129531","1540","NA","NA","157387","1543","NA","NA","157488","158051","157386","157488","Flanker Task","56","33233","61","yes","1024"
"91.93548387096774","91.93548387096774","546.4032258064516","546.4032258064516","black","legacy","legacy","legacy","0","incongruent","uniform","1","undefined","1","h","0","0","0","61","61","0","61","0","61","0","0","0","61","61","61","61","Sun Sep 26 20:12:06 2021","1500","The main experiment item","yes","SR-FlankerTask.osexp","C:/Users/Simon M. Rook/Documents/School/1Tarleton/Classes/Adv Quant/Lab 2","no","mono","no","18","no","white","no","no","768","legacy","61","61","C:/Users/Simon M. Rook/Documents/School/1Tarleton/Classes/Adv Quant/Lab 2/flanker-data/sr-subject-4.csv","legacy","Lentiform Loewenfeld","3.3.10","0","h","NA","s","NA","NA","h","644","NA","51055","NA","NA","644","2","legacy","1024","2","48000","-16","experiment","SSHSS","4","even","52599","NA","NA","158054","129531","1540","NA","NA","159106","1543","NA","NA","159207","159852","159105","159207","Flanker Task","57","33877","62","yes","1024"
"92.06349206349206","92.06349206349206","547.6666666666666","547.6666666666666","black","legacy","legacy","legacy","0","congruent","uniform","1","undefined","1","h","0","0","0","62","62","0","62","0","62","0","0","0","62","62","62","62","Sun Sep 26 20:12:06 2021","1500","The main experiment item","yes","SR-FlankerTask.osexp","C:/Users/Simon M. Rook/Documents/School/1Tarleton/Classes/Adv Quant/Lab 2","no","mono","no","18","no","white","no","no","768","legacy","62","62","C:/Users/Simon M. Rook/Documents/School/1Tarleton/Classes/Adv Quant/Lab 2/flanker-data/sr-subject-4.csv","legacy","Lentiform Loewenfeld","3.3.10","0","h","NA","s","NA","NA","h","626","NA","51055","NA","NA","626","2","legacy","1024","2","48000","-16","experiment","HHHHH","4","even","52599","NA","NA","159855","129531","1540","NA","NA","160908","1543","NA","NA","161009","161636","160907","161009","Flanker Task","58","34503","63","yes","1024"
"92.1875","92.1875","548.25","548.25","black","legacy","legacy","legacy","0","congruent","uniform","1","undefined","1","s","0","0","0","63","63","0","63","0","63","0","0","0","63","63","63","63","Sun Sep 26 20:12:06 2021","1500","The main experiment item","yes","SR-FlankerTask.osexp","C:/Users/Simon M. Rook/Documents/School/1Tarleton/Classes/Adv Quant/Lab 2","no","mono","no","18","no","white","no","no","768","legacy","63","63","C:/Users/Simon M. Rook/Documents/School/1Tarleton/Classes/Adv Quant/Lab 2/flanker-data/sr-subject-4.csv","legacy","Lentiform Loewenfeld","3.3.10","0","s","NA","s","NA","NA","s","585","NA","51055","NA","NA","585","2","legacy","1024","2","48000","-16","experiment","SSSSS","4","even","52599","NA","NA","161639","129531","1540","NA","NA","162692","1543","NA","NA","162793","163379","162690","162793","Flanker Task","59","35088","64","yes","1024"
"92.3076923076923","92.3076923076923","551.6769230769231","551.6769230769231","black","legacy","legacy","legacy","0","congruent","uniform","1","undefined","1","s","0","0","0","64","64","0","64","0","64","0","0","0","64","64","64","64","Sun Sep 26 20:12:06 2021","1500","The main experiment item","yes","SR-FlankerTask.osexp","C:/Users/Simon M. Rook/Documents/School/1Tarleton/Classes/Adv Quant/Lab 2","no","mono","no","18","no","white","no","no","768","legacy","64","64","C:/Users/Simon M. Rook/Documents/School/1Tarleton/Classes/Adv Quant/Lab 2/flanker-data/sr-subject-4.csv","legacy","Lentiform Loewenfeld","3.3.10","0","s","NA","s","NA","NA","s","771","NA","51055","NA","NA","771","2","legacy","1024","2","48000","-16","experiment","SSSSS","4","even","52599","NA","NA","163382","129531","1540","NA","NA","164435","1543","NA","NA","164536","165308","164433","164536","Flanker Task","60","35859","65","yes","1024"
"92.42424242424242","92.42424242424242","553.1363636363636","553.1363636363636","black","legacy","legacy","legacy","0","incongruent","uniform","1","undefined","1","s","0","0","0","65","65","0","65","0","65","0","0","0","65","65","65","65","Sun Sep 26 20:12:06 2021","1500","The main experiment item","yes","SR-FlankerTask.osexp","C:/Users/Simon M. Rook/Documents/School/1Tarleton/Classes/Adv Quant/Lab 2","no","mono","no","18","no","white","no","no","768","legacy","65","65","C:/Users/Simon M. Rook/Documents/School/1Tarleton/Classes/Adv Quant/Lab 2/flanker-data/sr-subject-4.csv","legacy","Lentiform Loewenfeld","3.3.10","0","s","NA","s","NA","NA","s","648","NA","51055","NA","NA","648","2","legacy","1024","2","48000","-16","experiment","HHSHH","4","even","52599","NA","NA","165311","129531","1540","NA","NA","166375","1543","NA","NA","166476","167124","166373","166476","Flanker Task","61","36507","66","yes","1024"
"92.53731343283582","92.53731343283582","555.0597014925373","555.0597014925373","black","legacy","legacy","legacy","0","congruent","uniform","1","undefined","1","h","0","0","0","66","66","0","66","0","66","0","0","0","66","66","66","66","Sun Sep 26 20:12:06 2021","1500","The main experiment item","yes","SR-FlankerTask.osexp","C:/Users/Simon M. Rook/Documents/School/1Tarleton/Classes/Adv Quant/Lab 2","no","mono","no","18","no","white","no","no","768","legacy","66","66","C:/Users/Simon M. Rook/Documents/School/1Tarleton/Classes/Adv Quant/Lab 2/flanker-data/sr-subject-4.csv","legacy","Lentiform Loewenfeld","3.3.10","0","h","NA","s","NA","NA","h","682","NA","51055","NA","NA","682","2","legacy","1024","2","48000","-16","experiment","HHHHH","4","even","52599","NA","NA","167127","129531","1540","NA","NA","168181","1543","NA","NA","168282","168964","168179","168282","Flanker Task","62","37189","67","yes","1024"
"92.6470588235294","92.6470588235294","554.4411764705883","554.4411764705883","black","legacy","legacy","legacy","0","congruent","uniform","1","undefined","1","h","0","0","0","67","67","0","67","0","67","0","0","0","67","67","67","67","Sun Sep 26 20:12:06 2021","1500","The main experiment item","yes","SR-FlankerTask.osexp","C:/Users/Simon M. Rook/Documents/School/1Tarleton/Classes/Adv Quant/Lab 2","no","mono","no","18","no","white","no","no","768","legacy","67","67","C:/Users/Simon M. Rook/Documents/School/1Tarleton/Classes/Adv Quant/Lab 2/flanker-data/sr-subject-4.csv","legacy","Lentiform Loewenfeld","3.3.10","0","h","NA","s","NA","NA","h","513","NA","51055","NA","NA","513","2","legacy","1024","2","48000","-16","experiment","HHHHH","4","even","52599","NA","NA","168968","129531","1540","NA","NA","170021","1543","NA","NA","170122","170636","170019","170122","Flanker Task","63","37702","68","yes","1024"
"92.7536231884058","92.7536231884058","555.7101449275362","555.7101449275362","black","legacy","legacy","legacy","0","incongruent","uniform","1","undefined","1","h","0","0","0","68","68","0","68","0","68","0","0","0","68","68","68","68","Sun Sep 26 20:12:06 2021","1500","The main experiment item","yes","SR-FlankerTask.osexp","C:/Users/Simon M. Rook/Documents/School/1Tarleton/Classes/Adv Quant/Lab 2","no","mono","no","18","no","white","no","no","768","legacy","68","68","C:/Users/Simon M. Rook/Documents/School/1Tarleton/Classes/Adv Quant/Lab 2/flanker-data/sr-subject-4.csv","legacy","Lentiform Loewenfeld","3.3.10","0","h","NA","s","NA","NA","h","642","NA","51055","NA","NA","642","2","legacy","1024","2","48000","-16","experiment","SSHSS","4","even","52599","NA","NA","170639","129531","1540","NA","NA","171693","1543","NA","NA","171794","172437","171691","171794","Flanker Task","64","38344","69","yes","1024"
"92.85714285714286","92.85714285714286","556.5","556.5","black","legacy","legacy","legacy","0","congruent","uniform","1","undefined","1","s","0","0","0","69","69","0","69","0","69","0","0","0","69","69","69","69","Sun Sep 26 20:12:06 2021","1500","The main experiment item","yes","SR-FlankerTask.osexp","C:/Users/Simon M. Rook/Documents/School/1Tarleton/Classes/Adv Quant/Lab 2","no","mono","no","18","no","white","no","no","768","legacy","69","69","C:/Users/Simon M. Rook/Documents/School/1Tarleton/Classes/Adv Quant/Lab 2/flanker-data/sr-subject-4.csv","legacy","Lentiform Loewenfeld","3.3.10","0","s","NA","s","NA","NA","s","611","NA","51055","NA","NA","611","2","legacy","1024","2","48000","-16","experiment","SSSSS","4","even","52599","NA","NA","172449","129531","1540","NA","NA","173516","1543","NA","NA","173617","174229","173514","173617","Flanker Task","65","38955","70","yes","1024"
"92.95774647887323","92.95774647887323","556.7042253521126","556.7042253521126","black","legacy","legacy","legacy","0","congruent","uniform","1","undefined","1","s","0","0","0","70","70","0","70","0","70","0","0","0","70","70","70","70","Sun Sep 26 20:12:06 2021","1500","The main experiment item","yes","SR-FlankerTask.osexp","C:/Users/Simon M. Rook/Documents/School/1Tarleton/Classes/Adv Quant/Lab 2","no","mono","no","18","no","white","no","no","768","legacy","70","70","C:/Users/Simon M. Rook/Documents/School/1Tarleton/Classes/Adv Quant/Lab 2/flanker-data/sr-subject-4.csv","legacy","Lentiform Loewenfeld","3.3.10","0","s","NA","s","NA","NA","s","571","NA","51055","NA","NA","571","2","legacy","1024","2","48000","-16","experiment","SSSSS","4","even","52599","NA","NA","174232","129531","1540","NA","NA","175308","1543","NA","NA","175409","175981","175306","175409","Flanker Task","66","39526","71","yes","1024"
"93.05555555555556","93.05555555555556","561.2361111111111","561.2361111111111","black","legacy","legacy","legacy","0","congruent","uniform","1","undefined","1","h","0","0","0","71","71","0","71","0","71","0","0","0","71","71","71","71","Sun Sep 26 20:12:06 2021","1500","The main experiment item","yes","SR-FlankerTask.osexp","C:/Users/Simon M. Rook/Documents/School/1Tarleton/Classes/Adv Quant/Lab 2","no","mono","no","18","no","white","no","no","768","legacy","71","71","C:/Users/Simon M. Rook/Documents/School/1Tarleton/Classes/Adv Quant/Lab 2/flanker-data/sr-subject-4.csv","legacy","Lentiform Loewenfeld","3.3.10","0","h","NA","s","NA","NA","h","883","NA","51055","NA","NA","883","2","legacy","1024","2","48000","-16","experiment","HHHHH","4","even","52599","NA","NA","175984","129531","1540","NA","NA","177037","1543","NA","NA","177138","178022","177036","177138","Flanker Task","67","40409","72","yes","1024"
"93.15068493150685","93.15068493150685","562.5205479452055","562.5205479452055","black","legacy","legacy","legacy","0","incongruent","uniform","1","undefined","1","s","0","0","0","72","72","0","72","0","72","0","0","0","72","72","72","72","Sun Sep 26 20:12:06 2021","1500","The main experiment item","yes","SR-FlankerTask.osexp","C:/Users/Simon M. Rook/Documents/School/1Tarleton/Classes/Adv Quant/Lab 2","no","mono","no","18","no","white","no","no","768","legacy","72","72","C:/Users/Simon M. Rook/Documents/School/1Tarleton/Classes/Adv Quant/Lab 2/flanker-data/sr-subject-4.csv","legacy","Lentiform Loewenfeld","3.3.10","0","s","NA","s","NA","NA","s","655","NA","51055","NA","NA","655","2","legacy","1024","2","48000","-16","experiment","HHSHH","4","even","52599","NA","NA","178025","129531","1540","NA","NA","179080","1543","NA","NA","179181","179837","179079","179181","Flanker Task","68","41064","73","yes","1024"
"93.24324324324324","93.24324324324324","561.2297297297297","561.2297297297297","black","legacy","legacy","legacy","0","incongruent","uniform","1","undefined","1","s","0","0","0","73","73","0","73","0","73","0","0","0","73","73","73","73","Sun Sep 26 20:12:06 2021","1500","The main experiment item","yes","SR-FlankerTask.osexp","C:/Users/Simon M. Rook/Documents/School/1Tarleton/Classes/Adv Quant/Lab 2","no","mono","no","18","no","white","no","no","768","legacy","73","73","C:/Users/Simon M. Rook/Documents/School/1Tarleton/Classes/Adv Quant/Lab 2/flanker-data/sr-subject-4.csv","legacy","Lentiform Loewenfeld","3.3.10","0","s","NA","s","NA","NA","s","467","NA","51055","NA","NA","467","2","legacy","1024","2","48000","-16","experiment","HHSHH","4","even","52599","NA","NA","179840","129531","1540","NA","NA","180893","1543","NA","NA","180994","181462","180892","180994","Flanker Task","69","41531","74","yes","1024"
"93.33333333333333","93.33333333333333","559.96","559.96","black","legacy","legacy","legacy","0","congruent","uniform","1","undefined","1","s","0","0","0","74","74","0","74","0","74","0","0","0","74","74","74","74","Sun Sep 26 20:12:06 2021","1500","The main experiment item","yes","SR-FlankerTask.osexp","C:/Users/Simon M. Rook/Documents/School/1Tarleton/Classes/Adv Quant/Lab 2","no","mono","no","18","no","white","no","no","768","legacy","74","74","C:/Users/Simon M. Rook/Documents/School/1Tarleton/Classes/Adv Quant/Lab 2/flanker-data/sr-subject-4.csv","legacy","Lentiform Loewenfeld","3.3.10","0","s","NA","s","NA","NA","s","466","NA","51055","NA","NA","466","2","legacy","1024","2","48000","-16","experiment","SSSSS","4","even","52599","NA","NA","181465","129531","1540","NA","NA","182518","1543","NA","NA","182619","183086","182516","182619","Flanker Task","70","41997","75","yes","1024"
"93.42105263157895","93.42105263157895","559.0394736842105","559.0394736842105","black","legacy","legacy","legacy","0","incongruent","uniform","1","undefined","1","s","0","0","0","75","75","0","75","0","75","0","0","0","75","75","75","75","Sun Sep 26 20:12:06 2021","1500","The main experiment item","yes","SR-FlankerTask.osexp","C:/Users/Simon M. Rook/Documents/School/1Tarleton/Classes/Adv Quant/Lab 2","no","mono","no","18","no","white","no","no","768","legacy","75","75","C:/Users/Simon M. Rook/Documents/School/1Tarleton/Classes/Adv Quant/Lab 2/flanker-data/sr-subject-4.csv","legacy","Lentiform Loewenfeld","3.3.10","0","s","NA","s","NA","NA","s","490","NA","51055","NA","NA","490","2","legacy","1024","2","48000","-16","experiment","HHSHH","4","even","52599","NA","NA","183089","129531","1540","NA","NA","184142","1543","NA","NA","184243","184734","184140","184243","Flanker Task","71","42487","76","yes","1024"
"93.50649350649351","93.50649350649351","558.4675324675325","558.4675324675325","black","legacy","legacy","legacy","0","congruent","uniform","1","undefined","1","h","0","0","0","76","76","0","76","0","76","0","0","0","76","76","76","76","Sun Sep 26 20:12:06 2021","1500","The main experiment item","yes","SR-FlankerTask.osexp","C:/Users/Simon M. Rook/Documents/School/1Tarleton/Classes/Adv Quant/Lab 2","no","mono","no","18","no","white","no","no","768","legacy","76","76","C:/Users/Simon M. Rook/Documents/School/1Tarleton/Classes/Adv Quant/Lab 2/flanker-data/sr-subject-4.csv","legacy","Lentiform Loewenfeld","3.3.10","0","h","NA","s","NA","NA","h","515","NA","51055","NA","NA","515","2","legacy","1024","2","48000","-16","experiment","HHHHH","4","even","52599","NA","NA","184737","129531","1540","NA","NA","185790","1543","NA","NA","185891","186407","185788","185891","Flanker Task","72","43002","77","yes","1024"
"93.58974358974359","93.58974358974359","559.0128205128206","559.0128205128206","black","legacy","legacy","legacy","0","congruent","uniform","1","undefined","1","h","0","0","0","77","77","0","77","0","77","0","0","0","77","77","77","77","Sun Sep 26 20:12:06 2021","1500","The main experiment item","yes","SR-FlankerTask.osexp","C:/Users/Simon M. Rook/Documents/School/1Tarleton/Classes/Adv Quant/Lab 2","no","mono","no","18","no","white","no","no","768","legacy","77","77","C:/Users/Simon M. Rook/Documents/School/1Tarleton/Classes/Adv Quant/Lab 2/flanker-data/sr-subject-4.csv","legacy","Lentiform Loewenfeld","3.3.10","0","h","NA","s","NA","NA","h","601","NA","51055","NA","NA","601","2","legacy","1024","2","48000","-16","experiment","HHHHH","4","even","52599","NA","NA","186410","129531","1540","NA","NA","187463","1543","NA","NA","187564","188166","187461","187564","Flanker Task","73","43603","78","yes","1024"
"93.67088607594937","93.67088607594937","558.9493670886076","558.9493670886076","black","legacy","legacy","legacy","0","incongruent","uniform","1","undefined","1","h","0","0","0","78","78","0","78","0","78","0","0","0","78","78","78","78","Sun Sep 26 20:12:06 2021","1500","The main experiment item","yes","SR-FlankerTask.osexp","C:/Users/Simon M. Rook/Documents/School/1Tarleton/Classes/Adv Quant/Lab 2","no","mono","no","18","no","white","no","no","768","legacy","78","78","C:/Users/Simon M. Rook/Documents/School/1Tarleton/Classes/Adv Quant/Lab 2/flanker-data/sr-subject-4.csv","legacy","Lentiform Loewenfeld","3.3.10","0","h","NA","s","NA","NA","h","554","NA","51055","NA","NA","554","2","legacy","1024","2","48000","-16","experiment","SSHSS","4","even","52599","NA","NA","188170","129531","1540","NA","NA","189223","1543","NA","NA","189324","189879","189222","189324","Flanker Task","74","44157","79","yes","1024"
"93.75","93.75","559.975","559.975","black","legacy","legacy","legacy","0","congruent","uniform","1","undefined","1","s","0","0","0","79","79","0","79","0","79","0","0","0","79","79","79","79","Sun Sep 26 20:12:06 2021","1500","The main experiment item","yes","SR-FlankerTask.osexp","C:/Users/Simon M. Rook/Documents/School/1Tarleton/Classes/Adv Quant/Lab 2","no","mono","no","18","no","white","no","no","768","legacy","79","79","C:/Users/Simon M. Rook/Documents/School/1Tarleton/Classes/Adv Quant/Lab 2/flanker-data/sr-subject-4.csv","legacy","Lentiform Loewenfeld","3.3.10","0","s","NA","s","NA","NA","s","641","NA","51055","NA","NA","641","2","legacy","1024","2","48000","-16","experiment","SSSSS","4","even","52599","NA","NA","189882","129531","1540","NA","NA","190936","1543","NA","NA","191037","191679","190934","191037","Flanker Task","75","44798","80","yes","1024"
"93.82716049382717","93.82716049382717","562.9506172839506","562.9506172839506","black","legacy","legacy","legacy","0","incongruent","uniform","1","undefined","1","s","0","0","0","80","80","0","80","0","80","0","0","0","80","80","80","80","Sun Sep 26 20:12:06 2021","600","The main experiment item","yes","SR-FlankerTask.osexp","C:/Users/Simon M. Rook/Documents/School/1Tarleton/Classes/Adv Quant/Lab 2","no","mono","no","18","no","white","no","no","768","legacy","0","79","C:/Users/Simon M. Rook/Documents/School/1Tarleton/Classes/Adv Quant/Lab 2/flanker-data/sr-subject-4.csv","legacy","Lentiform Loewenfeld","3.3.10","0","s","NA","s","h","NA","s","801","NA","51055","66629","NA","801","2","legacy","1024","2","48000","-16","experiment","HHSHH","4","even","52599","259335","NA","191683","129531","1540","NA","NA","259376","1543","192705","NA","259477","260279","259375","259477","Flanker Task","76","45599","81","yes","1024"
"93.90243902439025","93.90243902439025","561.5","561.5","black","legacy","legacy","legacy","0","congruent","uniform","1","undefined","1","h","0","0","0","81","81","0","81","0","81","0","0","0","81","81","81","81","Sun Sep 26 20:12:06 2021","600","The main experiment item","yes","SR-FlankerTask.osexp","C:/Users/Simon M. Rook/Documents/School/1Tarleton/Classes/Adv Quant/Lab 2","no","mono","no","18","no","white","no","no","768","legacy","1","79","C:/Users/Simon M. Rook/Documents/School/1Tarleton/Classes/Adv Quant/Lab 2/flanker-data/sr-subject-4.csv","legacy","Lentiform Loewenfeld","3.3.10","0","h","NA","s","h","NA","h","444","NA","51055","66629","NA","444","2","legacy","1024","2","48000","-16","experiment","HHHHH","4","even","52599","259335","NA","260784","129531","1540","260283","NA","261837","1543","192705","NA","261938","262383","261836","261938","Flanker Task","77","46043","82","yes","1024"
"93.97590361445783","93.97590361445783","559.9759036144578","559.9759036144578","black","legacy","legacy","legacy","0","congruent","uniform","1","undefined","1","h","0","0","0","82","82","0","82","0","82","0","0","0","82","82","82","82","Sun Sep 26 20:12:06 2021","600","The main experiment item","yes","SR-FlankerTask.osexp","C:/Users/Simon M. Rook/Documents/School/1Tarleton/Classes/Adv Quant/Lab 2","no","mono","no","18","no","white","no","no","768","legacy","2","79","C:/Users/Simon M. Rook/Documents/School/1Tarleton/Classes/Adv Quant/Lab 2/flanker-data/sr-subject-4.csv","legacy","Lentiform Loewenfeld","3.3.10","0","h","NA","s","h","NA","h","435","NA","51055","66629","NA","435","2","legacy","1024","2","48000","-16","experiment","HHHHH","4","even","52599","259335","NA","262386","129531","1540","260283","NA","263439","1543","192705","NA","263540","263976","263437","263540","Flanker Task","78","46478","83","yes","1024"
"94.04761904761905","94.04761904761905","558.25","558.25","black","legacy","legacy","legacy","0","congruent","uniform","1","undefined","1","s","0","0","0","83","83","0","83","0","83","0","0","0","83","83","83","83","Sun Sep 26 20:12:06 2021","600","The main experiment item","yes","SR-FlankerTask.osexp","C:/Users/Simon M. Rook/Documents/School/1Tarleton/Classes/Adv Quant/Lab 2","no","mono","no","18","no","white","no","no","768","legacy","3","79","C:/Users/Simon M. Rook/Documents/School/1Tarleton/Classes/Adv Quant/Lab 2/flanker-data/sr-subject-4.csv","legacy","Lentiform Loewenfeld","3.3.10","0","s","NA","s","h","NA","s","415","NA","51055","66629","NA","415","2","legacy","1024","2","48000","-16","experiment","SSSSS","4","even","52599","259335","NA","263980","129531","1540","260283","NA","265034","1543","192705","NA","265135","265552","265032","265135","Flanker Task","79","46893","84","yes","1024"
"94.11764705882354","94.11764705882354","556.4","556.4","black","legacy","legacy","legacy","0","incongruent","uniform","1","undefined","1","s","0","0","0","84","84","0","84","0","84","0","0","0","84","84","84","84","Sun Sep 26 20:12:06 2021","600","The main experiment item","yes","SR-FlankerTask.osexp","C:/Users/Simon M. Rook/Documents/School/1Tarleton/Classes/Adv Quant/Lab 2","no","mono","no","18","no","white","no","no","768","legacy","4","79","C:/Users/Simon M. Rook/Documents/School/1Tarleton/Classes/Adv Quant/Lab 2/flanker-data/sr-subject-4.csv","legacy","Lentiform Loewenfeld","3.3.10","0","s","NA","s","h","NA","s","401","NA","51055","66629","NA","401","2","legacy","1024","2","48000","-16","experiment","HHSHH","4","even","52599","259335","NA","265555","129531","1540","260283","NA","266608","1543","192705","NA","266709","267112","266606","266709","Flanker Task","80","47294","85","yes","1024"
"94.18604651162791","94.18604651162791","555.1162790697674","555.1162790697674","black","legacy","legacy","legacy","0","congruent","uniform","1","undefined","1","h","0","0","0","85","85","0","85","0","85","0","0","0","85","85","85","85","Sun Sep 26 20:12:06 2021","600","The main experiment item","yes","SR-FlankerTask.osexp","C:/Users/Simon M. Rook/Documents/School/1Tarleton/Classes/Adv Quant/Lab 2","no","mono","no","18","no","white","no","no","768","legacy","5","79","C:/Users/Simon M. Rook/Documents/School/1Tarleton/Classes/Adv Quant/Lab 2/flanker-data/sr-subject-4.csv","legacy","Lentiform Loewenfeld","3.3.10","0","h","NA","s","h","NA","h","446","NA","51055","66629","NA","446","2","legacy","1024","2","48000","-16","experiment","HHHHH","4","even","52599","259335","NA","267115","129531","1540","260283","NA","268180","1543","192705","NA","268281","268728","268178","268281","Flanker Task","81","47740","86","yes","1024"
"93.10344827586206","93.10344827586206","554.0919540229885","554.0919540229885","black","legacy","legacy","legacy","0","incongruent","uniform","0","undefined","0","h","0","0","0","86","86","0","86","0","86","0","0","0","86","86","86","86","Sun Sep 26 20:12:06 2021","600","The main experiment item","yes","SR-FlankerTask.osexp","C:/Users/Simon M. Rook/Documents/School/1Tarleton/Classes/Adv Quant/Lab 2","no","mono","no","18","no","white","no","no","768","legacy","6","79","C:/Users/Simon M. Rook/Documents/School/1Tarleton/Classes/Adv Quant/Lab 2/flanker-data/sr-subject-4.csv","legacy","Lentiform Loewenfeld","3.3.10","0","s","NA","s","h","NA","s","466","NA","51055","66629","NA","466","2","legacy","1024","2","48000","-16","experiment","SSHSS","4","even","52599","259335","NA","268731","129531","1540","260283","NA","269784","1543","192705","NA","269885","270352","269783","269885","Flanker Task","81","48206","87","yes","1024"
"93.18181818181819","93.18181818181819","552.3977272727273","552.3977272727273","black","legacy","legacy","legacy","0","incongruent","uniform","1","undefined","1","h","0","0","0","87","87","0","87","0","87","0","0","0","87","87","87","87","Sun Sep 26 20:12:06 2021","600","The main experiment item","yes","SR-FlankerTask.osexp","C:/Users/Simon M. Rook/Documents/School/1Tarleton/Classes/Adv Quant/Lab 2","no","mono","no","18","no","white","no","no","768","legacy","7","79","C:/Users/Simon M. Rook/Documents/School/1Tarleton/Classes/Adv Quant/Lab 2/flanker-data/sr-subject-4.csv","legacy","Lentiform Loewenfeld","3.3.10","0","h","NA","s","h","NA","h","405","NA","51055","66629","NA","405","2","legacy","1024","2","48000","-16","experiment","SSHSS","4","even","52599","259335","NA","270856","270355","1540","260283","NA","271909","1543","192705","NA","272010","272416","271907","272010","Flanker Task","82","48611","88","yes","1024"
"93.25842696629213","93.25842696629213","551.8651685393259","551.8651685393259","black","legacy","legacy","legacy","0","incongruent","uniform","1","undefined","1","s","0","0","0","88","88","0","88","0","88","0","0","0","88","88","88","88","Sun Sep 26 20:12:06 2021","600","The main experiment item","yes","SR-FlankerTask.osexp","C:/Users/Simon M. Rook/Documents/School/1Tarleton/Classes/Adv Quant/Lab 2","no","mono","no","18","no","white","no","no","768","legacy","8","79","C:/Users/Simon M. Rook/Documents/School/1Tarleton/Classes/Adv Quant/Lab 2/flanker-data/sr-subject-4.csv","legacy","Lentiform Loewenfeld","3.3.10","0","s","NA","s","h","NA","s","505","NA","51055","66629","NA","505","2","legacy","1024","2","48000","-16","experiment","HHSHH","4","even","52599","259335","NA","272419","270355","1540","260283","NA","273474","1543","192705","NA","273575","274081","273472","273575","Flanker Task","83","49116","89","yes","1024"
"93.33333333333333","93.33333333333333","550.3222222222222","550.3222222222222","black","legacy","legacy","legacy","0","congruent","uniform","1","undefined","1","s","0","0","0","89","89","0","89","0","89","0","0","0","89","89","89","89","Sun Sep 26 20:12:06 2021","600","The main experiment item","yes","SR-FlankerTask.osexp","C:/Users/Simon M. Rook/Documents/School/1Tarleton/Classes/Adv Quant/Lab 2","no","mono","no","18","no","white","no","no","768","legacy","9","79","C:/Users/Simon M. Rook/Documents/School/1Tarleton/Classes/Adv Quant/Lab 2/flanker-data/sr-subject-4.csv","legacy","Lentiform Loewenfeld","3.3.10","0","s","NA","s","h","NA","s","413","NA","51055","66629","NA","413","2","legacy","1024","2","48000","-16","experiment","SSSSS","4","even","52599","259335","NA","274084","270355","1540","260283","NA","275136","1543","192705","NA","275243","275657","275135","275243","Flanker Task","84","49529","90","yes","1024"
"93.4065934065934","93.4065934065934","549.9230769230769","549.9230769230769","black","legacy","legacy","legacy","0","congruent","uniform","1","undefined","1","h","0","0","0","90","90","0","90","0","90","0","0","0","90","90","90","90","Sun Sep 26 20:12:06 2021","600","The main experiment item","yes","SR-FlankerTask.osexp","C:/Users/Simon M. Rook/Documents/School/1Tarleton/Classes/Adv Quant/Lab 2","no","mono","no","18","no","white","no","no","768","legacy","10","79","C:/Users/Simon M. Rook/Documents/School/1Tarleton/Classes/Adv Quant/Lab 2/flanker-data/sr-subject-4.csv","legacy","Lentiform Loewenfeld","3.3.10","0","h","NA","s","h","NA","h","514","NA","51055","66629","NA","514","2","legacy","1024","2","48000","-16","experiment","HHHHH","4","even","52599","259335","NA","275660","270355","1540","260283","NA","276713","1543","192705","NA","276814","277329","276712","276814","Flanker Task","85","50043","91","yes","1024"
"93.47826086956522","93.47826086956522","549.7717391304348","549.7717391304348","black","legacy","legacy","legacy","0","incongruent","uniform","1","undefined","1","h","0","0","0","91","91","0","91","0","91","0","0","0","91","91","91","91","Sun Sep 26 20:12:06 2021","600","The main experiment item","yes","SR-FlankerTask.osexp","C:/Users/Simon M. Rook/Documents/School/1Tarleton/Classes/Adv Quant/Lab 2","no","mono","no","18","no","white","no","no","768","legacy","11","79","C:/Users/Simon M. Rook/Documents/School/1Tarleton/Classes/Adv Quant/Lab 2/flanker-data/sr-subject-4.csv","legacy","Lentiform Loewenfeld","3.3.10","0","h","NA","s","h","NA","h","536","NA","51055","66629","NA","536","2","legacy","1024","2","48000","-16","experiment","SSHSS","4","even","52599","259335","NA","277332","270355","1540","260283","NA","278387","1543","192705","NA","278488","279025","278385","278488","Flanker Task","86","50579","92","yes","1024"
"93.54838709677419","93.54838709677419","549.6559139784946","549.6559139784946","black","legacy","legacy","legacy","0","congruent","uniform","1","undefined","1","s","0","0","0","92","92","0","92","0","92","0","0","0","92","92","92","92","Sun Sep 26 20:12:06 2021","600","The main experiment item","yes","SR-FlankerTask.osexp","C:/Users/Simon M. Rook/Documents/School/1Tarleton/Classes/Adv Quant/Lab 2","no","mono","no","18","no","white","no","no","768","legacy","12","79","C:/Users/Simon M. Rook/Documents/School/1Tarleton/Classes/Adv Quant/Lab 2/flanker-data/sr-subject-4.csv","legacy","Lentiform Loewenfeld","3.3.10","0","s","NA","s","h","NA","s","539","NA","51055","66629","NA","539","2","legacy","1024","2","48000","-16","experiment","SSSSS","4","even","52599","259335","NA","279028","270355","1540","260283","NA","280081","1543","192705","NA","280182","280722","280079","280182","Flanker Task","87","51118","93","yes","1024"
"93.61702127659575","93.61702127659575","549.1808510638298","549.1808510638298","black","legacy","legacy","legacy","0","congruent","uniform","1","undefined","1","h","0","0","0","93","93","0","93","0","93","0","0","0","93","93","93","93","Sun Sep 26 20:12:06 2021","600","The main experiment item","yes","SR-FlankerTask.osexp","C:/Users/Simon M. Rook/Documents/School/1Tarleton/Classes/Adv Quant/Lab 2","no","mono","no","18","no","white","no","no","768","legacy","13","79","C:/Users/Simon M. Rook/Documents/School/1Tarleton/Classes/Adv Quant/Lab 2/flanker-data/sr-subject-4.csv","legacy","Lentiform Loewenfeld","3.3.10","0","h","NA","s","h","NA","h","505","NA","51055","66629","NA","505","2","legacy","1024","2","48000","-16","experiment","HHHHH","4","even","52599","259335","NA","280725","270355","1540","260283","NA","281778","1543","192705","NA","281879","282385","281776","281879","Flanker Task","88","51623","94","yes","1024"
"93.6842105263158","93.6842105263158","549.1578947368421","549.1578947368421","black","legacy","legacy","legacy","0","incongruent","uniform","1","undefined","1","h","0","0","0","94","94","0","94","0","94","0","0","0","94","94","94","94","Sun Sep 26 20:12:06 2021","600","The main experiment item","yes","SR-FlankerTask.osexp","C:/Users/Simon M. Rook/Documents/School/1Tarleton/Classes/Adv Quant/Lab 2","no","mono","no","18","no","white","no","no","768","legacy","14","79","C:/Users/Simon M. Rook/Documents/School/1Tarleton/Classes/Adv Quant/Lab 2/flanker-data/sr-subject-4.csv","legacy","Lentiform Loewenfeld","3.3.10","0","h","NA","s","h","NA","h","547","NA","51055","66629","NA","547","2","legacy","1024","2","48000","-16","experiment","SSHSS","4","even","52599","259335","NA","282388","270355","1540","260283","NA","283441","1543","192705","NA","283542","284090","283439","283542","Flanker Task","89","52170","95","yes","1024"
"93.75","93.75","548.2916666666666","548.2916666666666","black","legacy","legacy","legacy","0","incongruent","uniform","1","undefined","1","h","0","0","0","95","95","0","95","0","95","0","0","0","95","95","95","95","Sun Sep 26 20:12:06 2021","600","The main experiment item","yes","SR-FlankerTask.osexp","C:/Users/Simon M. Rook/Documents/School/1Tarleton/Classes/Adv Quant/Lab 2","no","mono","no","18","no","white","no","no","768","legacy","15","79","C:/Users/Simon M. Rook/Documents/School/1Tarleton/Classes/Adv Quant/Lab 2/flanker-data/sr-subject-4.csv","legacy","Lentiform Loewenfeld","3.3.10","0","h","NA","s","h","NA","h","466","NA","51055","66629","NA","466","2","legacy","1024","2","48000","-16","experiment","SSHSS","4","even","52599","259335","NA","284093","270355","1540","260283","NA","285146","1543","192705","NA","285247","285714","285144","285247","Flanker Task","90","52636","96","yes","1024"
"93.81443298969072","93.81443298969072","550.1649484536083","550.1649484536083","black","legacy","legacy","legacy","0","incongruent","uniform","1","undefined","1","s","0","0","0","96","96","0","96","0","96","0","0","0","96","96","96","96","Sun Sep 26 20:12:06 2021","600","The main experiment item","yes","SR-FlankerTask.osexp","C:/Users/Simon M. Rook/Documents/School/1Tarleton/Classes/Adv Quant/Lab 2","no","mono","no","18","no","white","no","no","768","legacy","16","79","C:/Users/Simon M. Rook/Documents/School/1Tarleton/Classes/Adv Quant/Lab 2/flanker-data/sr-subject-4.csv","legacy","Lentiform Loewenfeld","3.3.10","0","s","NA","s","h","NA","s","730","NA","51055","66629","NA","730","2","legacy","1024","2","48000","-16","experiment","HHSHH","4","even","52599","259335","NA","285717","270355","1540","260283","NA","286770","1543","192705","NA","286871","287602","286768","286871","Flanker Task","91","53366","97","yes","1024"
"93.87755102040816","93.87755102040816","547.8775510204082","547.8775510204082","black","legacy","legacy","legacy","0","congruent","uniform","1","undefined","1","s","0","0","0","97","97","0","97","0","97","0","0","0","97","97","97","97","Sun Sep 26 20:12:06 2021","600","The main experiment item","yes","SR-FlankerTask.osexp","C:/Users/Simon M. Rook/Documents/School/1Tarleton/Classes/Adv Quant/Lab 2","no","mono","no","18","no","white","no","no","768","legacy","17","79","C:/Users/Simon M. Rook/Documents/School/1Tarleton/Classes/Adv Quant/Lab 2/flanker-data/sr-subject-4.csv","legacy","Lentiform Loewenfeld","3.3.10","0","s","NA","s","h","NA","s","326","NA","51055","66629","NA","326","2","legacy","1024","2","48000","-16","experiment","SSSSS","4","even","52599","259335","NA","288106","270355","1540","287605","NA","289159","1543","192705","NA","289260","289587","289157","289260","Flanker Task","92","53692","98","yes","1024"
"93.93939393939394","93.93939393939394","546.4747474747475","546.4747474747475","black","legacy","legacy","legacy","0","congruent","uniform","1","undefined","1","h","0","0","0","98","98","0","98","0","98","0","0","0","98","98","98","98","Sun Sep 26 20:12:06 2021","600","The main experiment item","yes","SR-FlankerTask.osexp","C:/Users/Simon M. Rook/Documents/School/1Tarleton/Classes/Adv Quant/Lab 2","no","mono","no","18","no","white","no","no","768","legacy","18","79","C:/Users/Simon M. Rook/Documents/School/1Tarleton/Classes/Adv Quant/Lab 2/flanker-data/sr-subject-4.csv","legacy","Lentiform Loewenfeld","3.3.10","0","h","NA","s","h","NA","h","409","NA","51055","66629","NA","409","2","legacy","1024","2","48000","-16","experiment","HHHHH","4","even","52599","259335","NA","289590","270355","1540","287605","NA","290643","1543","192705","NA","290744","291154","290641","290744","Flanker Task","93","54101","99","yes","1024"
"94","94","543.58","543.58","black","legacy","legacy","legacy","0","incongruent","uniform","1","undefined","1","s","0","0","0","99","99","0","99","0","99","0","0","0","99","99","99","99","Sun Sep 26 20:12:06 2021","600","The main experiment item","yes","SR-FlankerTask.osexp","C:/Users/Simon M. Rook/Documents/School/1Tarleton/Classes/Adv Quant/Lab 2","no","mono","no","18","no","white","no","no","768","legacy","19","79","C:/Users/Simon M. Rook/Documents/School/1Tarleton/Classes/Adv Quant/Lab 2/flanker-data/sr-subject-4.csv","legacy","Lentiform Loewenfeld","3.3.10","0","s","NA","s","h","NA","s","257","NA","51055","66629","NA","257","2","legacy","1024","2","48000","-16","experiment","HHSHH","4","even","52599","259335","NA","291158","270355","1540","287605","NA","292211","1543","192705","NA","292312","292570","292209","292312","Flanker Task","94","54358","100","yes","1024"
"94.05940594059406","94.05940594059406","541.1584158415842","541.1584158415842","black","legacy","legacy","legacy","0","congruent","uniform","1","undefined","1","h","0","0","0","100","100","0","100","0","100","0","0","0","100","100","100","100","Sun Sep 26 20:12:06 2021","600","The main experiment item","yes","SR-FlankerTask.osexp","C:/Users/Simon M. Rook/Documents/School/1Tarleton/Classes/Adv Quant/Lab 2","no","mono","no","18","no","white","no","no","768","legacy","20","79","C:/Users/Simon M. Rook/Documents/School/1Tarleton/Classes/Adv Quant/Lab 2/flanker-data/sr-subject-4.csv","legacy","Lentiform Loewenfeld","3.3.10","0","h","NA","s","h","NA","h","299","NA","51055","66629","NA","299","2","legacy","1024","2","48000","-16","experiment","HHHHH","4","even","52599","259335","NA","292573","270355","1540","287605","NA","293626","1543","192705","NA","293727","294027","293625","293727","Flanker Task","95","54657","101","yes","1024"
"93.13725490196079","93.13725490196079","538.6960784313726","538.6960784313726","black","legacy","legacy","legacy","0","incongruent","uniform","0","undefined","0","h","0","0","0","101","101","0","101","0","101","0","0","0","101","101","101","101","Sun Sep 26 20:12:06 2021","600","The main experiment item","yes","SR-FlankerTask.osexp","C:/Users/Simon M. Rook/Documents/School/1Tarleton/Classes/Adv Quant/Lab 2","no","mono","no","18","no","white","no","no","768","legacy","21","79","C:/Users/Simon M. Rook/Documents/School/1Tarleton/Classes/Adv Quant/Lab 2/flanker-data/sr-subject-4.csv","legacy","Lentiform Loewenfeld","3.3.10","0","s","NA","s","h","NA","s","290","NA","51055","66629","NA","290","2","legacy","1024","2","48000","-16","experiment","SSHSS","4","even","52599","259335","NA","294030","270355","1540","287605","NA","295083","1543","192705","NA","295184","295475","295081","295184","Flanker Task","95","54947","102","yes","1024"
"93.20388349514563","93.20388349514563","537.7864077669902","537.7864077669902","black","legacy","legacy","legacy","0","congruent","uniform","1","undefined","1","h","0","0","0","102","102","0","102","0","102","0","0","0","102","102","102","102","Sun Sep 26 20:12:06 2021","600","The main experiment item","yes","SR-FlankerTask.osexp","C:/Users/Simon M. Rook/Documents/School/1Tarleton/Classes/Adv Quant/Lab 2","no","mono","no","18","no","white","no","no","768","legacy","22","79","C:/Users/Simon M. Rook/Documents/School/1Tarleton/Classes/Adv Quant/Lab 2/flanker-data/sr-subject-4.csv","legacy","Lentiform Loewenfeld","3.3.10","0","h","NA","s","h","NA","h","445","NA","51055","66629","NA","445","2","legacy","1024","2","48000","-16","experiment","HHHHH","4","even","52599","259335","NA","295980","295479","1540","287605","NA","297033","1543","192705","NA","297134","297580","297032","297134","Flanker Task","96","55392","103","yes","1024"
"93.26923076923077","93.26923076923077","536.3365384615385","536.3365384615385","black","legacy","legacy","legacy","0","congruent","uniform","1","undefined","1","h","0","0","0","103","103","0","103","0","103","0","0","0","103","103","103","103","Sun Sep 26 20:12:06 2021","600","The main experiment item","yes","SR-FlankerTask.osexp","C:/Users/Simon M. Rook/Documents/School/1Tarleton/Classes/Adv Quant/Lab 2","no","mono","no","18","no","white","no","no","768","legacy","23","79","C:/Users/Simon M. Rook/Documents/School/1Tarleton/Classes/Adv Quant/Lab 2/flanker-data/sr-subject-4.csv","legacy","Lentiform Loewenfeld","3.3.10","0","h","NA","s","h","NA","h","387","NA","51055","66629","NA","387","2","legacy","1024","2","48000","-16","experiment","HHHHH","4","even","52599","259335","NA","297583","295479","1540","287605","NA","298643","1543","192705","NA","298744","299132","298641","298744","Flanker Task","97","55779","104","yes","1024"
"93.33333333333333","93.33333333333333","535.047619047619","535.047619047619","black","legacy","legacy","legacy","0","congruent","uniform","1","undefined","1","h","0","0","0","104","104","0","104","0","104","0","0","0","104","104","104","104","Sun Sep 26 20:12:06 2021","600","The main experiment item","yes","SR-FlankerTask.osexp","C:/Users/Simon M. Rook/Documents/School/1Tarleton/Classes/Adv Quant/Lab 2","no","mono","no","18","no","white","no","no","768","legacy","24","79","C:/Users/Simon M. Rook/Documents/School/1Tarleton/Classes/Adv Quant/Lab 2/flanker-data/sr-subject-4.csv","legacy","Lentiform Loewenfeld","3.3.10","0","h","NA","s","h","NA","h","401","NA","51055","66629","NA","401","2","legacy","1024","2","48000","-16","experiment","HHHHH","4","even","52599","259335","NA","299135","295479","1540","287605","NA","300187","1543","192705","NA","300289","300691","300186","300289","Flanker Task","98","56180","105","yes","1024"
"93.39622641509433","93.39622641509433","533.6415094339623","533.6415094339623","black","legacy","legacy","legacy","0","congruent","uniform","1","undefined","1","s","0","0","0","105","105","0","105","0","105","0","0","0","105","105","105","105","Sun Sep 26 20:12:06 2021","600","The main experiment item","yes","SR-FlankerTask.osexp","C:/Users/Simon M. Rook/Documents/School/1Tarleton/Classes/Adv Quant/Lab 2","no","mono","no","18","no","white","no","no","768","legacy","25","79","C:/Users/Simon M. Rook/Documents/School/1Tarleton/Classes/Adv Quant/Lab 2/flanker-data/sr-subject-4.csv","legacy","Lentiform Loewenfeld","3.3.10","0","s","NA","s","h","NA","s","386","NA","51055","66629","NA","386","2","legacy","1024","2","48000","-16","experiment","SSSSS","4","even","52599","259335","NA","300694","295479","1540","287605","NA","301748","1543","192705","NA","301849","302236","301747","301849","Flanker Task","99","56566","106","yes","1024"
"92.5233644859813","92.5233644859813","532.7757009345794","532.7757009345794","black","legacy","legacy","legacy","0","incongruent","uniform","0","undefined","0","h","0","0","0","106","106","0","106","0","106","0","0","0","106","106","106","106","Sun Sep 26 20:12:06 2021","600","The main experiment item","yes","SR-FlankerTask.osexp","C:/Users/Simon M. Rook/Documents/School/1Tarleton/Classes/Adv Quant/Lab 2","no","mono","no","18","no","white","no","no","768","legacy","26","79","C:/Users/Simon M. Rook/Documents/School/1Tarleton/Classes/Adv Quant/Lab 2/flanker-data/sr-subject-4.csv","legacy","Lentiform Loewenfeld","3.3.10","0","s","NA","s","h","NA","s","441","NA","51055","66629","NA","441","2","legacy","1024","2","48000","-16","experiment","SSHSS","4","even","52599","259335","NA","302240","295479","1540","287605","NA","303293","1543","192705","NA","303394","303836","303291","303394","Flanker Task","99","57007","107","yes","1024"
"92.5925925925926","92.5925925925926","532.7037037037037","532.7037037037037","black","legacy","legacy","legacy","0","incongruent","uniform","1","undefined","1","s","0","0","0","107","107","0","107","0","107","0","0","0","107","107","107","107","Sun Sep 26 20:12:06 2021","600","The main experiment item","yes","SR-FlankerTask.osexp","C:/Users/Simon M. Rook/Documents/School/1Tarleton/Classes/Adv Quant/Lab 2","no","mono","no","18","no","white","no","no","768","legacy","27","79","C:/Users/Simon M. Rook/Documents/School/1Tarleton/Classes/Adv Quant/Lab 2/flanker-data/sr-subject-4.csv","legacy","Lentiform Loewenfeld","3.3.10","0","s","NA","s","h","NA","s","525","NA","51055","66629","NA","525","2","legacy","1024","2","48000","-16","experiment","HHSHH","4","even","52599","259335","NA","304340","303839","1540","287605","NA","305393","1543","192705","NA","305494","306020","305392","305494","Flanker Task","100","57532","108","yes","1024"
