acc,accuracy,average_response_time,avg_rt,background,canvas_backend,clock_backend,color_backend,compensation,condition,coordinates,correct,correct_instructions1,correct_keyboard_response,correct_response,count_Block1,count_Block2,count_Block3,count_ISI,count_errorFeedback,count_experiment,count_faster,count_finish,count_fixation,count_instructions1,count_instructions3,count_instrutions2,count_keyboard_response,count_logger,count_sequence,count_stimulus,datetime,deadline,description,disable_garbage_collection,experiment_file,experiment_path,font_bold,font_family,font_italic,font_size,font_underline,foreground,form_clicks,fullscreen,height,keyboard_backend,live_row,live_row_Block1,logfile,mouse_backend,opensesame_codename,opensesame_version,repeat_cycle,response,response_finish,response_instructions1,response_instructions3,response_instrutions2,response_keyboard_response,response_time,response_time_finish,response_time_instructions1,response_time_instructions3,response_time_instrutions2,response_time_keyboard_response,round_decimals,sampler_backend,sound_buf_size,sound_channels,sound_freq,sound_sample_size,start,stimulus,subject_nr,subject_parity,time_Block1,time_Block2,time_Block3,time_ISI,time_errorFeedback,time_experiment,time_faster,time_finish,time_fixation,time_instructions1,time_instructions3,time_instrutions2,time_keyboard_response,time_logger,time_sequence,time_stimulus,title,total_correct,total_response_time,total_responses,uniform_coordinates,width
100,100,720,720,black,legacy,legacy,legacy,0,congruent,uniform,1,undefined,1,h,0,0,0,0,0,0,0,0,0,0,0,0,0,0,0,0,Sun Sep 24 13:53:27 2023,1500,The main experiment item,yes,Flankertask.osexp,/Users/Thingtwo/Desktop,no,mono,no,18,no,white,no,yes,768,legacy,0,0,/Users/Thingtwo/Desktop/NC-subject-4.csv,legacy,Lentiform Loewenfeld,3.3.14,0,h,NA,s,NA,NA,h,720,NA,54289,NA,NA,720,2,legacy,1024,2,48000,-16,experiment,HHHHH,4,even,55461,NA,NA,NA,NA,1137,NA,NA,55491,1163,NA,NA,55597,56317,55486,55597,New experiment,1,720,1,yes,1024
100,100,624,624,black,legacy,legacy,legacy,0,congruent,uniform,1,undefined,1,h,0,0,0,1,1,0,1,0,1,0,0,0,1,1,1,1,Sun Sep 24 13:53:27 2023,1500,The main experiment item,yes,Flankertask.osexp,/Users/Thingtwo/Desktop,no,mono,no,18,no,white,no,yes,768,legacy,1,1,/Users/Thingtwo/Desktop/NC-subject-4.csv,legacy,Lentiform Loewenfeld,3.3.14,0,h,NA,s,NA,NA,h,528,NA,54289,NA,NA,528,2,legacy,1024,2,48000,-16,experiment,HHHHH,4,even,55461,NA,NA,56324,NA,1137,NA,NA,57396,1163,NA,NA,57502,58036,57389,57502,New experiment,2,1248,2,yes,1024
100,100,632.3333333,632.3333333,black,legacy,legacy,legacy,0,incongruent,uniform,1,undefined,1,s,0,0,0,2,2,0,2,0,2,0,0,0,2,2,2,2,Sun Sep 24 13:53:27 2023,1500,The main experiment item,yes,Flankertask.osexp,/Users/Thingtwo/Desktop,no,mono,no,18,no,white,no,yes,768,legacy,2,2,/Users/Thingtwo/Desktop/NC-subject-4.csv,legacy,Lentiform Loewenfeld,3.3.14,0,s,NA,s,NA,NA,s,649,NA,54289,NA,NA,649,2,legacy,1024,2,48000,-16,experiment,HHSHH,4,even,55461,NA,NA,58042,NA,1137,NA,NA,59107,1163,NA,NA,59213,59862,59102,59213,New experiment,3,1897,3,yes,1024
100,100,594.25,594.25,black,legacy,legacy,legacy,0,congruent,uniform,1,undefined,1,s,0,0,0,3,3,0,3,0,3,0,0,0,3,3,3,3,Sun Sep 24 13:53:27 2023,1500,The main experiment item,yes,Flankertask.osexp,/Users/Thingtwo/Desktop,no,mono,no,18,no,white,no,yes,768,legacy,3,3,/Users/Thingtwo/Desktop/NC-subject-4.csv,legacy,Lentiform Loewenfeld,3.3.14,0,s,NA,s,NA,NA,s,480,NA,54289,NA,NA,480,2,legacy,1024,2,48000,-16,experiment,SSSSS,4,even,55461,NA,NA,59868,NA,1137,NA,NA,60929,1163,NA,NA,61035,61516,60923,61035,New experiment,4,2377,4,yes,1024
100,100,596,596,black,legacy,legacy,legacy,0,incongruent,uniform,1,undefined,1,h,0,0,0,4,4,0,4,0,4,0,0,0,4,4,4,4,Sun Sep 24 13:53:27 2023,1500,The main experiment item,yes,Flankertask.osexp,/Users/Thingtwo/Desktop,no,mono,no,18,no,white,no,yes,768,legacy,4,4,/Users/Thingtwo/Desktop/NC-subject-4.csv,legacy,Lentiform Loewenfeld,3.3.14,0,h,NA,s,NA,NA,h,603,NA,54289,NA,NA,603,2,legacy,1024,2,48000,-16,experiment,SSHSS,4,even,55461,NA,NA,61522,NA,1137,NA,NA,62584,1163,NA,NA,62690,63294,62578,62690,New experiment,5,2980,5,yes,1024
100,100,598.5,598.5,black,legacy,legacy,legacy,0,incongruent,uniform,1,undefined,1,h,0,0,0,5,5,0,5,0,5,0,0,0,5,5,5,5,Sun Sep 24 13:53:27 2023,1500,The main experiment item,yes,Flankertask.osexp,/Users/Thingtwo/Desktop,no,mono,no,18,no,white,no,yes,768,legacy,5,5,/Users/Thingtwo/Desktop/NC-subject-4.csv,legacy,Lentiform Loewenfeld,3.3.14,0,h,NA,s,NA,NA,h,611,NA,54289,NA,NA,611,2,legacy,1024,2,48000,-16,experiment,SSHSS,4,even,55461,NA,NA,63299,NA,1137,NA,NA,64360,1163,NA,NA,64466,65078,64354,64466,New experiment,6,3591,6,yes,1024
100,100,593,593,black,legacy,legacy,legacy,0,congruent,uniform,1,undefined,1,h,0,0,0,6,6,0,6,0,6,0,0,0,6,6,6,6,Sun Sep 24 13:53:27 2023,1500,The main experiment item,yes,Flankertask.osexp,/Users/Thingtwo/Desktop,no,mono,no,18,no,white,no,yes,768,legacy,6,6,/Users/Thingtwo/Desktop/NC-subject-4.csv,legacy,Lentiform Loewenfeld,3.3.14,0,h,NA,s,NA,NA,h,560,NA,54289,NA,NA,560,2,legacy,1024,2,48000,-16,experiment,HHHHH,4,even,55461,NA,NA,65084,NA,1137,NA,NA,66144,1163,NA,NA,66250,66810,66138,66250,New experiment,7,4151,7,yes,1024
100,100,580.25,580.25,black,legacy,legacy,legacy,0,congruent,uniform,1,undefined,1,h,0,0,0,7,7,0,7,0,7,0,0,0,7,7,7,7,Sun Sep 24 13:53:27 2023,1500,The main experiment item,yes,Flankertask.osexp,/Users/Thingtwo/Desktop,no,mono,no,18,no,white,no,yes,768,legacy,7,7,/Users/Thingtwo/Desktop/NC-subject-4.csv,legacy,Lentiform Loewenfeld,3.3.14,0,h,NA,s,NA,NA,h,491,NA,54289,NA,NA,491,2,legacy,1024,2,48000,-16,experiment,HHHHH,4,even,55461,NA,NA,66815,NA,1137,NA,NA,67875,1163,NA,NA,67981,68473,67869,67981,New experiment,8,4642,8,yes,1024
100,100,565.7777778,565.7777778,black,legacy,legacy,legacy,0,congruent,uniform,1,undefined,1,h,0,0,0,8,8,0,8,0,8,0,0,0,8,8,8,8,Sun Sep 24 13:53:27 2023,1500,The main experiment item,yes,Flankertask.osexp,/Users/Thingtwo/Desktop,no,mono,no,18,no,white,no,yes,768,legacy,8,8,/Users/Thingtwo/Desktop/NC-subject-4.csv,legacy,Lentiform Loewenfeld,3.3.14,0,h,NA,s,NA,NA,h,450,NA,54289,NA,NA,450,2,legacy,1024,2,48000,-16,experiment,HHHHH,4,even,55461,NA,NA,68478,NA,1137,NA,NA,69540,1163,NA,NA,69646,70097,69535,69646,New experiment,9,5092,9,yes,1024
100,100,568.3,568.3,black,legacy,legacy,legacy,0,incongruent,uniform,1,undefined,1,s,0,0,0,9,9,0,9,0,9,0,0,0,9,9,9,9,Sun Sep 24 13:53:27 2023,1500,The main experiment item,yes,Flankertask.osexp,/Users/Thingtwo/Desktop,no,mono,no,18,no,white,no,yes,768,legacy,9,9,/Users/Thingtwo/Desktop/NC-subject-4.csv,legacy,Lentiform Loewenfeld,3.3.14,0,s,NA,s,NA,NA,s,591,NA,54289,NA,NA,591,2,legacy,1024,2,48000,-16,experiment,HHSHH,4,even,55461,NA,NA,70102,NA,1137,NA,NA,71165,1163,NA,NA,71271,71862,71159,71271,New experiment,10,5683,10,yes,1024
100,100,567.7272727,567.7272727,black,legacy,legacy,legacy,0,incongruent,uniform,1,undefined,1,h,0,0,0,10,10,0,10,0,10,0,0,0,10,10,10,10,Sun Sep 24 13:53:27 2023,1500,The main experiment item,yes,Flankertask.osexp,/Users/Thingtwo/Desktop,no,mono,no,18,no,white,no,yes,768,legacy,10,10,/Users/Thingtwo/Desktop/NC-subject-4.csv,legacy,Lentiform Loewenfeld,3.3.14,0,h,NA,s,NA,NA,h,562,NA,54289,NA,NA,562,2,legacy,1024,2,48000,-16,experiment,SSHSS,4,even,55461,NA,NA,71867,NA,1137,NA,NA,72933,1163,NA,NA,73039,73602,72928,73039,New experiment,11,6245,11,yes,1024
100,100,567,567,black,legacy,legacy,legacy,0,congruent,uniform,1,undefined,1,h,0,0,0,11,11,0,11,0,11,0,0,0,11,11,11,11,Sun Sep 24 13:53:27 2023,1500,The main experiment item,yes,Flankertask.osexp,/Users/Thingtwo/Desktop,no,mono,no,18,no,white,no,yes,768,legacy,11,11,/Users/Thingtwo/Desktop/NC-subject-4.csv,legacy,Lentiform Loewenfeld,3.3.14,0,h,NA,s,NA,NA,h,559,NA,54289,NA,NA,559,2,legacy,1024,2,48000,-16,experiment,HHHHH,4,even,55461,NA,NA,73608,NA,1137,NA,NA,74670,1163,NA,NA,74776,75335,74664,74776,New experiment,12,6804,12,yes,1024
100,100,559.1538462,559.1538462,black,legacy,legacy,legacy,0,congruent,uniform,1,undefined,1,s,0,0,0,12,12,0,12,0,12,0,0,0,12,12,12,12,Sun Sep 24 13:53:27 2023,1500,The main experiment item,yes,Flankertask.osexp,/Users/Thingtwo/Desktop,no,mono,no,18,no,white,no,yes,768,legacy,12,12,/Users/Thingtwo/Desktop/NC-subject-4.csv,legacy,Lentiform Loewenfeld,3.3.14,0,s,NA,s,NA,NA,s,465,NA,54289,NA,NA,465,2,legacy,1024,2,48000,-16,experiment,SSSSS,4,even,55461,NA,NA,75341,NA,1137,NA,NA,76401,1163,NA,NA,76507,76973,76395,76507,New experiment,13,7269,13,yes,1024
100,100,560.5,560.5,black,legacy,legacy,legacy,0,incongruent,uniform,1,undefined,1,h,0,0,0,13,13,0,13,0,13,0,0,0,13,13,13,13,Sun Sep 24 13:53:27 2023,1500,The main experiment item,yes,Flankertask.osexp,/Users/Thingtwo/Desktop,no,mono,no,18,no,white,no,yes,768,legacy,13,13,/Users/Thingtwo/Desktop/NC-subject-4.csv,legacy,Lentiform Loewenfeld,3.3.14,0,h,NA,s,NA,NA,h,578,NA,54289,NA,NA,578,2,legacy,1024,2,48000,-16,experiment,SSHSS,4,even,55461,NA,NA,76979,NA,1137,NA,NA,78041,1163,NA,NA,78147,78726,78035,78147,New experiment,14,7847,14,yes,1024
100,100,558.5333333,558.5333333,black,legacy,legacy,legacy,0,congruent,uniform,1,undefined,1,s,0,0,0,14,14,0,14,0,14,0,0,0,14,14,14,14,Sun Sep 24 13:53:27 2023,1500,The main experiment item,yes,Flankertask.osexp,/Users/Thingtwo/Desktop,no,mono,no,18,no,white,no,yes,768,legacy,14,14,/Users/Thingtwo/Desktop/NC-subject-4.csv,legacy,Lentiform Loewenfeld,3.3.14,0,s,NA,s,NA,NA,s,531,NA,54289,NA,NA,531,2,legacy,1024,2,48000,-16,experiment,SSSSS,4,even,55461,NA,NA,78731,NA,1137,NA,NA,79792,1163,NA,NA,79899,80430,79787,79899,New experiment,15,8378,15,yes,1024
100,100,553.0625,553.0625,black,legacy,legacy,legacy,0,congruent,uniform,1,undefined,1,h,0,0,0,15,15,0,15,0,15,0,0,0,15,15,15,15,Sun Sep 24 13:53:27 2023,1500,The main experiment item,yes,Flankertask.osexp,/Users/Thingtwo/Desktop,no,mono,no,18,no,white,no,yes,768,legacy,15,15,/Users/Thingtwo/Desktop/NC-subject-4.csv,legacy,Lentiform Loewenfeld,3.3.14,0,h,NA,s,NA,NA,h,471,NA,54289,NA,NA,471,2,legacy,1024,2,48000,-16,experiment,HHHHH,4,even,55461,NA,NA,80435,NA,1137,NA,NA,81495,1163,NA,NA,81601,82073,81490,81601,New experiment,16,8849,16,yes,1024
100,100,561.7058824,561.7058824,black,legacy,legacy,legacy,0,incongruent,uniform,1,undefined,1,h,0,0,0,16,16,0,16,0,16,0,0,0,16,16,16,16,Sun Sep 24 13:53:27 2023,1500,The main experiment item,yes,Flankertask.osexp,/Users/Thingtwo/Desktop,no,mono,no,18,no,white,no,yes,768,legacy,16,16,/Users/Thingtwo/Desktop/NC-subject-4.csv,legacy,Lentiform Loewenfeld,3.3.14,0,h,NA,s,NA,NA,h,700,NA,54289,NA,NA,700,2,legacy,1024,2,48000,-16,experiment,SSHSS,4,even,55461,NA,NA,82079,NA,1137,NA,NA,83140,1163,NA,NA,83246,83947,83134,83246,New experiment,17,9549,17,yes,1024
100,100,559.8333333,559.8333333,black,legacy,legacy,legacy,0,congruent,uniform,1,undefined,1,h,0,0,0,17,17,0,17,0,17,0,0,0,17,17,17,17,Sun Sep 24 13:53:27 2023,1500,The main experiment item,yes,Flankertask.osexp,/Users/Thingtwo/Desktop,no,mono,no,18,no,white,no,yes,768,legacy,17,17,/Users/Thingtwo/Desktop/NC-subject-4.csv,legacy,Lentiform Loewenfeld,3.3.14,0,h,NA,s,NA,NA,h,528,NA,54289,NA,NA,528,2,legacy,1024,2,48000,-16,experiment,HHHHH,4,even,55461,NA,NA,83953,NA,1137,NA,NA,85016,1163,NA,NA,85122,85651,85011,85122,New experiment,18,10077,18,yes,1024
100,100,562.1578947,562.1578947,black,legacy,legacy,legacy,0,incongruent,uniform,1,undefined,1,h,0,0,0,18,18,0,18,0,18,0,0,0,18,18,18,18,Sun Sep 24 13:53:27 2023,1500,The main experiment item,yes,Flankertask.osexp,/Users/Thingtwo/Desktop,no,mono,no,18,no,white,no,yes,768,legacy,18,18,/Users/Thingtwo/Desktop/NC-subject-4.csv,legacy,Lentiform Loewenfeld,3.3.14,0,h,NA,s,NA,NA,h,604,NA,54289,NA,NA,604,2,legacy,1024,2,48000,-16,experiment,SSHSS,4,even,55461,NA,NA,85657,NA,1137,NA,NA,86718,1163,NA,NA,86824,87429,86712,86824,New experiment,19,10681,19,yes,1024
100,100,558.65,558.65,black,legacy,legacy,legacy,0,congruent,uniform,1,undefined,1,h,0,0,0,19,19,0,19,0,19,0,0,0,19,19,19,19,Sun Sep 24 13:53:27 2023,1500,The main experiment item,yes,Flankertask.osexp,/Users/Thingtwo/Desktop,no,mono,no,18,no,white,no,yes,768,legacy,19,19,/Users/Thingtwo/Desktop/NC-subject-4.csv,legacy,Lentiform Loewenfeld,3.3.14,0,h,NA,s,NA,NA,h,492,NA,54289,NA,NA,492,2,legacy,1024,2,48000,-16,experiment,HHHHH,4,even,55461,NA,NA,87435,NA,1137,NA,NA,88495,1163,NA,NA,88601,89094,88489,88601,New experiment,20,11173,20,yes,1024
100,100,559.1428571,559.1428571,black,legacy,legacy,legacy,0,incongruent,uniform,1,undefined,1,s,0,0,0,20,20,0,20,0,20,0,0,0,20,20,20,20,Sun Sep 24 13:53:27 2023,1500,The main experiment item,yes,Flankertask.osexp,/Users/Thingtwo/Desktop,no,mono,no,18,no,white,no,yes,768,legacy,20,20,/Users/Thingtwo/Desktop/NC-subject-4.csv,legacy,Lentiform Loewenfeld,3.3.14,0,s,NA,s,NA,NA,s,569,NA,54289,NA,NA,569,2,legacy,1024,2,48000,-16,experiment,HHSHH,4,even,55461,NA,NA,89099,NA,1137,NA,NA,90160,1163,NA,NA,90266,90835,90154,90266,New experiment,21,11742,21,yes,1024
100,100,554.5454545,554.5454545,black,legacy,legacy,legacy,0,congruent,uniform,1,undefined,1,s,0,0,0,21,21,0,21,0,21,0,0,0,21,21,21,21,Sun Sep 24 13:53:27 2023,1500,The main experiment item,yes,Flankertask.osexp,/Users/Thingtwo/Desktop,no,mono,no,18,no,white,no,yes,768,legacy,21,21,/Users/Thingtwo/Desktop/NC-subject-4.csv,legacy,Lentiform Loewenfeld,3.3.14,0,s,NA,s,NA,NA,s,458,NA,54289,NA,NA,458,2,legacy,1024,2,48000,-16,experiment,SSSSS,4,even,55461,NA,NA,90841,NA,1137,NA,NA,91901,1163,NA,NA,92007,92466,91895,92007,New experiment,22,12200,22,yes,1024
100,100,549.2608696,549.2608696,black,legacy,legacy,legacy,0,congruent,uniform,1,undefined,1,h,0,0,0,22,22,0,22,0,22,0,0,0,22,22,22,22,Sun Sep 24 13:53:27 2023,1500,The main experiment item,yes,Flankertask.osexp,/Users/Thingtwo/Desktop,no,mono,no,18,no,white,no,yes,768,legacy,22,22,/Users/Thingtwo/Desktop/NC-subject-4.csv,legacy,Lentiform Loewenfeld,3.3.14,0,h,NA,s,NA,NA,h,433,NA,54289,NA,NA,433,2,legacy,1024,2,48000,-16,experiment,HHHHH,4,even,55461,NA,NA,92471,NA,1137,NA,NA,93531,1163,NA,NA,93637,94071,93525,93637,New experiment,23,12633,23,yes,1024
100,100,543.75,543.75,black,legacy,legacy,legacy,0,congruent,uniform,1,undefined,1,s,0,0,0,23,23,0,23,0,23,0,0,0,23,23,23,23,Sun Sep 24 13:53:27 2023,1500,The main experiment item,yes,Flankertask.osexp,/Users/Thingtwo/Desktop,no,mono,no,18,no,white,no,yes,768,legacy,23,23,/Users/Thingtwo/Desktop/NC-subject-4.csv,legacy,Lentiform Loewenfeld,3.3.14,0,s,NA,s,NA,NA,s,417,NA,54289,NA,NA,417,2,legacy,1024,2,48000,-16,experiment,SSSSS,4,even,55461,NA,NA,94076,NA,1137,NA,NA,95138,1163,NA,NA,95244,95662,95132,95244,New experiment,24,13050,24,yes,1024
100,100,540.16,540.16,black,legacy,legacy,legacy,0,incongruent,uniform,1,undefined,1,s,0,0,0,24,24,0,24,0,24,0,0,0,24,24,24,24,Sun Sep 24 13:53:27 2023,1500,The main experiment item,yes,Flankertask.osexp,/Users/Thingtwo/Desktop,no,mono,no,18,no,white,no,yes,768,legacy,24,24,/Users/Thingtwo/Desktop/NC-subject-4.csv,legacy,Lentiform Loewenfeld,3.3.14,0,s,NA,s,NA,NA,s,454,NA,54289,NA,NA,454,2,legacy,1024,2,48000,-16,experiment,HHSHH,4,even,55461,NA,NA,95667,NA,1137,NA,NA,96728,1163,NA,NA,96834,97289,96722,96834,New experiment,25,13504,25,yes,1024
100,100,536.4230769,536.4230769,black,legacy,legacy,legacy,0,congruent,uniform,1,undefined,1,h,0,0,0,25,25,0,25,0,25,0,0,0,25,25,25,25,Sun Sep 24 13:53:27 2023,1500,The main experiment item,yes,Flankertask.osexp,/Users/Thingtwo/Desktop,no,mono,no,18,no,white,no,yes,768,legacy,25,25,/Users/Thingtwo/Desktop/NC-subject-4.csv,legacy,Lentiform Loewenfeld,3.3.14,0,h,NA,s,NA,NA,h,443,NA,54289,NA,NA,443,2,legacy,1024,2,48000,-16,experiment,HHHHH,4,even,55461,NA,NA,97295,NA,1137,NA,NA,98355,1163,NA,NA,98461,98904,98350,98461,New experiment,26,13947,26,yes,1024
100,100,538.1111111,538.1111111,black,legacy,legacy,legacy,0,incongruent,uniform,1,undefined,1,h,0,0,0,26,26,0,26,0,26,0,0,0,26,26,26,26,Sun Sep 24 13:53:27 2023,1500,The main experiment item,yes,Flankertask.osexp,/Users/Thingtwo/Desktop,no,mono,no,18,no,white,no,yes,768,legacy,26,26,/Users/Thingtwo/Desktop/NC-subject-4.csv,legacy,Lentiform Loewenfeld,3.3.14,0,h,NA,s,NA,NA,h,582,NA,54289,NA,NA,582,2,legacy,1024,2,48000,-16,experiment,SSHSS,4,even,55461,NA,NA,98909,NA,1137,NA,NA,99970,1163,NA,NA,100076,100659,99964,100076,New experiment,27,14529,27,yes,1024
100,100,538.9642857,538.9642857,black,legacy,legacy,legacy,0,incongruent,uniform,1,undefined,1,h,0,0,0,27,27,0,27,0,27,0,0,0,27,27,27,27,Sun Sep 24 13:53:27 2023,1500,The main experiment item,yes,Flankertask.osexp,/Users/Thingtwo/Desktop,no,mono,no,18,no,white,no,yes,768,legacy,27,27,/Users/Thingtwo/Desktop/NC-subject-4.csv,legacy,Lentiform Loewenfeld,3.3.14,0,h,NA,s,NA,NA,h,562,NA,54289,NA,NA,562,2,legacy,1024,2,48000,-16,experiment,SSHSS,4,even,55461,NA,NA,100665,NA,1137,NA,NA,101726,1163,NA,NA,101832,102394,101720,101832,New experiment,28,15091,28,yes,1024
100,100,535.8965517,535.8965517,black,legacy,legacy,legacy,0,congruent,uniform,1,undefined,1,s,0,0,0,28,28,0,28,0,28,0,0,0,28,28,28,28,Sun Sep 24 13:53:27 2023,1500,The main experiment item,yes,Flankertask.osexp,/Users/Thingtwo/Desktop,no,mono,no,18,no,white,no,yes,768,legacy,28,28,/Users/Thingtwo/Desktop/NC-subject-4.csv,legacy,Lentiform Loewenfeld,3.3.14,0,s,NA,s,NA,NA,s,450,NA,54289,NA,NA,450,2,legacy,1024,2,48000,-16,experiment,SSSSS,4,even,55461,NA,NA,102400,NA,1137,NA,NA,103459,1163,NA,NA,103565,104016,103454,103565,New experiment,29,15541,29,yes,1024
100,100,533.4666667,533.4666667,black,legacy,legacy,legacy,0,congruent,uniform,1,undefined,1,h,0,0,0,29,29,0,29,0,29,0,0,0,29,29,29,29,Sun Sep 24 13:53:27 2023,1500,The main experiment item,yes,Flankertask.osexp,/Users/Thingtwo/Desktop,no,mono,no,18,no,white,no,yes,768,legacy,29,29,/Users/Thingtwo/Desktop/NC-subject-4.csv,legacy,Lentiform Loewenfeld,3.3.14,0,h,NA,s,NA,NA,h,463,NA,54289,NA,NA,463,2,legacy,1024,2,48000,-16,experiment,HHHHH,4,even,55461,NA,NA,104022,NA,1137,NA,NA,105081,1163,NA,NA,105187,105651,105075,105187,New experiment,30,16004,30,yes,1024
100,100,536.5483871,536.5483871,black,legacy,legacy,legacy,0,incongruent,uniform,1,undefined,1,h,0,0,0,30,30,0,30,0,30,0,0,0,30,30,30,30,Sun Sep 24 13:53:27 2023,1500,The main experiment item,yes,Flankertask.osexp,/Users/Thingtwo/Desktop,no,mono,no,18,no,white,no,yes,768,legacy,30,30,/Users/Thingtwo/Desktop/NC-subject-4.csv,legacy,Lentiform Loewenfeld,3.3.14,0,h,NA,s,NA,NA,h,629,NA,54289,NA,NA,629,2,legacy,1024,2,48000,-16,experiment,SSHSS,4,even,55461,NA,NA,105657,NA,1137,NA,NA,106717,1163,NA,NA,106823,107453,106711,106823,New experiment,31,16633,31,yes,1024
100,100,539.875,539.875,black,legacy,legacy,legacy,0,incongruent,uniform,1,undefined,1,s,0,0,0,31,31,0,31,0,31,0,0,0,31,31,31,31,Sun Sep 24 13:53:27 2023,1500,The main experiment item,yes,Flankertask.osexp,/Users/Thingtwo/Desktop,no,mono,no,18,no,white,no,yes,768,legacy,31,31,/Users/Thingtwo/Desktop/NC-subject-4.csv,legacy,Lentiform Loewenfeld,3.3.14,0,s,NA,s,NA,NA,s,643,NA,54289,NA,NA,643,2,legacy,1024,2,48000,-16,experiment,HHSHH,4,even,55461,NA,NA,107458,NA,1137,NA,NA,108519,1163,NA,NA,108625,109269,108513,108625,New experiment,32,17276,32,yes,1024
100,100,541.8181818,541.8181818,black,legacy,legacy,legacy,0,congruent,uniform,1,undefined,1,h,0,0,0,32,32,0,32,0,32,0,0,0,32,32,32,32,Sun Sep 24 13:53:27 2023,1500,The main experiment item,yes,Flankertask.osexp,/Users/Thingtwo/Desktop,no,mono,no,18,no,white,no,yes,768,legacy,32,32,/Users/Thingtwo/Desktop/NC-subject-4.csv,legacy,Lentiform Loewenfeld,3.3.14,0,h,NA,s,NA,NA,h,604,NA,54289,NA,NA,604,2,legacy,1024,2,48000,-16,experiment,HHHHH,4,even,55461,NA,NA,109274,NA,1137,NA,NA,110336,1163,NA,NA,110442,111047,110331,110442,New experiment,33,17880,33,yes,1024
100,100,542.0588235,542.0588235,black,legacy,legacy,legacy,0,incongruent,uniform,1,undefined,1,h,0,0,0,33,33,0,33,0,33,0,0,0,33,33,33,33,Sun Sep 24 13:53:27 2023,1500,The main experiment item,yes,Flankertask.osexp,/Users/Thingtwo/Desktop,no,mono,no,18,no,white,no,yes,768,legacy,33,33,/Users/Thingtwo/Desktop/NC-subject-4.csv,legacy,Lentiform Loewenfeld,3.3.14,0,h,NA,s,NA,NA,h,550,NA,54289,NA,NA,550,2,legacy,1024,2,48000,-16,experiment,SSHSS,4,even,55461,NA,NA,111053,NA,1137,NA,NA,112113,1163,NA,NA,112219,112770,112108,112219,New experiment,34,18430,34,yes,1024
100,100,541.4,541.4,black,legacy,legacy,legacy,0,congruent,uniform,1,undefined,1,s,0,0,0,34,34,0,34,0,34,0,0,0,34,34,34,34,Sun Sep 24 13:53:27 2023,1500,The main experiment item,yes,Flankertask.osexp,/Users/Thingtwo/Desktop,no,mono,no,18,no,white,no,yes,768,legacy,34,34,/Users/Thingtwo/Desktop/NC-subject-4.csv,legacy,Lentiform Loewenfeld,3.3.14,0,s,NA,s,NA,NA,s,519,NA,54289,NA,NA,519,2,legacy,1024,2,48000,-16,experiment,SSSSS,4,even,55461,NA,NA,112775,NA,1137,NA,NA,113836,1163,NA,NA,113942,114462,113830,113942,New experiment,35,18949,35,yes,1024
100,100,538.4444444,538.4444444,black,legacy,legacy,legacy,0,congruent,uniform,1,undefined,1,s,0,0,0,35,35,0,35,0,35,0,0,0,35,35,35,35,Sun Sep 24 13:53:27 2023,1500,The main experiment item,yes,Flankertask.osexp,/Users/Thingtwo/Desktop,no,mono,no,18,no,white,no,yes,768,legacy,35,35,/Users/Thingtwo/Desktop/NC-subject-4.csv,legacy,Lentiform Loewenfeld,3.3.14,0,s,NA,s,NA,NA,s,435,NA,54289,NA,NA,435,2,legacy,1024,2,48000,-16,experiment,SSSSS,4,even,55461,NA,NA,114468,NA,1137,NA,NA,115527,1163,NA,NA,115633,116070,115522,115633,New experiment,36,19384,36,yes,1024
100,100,538.7027027,538.7027027,black,legacy,legacy,legacy,0,incongruent,uniform,1,undefined,1,s,0,0,0,36,36,0,36,0,36,0,0,0,36,36,36,36,Sun Sep 24 13:53:27 2023,1500,The main experiment item,yes,Flankertask.osexp,/Users/Thingtwo/Desktop,no,mono,no,18,no,white,no,yes,768,legacy,36,36,/Users/Thingtwo/Desktop/NC-subject-4.csv,legacy,Lentiform Loewenfeld,3.3.14,0,s,NA,s,NA,NA,s,548,NA,54289,NA,NA,548,2,legacy,1024,2,48000,-16,experiment,HHSHH,4,even,55461,NA,NA,116075,NA,1137,NA,NA,117135,1163,NA,NA,117241,117790,117130,117241,New experiment,37,19932,37,yes,1024
100,100,535.6052632,535.6052632,black,legacy,legacy,legacy,0,congruent,uniform,1,undefined,1,s,0,0,0,37,37,0,37,0,37,0,0,0,37,37,37,37,Sun Sep 24 13:53:27 2023,1500,The main experiment item,yes,Flankertask.osexp,/Users/Thingtwo/Desktop,no,mono,no,18,no,white,no,yes,768,legacy,37,37,/Users/Thingtwo/Desktop/NC-subject-4.csv,legacy,Lentiform Loewenfeld,3.3.14,0,s,NA,s,NA,NA,s,421,NA,54289,NA,NA,421,2,legacy,1024,2,48000,-16,experiment,SSSSS,4,even,55461,NA,NA,117796,NA,1137,NA,NA,118855,1163,NA,NA,118961,119383,118850,118961,New experiment,38,20353,38,yes,1024
100,100,536.4358974,536.4358974,black,legacy,legacy,legacy,0,incongruent,uniform,1,undefined,1,h,0,0,0,38,38,0,38,0,38,0,0,0,38,38,38,38,Sun Sep 24 13:53:27 2023,1500,The main experiment item,yes,Flankertask.osexp,/Users/Thingtwo/Desktop,no,mono,no,18,no,white,no,yes,768,legacy,38,38,/Users/Thingtwo/Desktop/NC-subject-4.csv,legacy,Lentiform Loewenfeld,3.3.14,0,h,NA,s,NA,NA,h,568,NA,54289,NA,NA,568,2,legacy,1024,2,48000,-16,experiment,SSHSS,4,even,55461,NA,NA,119388,NA,1137,NA,NA,120450,1163,NA,NA,120556,121124,120445,120556,New experiment,39,20921,39,yes,1024
100,100,536.125,536.125,black,legacy,legacy,legacy,0,congruent,uniform,1,undefined,1,s,0,0,0,39,39,0,39,0,39,0,0,0,39,39,39,39,Sun Sep 24 13:53:27 2023,1500,The main experiment item,yes,Flankertask.osexp,/Users/Thingtwo/Desktop,no,mono,no,18,no,white,no,yes,768,legacy,39,39,/Users/Thingtwo/Desktop/NC-subject-4.csv,legacy,Lentiform Loewenfeld,3.3.14,0,s,NA,s,NA,NA,s,524,NA,54289,NA,NA,524,2,legacy,1024,2,48000,-16,experiment,SSSSS,4,even,55461,NA,NA,121130,NA,1137,NA,NA,122189,1163,NA,NA,122295,122820,122183,122295,New experiment,40,21445,40,yes,1024
100,100,534.804878,534.804878,black,legacy,legacy,legacy,0,congruent,uniform,1,undefined,1,h,0,0,0,40,40,0,40,0,40,0,0,0,40,40,40,40,Sun Sep 24 13:53:27 2023,1500,The main experiment item,yes,Flankertask.osexp,/Users/Thingtwo/Desktop,no,mono,no,18,no,white,no,yes,768,legacy,40,40,/Users/Thingtwo/Desktop/NC-subject-4.csv,legacy,Lentiform Loewenfeld,3.3.14,0,h,NA,s,NA,NA,h,482,NA,54289,NA,NA,482,2,legacy,1024,2,48000,-16,experiment,HHHHH,4,even,55461,NA,NA,122826,NA,1137,NA,NA,123885,1163,NA,NA,123991,124474,123880,123991,New experiment,41,21927,41,yes,1024
100,100,534.2619048,534.2619048,black,legacy,legacy,legacy,0,incongruent,uniform,1,undefined,1,s,0,0,0,41,41,0,41,0,41,0,0,0,41,41,41,41,Sun Sep 24 13:53:27 2023,1500,The main experiment item,yes,Flankertask.osexp,/Users/Thingtwo/Desktop,no,mono,no,18,no,white,no,yes,768,legacy,41,41,/Users/Thingtwo/Desktop/NC-subject-4.csv,legacy,Lentiform Loewenfeld,3.3.14,0,s,NA,s,NA,NA,s,512,NA,54289,NA,NA,512,2,legacy,1024,2,48000,-16,experiment,HHSHH,4,even,55461,NA,NA,124480,NA,1137,NA,NA,125540,1163,NA,NA,125646,126159,125534,125646,New experiment,42,22439,42,yes,1024
100,100,536.3488372,536.3488372,black,legacy,legacy,legacy,0,incongruent,uniform,1,undefined,1,s,0,0,0,42,42,0,42,0,42,0,0,0,42,42,42,42,Sun Sep 24 13:53:27 2023,1500,The main experiment item,yes,Flankertask.osexp,/Users/Thingtwo/Desktop,no,mono,no,18,no,white,no,yes,768,legacy,42,42,/Users/Thingtwo/Desktop/NC-subject-4.csv,legacy,Lentiform Loewenfeld,3.3.14,0,s,NA,s,NA,NA,s,624,NA,54289,NA,NA,624,2,legacy,1024,2,48000,-16,experiment,HHSHH,4,even,55461,NA,NA,126166,NA,1137,NA,NA,127224,1163,NA,NA,127331,127956,127219,127331,New experiment,43,23063,43,yes,1024
100,100,535.0681818,535.0681818,black,legacy,legacy,legacy,0,congruent,uniform,1,undefined,1,s,0,0,0,43,43,0,43,0,43,0,0,0,43,43,43,43,Sun Sep 24 13:53:27 2023,1500,The main experiment item,yes,Flankertask.osexp,/Users/Thingtwo/Desktop,no,mono,no,18,no,white,no,yes,768,legacy,43,43,/Users/Thingtwo/Desktop/NC-subject-4.csv,legacy,Lentiform Loewenfeld,3.3.14,0,s,NA,s,NA,NA,s,480,NA,54289,NA,NA,480,2,legacy,1024,2,48000,-16,experiment,SSSSS,4,even,55461,NA,NA,127961,NA,1137,NA,NA,129022,1163,NA,NA,129128,129609,129016,129128,New experiment,44,23543,44,yes,1024
97.77777778,97.77777778,533.2444444,533.2444444,black,legacy,legacy,legacy,0,incongruent,uniform,0,undefined,0,s,0,0,0,44,44,0,44,0,44,0,0,0,44,44,44,44,Sun Sep 24 13:53:27 2023,1500,The main experiment item,yes,Flankertask.osexp,/Users/Thingtwo/Desktop,no,mono,no,18,no,white,no,yes,768,legacy,44,44,/Users/Thingtwo/Desktop/NC-subject-4.csv,legacy,Lentiform Loewenfeld,3.3.14,0,h,NA,s,NA,NA,h,453,NA,54289,NA,NA,453,2,legacy,1024,2,48000,-16,experiment,HHSHH,4,even,55461,NA,NA,129614,NA,1137,NA,NA,130676,1163,NA,NA,130782,131236,130670,130782,New experiment,44,23996,45,yes,1024
97.82608696,97.82608696,539.9782609,539.9782609,black,legacy,legacy,legacy,0,incongruent,uniform,1,undefined,1,h,0,0,0,45,45,0,45,0,45,0,0,0,45,45,45,45,Sun Sep 24 13:53:27 2023,1500,The main experiment item,yes,Flankertask.osexp,/Users/Thingtwo/Desktop,no,mono,no,18,no,white,no,yes,768,legacy,45,45,/Users/Thingtwo/Desktop/NC-subject-4.csv,legacy,Lentiform Loewenfeld,3.3.14,0,h,NA,s,NA,NA,h,843,NA,54289,NA,NA,843,2,legacy,1024,2,48000,-16,experiment,SSHSS,4,even,55461,NA,NA,131753,131242,1137,NA,NA,132814,1163,NA,NA,132920,133764,132808,132920,New experiment,45,24839,46,yes,1024
97.87234043,97.87234043,539.3617021,539.3617021,black,legacy,legacy,legacy,0,congruent,uniform,1,undefined,1,s,0,0,0,46,46,0,46,0,46,0,0,0,46,46,46,46,Sun Sep 24 13:53:27 2023,1500,The main experiment item,yes,Flankertask.osexp,/Users/Thingtwo/Desktop,no,mono,no,18,no,white,no,yes,768,legacy,46,46,/Users/Thingtwo/Desktop/NC-subject-4.csv,legacy,Lentiform Loewenfeld,3.3.14,0,s,NA,s,NA,NA,s,511,NA,54289,NA,NA,511,2,legacy,1024,2,48000,-16,experiment,SSSSS,4,even,55461,NA,NA,133769,131242,1137,NA,NA,134830,1163,NA,NA,134936,135448,134824,134936,New experiment,46,25350,47,yes,1024
97.91666667,97.91666667,541.375,541.375,black,legacy,legacy,legacy,0,incongruent,uniform,1,undefined,1,s,0,0,0,47,47,0,47,0,47,0,0,0,47,47,47,47,Sun Sep 24 13:53:27 2023,1500,The main experiment item,yes,Flankertask.osexp,/Users/Thingtwo/Desktop,no,mono,no,18,no,white,no,yes,768,legacy,47,47,/Users/Thingtwo/Desktop/NC-subject-4.csv,legacy,Lentiform Loewenfeld,3.3.14,0,s,NA,s,NA,NA,s,636,NA,54289,NA,NA,636,2,legacy,1024,2,48000,-16,experiment,HHSHH,4,even,55461,NA,NA,135454,131242,1137,NA,NA,136515,1163,NA,NA,136621,137257,136509,136621,New experiment,47,25986,48,yes,1024
97.95918367,97.95918367,540.3877551,540.3877551,black,legacy,legacy,legacy,0,incongruent,uniform,1,undefined,1,h,0,0,0,48,48,0,48,0,48,0,0,0,48,48,48,48,Sun Sep 24 13:53:27 2023,1500,The main experiment item,yes,Flankertask.osexp,/Users/Thingtwo/Desktop,no,mono,no,18,no,white,no,yes,768,legacy,48,48,/Users/Thingtwo/Desktop/NC-subject-4.csv,legacy,Lentiform Loewenfeld,3.3.14,0,h,NA,s,NA,NA,h,493,NA,54289,NA,NA,493,2,legacy,1024,2,48000,-16,experiment,SSHSS,4,even,55461,NA,NA,137263,131242,1137,NA,NA,138322,1163,NA,NA,138428,138922,138317,138428,New experiment,48,26479,49,yes,1024
98,98,540.82,540.82,black,legacy,legacy,legacy,0,incongruent,uniform,1,undefined,1,h,0,0,0,49,49,0,49,0,49,0,0,0,49,49,49,49,Sun Sep 24 13:53:27 2023,1500,The main experiment item,yes,Flankertask.osexp,/Users/Thingtwo/Desktop,no,mono,no,18,no,white,no,yes,768,legacy,49,49,/Users/Thingtwo/Desktop/NC-subject-4.csv,legacy,Lentiform Loewenfeld,3.3.14,0,h,NA,s,NA,NA,h,562,NA,54289,NA,NA,562,2,legacy,1024,2,48000,-16,experiment,SSHSS,4,even,55461,NA,NA,138927,131242,1137,NA,NA,139989,1163,NA,NA,140095,140658,139984,140095,New experiment,49,27041,50,yes,1024
98.03921569,98.03921569,540.0588235,540.0588235,black,legacy,legacy,legacy,0,congruent,uniform,1,undefined,1,s,0,0,0,50,50,0,50,0,50,0,0,0,50,50,50,50,Sun Sep 24 13:53:27 2023,1500,The main experiment item,yes,Flankertask.osexp,/Users/Thingtwo/Desktop,no,mono,no,18,no,white,no,yes,768,legacy,50,50,/Users/Thingtwo/Desktop/NC-subject-4.csv,legacy,Lentiform Loewenfeld,3.3.14,0,s,NA,s,NA,NA,s,502,NA,54289,NA,NA,502,2,legacy,1024,2,48000,-16,experiment,SSSSS,4,even,55461,NA,NA,140663,131242,1137,NA,NA,141725,1163,NA,NA,141831,142333,141719,141831,New experiment,50,27543,51,yes,1024
98.07692308,98.07692308,538.9230769,538.9230769,black,legacy,legacy,legacy,0,incongruent,uniform,1,undefined,1,s,0,0,0,51,51,0,51,0,51,0,0,0,51,51,51,51,Sun Sep 24 13:53:27 2023,1500,The main experiment item,yes,Flankertask.osexp,/Users/Thingtwo/Desktop,no,mono,no,18,no,white,no,yes,768,legacy,51,51,/Users/Thingtwo/Desktop/NC-subject-4.csv,legacy,Lentiform Loewenfeld,3.3.14,0,s,NA,s,NA,NA,s,481,NA,54289,NA,NA,481,2,legacy,1024,2,48000,-16,experiment,HHSHH,4,even,55461,NA,NA,142338,131242,1137,NA,NA,143400,1163,NA,NA,143506,143988,143394,143506,New experiment,51,28024,52,yes,1024
98.11320755,98.11320755,539.8301887,539.8301887,black,legacy,legacy,legacy,0,incongruent,uniform,1,undefined,1,s,0,0,0,52,52,0,52,0,52,0,0,0,52,52,52,52,Sun Sep 24 13:53:27 2023,1500,The main experiment item,yes,Flankertask.osexp,/Users/Thingtwo/Desktop,no,mono,no,18,no,white,no,yes,768,legacy,52,52,/Users/Thingtwo/Desktop/NC-subject-4.csv,legacy,Lentiform Loewenfeld,3.3.14,0,s,NA,s,NA,NA,s,587,NA,54289,NA,NA,587,2,legacy,1024,2,48000,-16,experiment,HHSHH,4,even,55461,NA,NA,143994,131242,1137,NA,NA,145054,1163,NA,NA,145160,145747,145049,145160,New experiment,52,28611,53,yes,1024
98.14814815,98.14814815,537.9444444,537.9444444,black,legacy,legacy,legacy,0,congruent,uniform,1,undefined,1,s,0,0,0,53,53,0,53,0,53,0,0,0,53,53,53,53,Sun Sep 24 13:53:27 2023,1500,The main experiment item,yes,Flankertask.osexp,/Users/Thingtwo/Desktop,no,mono,no,18,no,white,no,yes,768,legacy,53,53,/Users/Thingtwo/Desktop/NC-subject-4.csv,legacy,Lentiform Loewenfeld,3.3.14,0,s,NA,s,NA,NA,s,438,NA,54289,NA,NA,438,2,legacy,1024,2,48000,-16,experiment,SSSSS,4,even,55461,NA,NA,145752,131242,1137,NA,NA,146814,1163,NA,NA,146920,147359,146808,146920,New experiment,53,29049,54,yes,1024
98.18181818,98.18181818,537.8,537.8,black,legacy,legacy,legacy,0,congruent,uniform,1,undefined,1,h,0,0,0,54,54,0,54,0,54,0,0,0,54,54,54,54,Sun Sep 24 13:53:27 2023,1500,The main experiment item,yes,Flankertask.osexp,/Users/Thingtwo/Desktop,no,mono,no,18,no,white,no,yes,768,legacy,54,54,/Users/Thingtwo/Desktop/NC-subject-4.csv,legacy,Lentiform Loewenfeld,3.3.14,0,h,NA,s,NA,NA,h,530,NA,54289,NA,NA,530,2,legacy,1024,2,48000,-16,experiment,HHHHH,4,even,55461,NA,NA,147364,131242,1137,NA,NA,148424,1163,NA,NA,148531,149062,148419,148531,New experiment,54,29579,55,yes,1024
98.21428571,98.21428571,536.7142857,536.7142857,black,legacy,legacy,legacy,0,congruent,uniform,1,undefined,1,s,0,0,0,55,55,0,55,0,55,0,0,0,55,55,55,55,Sun Sep 24 13:53:27 2023,1500,The main experiment item,yes,Flankertask.osexp,/Users/Thingtwo/Desktop,no,mono,no,18,no,white,no,yes,768,legacy,55,55,/Users/Thingtwo/Desktop/NC-subject-4.csv,legacy,Lentiform Loewenfeld,3.3.14,0,s,NA,s,NA,NA,s,477,NA,54289,NA,NA,477,2,legacy,1024,2,48000,-16,experiment,SSSSS,4,even,55461,NA,NA,149067,131242,1137,NA,NA,150128,1163,NA,NA,150234,150712,150122,150234,New experiment,55,30056,56,yes,1024
98.24561404,98.24561404,535.5614035,535.5614035,black,legacy,legacy,legacy,0,congruent,uniform,1,undefined,1,s,0,0,0,56,56,0,56,0,56,0,0,0,56,56,56,56,Sun Sep 24 13:53:27 2023,1500,The main experiment item,yes,Flankertask.osexp,/Users/Thingtwo/Desktop,no,mono,no,18,no,white,no,yes,768,legacy,56,56,/Users/Thingtwo/Desktop/NC-subject-4.csv,legacy,Lentiform Loewenfeld,3.3.14,0,s,NA,s,NA,NA,s,471,NA,54289,NA,NA,471,2,legacy,1024,2,48000,-16,experiment,SSSSS,4,even,55461,NA,NA,150717,131242,1137,NA,NA,151778,1163,NA,NA,151884,152356,151772,151884,New experiment,56,30527,57,yes,1024
98.27586207,98.27586207,535.3793103,535.3793103,black,legacy,legacy,legacy,0,congruent,uniform,1,undefined,1,h,0,0,0,57,57,0,57,0,57,0,0,0,57,57,57,57,Sun Sep 24 13:53:27 2023,1500,The main experiment item,yes,Flankertask.osexp,/Users/Thingtwo/Desktop,no,mono,no,18,no,white,no,yes,768,legacy,57,57,/Users/Thingtwo/Desktop/NC-subject-4.csv,legacy,Lentiform Loewenfeld,3.3.14,0,h,NA,s,NA,NA,h,525,NA,54289,NA,NA,525,2,legacy,1024,2,48000,-16,experiment,HHHHH,4,even,55461,NA,NA,152361,131242,1137,NA,NA,153421,1163,NA,NA,153528,154054,153416,153528,New experiment,57,31052,58,yes,1024
98.30508475,98.30508475,535.4915254,535.4915254,black,legacy,legacy,legacy,0,congruent,uniform,1,undefined,1,s,0,0,0,58,58,0,58,0,58,0,0,0,58,58,58,58,Sun Sep 24 13:53:27 2023,1500,The main experiment item,yes,Flankertask.osexp,/Users/Thingtwo/Desktop,no,mono,no,18,no,white,no,yes,768,legacy,58,58,/Users/Thingtwo/Desktop/NC-subject-4.csv,legacy,Lentiform Loewenfeld,3.3.14,0,s,NA,s,NA,NA,s,542,NA,54289,NA,NA,542,2,legacy,1024,2,48000,-16,experiment,SSSSS,4,even,55461,NA,NA,154059,131242,1137,NA,NA,155119,1163,NA,NA,155225,155768,155113,155225,New experiment,58,31594,59,yes,1024
98.33333333,98.33333333,534.95,534.95,black,legacy,legacy,legacy,0,congruent,uniform,1,undefined,1,h,0,0,0,59,59,0,59,0,59,0,0,0,59,59,59,59,Sun Sep 24 13:53:27 2023,1500,The main experiment item,yes,Flankertask.osexp,/Users/Thingtwo/Desktop,no,mono,no,18,no,white,no,yes,768,legacy,59,59,/Users/Thingtwo/Desktop/NC-subject-4.csv,legacy,Lentiform Loewenfeld,3.3.14,0,h,NA,s,NA,NA,h,503,NA,54289,NA,NA,503,2,legacy,1024,2,48000,-16,experiment,HHHHH,4,even,55461,NA,NA,155774,131242,1137,NA,NA,156833,1163,NA,NA,156939,157443,156828,156939,New experiment,59,32097,60,yes,1024
98.36065574,98.36065574,533.5409836,533.5409836,black,legacy,legacy,legacy,0,incongruent,uniform,1,undefined,1,s,0,0,0,60,60,0,60,0,60,0,0,0,60,60,60,60,Sun Sep 24 13:53:27 2023,1500,The main experiment item,yes,Flankertask.osexp,/Users/Thingtwo/Desktop,no,mono,no,18,no,white,no,yes,768,legacy,60,60,/Users/Thingtwo/Desktop/NC-subject-4.csv,legacy,Lentiform Loewenfeld,3.3.14,0,s,NA,s,NA,NA,s,449,NA,54289,NA,NA,449,2,legacy,1024,2,48000,-16,experiment,HHSHH,4,even,55461,NA,NA,157449,131242,1137,NA,NA,158509,1163,NA,NA,158615,159065,158504,158615,New experiment,60,32546,61,yes,1024
98.38709677,98.38709677,534.8709677,534.8709677,black,legacy,legacy,legacy,0,incongruent,uniform,1,undefined,1,h,0,0,0,61,61,0,61,0,61,0,0,0,61,61,61,61,Sun Sep 24 13:53:27 2023,1500,The main experiment item,yes,Flankertask.osexp,/Users/Thingtwo/Desktop,no,mono,no,18,no,white,no,yes,768,legacy,61,61,/Users/Thingtwo/Desktop/NC-subject-4.csv,legacy,Lentiform Loewenfeld,3.3.14,0,h,NA,s,NA,NA,h,616,NA,54289,NA,NA,616,2,legacy,1024,2,48000,-16,experiment,SSHSS,4,even,55461,NA,NA,159071,131242,1137,NA,NA,160132,1163,NA,NA,160238,160855,160126,160238,New experiment,61,33162,62,yes,1024
98.41269841,98.41269841,536.4126984,536.4126984,black,legacy,legacy,legacy,0,incongruent,uniform,1,undefined,1,s,0,0,0,62,62,0,62,0,62,0,0,0,62,62,62,62,Sun Sep 24 13:53:27 2023,1500,The main experiment item,yes,Flankertask.osexp,/Users/Thingtwo/Desktop,no,mono,no,18,no,white,no,yes,768,legacy,62,62,/Users/Thingtwo/Desktop/NC-subject-4.csv,legacy,Lentiform Loewenfeld,3.3.14,0,s,NA,s,NA,NA,s,632,NA,54289,NA,NA,632,2,legacy,1024,2,48000,-16,experiment,HHSHH,4,even,55461,NA,NA,160860,131242,1137,NA,NA,161922,1163,NA,NA,162028,162660,161916,162028,New experiment,62,33794,63,yes,1024
98.4375,98.4375,536.171875,536.171875,black,legacy,legacy,legacy,0,congruent,uniform,1,undefined,1,h,0,0,0,63,63,0,63,0,63,0,0,0,63,63,63,63,Sun Sep 24 13:53:27 2023,1500,The main experiment item,yes,Flankertask.osexp,/Users/Thingtwo/Desktop,no,mono,no,18,no,white,no,yes,768,legacy,63,63,/Users/Thingtwo/Desktop/NC-subject-4.csv,legacy,Lentiform Loewenfeld,3.3.14,0,h,NA,s,NA,NA,h,521,NA,54289,NA,NA,521,2,legacy,1024,2,48000,-16,experiment,HHHHH,4,even,55461,NA,NA,162666,131242,1137,NA,NA,163726,1163,NA,NA,163832,164353,163720,163832,New experiment,63,34315,64,yes,1024
98.46153846,98.46153846,534.9076923,534.9076923,black,legacy,legacy,legacy,0,incongruent,uniform,1,undefined,1,s,0,0,0,64,64,0,64,0,64,0,0,0,64,64,64,64,Sun Sep 24 13:53:27 2023,1500,The main experiment item,yes,Flankertask.osexp,/Users/Thingtwo/Desktop,no,mono,no,18,no,white,no,yes,768,legacy,64,64,/Users/Thingtwo/Desktop/NC-subject-4.csv,legacy,Lentiform Loewenfeld,3.3.14,0,s,NA,s,NA,NA,s,454,NA,54289,NA,NA,454,2,legacy,1024,2,48000,-16,experiment,HHSHH,4,even,55461,NA,NA,164358,131242,1137,NA,NA,165421,1163,NA,NA,165527,165982,165415,165527,New experiment,64,34769,65,yes,1024
98.48484848,98.48484848,534.3181818,534.3181818,black,legacy,legacy,legacy,0,incongruent,uniform,1,undefined,1,s,0,0,0,65,65,0,65,0,65,0,0,0,65,65,65,65,Sun Sep 24 13:53:27 2023,1500,The main experiment item,yes,Flankertask.osexp,/Users/Thingtwo/Desktop,no,mono,no,18,no,white,no,yes,768,legacy,65,65,/Users/Thingtwo/Desktop/NC-subject-4.csv,legacy,Lentiform Loewenfeld,3.3.14,0,s,NA,s,NA,NA,s,496,NA,54289,NA,NA,496,2,legacy,1024,2,48000,-16,experiment,HHSHH,4,even,55461,NA,NA,165988,131242,1137,NA,NA,167048,1163,NA,NA,167154,167651,167042,167154,New experiment,65,35265,66,yes,1024
98.50746269,98.50746269,533.8656716,533.8656716,black,legacy,legacy,legacy,0,congruent,uniform,1,undefined,1,h,0,0,0,66,66,0,66,0,66,0,0,0,66,66,66,66,Sun Sep 24 13:53:27 2023,1500,The main experiment item,yes,Flankertask.osexp,/Users/Thingtwo/Desktop,no,mono,no,18,no,white,no,yes,768,legacy,66,66,/Users/Thingtwo/Desktop/NC-subject-4.csv,legacy,Lentiform Loewenfeld,3.3.14,0,h,NA,s,NA,NA,h,504,NA,54289,NA,NA,504,2,legacy,1024,2,48000,-16,experiment,HHHHH,4,even,55461,NA,NA,167657,131242,1137,NA,NA,168717,1163,NA,NA,168823,169327,168712,168823,New experiment,66,35769,67,yes,1024
98.52941176,98.52941176,536.0735294,536.0735294,black,legacy,legacy,legacy,0,incongruent,uniform,1,undefined,1,h,0,0,0,67,67,0,67,0,67,0,0,0,67,67,67,67,Sun Sep 24 13:53:27 2023,1500,The main experiment item,yes,Flankertask.osexp,/Users/Thingtwo/Desktop,no,mono,no,18,no,white,no,yes,768,legacy,67,67,/Users/Thingtwo/Desktop/NC-subject-4.csv,legacy,Lentiform Loewenfeld,3.3.14,0,h,NA,s,NA,NA,h,684,NA,54289,NA,NA,684,2,legacy,1024,2,48000,-16,experiment,SSHSS,4,even,55461,NA,NA,169333,131242,1137,NA,NA,170395,1163,NA,NA,170501,171186,170389,170501,New experiment,67,36453,68,yes,1024
98.55072464,98.55072464,535.8985507,535.8985507,black,legacy,legacy,legacy,0,congruent,uniform,1,undefined,1,h,0,0,0,68,68,0,68,0,68,0,0,0,68,68,68,68,Sun Sep 24 13:53:27 2023,1500,The main experiment item,yes,Flankertask.osexp,/Users/Thingtwo/Desktop,no,mono,no,18,no,white,no,yes,768,legacy,68,68,/Users/Thingtwo/Desktop/NC-subject-4.csv,legacy,Lentiform Loewenfeld,3.3.14,0,h,NA,s,NA,NA,h,524,NA,54289,NA,NA,524,2,legacy,1024,2,48000,-16,experiment,HHHHH,4,even,55461,NA,NA,171192,131242,1137,NA,NA,172252,1163,NA,NA,172358,172883,172247,172358,New experiment,68,36977,69,yes,1024
98.57142857,98.57142857,534.7571429,534.7571429,black,legacy,legacy,legacy,0,incongruent,uniform,1,undefined,1,s,0,0,0,69,69,0,69,0,69,0,0,0,69,69,69,69,Sun Sep 24 13:53:27 2023,1500,The main experiment item,yes,Flankertask.osexp,/Users/Thingtwo/Desktop,no,mono,no,18,no,white,no,yes,768,legacy,69,69,/Users/Thingtwo/Desktop/NC-subject-4.csv,legacy,Lentiform Loewenfeld,3.3.14,0,s,NA,s,NA,NA,s,456,NA,54289,NA,NA,456,2,legacy,1024,2,48000,-16,experiment,HHSHH,4,even,55461,NA,NA,172889,131242,1137,NA,NA,173949,1163,NA,NA,174055,174512,173943,174055,New experiment,69,37433,70,yes,1024
98.5915493,98.5915493,534.9295775,534.9295775,black,legacy,legacy,legacy,0,incongruent,uniform,1,undefined,1,h,0,0,0,70,70,0,70,0,70,0,0,0,70,70,70,70,Sun Sep 24 13:53:27 2023,1500,The main experiment item,yes,Flankertask.osexp,/Users/Thingtwo/Desktop,no,mono,no,18,no,white,no,yes,768,legacy,70,70,/Users/Thingtwo/Desktop/NC-subject-4.csv,legacy,Lentiform Loewenfeld,3.3.14,0,h,NA,s,NA,NA,h,547,NA,54289,NA,NA,547,2,legacy,1024,2,48000,-16,experiment,SSHSS,4,even,55461,NA,NA,174518,131242,1137,NA,NA,175580,1163,NA,NA,175686,176234,175574,175686,New experiment,70,37980,71,yes,1024
98.61111111,98.61111111,534.6944444,534.6944444,black,legacy,legacy,legacy,0,incongruent,uniform,1,undefined,1,s,0,0,0,71,71,0,71,0,71,0,0,0,71,71,71,71,Sun Sep 24 13:53:27 2023,1500,The main experiment item,yes,Flankertask.osexp,/Users/Thingtwo/Desktop,no,mono,no,18,no,white,no,yes,768,legacy,71,71,/Users/Thingtwo/Desktop/NC-subject-4.csv,legacy,Lentiform Loewenfeld,3.3.14,0,s,NA,s,NA,NA,s,518,NA,54289,NA,NA,518,2,legacy,1024,2,48000,-16,experiment,HHSHH,4,even,55461,NA,NA,176239,131242,1137,NA,NA,177298,1163,NA,NA,177404,177923,177291,177404,New experiment,71,38498,72,yes,1024
98.63013699,98.63013699,533.2191781,533.2191781,black,legacy,legacy,legacy,0,congruent,uniform,1,undefined,1,s,0,0,0,72,72,0,72,0,72,0,0,0,72,72,72,72,Sun Sep 24 13:53:27 2023,1500,The main experiment item,yes,Flankertask.osexp,/Users/Thingtwo/Desktop,no,mono,no,18,no,white,no,yes,768,legacy,72,72,/Users/Thingtwo/Desktop/NC-subject-4.csv,legacy,Lentiform Loewenfeld,3.3.14,0,s,NA,s,NA,NA,s,427,NA,54289,NA,NA,427,2,legacy,1024,2,48000,-16,experiment,SSSSS,4,even,55461,NA,NA,177928,131242,1137,NA,NA,178987,1163,NA,NA,179093,179521,178982,179093,New experiment,72,38925,73,yes,1024
98.64864865,98.64864865,531.8243243,531.8243243,black,legacy,legacy,legacy,0,congruent,uniform,1,undefined,1,s,0,0,0,73,73,0,73,0,73,0,0,0,73,73,73,73,Sun Sep 24 13:53:27 2023,1500,The main experiment item,yes,Flankertask.osexp,/Users/Thingtwo/Desktop,no,mono,no,18,no,white,no,yes,768,legacy,73,73,/Users/Thingtwo/Desktop/NC-subject-4.csv,legacy,Lentiform Loewenfeld,3.3.14,0,s,NA,s,NA,NA,s,430,NA,54289,NA,NA,430,2,legacy,1024,2,48000,-16,experiment,SSSSS,4,even,55461,NA,NA,179527,131242,1137,NA,NA,180586,1163,NA,NA,180692,181122,180581,180692,New experiment,73,39355,74,yes,1024
98.66666667,98.66666667,531.84,531.84,black,legacy,legacy,legacy,0,incongruent,uniform,1,undefined,1,h,0,0,0,74,74,0,74,0,74,0,0,0,74,74,74,74,Sun Sep 24 13:53:27 2023,1500,The main experiment item,yes,Flankertask.osexp,/Users/Thingtwo/Desktop,no,mono,no,18,no,white,no,yes,768,legacy,74,74,/Users/Thingtwo/Desktop/NC-subject-4.csv,legacy,Lentiform Loewenfeld,3.3.14,0,h,NA,s,NA,NA,h,533,NA,54289,NA,NA,533,2,legacy,1024,2,48000,-16,experiment,SSHSS,4,even,55461,NA,NA,181127,131242,1137,NA,NA,182186,1163,NA,NA,182292,182825,182181,182292,New experiment,74,39888,75,yes,1024
98.68421053,98.68421053,531.1315789,531.1315789,black,legacy,legacy,legacy,0,incongruent,uniform,1,undefined,1,s,0,0,0,75,75,0,75,0,75,0,0,0,75,75,75,75,Sun Sep 24 13:53:27 2023,1500,The main experiment item,yes,Flankertask.osexp,/Users/Thingtwo/Desktop,no,mono,no,18,no,white,no,yes,768,legacy,75,75,/Users/Thingtwo/Desktop/NC-subject-4.csv,legacy,Lentiform Loewenfeld,3.3.14,0,s,NA,s,NA,NA,s,478,NA,54289,NA,NA,478,2,legacy,1024,2,48000,-16,experiment,HHSHH,4,even,55461,NA,NA,182831,131242,1137,NA,NA,183891,1163,NA,NA,183997,184477,183885,183997,New experiment,75,40366,76,yes,1024
98.7012987,98.7012987,530.7922078,530.7922078,black,legacy,legacy,legacy,0,congruent,uniform,1,undefined,1,s,0,0,0,76,76,0,76,0,76,0,0,0,76,76,76,76,Sun Sep 24 13:53:27 2023,1500,The main experiment item,yes,Flankertask.osexp,/Users/Thingtwo/Desktop,no,mono,no,18,no,white,no,yes,768,legacy,76,76,/Users/Thingtwo/Desktop/NC-subject-4.csv,legacy,Lentiform Loewenfeld,3.3.14,0,s,NA,s,NA,NA,s,505,NA,54289,NA,NA,505,2,legacy,1024,2,48000,-16,experiment,SSSSS,4,even,55461,NA,NA,184482,131242,1137,NA,NA,185540,1163,NA,NA,185646,186152,185535,185646,New experiment,76,40871,77,yes,1024
98.71794872,98.71794872,531.025641,531.025641,black,legacy,legacy,legacy,0,incongruent,uniform,1,undefined,1,s,0,0,0,77,77,0,77,0,77,0,0,0,77,77,77,77,Sun Sep 24 13:53:27 2023,1500,The main experiment item,yes,Flankertask.osexp,/Users/Thingtwo/Desktop,no,mono,no,18,no,white,no,yes,768,legacy,77,77,/Users/Thingtwo/Desktop/NC-subject-4.csv,legacy,Lentiform Loewenfeld,3.3.14,0,s,NA,s,NA,NA,s,549,NA,54289,NA,NA,549,2,legacy,1024,2,48000,-16,experiment,HHSHH,4,even,55461,NA,NA,186158,131242,1137,NA,NA,187216,1163,NA,NA,187322,187872,187211,187322,New experiment,77,41420,78,yes,1024
98.73417722,98.73417722,531.278481,531.278481,black,legacy,legacy,legacy,0,incongruent,uniform,1,undefined,1,h,0,0,0,78,78,0,78,0,78,0,0,0,78,78,78,78,Sun Sep 24 13:53:27 2023,1500,The main experiment item,yes,Flankertask.osexp,/Users/Thingtwo/Desktop,no,mono,no,18,no,white,no,yes,768,legacy,78,78,/Users/Thingtwo/Desktop/NC-subject-4.csv,legacy,Lentiform Loewenfeld,3.3.14,0,h,NA,s,NA,NA,h,551,NA,54289,NA,NA,551,2,legacy,1024,2,48000,-16,experiment,SSHSS,4,even,55461,NA,NA,187877,131242,1137,NA,NA,188944,1163,NA,NA,189050,189602,188939,189050,New experiment,78,41971,79,yes,1024
98.75,98.75,531.2125,531.2125,black,legacy,legacy,legacy,0,incongruent,uniform,1,undefined,1,h,0,0,0,79,79,0,79,0,79,0,0,0,79,79,79,79,Sun Sep 24 13:53:27 2023,1500,The main experiment item,yes,Flankertask.osexp,/Users/Thingtwo/Desktop,no,mono,no,18,no,white,no,yes,768,legacy,79,79,/Users/Thingtwo/Desktop/NC-subject-4.csv,legacy,Lentiform Loewenfeld,3.3.14,0,h,NA,s,NA,NA,h,526,NA,54289,NA,NA,526,2,legacy,1024,2,48000,-16,experiment,SSHSS,4,even,55461,NA,NA,189608,131242,1137,NA,NA,190669,1163,NA,NA,190775,191302,190664,190775,New experiment,79,42497,80,yes,1024
98.7654321,98.7654321,532.6666667,532.6666667,black,legacy,legacy,legacy,0,congruent,uniform,1,undefined,1,s,0,0,0,80,80,0,80,0,80,0,0,0,80,80,80,80,Sun Sep 24 13:53:27 2023,600,The main experiment item,yes,Flankertask.osexp,/Users/Thingtwo/Desktop,no,mono,no,18,no,white,no,yes,768,legacy,0,79,/Users/Thingtwo/Desktop/NC-subject-4.csv,legacy,Lentiform Loewenfeld,3.3.14,0,s,NA,s,NA,h,s,649,NA,54289,NA,24517,649,2,legacy,1024,2,48000,-16,experiment,SSSSS,4,even,55461,216866,NA,191307,131242,1137,NA,NA,216892,1163,NA,192348,216998,217648,216888,216998,New experiment,80,43146,81,yes,1024
98.7804878,98.7804878,531.1463415,531.1463415,black,legacy,legacy,legacy,0,congruent,uniform,1,undefined,1,s,0,0,0,81,81,0,81,0,81,0,0,0,81,81,81,81,Sun Sep 24 13:53:27 2023,600,The main experiment item,yes,Flankertask.osexp,/Users/Thingtwo/Desktop,no,mono,no,18,no,white,no,yes,768,legacy,1,79,/Users/Thingtwo/Desktop/NC-subject-4.csv,legacy,Lentiform Loewenfeld,3.3.14,0,s,NA,s,NA,h,s,408,NA,54289,NA,24517,408,2,legacy,1024,2,48000,-16,experiment,SSSSS,4,even,55461,216866,NA,218167,131242,1137,217655,NA,219227,1163,NA,192348,219333,219742,219222,219333,New experiment,81,43554,82,yes,1024
98.79518072,98.79518072,529.6385542,529.6385542,black,legacy,legacy,legacy,0,congruent,uniform,1,undefined,1,h,0,0,0,82,82,0,82,0,82,0,0,0,82,82,82,82,Sun Sep 24 13:53:27 2023,600,The main experiment item,yes,Flankertask.osexp,/Users/Thingtwo/Desktop,no,mono,no,18,no,white,no,yes,768,legacy,2,79,/Users/Thingtwo/Desktop/NC-subject-4.csv,legacy,Lentiform Loewenfeld,3.3.14,0,h,NA,s,NA,h,h,406,NA,54289,NA,24517,406,2,legacy,1024,2,48000,-16,experiment,HHHHH,4,even,55461,216866,NA,219747,131242,1137,217655,NA,220808,1163,NA,192348,220914,221320,220803,220914,New experiment,82,43960,83,yes,1024
97.61904762,97.61904762,530.4166667,530.4166667,black,legacy,legacy,legacy,0,incongruent,uniform,0,undefined,0,h,0,0,0,83,83,0,83,0,83,0,0,0,83,83,83,83,Sun Sep 24 13:53:27 2023,600,The main experiment item,yes,Flankertask.osexp,/Users/Thingtwo/Desktop,no,mono,no,18,no,white,no,yes,768,legacy,3,79,/Users/Thingtwo/Desktop/NC-subject-4.csv,legacy,Lentiform Loewenfeld,3.3.14,0,s,NA,s,NA,h,s,595,NA,54289,NA,24517,595,2,legacy,1024,2,48000,-16,experiment,SSHSS,4,even,55461,216866,NA,221325,131242,1137,217655,NA,222385,1163,NA,192348,222491,223088,222379,222491,New experiment,82,44555,84,yes,1024
97.64705882,97.64705882,529.7882353,529.7882353,black,legacy,legacy,legacy,0,congruent,uniform,1,undefined,1,s,0,0,0,84,84,0,84,0,84,0,0,0,84,84,84,84,Sun Sep 24 13:53:27 2023,600,The main experiment item,yes,Flankertask.osexp,/Users/Thingtwo/Desktop,no,mono,no,18,no,white,no,yes,768,legacy,4,79,/Users/Thingtwo/Desktop/NC-subject-4.csv,legacy,Lentiform Loewenfeld,3.3.14,0,s,NA,s,NA,h,s,477,NA,54289,NA,24517,477,2,legacy,1024,2,48000,-16,experiment,SSSSS,4,even,55461,216866,NA,223603,223093,1137,217655,NA,224663,1163,NA,192348,224769,225247,224658,224769,New experiment,83,45032,85,yes,1024
96.51162791,96.51162791,528.6395349,528.6395349,black,legacy,legacy,legacy,0,incongruent,uniform,0,undefined,0,s,0,0,0,85,85,0,85,0,85,0,0,0,85,85,85,85,Sun Sep 24 13:53:27 2023,600,The main experiment item,yes,Flankertask.osexp,/Users/Thingtwo/Desktop,no,mono,no,18,no,white,no,yes,768,legacy,5,79,/Users/Thingtwo/Desktop/NC-subject-4.csv,legacy,Lentiform Loewenfeld,3.3.14,0,h,NA,s,NA,h,h,431,NA,54289,NA,24517,431,2,legacy,1024,2,48000,-16,experiment,HHSHH,4,even,55461,216866,NA,225253,223093,1137,217655,NA,226313,1163,NA,192348,226419,226851,226307,226419,New experiment,83,45463,86,yes,1024
96.55172414,96.55172414,529.7126437,529.7126437,black,legacy,legacy,legacy,0,incongruent,uniform,1,undefined,1,h,0,0,0,86,86,0,86,0,86,0,0,0,86,86,86,86,Sun Sep 24 13:53:27 2023,600,The main experiment item,yes,Flankertask.osexp,/Users/Thingtwo/Desktop,no,mono,no,18,no,white,no,yes,768,legacy,6,79,/Users/Thingtwo/Desktop/NC-subject-4.csv,legacy,Lentiform Loewenfeld,3.3.14,0,h,NA,s,NA,h,h,622,NA,54289,NA,24517,622,2,legacy,1024,2,48000,-16,experiment,SSHSS,4,even,55461,216866,NA,227367,226857,1137,217655,NA,228428,1163,NA,192348,228534,229158,228423,228534,New experiment,84,46085,87,yes,1024
96.59090909,96.59090909,529.5795455,529.5795455,black,legacy,legacy,legacy,0,incongruent,uniform,1,undefined,1,s,0,0,0,87,87,0,87,0,87,0,0,0,87,87,87,87,Sun Sep 24 13:53:27 2023,600,The main experiment item,yes,Flankertask.osexp,/Users/Thingtwo/Desktop,no,mono,no,18,no,white,no,yes,768,legacy,7,79,/Users/Thingtwo/Desktop/NC-subject-4.csv,legacy,Lentiform Loewenfeld,3.3.14,0,s,NA,s,NA,h,s,518,NA,54289,NA,24517,518,2,legacy,1024,2,48000,-16,experiment,HHSHH,4,even,55461,216866,NA,229673,226857,1137,229163,NA,230734,1163,NA,192348,230840,231359,230728,230840,New experiment,85,46603,88,yes,1024
96.62921348,96.62921348,528.5505618,528.5505618,black,legacy,legacy,legacy,0,congruent,uniform,1,undefined,1,s,0,0,0,88,88,0,88,0,88,0,0,0,88,88,88,88,Sun Sep 24 13:53:27 2023,600,The main experiment item,yes,Flankertask.osexp,/Users/Thingtwo/Desktop,no,mono,no,18,no,white,no,yes,768,legacy,8,79,/Users/Thingtwo/Desktop/NC-subject-4.csv,legacy,Lentiform Loewenfeld,3.3.14,0,s,NA,s,NA,h,s,438,NA,54289,NA,24517,438,2,legacy,1024,2,48000,-16,experiment,SSSSS,4,even,55461,216866,NA,231364,226857,1137,229163,NA,232424,1163,NA,192348,232530,232969,232419,232530,New experiment,86,47041,89,yes,1024
96.66666667,96.66666667,527.2777778,527.2777778,black,legacy,legacy,legacy,0,congruent,uniform,1,undefined,1,s,0,0,0,89,89,0,89,0,89,0,0,0,89,89,89,89,Sun Sep 24 13:53:27 2023,600,The main experiment item,yes,Flankertask.osexp,/Users/Thingtwo/Desktop,no,mono,no,18,no,white,no,yes,768,legacy,9,79,/Users/Thingtwo/Desktop/NC-subject-4.csv,legacy,Lentiform Loewenfeld,3.3.14,0,s,NA,s,NA,h,s,414,NA,54289,NA,24517,414,2,legacy,1024,2,48000,-16,experiment,SSSSS,4,even,55461,216866,NA,232974,226857,1137,229163,NA,234033,1163,NA,192348,234139,234554,234028,234139,New experiment,87,47455,90,yes,1024
96.7032967,96.7032967,525.4945055,525.4945055,black,legacy,legacy,legacy,0,congruent,uniform,1,undefined,1,s,0,0,0,90,90,0,90,0,90,0,0,0,90,90,90,90,Sun Sep 24 13:53:27 2023,600,The main experiment item,yes,Flankertask.osexp,/Users/Thingtwo/Desktop,no,mono,no,18,no,white,no,yes,768,legacy,10,79,/Users/Thingtwo/Desktop/NC-subject-4.csv,legacy,Lentiform Loewenfeld,3.3.14,0,s,NA,s,NA,h,s,365,NA,54289,NA,24517,365,2,legacy,1024,2,48000,-16,experiment,SSSSS,4,even,55461,216866,NA,234560,226857,1137,229163,NA,235620,1163,NA,192348,235726,236092,235615,235726,New experiment,88,47820,91,yes,1024
96.73913043,96.73913043,523.7391304,523.7391304,black,legacy,legacy,legacy,0,incongruent,uniform,1,undefined,1,s,0,0,0,91,91,0,91,0,91,0,0,0,91,91,91,91,Sun Sep 24 13:53:27 2023,600,The main experiment item,yes,Flankertask.osexp,/Users/Thingtwo/Desktop,no,mono,no,18,no,white,no,yes,768,legacy,11,79,/Users/Thingtwo/Desktop/NC-subject-4.csv,legacy,Lentiform Loewenfeld,3.3.14,0,s,NA,s,NA,h,s,364,NA,54289,NA,24517,364,2,legacy,1024,2,48000,-16,experiment,HHSHH,4,even,55461,216866,NA,236098,226857,1137,229163,NA,237157,1163,NA,192348,237263,237628,237151,237263,New experiment,89,48184,92,yes,1024
96.77419355,96.77419355,522.0537634,522.0537634,black,legacy,legacy,legacy,0,congruent,uniform,1,undefined,1,s,0,0,0,92,92,0,92,0,92,0,0,0,92,92,92,92,Sun Sep 24 13:53:27 2023,600,The main experiment item,yes,Flankertask.osexp,/Users/Thingtwo/Desktop,no,mono,no,18,no,white,no,yes,768,legacy,12,79,/Users/Thingtwo/Desktop/NC-subject-4.csv,legacy,Lentiform Loewenfeld,3.3.14,0,s,NA,s,NA,h,s,367,NA,54289,NA,24517,367,2,legacy,1024,2,48000,-16,experiment,SSSSS,4,even,55461,216866,NA,237633,226857,1137,229163,NA,238693,1163,NA,192348,238799,239167,238688,238799,New experiment,90,48551,93,yes,1024
96.80851064,96.80851064,521.5212766,521.5212766,black,legacy,legacy,legacy,0,incongruent,uniform,1,undefined,1,h,0,0,0,93,93,0,93,0,93,0,0,0,93,93,93,93,Sun Sep 24 13:53:27 2023,600,The main experiment item,yes,Flankertask.osexp,/Users/Thingtwo/Desktop,no,mono,no,18,no,white,no,yes,768,legacy,13,79,/Users/Thingtwo/Desktop/NC-subject-4.csv,legacy,Lentiform Loewenfeld,3.3.14,0,h,NA,s,NA,h,h,472,NA,54289,NA,24517,472,2,legacy,1024,2,48000,-16,experiment,SSHSS,4,even,55461,216866,NA,239173,226857,1137,229163,NA,240231,1163,NA,192348,240337,240810,240226,240337,New experiment,91,49023,94,yes,1024
96.84210526,96.84210526,520.6,520.6,black,legacy,legacy,legacy,0,congruent,uniform,1,undefined,1,s,0,0,0,94,94,0,94,0,94,0,0,0,94,94,94,94,Sun Sep 24 13:53:27 2023,600,The main experiment item,yes,Flankertask.osexp,/Users/Thingtwo/Desktop,no,mono,no,18,no,white,no,yes,768,legacy,14,79,/Users/Thingtwo/Desktop/NC-subject-4.csv,legacy,Lentiform Loewenfeld,3.3.14,0,s,NA,s,NA,h,s,434,NA,54289,NA,24517,434,2,legacy,1024,2,48000,-16,experiment,SSSSS,4,even,55461,216866,NA,240815,226857,1137,229163,NA,241874,1163,NA,192348,241980,242415,241869,241980,New experiment,92,49457,95,yes,1024
96.875,96.875,519.59375,519.59375,black,legacy,legacy,legacy,0,congruent,uniform,1,undefined,1,s,0,0,0,95,95,0,95,0,95,0,0,0,95,95,95,95,Sun Sep 24 13:53:27 2023,600,The main experiment item,yes,Flankertask.osexp,/Users/Thingtwo/Desktop,no,mono,no,18,no,white,no,yes,768,legacy,15,79,/Users/Thingtwo/Desktop/NC-subject-4.csv,legacy,Lentiform Loewenfeld,3.3.14,0,s,NA,s,NA,h,s,424,NA,54289,NA,24517,424,2,legacy,1024,2,48000,-16,experiment,SSSSS,4,even,55461,216866,NA,242421,226857,1137,229163,NA,243481,1163,NA,192348,243587,244012,243475,243587,New experiment,93,49881,96,yes,1024
96.90721649,96.90721649,518.8350515,518.8350515,black,legacy,legacy,legacy,0,congruent,uniform,1,undefined,1,h,0,0,0,96,96,0,96,0,96,0,0,0,96,96,96,96,Sun Sep 24 13:53:27 2023,600,The main experiment item,yes,Flankertask.osexp,/Users/Thingtwo/Desktop,no,mono,no,18,no,white,no,yes,768,legacy,16,79,/Users/Thingtwo/Desktop/NC-subject-4.csv,legacy,Lentiform Loewenfeld,3.3.14,0,h,NA,s,NA,h,h,446,NA,54289,NA,24517,446,2,legacy,1024,2,48000,-16,experiment,HHHHH,4,even,55461,216866,NA,244017,226857,1137,229163,NA,245079,1163,NA,192348,245185,245632,245074,245185,New experiment,94,50327,97,yes,1024
95.91836735,95.91836735,517.377551,517.377551,black,legacy,legacy,legacy,0,incongruent,uniform,0,undefined,0,h,0,0,0,97,97,0,97,0,97,0,0,0,97,97,97,97,Sun Sep 24 13:53:27 2023,600,The main experiment item,yes,Flankertask.osexp,/Users/Thingtwo/Desktop,no,mono,no,18,no,white,no,yes,768,legacy,17,79,/Users/Thingtwo/Desktop/NC-subject-4.csv,legacy,Lentiform Loewenfeld,3.3.14,0,s,NA,s,NA,h,s,376,NA,54289,NA,24517,376,2,legacy,1024,2,48000,-16,experiment,SSHSS,4,even,55461,216866,NA,245638,226857,1137,229163,NA,246696,1163,NA,192348,246802,247179,246691,246802,New experiment,94,50703,98,yes,1024
95.95959596,95.95959596,518.1515152,518.1515152,black,legacy,legacy,legacy,0,incongruent,uniform,1,undefined,1,h,0,0,0,98,98,0,98,0,98,0,0,0,98,98,98,98,Sun Sep 24 13:53:27 2023,600,The main experiment item,yes,Flankertask.osexp,/Users/Thingtwo/Desktop,no,mono,no,18,no,white,no,yes,768,legacy,18,79,/Users/Thingtwo/Desktop/NC-subject-4.csv,legacy,Lentiform Loewenfeld,3.3.14,0,h,NA,s,NA,h,h,594,NA,54289,NA,24517,594,2,legacy,1024,2,48000,-16,experiment,SSHSS,4,even,55461,216866,NA,247695,247185,1137,229163,NA,248753,1163,NA,192348,248859,249454,248748,248859,New experiment,95,51297,99,yes,1024
96,96,519.03,519.03,black,legacy,legacy,legacy,0,incongruent,uniform,1,undefined,1,s,0,0,0,99,99,0,99,0,99,0,0,0,99,99,99,99,Sun Sep 24 13:53:27 2023,600,The main experiment item,yes,Flankertask.osexp,/Users/Thingtwo/Desktop,no,mono,no,18,no,white,no,yes,768,legacy,19,79,/Users/Thingtwo/Desktop/NC-subject-4.csv,legacy,Lentiform Loewenfeld,3.3.14,0,s,NA,s,NA,h,s,606,NA,54289,NA,24517,606,2,legacy,1024,2,48000,-16,experiment,HHSHH,4,even,55461,216866,NA,249459,247185,1137,229163,NA,250518,1163,NA,192348,250624,251232,250512,250624,New experiment,96,51903,100,yes,1024
96.03960396,96.03960396,518.049505,518.049505,black,legacy,legacy,legacy,0,congruent,uniform,1,undefined,1,s,0,0,0,100,100,0,100,0,100,0,0,0,100,100,100,100,Sun Sep 24 13:53:27 2023,600,The main experiment item,yes,Flankertask.osexp,/Users/Thingtwo/Desktop,no,mono,no,18,no,white,no,yes,768,legacy,20,79,/Users/Thingtwo/Desktop/NC-subject-4.csv,legacy,Lentiform Loewenfeld,3.3.14,0,s,NA,s,NA,h,s,420,NA,54289,NA,24517,420,2,legacy,1024,2,48000,-16,experiment,SSSSS,4,even,55461,216866,NA,251748,247185,1137,251237,NA,252808,1163,NA,192348,252914,253335,252803,252914,New experiment,97,52323,101,yes,1024
95.09803922,95.09803922,517.127451,517.127451,black,legacy,legacy,legacy,0,incongruent,uniform,0,undefined,0,s,0,0,0,101,101,0,101,0,101,0,0,0,101,101,101,101,Sun Sep 24 13:53:27 2023,600,The main experiment item,yes,Flankertask.osexp,/Users/Thingtwo/Desktop,no,mono,no,18,no,white,no,yes,768,legacy,21,79,/Users/Thingtwo/Desktop/NC-subject-4.csv,legacy,Lentiform Loewenfeld,3.3.14,0,h,NA,s,NA,h,h,424,NA,54289,NA,24517,424,2,legacy,1024,2,48000,-16,experiment,HHSHH,4,even,55461,216866,NA,253341,247185,1137,251237,NA,254403,1163,NA,192348,254509,254935,254397,254509,New experiment,97,52747,102,yes,1024
95.14563107,95.14563107,517.0582524,517.0582524,black,legacy,legacy,legacy,0,incongruent,uniform,1,undefined,1,s,0,0,0,102,102,0,102,0,102,0,0,0,102,102,102,102,Sun Sep 24 13:53:27 2023,600,The main experiment item,yes,Flankertask.osexp,/Users/Thingtwo/Desktop,no,mono,no,18,no,white,no,yes,768,legacy,22,79,/Users/Thingtwo/Desktop/NC-subject-4.csv,legacy,Lentiform Loewenfeld,3.3.14,0,s,NA,s,NA,h,s,510,NA,54289,NA,24517,510,2,legacy,1024,2,48000,-16,experiment,HHSHH,4,even,55461,216866,NA,255451,254940,1137,251237,NA,256512,1163,NA,192348,256618,257129,256507,256618,New experiment,98,53257,103,yes,1024
95.19230769,95.19230769,516.0096154,516.0096154,black,legacy,legacy,legacy,0,congruent,uniform,1,undefined,1,h,0,0,0,103,103,0,103,0,103,0,0,0,103,103,103,103,Sun Sep 24 13:53:27 2023,600,The main experiment item,yes,Flankertask.osexp,/Users/Thingtwo/Desktop,no,mono,no,18,no,white,no,yes,768,legacy,23,79,/Users/Thingtwo/Desktop/NC-subject-4.csv,legacy,Lentiform Loewenfeld,3.3.14,0,h,NA,s,NA,h,h,408,NA,54289,NA,24517,408,2,legacy,1024,2,48000,-16,experiment,HHHHH,4,even,55461,216866,NA,257134,254940,1137,251237,NA,258192,1163,NA,192348,258299,258708,258187,258299,New experiment,99,53665,104,yes,1024
95.23809524,95.23809524,515.7809524,515.7809524,black,legacy,legacy,legacy,0,congruent,uniform,1,undefined,1,h,0,0,0,104,104,0,104,0,104,0,0,0,104,104,104,104,Sun Sep 24 13:53:27 2023,600,The main experiment item,yes,Flankertask.osexp,/Users/Thingtwo/Desktop,no,mono,no,18,no,white,no,yes,768,legacy,24,79,/Users/Thingtwo/Desktop/NC-subject-4.csv,legacy,Lentiform Loewenfeld,3.3.14,0,h,NA,s,NA,h,h,492,NA,54289,NA,24517,492,2,legacy,1024,2,48000,-16,experiment,HHHHH,4,even,55461,216866,NA,258714,254940,1137,251237,NA,259774,1163,NA,192348,259880,260373,259769,259880,New experiment,100,54157,105,yes,1024
95.28301887,95.28301887,514.8584906,514.8584906,black,legacy,legacy,legacy,0,congruent,uniform,1,undefined,1,h,0,0,0,105,105,0,105,0,105,0,0,0,105,105,105,105,Sun Sep 24 13:53:27 2023,600,The main experiment item,yes,Flankertask.osexp,/Users/Thingtwo/Desktop,no,mono,no,18,no,white,no,yes,768,legacy,25,79,/Users/Thingtwo/Desktop/NC-subject-4.csv,legacy,Lentiform Loewenfeld,3.3.14,0,h,NA,s,NA,h,h,418,NA,54289,NA,24517,418,2,legacy,1024,2,48000,-16,experiment,HHHHH,4,even,55461,216866,NA,260379,254940,1137,251237,NA,261440,1163,NA,192348,261546,261965,261435,261546,New experiment,101,54575,106,yes,1024
95.3271028,95.3271028,514.4859813,514.4859813,black,legacy,legacy,legacy,0,congruent,uniform,1,undefined,1,h,0,0,0,106,106,0,106,0,106,0,0,0,106,106,106,106,Sun Sep 24 13:53:27 2023,600,The main experiment item,yes,Flankertask.osexp,/Users/Thingtwo/Desktop,no,mono,no,18,no,white,no,yes,768,legacy,26,79,/Users/Thingtwo/Desktop/NC-subject-4.csv,legacy,Lentiform Loewenfeld,3.3.14,0,h,NA,s,NA,h,h,475,NA,54289,NA,24517,475,2,legacy,1024,2,48000,-16,experiment,HHHHH,4,even,55461,216866,NA,261970,254940,1137,251237,NA,263030,1163,NA,192348,263136,263613,263024,263136,New experiment,102,55050,107,yes,1024
95.37037037,95.37037037,513.3425926,513.3425926,black,legacy,legacy,legacy,0,congruent,uniform,1,undefined,1,s,0,0,0,107,107,0,107,0,107,0,0,0,107,107,107,107,Sun Sep 24 13:53:27 2023,600,The main experiment item,yes,Flankertask.osexp,/Users/Thingtwo/Desktop,no,mono,no,18,no,white,no,yes,768,legacy,27,79,/Users/Thingtwo/Desktop/NC-subject-4.csv,legacy,Lentiform Loewenfeld,3.3.14,0,s,NA,s,NA,h,s,391,NA,54289,NA,24517,391,2,legacy,1024,2,48000,-16,experiment,SSSSS,4,even,55461,216866,NA,263618,254940,1137,251237,NA,264678,1163,NA,192348,264784,265176,264672,264784,New experiment,103,55441,108,yes,1024
95.41284404,95.41284404,512.7614679,512.7614679,black,legacy,legacy,legacy,0,incongruent,uniform,1,undefined,1,h,0,0,0,108,108,0,108,0,108,0,0,0,108,108,108,108,Sun Sep 24 13:53:27 2023,600,The main experiment item,yes,Flankertask.osexp,/Users/Thingtwo/Desktop,no,mono,no,18,no,white,no,yes,768,legacy,28,79,/Users/Thingtwo/Desktop/NC-subject-4.csv,legacy,Lentiform Loewenfeld,3.3.14,0,h,NA,s,NA,h,h,450,NA,54289,NA,24517,450,2,legacy,1024,2,48000,-16,experiment,SSHSS,4,even,55461,216866,NA,265181,254940,1137,251237,NA,266242,1163,NA,192348,266348,266799,266237,266348,New experiment,104,55891,109,yes,1024
95.45454545,95.45454545,512.0363636,512.0363636,black,legacy,legacy,legacy,0,congruent,uniform,1,undefined,1,h,0,0,0,109,109,0,109,0,109,0,0,0,109,109,109,109,Sun Sep 24 13:53:27 2023,600,The main experiment item,yes,Flankertask.osexp,/Users/Thingtwo/Desktop,no,mono,no,18,no,white,no,yes,768,legacy,29,79,/Users/Thingtwo/Desktop/NC-subject-4.csv,legacy,Lentiform Loewenfeld,3.3.14,0,h,NA,s,NA,h,h,433,NA,54289,NA,24517,433,2,legacy,1024,2,48000,-16,experiment,HHHHH,4,even,55461,216866,NA,266804,254940,1137,251237,NA,267864,1163,NA,192348,267970,268404,267858,267970,New experiment,105,56324,110,yes,1024
95.4954955,95.4954955,512.1531532,512.1531532,black,legacy,legacy,legacy,0,incongruent,uniform,1,undefined,1,h,0,0,0,110,110,0,110,0,110,0,0,0,110,110,110,110,Sun Sep 24 13:53:27 2023,600,The main experiment item,yes,Flankertask.osexp,/Users/Thingtwo/Desktop,no,mono,no,18,no,white,no,yes,768,legacy,30,79,/Users/Thingtwo/Desktop/NC-subject-4.csv,legacy,Lentiform Loewenfeld,3.3.14,0,h,NA,s,NA,h,h,525,NA,54289,NA,24517,525,2,legacy,1024,2,48000,-16,experiment,SSHSS,4,even,55461,216866,NA,268411,254940,1137,251237,NA,269470,1163,NA,192348,269576,270102,269464,269576,New experiment,106,56849,111,yes,1024
95.53571429,95.53571429,511.625,511.625,black,legacy,legacy,legacy,0,incongruent,uniform,1,undefined,1,s,0,0,0,111,111,0,111,0,111,0,0,0,111,111,111,111,Sun Sep 24 13:53:27 2023,600,The main experiment item,yes,Flankertask.osexp,/Users/Thingtwo/Desktop,no,mono,no,18,no,white,no,yes,768,legacy,31,79,/Users/Thingtwo/Desktop/NC-subject-4.csv,legacy,Lentiform Loewenfeld,3.3.14,0,s,NA,s,NA,h,s,453,NA,54289,NA,24517,453,2,legacy,1024,2,48000,-16,experiment,HHSHH,4,even,55461,216866,NA,270107,254940,1137,251237,NA,271171,1163,NA,192348,271277,271732,271165,271277,New experiment,107,57302,112,yes,1024
95.57522124,95.57522124,511,511,black,legacy,legacy,legacy,0,congruent,uniform,1,undefined,1,s,0,0,0,112,112,0,112,0,112,0,0,0,112,112,112,112,Sun Sep 24 13:53:27 2023,600,The main experiment item,yes,Flankertask.osexp,/Users/Thingtwo/Desktop,no,mono,no,18,no,white,no,yes,768,legacy,32,79,/Users/Thingtwo/Desktop/NC-subject-4.csv,legacy,Lentiform Loewenfeld,3.3.14,0,s,NA,s,NA,h,s,441,NA,54289,NA,24517,441,2,legacy,1024,2,48000,-16,experiment,SSSSS,4,even,55461,216866,NA,271737,254940,1137,251237,NA,272797,1163,NA,192348,272903,273345,272792,272903,New experiment,108,57743,113,yes,1024
95.61403509,95.61403509,510.2280702,510.2280702,black,legacy,legacy,legacy,0,incongruent,uniform,1,undefined,1,s,0,0,0,113,113,0,113,0,113,0,0,0,113,113,113,113,Sun Sep 24 13:53:27 2023,600,The main experiment item,yes,Flankertask.osexp,/Users/Thingtwo/Desktop,no,mono,no,18,no,white,no,yes,768,legacy,33,79,/Users/Thingtwo/Desktop/NC-subject-4.csv,legacy,Lentiform Loewenfeld,3.3.14,0,s,NA,s,NA,h,s,423,NA,54289,NA,24517,423,2,legacy,1024,2,48000,-16,experiment,HHSHH,4,even,55461,216866,NA,273351,254940,1137,251237,NA,274411,1163,NA,192348,274517,274941,274406,274517,New experiment,109,58166,114,yes,1024
95.65217391,95.65217391,509.3130435,509.3130435,black,legacy,legacy,legacy,0,incongruent,uniform,1,undefined,1,s,0,0,0,114,114,0,114,0,114,0,0,0,114,114,114,114,Sun Sep 24 13:53:27 2023,600,The main experiment item,yes,Flankertask.osexp,/Users/Thingtwo/Desktop,no,mono,no,18,no,white,no,yes,768,legacy,34,79,/Users/Thingtwo/Desktop/NC-subject-4.csv,legacy,Lentiform Loewenfeld,3.3.14,0,s,NA,s,NA,h,s,405,NA,54289,NA,24517,405,2,legacy,1024,2,48000,-16,experiment,HHSHH,4,even,55461,216866,NA,274946,254940,1137,251237,NA,276005,1163,NA,192348,276111,276517,276000,276111,New experiment,110,58571,115,yes,1024
95.68965517,95.68965517,508.8017241,508.8017241,black,legacy,legacy,legacy,0,congruent,uniform,1,undefined,1,h,0,0,0,115,115,0,115,0,115,0,0,0,115,115,115,115,Sun Sep 24 13:53:27 2023,600,The main experiment item,yes,Flankertask.osexp,/Users/Thingtwo/Desktop,no,mono,no,18,no,white,no,yes,768,legacy,35,79,/Users/Thingtwo/Desktop/NC-subject-4.csv,legacy,Lentiform Loewenfeld,3.3.14,0,h,NA,s,NA,h,h,450,NA,54289,NA,24517,450,2,legacy,1024,2,48000,-16,experiment,HHHHH,4,even,55461,216866,NA,276522,254940,1137,251237,NA,277581,1163,NA,192348,277687,278138,277576,277687,New experiment,111,59021,116,yes,1024
94.87179487,94.87179487,508.3418803,508.3418803,black,legacy,legacy,legacy,0,congruent,uniform,0,undefined,0,s,0,0,0,116,116,0,116,0,116,0,0,0,116,116,116,116,Sun Sep 24 13:53:27 2023,600,The main experiment item,yes,Flankertask.osexp,/Users/Thingtwo/Desktop,no,mono,no,18,no,white,no,yes,768,legacy,36,79,/Users/Thingtwo/Desktop/NC-subject-4.csv,legacy,Lentiform Loewenfeld,3.3.14,0,h,NA,s,NA,h,h,455,NA,54289,NA,24517,455,2,legacy,1024,2,48000,-16,experiment,SSSSS,4,even,55461,216866,NA,278144,254940,1137,251237,NA,279203,1163,NA,192348,279309,279764,279197,279309,New experiment,111,59476,117,yes,1024
94.91525424,94.91525424,507.7542373,507.7542373,black,legacy,legacy,legacy,0,incongruent,uniform,1,undefined,1,s,0,0,0,117,117,0,117,0,117,0,0,0,117,117,117,117,Sun Sep 24 13:53:27 2023,600,The main experiment item,yes,Flankertask.osexp,/Users/Thingtwo/Desktop,no,mono,no,18,no,white,no,yes,768,legacy,37,79,/Users/Thingtwo/Desktop/NC-subject-4.csv,legacy,Lentiform Loewenfeld,3.3.14,0,s,NA,s,NA,h,s,439,NA,54289,NA,24517,439,2,legacy,1024,2,48000,-16,experiment,HHSHH,4,even,55461,216866,NA,280280,279769,1137,251237,NA,281339,1163,NA,192348,281445,281886,281334,281445,New experiment,112,59915,118,yes,1024
94.95798319,94.95798319,507.3361345,507.3361345,black,legacy,legacy,legacy,0,incongruent,uniform,1,undefined,1,s,0,0,0,118,118,0,118,0,118,0,0,0,118,118,118,118,Sun Sep 24 13:53:27 2023,600,The main experiment item,yes,Flankertask.osexp,/Users/Thingtwo/Desktop,no,mono,no,18,no,white,no,yes,768,legacy,38,79,/Users/Thingtwo/Desktop/NC-subject-4.csv,legacy,Lentiform Loewenfeld,3.3.14,0,s,NA,s,NA,h,s,458,NA,54289,NA,24517,458,2,legacy,1024,2,48000,-16,experiment,HHSHH,4,even,55461,216866,NA,281891,279769,1137,251237,NA,282952,1163,NA,192348,283058,283517,282946,283058,New experiment,113,60373,119,yes,1024
95,95,506.625,506.625,black,legacy,legacy,legacy,0,congruent,uniform,1,undefined,1,h,0,0,0,119,119,0,119,0,119,0,0,0,119,119,119,119,Sun Sep 24 13:53:27 2023,600,The main experiment item,yes,Flankertask.osexp,/Users/Thingtwo/Desktop,no,mono,no,18,no,white,no,yes,768,legacy,39,79,/Users/Thingtwo/Desktop/NC-subject-4.csv,legacy,Lentiform Loewenfeld,3.3.14,0,h,NA,s,NA,h,h,422,NA,54289,NA,24517,422,2,legacy,1024,2,48000,-16,experiment,HHHHH,4,even,55461,216866,NA,283523,279769,1137,251237,NA,284583,1163,NA,192348,284689,285113,284578,284689,New experiment,114,60795,120,yes,1024
95.04132231,95.04132231,506.768595,506.768595,black,legacy,legacy,legacy,0,incongruent,uniform,1,undefined,1,s,0,0,0,120,120,0,120,0,120,0,0,0,120,120,120,120,Sun Sep 24 13:53:27 2023,600,The main experiment item,yes,Flankertask.osexp,/Users/Thingtwo/Desktop,no,mono,no,18,no,white,no,yes,768,legacy,40,79,/Users/Thingtwo/Desktop/NC-subject-4.csv,legacy,Lentiform Loewenfeld,3.3.14,0,s,NA,s,NA,h,s,524,NA,54289,NA,24517,524,2,legacy,1024,2,48000,-16,experiment,HHSHH,4,even,55461,216866,NA,285118,279769,1137,251237,NA,286179,1163,NA,192348,286285,286810,286174,286285,New experiment,115,61319,121,yes,1024
95.08196721,95.08196721,506.7868852,506.7868852,black,legacy,legacy,legacy,0,incongruent,uniform,1,undefined,1,h,0,0,0,121,121,0,121,0,121,0,0,0,121,121,121,121,Sun Sep 24 13:53:27 2023,600,The main experiment item,yes,Flankertask.osexp,/Users/Thingtwo/Desktop,no,mono,no,18,no,white,no,yes,768,legacy,41,79,/Users/Thingtwo/Desktop/NC-subject-4.csv,legacy,Lentiform Loewenfeld,3.3.14,0,h,NA,s,NA,h,h,509,NA,54289,NA,24517,509,2,legacy,1024,2,48000,-16,experiment,SSHSS,4,even,55461,216866,NA,286815,279769,1137,251237,NA,287874,1163,NA,192348,287980,288490,287869,287980,New experiment,116,61828,122,yes,1024
95.12195122,95.12195122,506.3821138,506.3821138,black,legacy,legacy,legacy,0,congruent,uniform,1,undefined,1,s,0,0,0,122,122,0,122,0,122,0,0,0,122,122,122,122,Sun Sep 24 13:53:27 2023,600,The main experiment item,yes,Flankertask.osexp,/Users/Thingtwo/Desktop,no,mono,no,18,no,white,no,yes,768,legacy,42,79,/Users/Thingtwo/Desktop/NC-subject-4.csv,legacy,Lentiform Loewenfeld,3.3.14,0,s,NA,s,NA,h,s,457,NA,54289,NA,24517,457,2,legacy,1024,2,48000,-16,experiment,SSSSS,4,even,55461,216866,NA,288496,279769,1137,251237,NA,289555,1163,NA,192348,289661,290119,289550,289661,New experiment,117,62285,123,yes,1024
95.16129032,95.16129032,506.0483871,506.0483871,black,legacy,legacy,legacy,0,congruent,uniform,1,undefined,1,h,0,0,0,123,123,0,123,0,123,0,0,0,123,123,123,123,Sun Sep 24 13:53:27 2023,600,The main experiment item,yes,Flankertask.osexp,/Users/Thingtwo/Desktop,no,mono,no,18,no,white,no,yes,768,legacy,43,79,/Users/Thingtwo/Desktop/NC-subject-4.csv,legacy,Lentiform Loewenfeld,3.3.14,0,h,NA,s,NA,h,h,465,NA,54289,NA,24517,465,2,legacy,1024,2,48000,-16,experiment,HHHHH,4,even,55461,216866,NA,290125,279769,1137,251237,NA,291186,1163,NA,192348,291292,291758,291181,291292,New experiment,118,62750,124,yes,1024
95.2,95.2,506.072,506.072,black,legacy,legacy,legacy,0,incongruent,uniform,1,undefined,1,h,0,0,0,124,124,0,124,0,124,0,0,0,124,124,124,124,Sun Sep 24 13:53:27 2023,600,The main experiment item,yes,Flankertask.osexp,/Users/Thingtwo/Desktop,no,mono,no,18,no,white,no,yes,768,legacy,44,79,/Users/Thingtwo/Desktop/NC-subject-4.csv,legacy,Lentiform Loewenfeld,3.3.14,0,h,NA,s,NA,h,h,509,NA,54289,NA,24517,509,2,legacy,1024,2,48000,-16,experiment,SSHSS,4,even,55461,216866,NA,291764,279769,1137,251237,NA,292823,1163,NA,192348,292929,293440,292817,292929,New experiment,119,63259,125,yes,1024
95.23809524,95.23809524,508.5396825,508.5396825,black,legacy,legacy,legacy,0,incongruent,uniform,1,undefined,1,h,0,0,0,125,125,0,125,0,125,0,0,0,125,125,125,125,Sun Sep 24 13:53:27 2023,600,The main experiment item,yes,Flankertask.osexp,/Users/Thingtwo/Desktop,no,mono,no,18,no,white,no,yes,768,legacy,45,79,/Users/Thingtwo/Desktop/NC-subject-4.csv,legacy,Lentiform Loewenfeld,3.3.14,0,h,NA,s,NA,h,h,817,NA,54289,NA,24517,817,2,legacy,1024,2,48000,-16,experiment,SSHSS,4,even,55461,216866,NA,293445,279769,1137,251237,NA,294505,1163,NA,192348,294611,295429,294499,294611,New experiment,120,64076,126,yes,1024
95.27559055,95.27559055,508.976378,508.976378,black,legacy,legacy,legacy,0,incongruent,uniform,1,undefined,1,h,0,0,0,126,126,0,126,0,126,0,0,0,126,126,126,126,Sun Sep 24 13:53:27 2023,600,The main experiment item,yes,Flankertask.osexp,/Users/Thingtwo/Desktop,no,mono,no,18,no,white,no,yes,768,legacy,46,79,/Users/Thingtwo/Desktop/NC-subject-4.csv,legacy,Lentiform Loewenfeld,3.3.14,0,h,NA,s,NA,h,h,564,NA,54289,NA,24517,564,2,legacy,1024,2,48000,-16,experiment,SSHSS,4,even,55461,216866,NA,295946,279769,1137,295435,NA,297005,1163,NA,192348,297112,297678,297000,297112,New experiment,121,64640,127,yes,1024
95.3125,95.3125,508.90625,508.90625,black,legacy,legacy,legacy,0,incongruent,uniform,1,undefined,1,s,0,0,0,127,127,0,127,0,127,0,0,0,127,127,127,127,Sun Sep 24 13:53:27 2023,600,The main experiment item,yes,Flankertask.osexp,/Users/Thingtwo/Desktop,no,mono,no,18,no,white,no,yes,768,legacy,47,79,/Users/Thingtwo/Desktop/NC-subject-4.csv,legacy,Lentiform Loewenfeld,3.3.14,0,s,NA,s,NA,h,s,500,NA,54289,NA,24517,500,2,legacy,1024,2,48000,-16,experiment,HHSHH,4,even,55461,216866,NA,297683,279769,1137,295435,NA,298741,1163,NA,192348,298847,299348,298736,298847,New experiment,122,65140,128,yes,1024
95.34883721,95.34883721,508.2170543,508.2170543,black,legacy,legacy,legacy,0,incongruent,uniform,1,undefined,1,s,0,0,0,128,128,0,128,0,128,0,0,0,128,128,128,128,Sun Sep 24 13:53:27 2023,600,The main experiment item,yes,Flankertask.osexp,/Users/Thingtwo/Desktop,no,mono,no,18,no,white,no,yes,768,legacy,48,79,/Users/Thingtwo/Desktop/NC-subject-4.csv,legacy,Lentiform Loewenfeld,3.3.14,0,s,NA,s,NA,h,s,420,NA,54289,NA,24517,420,2,legacy,1024,2,48000,-16,experiment,HHSHH,4,even,55461,216866,NA,299353,279769,1137,295435,NA,300414,1163,NA,192348,300520,300942,300409,300520,New experiment,123,65560,129,yes,1024
95.38461538,95.38461538,508.0307692,508.0307692,black,legacy,legacy,legacy,0,congruent,uniform,1,undefined,1,s,0,0,0,129,129,0,129,0,129,0,0,0,129,129,129,129,Sun Sep 24 13:53:27 2023,600,The main experiment item,yes,Flankertask.osexp,/Users/Thingtwo/Desktop,no,mono,no,18,no,white,no,yes,768,legacy,49,79,/Users/Thingtwo/Desktop/NC-subject-4.csv,legacy,Lentiform Loewenfeld,3.3.14,0,s,NA,s,NA,h,s,484,NA,54289,NA,24517,484,2,legacy,1024,2,48000,-16,experiment,SSSSS,4,even,55461,216866,NA,300947,279769,1137,295435,NA,302005,1163,NA,192348,302111,302596,301999,302111,New experiment,124,66044,130,yes,1024
95.41984733,95.41984733,508.1908397,508.1908397,black,legacy,legacy,legacy,0,incongruent,uniform,1,undefined,1,h,0,0,0,130,130,0,130,0,130,0,0,0,130,130,130,130,Sun Sep 24 13:53:27 2023,600,The main experiment item,yes,Flankertask.osexp,/Users/Thingtwo/Desktop,no,mono,no,18,no,white,no,yes,768,legacy,50,79,/Users/Thingtwo/Desktop/NC-subject-4.csv,legacy,Lentiform Loewenfeld,3.3.14,0,h,NA,s,NA,h,h,529,NA,54289,NA,24517,529,2,legacy,1024,2,48000,-16,experiment,SSHSS,4,even,55461,216866,NA,302601,279769,1137,295435,NA,303662,1163,NA,192348,303768,304298,303657,303768,New experiment,125,66573,131,yes,1024
95.45454545,95.45454545,508.6212121,508.6212121,black,legacy,legacy,legacy,0,incongruent,uniform,1,undefined,1,h,0,0,0,131,131,0,131,0,131,0,0,0,131,131,131,131,Sun Sep 24 13:53:27 2023,600,The main experiment item,yes,Flankertask.osexp,/Users/Thingtwo/Desktop,no,mono,no,18,no,white,no,yes,768,legacy,51,79,/Users/Thingtwo/Desktop/NC-subject-4.csv,legacy,Lentiform Loewenfeld,3.3.14,0,h,NA,s,NA,h,h,565,NA,54289,NA,24517,565,2,legacy,1024,2,48000,-16,experiment,SSHSS,4,even,55461,216866,NA,304304,279769,1137,295435,NA,305363,1163,NA,192348,305469,306035,305357,305469,New experiment,126,67138,132,yes,1024
95.4887218,95.4887218,507.8571429,507.8571429,black,legacy,legacy,legacy,0,congruent,uniform,1,undefined,1,s,0,0,0,132,132,0,132,0,132,0,0,0,132,132,132,132,Sun Sep 24 13:53:27 2023,600,The main experiment item,yes,Flankertask.osexp,/Users/Thingtwo/Desktop,no,mono,no,18,no,white,no,yes,768,legacy,52,79,/Users/Thingtwo/Desktop/NC-subject-4.csv,legacy,Lentiform Loewenfeld,3.3.14,0,s,NA,s,NA,h,s,407,NA,54289,NA,24517,407,2,legacy,1024,2,48000,-16,experiment,SSSSS,4,even,55461,216866,NA,306040,279769,1137,295435,NA,307098,1163,NA,192348,307204,307612,307093,307204,New experiment,127,67545,133,yes,1024
95.52238806,95.52238806,507.3656716,507.3656716,black,legacy,legacy,legacy,0,incongruent,uniform,1,undefined,1,h,0,0,0,133,133,0,133,0,133,0,0,0,133,133,133,133,Sun Sep 24 13:53:27 2023,600,The main experiment item,yes,Flankertask.osexp,/Users/Thingtwo/Desktop,no,mono,no,18,no,white,no,yes,768,legacy,53,79,/Users/Thingtwo/Desktop/NC-subject-4.csv,legacy,Lentiform Loewenfeld,3.3.14,0,h,NA,s,NA,h,h,442,NA,54289,NA,24517,442,2,legacy,1024,2,48000,-16,experiment,SSHSS,4,even,55461,216866,NA,307618,279769,1137,295435,NA,308676,1163,NA,192348,308782,309225,308671,308782,New experiment,128,67987,134,yes,1024
95.55555556,95.55555556,507.1777778,507.1777778,black,legacy,legacy,legacy,0,incongruent,uniform,1,undefined,1,h,0,0,0,134,134,0,134,0,134,0,0,0,134,134,134,134,Sun Sep 24 13:53:27 2023,600,The main experiment item,yes,Flankertask.osexp,/Users/Thingtwo/Desktop,no,mono,no,18,no,white,no,yes,768,legacy,54,79,/Users/Thingtwo/Desktop/NC-subject-4.csv,legacy,Lentiform Loewenfeld,3.3.14,0,h,NA,s,NA,h,h,482,NA,54289,NA,24517,482,2,legacy,1024,2,48000,-16,experiment,SSHSS,4,even,55461,216866,NA,309231,279769,1137,295435,NA,310290,1163,NA,192348,310396,310879,310284,310396,New experiment,129,68469,135,yes,1024
95.58823529,95.58823529,506.8235294,506.8235294,black,legacy,legacy,legacy,0,incongruent,uniform,1,undefined,1,s,0,0,0,135,135,0,135,0,135,0,0,0,135,135,135,135,Sun Sep 24 13:53:27 2023,600,The main experiment item,yes,Flankertask.osexp,/Users/Thingtwo/Desktop,no,mono,no,18,no,white,no,yes,768,legacy,55,79,/Users/Thingtwo/Desktop/NC-subject-4.csv,legacy,Lentiform Loewenfeld,3.3.14,0,s,NA,s,NA,h,s,459,NA,54289,NA,24517,459,2,legacy,1024,2,48000,-16,experiment,HHSHH,4,even,55461,216866,NA,310885,279769,1137,295435,NA,311945,1163,NA,192348,312051,312511,311939,312051,New experiment,130,68928,136,yes,1024
95.62043796,95.62043796,506.620438,506.620438,black,legacy,legacy,legacy,0,congruent,uniform,1,undefined,1,h,0,0,0,136,136,0,136,0,136,0,0,0,136,136,136,136,Sun Sep 24 13:53:27 2023,600,The main experiment item,yes,Flankertask.osexp,/Users/Thingtwo/Desktop,no,mono,no,18,no,white,no,yes,768,legacy,56,79,/Users/Thingtwo/Desktop/NC-subject-4.csv,legacy,Lentiform Loewenfeld,3.3.14,0,h,NA,s,NA,h,h,479,NA,54289,NA,24517,479,2,legacy,1024,2,48000,-16,experiment,HHHHH,4,even,55461,216866,NA,312517,279769,1137,295435,NA,313576,1163,NA,192348,313682,314163,313571,313682,New experiment,131,69407,137,yes,1024
95.65217391,95.65217391,506.115942,506.115942,black,legacy,legacy,legacy,0,congruent,uniform,1,undefined,1,h,0,0,0,137,137,0,137,0,137,0,0,0,137,137,137,137,Sun Sep 24 13:53:27 2023,600,The main experiment item,yes,Flankertask.osexp,/Users/Thingtwo/Desktop,no,mono,no,18,no,white,no,yes,768,legacy,57,79,/Users/Thingtwo/Desktop/NC-subject-4.csv,legacy,Lentiform Loewenfeld,3.3.14,0,h,NA,s,NA,h,h,437,NA,54289,NA,24517,437,2,legacy,1024,2,48000,-16,experiment,HHHHH,4,even,55461,216866,NA,314168,279769,1137,295435,NA,315226,1163,NA,192348,315332,315770,315221,315332,New experiment,132,69844,138,yes,1024
95.68345324,95.68345324,505.2589928,505.2589928,black,legacy,legacy,legacy,0,congruent,uniform,1,undefined,1,s,0,0,0,138,138,0,138,0,138,0,0,0,138,138,138,138,Sun Sep 24 13:53:27 2023,600,The main experiment item,yes,Flankertask.osexp,/Users/Thingtwo/Desktop,no,mono,no,18,no,white,no,yes,768,legacy,58,79,/Users/Thingtwo/Desktop/NC-subject-4.csv,legacy,Lentiform Loewenfeld,3.3.14,0,s,NA,s,NA,h,s,387,NA,54289,NA,24517,387,2,legacy,1024,2,48000,-16,experiment,SSSSS,4,even,55461,216866,NA,315775,279769,1137,295435,NA,316835,1163,NA,192348,316941,317329,316829,316941,New experiment,133,70231,139,yes,1024
95.71428571,95.71428571,504.9571429,504.9571429,black,legacy,legacy,legacy,0,incongruent,uniform,1,undefined,1,h,0,0,0,139,139,0,139,0,139,0,0,0,139,139,139,139,Sun Sep 24 13:53:27 2023,600,The main experiment item,yes,Flankertask.osexp,/Users/Thingtwo/Desktop,no,mono,no,18,no,white,no,yes,768,legacy,59,79,/Users/Thingtwo/Desktop/NC-subject-4.csv,legacy,Lentiform Loewenfeld,3.3.14,0,h,NA,s,NA,h,h,463,NA,54289,NA,24517,463,2,legacy,1024,2,48000,-16,experiment,SSHSS,4,even,55461,216866,NA,317334,279769,1137,295435,NA,318393,1163,NA,192348,318499,318963,318388,318499,New experiment,134,70694,140,yes,1024
95.74468085,95.74468085,504.6950355,504.6950355,black,legacy,legacy,legacy,0,congruent,uniform,1,undefined,1,h,0,0,0,140,140,0,140,0,140,0,0,0,140,140,140,140,Sun Sep 24 13:53:27 2023,600,The main experiment item,yes,Flankertask.osexp,/Users/Thingtwo/Desktop,no,mono,no,18,no,white,no,yes,768,legacy,60,79,/Users/Thingtwo/Desktop/NC-subject-4.csv,legacy,Lentiform Loewenfeld,3.3.14,0,h,NA,s,NA,h,h,468,NA,54289,NA,24517,468,2,legacy,1024,2,48000,-16,experiment,HHHHH,4,even,55461,216866,NA,318969,279769,1137,295435,NA,320028,1163,NA,192348,320134,320603,320023,320134,New experiment,135,71162,141,yes,1024
95.77464789,95.77464789,504.443662,504.443662,black,legacy,legacy,legacy,0,incongruent,uniform,1,undefined,1,s,0,0,0,141,141,0,141,0,141,0,0,0,141,141,141,141,Sun Sep 24 13:53:27 2023,600,The main experiment item,yes,Flankertask.osexp,/Users/Thingtwo/Desktop,no,mono,no,18,no,white,no,yes,768,legacy,61,79,/Users/Thingtwo/Desktop/NC-subject-4.csv,legacy,Lentiform Loewenfeld,3.3.14,0,s,NA,s,NA,h,s,469,NA,54289,NA,24517,469,2,legacy,1024,2,48000,-16,experiment,HHSHH,4,even,55461,216866,NA,320608,279769,1137,295435,NA,321669,1163,NA,192348,321775,322246,321663,321775,New experiment,136,71631,142,yes,1024
95.8041958,95.8041958,504.013986,504.013986,black,legacy,legacy,legacy,0,congruent,uniform,1,undefined,1,h,0,0,0,142,142,0,142,0,142,0,0,0,142,142,142,142,Sun Sep 24 13:53:27 2023,600,The main experiment item,yes,Flankertask.osexp,/Users/Thingtwo/Desktop,no,mono,no,18,no,white,no,yes,768,legacy,62,79,/Users/Thingtwo/Desktop/NC-subject-4.csv,legacy,Lentiform Loewenfeld,3.3.14,0,h,NA,s,NA,h,h,443,NA,54289,NA,24517,443,2,legacy,1024,2,48000,-16,experiment,HHHHH,4,even,55461,216866,NA,322251,279769,1137,295435,NA,323311,1163,NA,192348,323417,323862,323306,323417,New experiment,137,72074,143,yes,1024
95.83333333,95.83333333,503.7638889,503.7638889,black,legacy,legacy,legacy,0,incongruent,uniform,1,undefined,1,s,0,0,0,143,143,0,143,0,143,0,0,0,143,143,143,143,Sun Sep 24 13:53:27 2023,600,The main experiment item,yes,Flankertask.osexp,/Users/Thingtwo/Desktop,no,mono,no,18,no,white,no,yes,768,legacy,63,79,/Users/Thingtwo/Desktop/NC-subject-4.csv,legacy,Lentiform Loewenfeld,3.3.14,0,s,NA,s,NA,h,s,468,NA,54289,NA,24517,468,2,legacy,1024,2,48000,-16,experiment,HHSHH,4,even,55461,216866,NA,323867,279769,1137,295435,NA,324926,1163,NA,192348,325032,325502,324920,325032,New experiment,138,72542,144,yes,1024
95.86206897,95.86206897,503.0896552,503.0896552,black,legacy,legacy,legacy,0,congruent,uniform,1,undefined,1,s,0,0,0,144,144,0,144,0,144,0,0,0,144,144,144,144,Sun Sep 24 13:53:27 2023,600,The main experiment item,yes,Flankertask.osexp,/Users/Thingtwo/Desktop,no,mono,no,18,no,white,no,yes,768,legacy,64,79,/Users/Thingtwo/Desktop/NC-subject-4.csv,legacy,Lentiform Loewenfeld,3.3.14,0,s,NA,s,NA,h,s,406,NA,54289,NA,24517,406,2,legacy,1024,2,48000,-16,experiment,SSSSS,4,even,55461,216866,NA,325507,279769,1137,295435,NA,326566,1163,NA,192348,326672,327079,326561,326672,New experiment,139,72948,145,yes,1024
95.89041096,95.89041096,502.7808219,502.7808219,black,legacy,legacy,legacy,0,incongruent,uniform,1,undefined,1,h,0,0,0,145,145,0,145,0,145,0,0,0,145,145,145,145,Sun Sep 24 13:53:27 2023,600,The main experiment item,yes,Flankertask.osexp,/Users/Thingtwo/Desktop,no,mono,no,18,no,white,no,yes,768,legacy,65,79,/Users/Thingtwo/Desktop/NC-subject-4.csv,legacy,Lentiform Loewenfeld,3.3.14,0,h,NA,s,NA,h,h,458,NA,54289,NA,24517,458,2,legacy,1024,2,48000,-16,experiment,SSHSS,4,even,55461,216866,NA,327085,279769,1137,295435,NA,328145,1163,NA,192348,328251,328710,328140,328251,New experiment,140,73406,146,yes,1024
95.91836735,95.91836735,502.5034014,502.5034014,black,legacy,legacy,legacy,0,congruent,uniform,1,undefined,1,h,0,0,0,146,146,0,146,0,146,0,0,0,146,146,146,146,Sun Sep 24 13:53:27 2023,600,The main experiment item,yes,Flankertask.osexp,/Users/Thingtwo/Desktop,no,mono,no,18,no,white,no,yes,768,legacy,66,79,/Users/Thingtwo/Desktop/NC-subject-4.csv,legacy,Lentiform Loewenfeld,3.3.14,0,h,NA,s,NA,h,h,462,NA,54289,NA,24517,462,2,legacy,1024,2,48000,-16,experiment,HHHHH,4,even,55461,216866,NA,328715,279769,1137,295435,NA,329777,1163,NA,192348,329883,330347,329771,329883,New experiment,141,73868,147,yes,1024
95.94594595,95.94594595,503.1351351,503.1351351,black,legacy,legacy,legacy,0,incongruent,uniform,1,undefined,1,h,0,0,0,147,147,0,147,0,147,0,0,0,147,147,147,147,Sun Sep 24 13:53:27 2023,600,The main experiment item,yes,Flankertask.osexp,/Users/Thingtwo/Desktop,no,mono,no,18,no,white,no,yes,768,legacy,67,79,/Users/Thingtwo/Desktop/NC-subject-4.csv,legacy,Lentiform Loewenfeld,3.3.14,0,h,NA,s,NA,h,h,596,NA,54289,NA,24517,596,2,legacy,1024,2,48000,-16,experiment,SSHSS,4,even,55461,216866,NA,330353,279769,1137,295435,NA,331411,1163,NA,192348,331517,332114,331406,331517,New experiment,142,74464,148,yes,1024
95.97315436,95.97315436,502.5838926,502.5838926,black,legacy,legacy,legacy,0,congruent,uniform,1,undefined,1,s,0,0,0,148,148,0,148,0,148,0,0,0,148,148,148,148,Sun Sep 24 13:53:27 2023,600,The main experiment item,yes,Flankertask.osexp,/Users/Thingtwo/Desktop,no,mono,no,18,no,white,no,yes,768,legacy,68,79,/Users/Thingtwo/Desktop/NC-subject-4.csv,legacy,Lentiform Loewenfeld,3.3.14,0,s,NA,s,NA,h,s,421,NA,54289,NA,24517,421,2,legacy,1024,2,48000,-16,experiment,SSSSS,4,even,55461,216866,NA,332120,279769,1137,295435,NA,333180,1163,NA,192348,333286,333709,333174,333286,New experiment,143,74885,149,yes,1024
96,96,502.7466667,502.7466667,black,legacy,legacy,legacy,0,incongruent,uniform,1,undefined,1,h,0,0,0,149,149,0,149,0,149,0,0,0,149,149,149,149,Sun Sep 24 13:53:27 2023,600,The main experiment item,yes,Flankertask.osexp,/Users/Thingtwo/Desktop,no,mono,no,18,no,white,no,yes,768,legacy,69,79,/Users/Thingtwo/Desktop/NC-subject-4.csv,legacy,Lentiform Loewenfeld,3.3.14,0,h,NA,s,NA,h,h,527,NA,54289,NA,24517,527,2,legacy,1024,2,48000,-16,experiment,SSHSS,4,even,55461,216866,NA,333714,279769,1137,295435,NA,334776,1163,NA,192348,334882,335410,334770,334882,New experiment,144,75412,150,yes,1024
96.02649007,96.02649007,503.0662252,503.0662252,black,legacy,legacy,legacy,0,incongruent,uniform,1,undefined,1,s,0,0,0,150,150,0,150,0,150,0,0,0,150,150,150,150,Sun Sep 24 13:53:27 2023,600,The main experiment item,yes,Flankertask.osexp,/Users/Thingtwo/Desktop,no,mono,no,18,no,white,no,yes,768,legacy,70,79,/Users/Thingtwo/Desktop/NC-subject-4.csv,legacy,Lentiform Loewenfeld,3.3.14,0,s,NA,s,NA,h,s,551,NA,54289,NA,24517,551,2,legacy,1024,2,48000,-16,experiment,HHSHH,4,even,55461,216866,NA,335415,279769,1137,295435,NA,336475,1163,NA,192348,336581,337134,336470,336581,New experiment,145,75963,151,yes,1024
96.05263158,96.05263158,503.0263158,503.0263158,black,legacy,legacy,legacy,0,congruent,uniform,1,undefined,1,h,0,0,0,151,151,0,151,0,151,0,0,0,151,151,151,151,Sun Sep 24 13:53:27 2023,600,The main experiment item,yes,Flankertask.osexp,/Users/Thingtwo/Desktop,no,mono,no,18,no,white,no,yes,768,legacy,71,79,/Users/Thingtwo/Desktop/NC-subject-4.csv,legacy,Lentiform Loewenfeld,3.3.14,0,h,NA,s,NA,h,h,497,NA,54289,NA,24517,497,2,legacy,1024,2,48000,-16,experiment,HHHHH,4,even,55461,216866,NA,337139,279769,1137,295435,NA,338199,1163,NA,192348,338305,338804,338193,338305,New experiment,146,76460,152,yes,1024
96.07843137,96.07843137,502.7647059,502.7647059,black,legacy,legacy,legacy,0,congruent,uniform,1,undefined,1,h,0,0,0,152,152,0,152,0,152,0,0,0,152,152,152,152,Sun Sep 24 13:53:27 2023,600,The main experiment item,yes,Flankertask.osexp,/Users/Thingtwo/Desktop,no,mono,no,18,no,white,no,yes,768,legacy,72,79,/Users/Thingtwo/Desktop/NC-subject-4.csv,legacy,Lentiform Loewenfeld,3.3.14,0,h,NA,s,NA,h,h,463,NA,54289,NA,24517,463,2,legacy,1024,2,48000,-16,experiment,HHHHH,4,even,55461,216866,NA,338809,279769,1137,295435,NA,339869,1163,NA,192348,339975,340439,339863,339975,New experiment,147,76923,153,yes,1024
96.1038961,96.1038961,502.1493506,502.1493506,black,legacy,legacy,legacy,0,congruent,uniform,1,undefined,1,h,0,0,0,153,153,0,153,0,153,0,0,0,153,153,153,153,Sun Sep 24 13:53:27 2023,600,The main experiment item,yes,Flankertask.osexp,/Users/Thingtwo/Desktop,no,mono,no,18,no,white,no,yes,768,legacy,73,79,/Users/Thingtwo/Desktop/NC-subject-4.csv,legacy,Lentiform Loewenfeld,3.3.14,0,h,NA,s,NA,h,h,408,NA,54289,NA,24517,408,2,legacy,1024,2,48000,-16,experiment,HHHHH,4,even,55461,216866,NA,340445,279769,1137,295435,NA,341505,1163,NA,192348,341611,342021,341500,341611,New experiment,148,77331,154,yes,1024
96.12903226,96.12903226,501.516129,501.516129,black,legacy,legacy,legacy,0,incongruent,uniform,1,undefined,1,s,0,0,0,154,154,0,154,0,154,0,0,0,154,154,154,154,Sun Sep 24 13:53:27 2023,600,The main experiment item,yes,Flankertask.osexp,/Users/Thingtwo/Desktop,no,mono,no,18,no,white,no,yes,768,legacy,74,79,/Users/Thingtwo/Desktop/NC-subject-4.csv,legacy,Lentiform Loewenfeld,3.3.14,0,s,NA,s,NA,h,s,404,NA,54289,NA,24517,404,2,legacy,1024,2,48000,-16,experiment,HHSHH,4,even,55461,216866,NA,342026,279769,1137,295435,NA,343087,1163,NA,192348,343193,343598,343081,343193,New experiment,149,77735,155,yes,1024
96.15384615,96.15384615,501.1666667,501.1666667,black,legacy,legacy,legacy,0,congruent,uniform,1,undefined,1,h,0,0,0,155,155,0,155,0,155,0,0,0,155,155,155,155,Sun Sep 24 13:53:27 2023,600,The main experiment item,yes,Flankertask.osexp,/Users/Thingtwo/Desktop,no,mono,no,18,no,white,no,yes,768,legacy,75,79,/Users/Thingtwo/Desktop/NC-subject-4.csv,legacy,Lentiform Loewenfeld,3.3.14,0,h,NA,s,NA,h,h,447,NA,54289,NA,24517,447,2,legacy,1024,2,48000,-16,experiment,HHHHH,4,even,55461,216866,NA,343603,279769,1137,295435,NA,344663,1163,NA,192348,344769,345217,344658,344769,New experiment,150,78182,156,yes,1024
96.17834395,96.17834395,500.9617834,500.9617834,black,legacy,legacy,legacy,0,congruent,uniform,1,undefined,1,h,0,0,0,156,156,0,156,0,156,0,0,0,156,156,156,156,Sun Sep 24 13:53:27 2023,600,The main experiment item,yes,Flankertask.osexp,/Users/Thingtwo/Desktop,no,mono,no,18,no,white,no,yes,768,legacy,76,79,/Users/Thingtwo/Desktop/NC-subject-4.csv,legacy,Lentiform Loewenfeld,3.3.14,0,h,NA,s,NA,h,h,469,NA,54289,NA,24517,469,2,legacy,1024,2,48000,-16,experiment,HHHHH,4,even,55461,216866,NA,345223,279769,1137,295435,NA,346284,1163,NA,192348,346390,346860,346278,346390,New experiment,151,78651,157,yes,1024
96.20253165,96.20253165,500.5886076,500.5886076,black,legacy,legacy,legacy,0,congruent,uniform,1,undefined,1,s,0,0,0,157,157,0,157,0,157,0,0,0,157,157,157,157,Sun Sep 24 13:53:27 2023,600,The main experiment item,yes,Flankertask.osexp,/Users/Thingtwo/Desktop,no,mono,no,18,no,white,no,yes,768,legacy,77,79,/Users/Thingtwo/Desktop/NC-subject-4.csv,legacy,Lentiform Loewenfeld,3.3.14,0,s,NA,s,NA,h,s,442,NA,54289,NA,24517,442,2,legacy,1024,2,48000,-16,experiment,SSSSS,4,even,55461,216866,NA,346866,279769,1137,295435,NA,347928,1163,NA,192348,348034,348477,347922,348034,New experiment,152,79093,158,yes,1024
96.22641509,96.22641509,500.0754717,500.0754717,black,legacy,legacy,legacy,0,incongruent,uniform,1,undefined,1,s,0,0,0,158,158,0,158,0,158,0,0,0,158,158,158,158,Sun Sep 24 13:53:27 2023,600,The main experiment item,yes,Flankertask.osexp,/Users/Thingtwo/Desktop,no,mono,no,18,no,white,no,yes,768,legacy,78,79,/Users/Thingtwo/Desktop/NC-subject-4.csv,legacy,Lentiform Loewenfeld,3.3.14,0,s,NA,s,NA,h,s,419,NA,54289,NA,24517,419,2,legacy,1024,2,48000,-16,experiment,HHSHH,4,even,55461,216866,NA,348483,279769,1137,295435,NA,349542,1163,NA,192348,349648,350068,349537,349648,New experiment,153,79512,159,yes,1024
96.25,96.25,500.075,500.075,black,legacy,legacy,legacy,0,incongruent,uniform,1,undefined,1,h,0,0,0,159,159,0,159,0,159,0,0,0,159,159,159,159,Sun Sep 24 13:53:27 2023,600,The main experiment item,yes,Flankertask.osexp,/Users/Thingtwo/Desktop,no,mono,no,18,no,white,no,yes,768,legacy,79,79,/Users/Thingtwo/Desktop/NC-subject-4.csv,legacy,Lentiform Loewenfeld,3.3.14,0,h,NA,s,NA,h,h,500,NA,54289,NA,24517,500,2,legacy,1024,2,48000,-16,experiment,SSHSS,4,even,55461,216866,NA,350074,279769,1137,295435,NA,351134,1163,NA,192348,351240,351742,351128,351240,New experiment,154,80012,160,yes,1024
96.27329193,96.27329193,499.8509317,499.8509317,black,legacy,legacy,legacy,0,congruent,uniform,1,undefined,1,s,0,0,0,160,160,0,160,0,160,0,0,0,160,160,160,160,Sun Sep 24 13:53:27 2023,300,The main experiment item,yes,Flankertask.osexp,/Users/Thingtwo/Desktop,no,mono,no,18,no,white,no,yes,768,legacy,0,79,/Users/Thingtwo/Desktop/NC-subject-4.csv,legacy,Lentiform Loewenfeld,3.3.14,0,s,NA,s,h,h,s,464,NA,54289,5495,24517,464,2,legacy,1024,2,48000,-16,experiment,SSSSS,4,even,55461,216866,358285,351747,279769,1137,295435,NA,358308,1163,352789,192348,358414,358879,358303,358413,New experiment,155,80476,161,yes,1024
95.67901235,95.67901235,498.6234568,498.6234568,black,legacy,legacy,legacy,0,incongruent,uniform,0,undefined,0,h,0,0,0,161,161,0,161,0,161,0,0,0,161,161,161,161,Sun Sep 24 13:53:27 2023,300,The main experiment item,yes,Flankertask.osexp,/Users/Thingtwo/Desktop,no,mono,no,18,no,white,no,yes,768,legacy,1,79,/Users/Thingtwo/Desktop/NC-subject-4.csv,legacy,Lentiform Loewenfeld,3.3.14,0,s,NA,s,h,h,s,301,NA,54289,5495,24517,301,2,legacy,1024,2,48000,-16,experiment,SSHSS,4,even,55461,216866,358285,359396,279769,1137,358885,NA,360458,1163,352789,192348,360564,360866,360452,360564,New experiment,155,80777,162,yes,1024
95.70552147,95.70552147,498.0613497,498.0613497,black,legacy,legacy,legacy,0,congruent,uniform,1,undefined,1,s,0,0,0,162,162,0,162,0,162,0,0,0,162,162,162,162,Sun Sep 24 13:53:27 2023,300,The main experiment item,yes,Flankertask.osexp,/Users/Thingtwo/Desktop,no,mono,no,18,no,white,no,yes,768,legacy,2,79,/Users/Thingtwo/Desktop/NC-subject-4.csv,legacy,Lentiform Loewenfeld,3.3.14,0,s,NA,s,h,h,s,407,NA,54289,5495,24517,407,2,legacy,1024,2,48000,-16,experiment,SSSSS,4,even,55461,216866,358285,361897,360871,1137,361384,NA,362958,1163,352789,192348,363064,363472,362952,363064,New experiment,156,81184,163,yes,1024
95.73170732,95.73170732,497.6036585,497.6036585,black,legacy,legacy,legacy,0,congruent,uniform,1,undefined,1,s,0,0,0,163,163,0,163,0,163,0,0,0,163,163,163,163,Sun Sep 24 13:53:27 2023,300,The main experiment item,yes,Flankertask.osexp,/Users/Thingtwo/Desktop,no,mono,no,18,no,white,no,yes,768,legacy,3,79,/Users/Thingtwo/Desktop/NC-subject-4.csv,legacy,Lentiform Loewenfeld,3.3.14,0,s,NA,s,h,h,s,423,NA,54289,5495,24517,423,2,legacy,1024,2,48000,-16,experiment,SSSSS,4,even,55461,216866,358285,363990,360871,1137,363478,NA,365051,1163,352789,192348,365157,365581,365045,365157,New experiment,157,81607,164,yes,1024
95.15151515,95.15151515,496.2121212,496.2121212,black,legacy,legacy,legacy,0,congruent,uniform,0,undefined,0,s,0,0,0,164,164,0,164,0,164,0,0,0,164,164,164,164,Sun Sep 24 13:53:27 2023,300,The main experiment item,yes,Flankertask.osexp,/Users/Thingtwo/Desktop,no,mono,no,18,no,white,no,yes,768,legacy,4,79,/Users/Thingtwo/Desktop/NC-subject-4.csv,legacy,Lentiform Loewenfeld,3.3.14,0,h,NA,s,h,h,h,268,NA,54289,5495,24517,268,2,legacy,1024,2,48000,-16,experiment,SSSSS,4,even,55461,216866,358285,366099,360871,1137,365586,NA,367157,1163,352789,192348,367263,367532,367152,367263,New experiment,157,81875,165,yes,1024
94.57831325,94.57831325,494.2108434,494.2108434,black,legacy,legacy,legacy,0,incongruent,uniform,0,undefined,0,s,0,0,0,165,165,0,165,0,165,0,0,0,165,165,165,165,Sun Sep 24 13:53:27 2023,300,The main experiment item,yes,Flankertask.osexp,/Users/Thingtwo/Desktop,no,mono,no,18,no,white,no,yes,768,legacy,5,79,/Users/Thingtwo/Desktop/NC-subject-4.csv,legacy,Lentiform Loewenfeld,3.3.14,0,h,NA,s,h,h,h,164,NA,54289,5495,24517,164,2,legacy,1024,2,48000,-16,experiment,HHSHH,4,even,55461,216866,358285,368048,367538,1137,365586,NA,369107,1163,352789,192348,369213,369378,369102,369213,New experiment,157,82039,166,yes,1024
94.61077844,94.61077844,492.6047904,492.6047904,black,legacy,legacy,legacy,0,incongruent,uniform,1,undefined,1,h,0,0,0,166,166,0,166,0,166,0,0,0,166,166,166,166,Sun Sep 24 13:53:27 2023,300,The main experiment item,yes,Flankertask.osexp,/Users/Thingtwo/Desktop,no,mono,no,18,no,white,no,yes,768,legacy,6,79,/Users/Thingtwo/Desktop/NC-subject-4.csv,legacy,Lentiform Loewenfeld,3.3.14,0,h,NA,s,h,h,h,226,NA,54289,5495,24517,226,2,legacy,1024,2,48000,-16,experiment,SSHSS,4,even,55461,216866,358285,369894,369383,1137,365586,NA,370954,1163,352789,192348,371060,371287,370949,371060,New experiment,158,82265,167,yes,1024
