"acc","accuracy","average_response_time","avg_rt","background","canvas_backend","clock_backend","color_backend","compensation","condition","coordinates","correct","correct_Instruction1","correct_keyboard_response","correct_response","count_Block1","count_Block2","count_Block3","count_Instruction1","count_errorfeedback","count_experiment","count_faster","count_finish","count_fixation","count_instructions2","count_instructions2_1","count_instructions3","count_instructions3_1","count_isi","count_keyboard_response","count_logger","count_new_sketchpad_1","count_sequence","count_sketchpad","count_stimulus","count_welcome","datetime","deadline","description","disable_garbage_collection","experiment_file","experiment_path","font_bold","font_family","font_italic","font_size","font_underline","foreground","form_clicks","fullscreen","height","keyboard_backend","live_row","live_row_Block1","logfile","mouse_backend","opensesame_codename","opensesame_version","repeat_cycle","response","response_Instruction1","response_finish","response_instructions2","response_instructions2_1","response_instructions3","response_instructions3_1","response_keyboard_response","response_new_sketchpad_1","response_sketchpad","response_time","response_time_Instruction1","response_time_finish","response_time_instructions2","response_time_instructions2_1","response_time_instructions3","response_time_instructions3_1","response_time_keyboard_response","response_time_new_sketchpad_1","response_time_sketchpad","response_time_welcome","response_welcome","round_decimals","sampler_backend","sound_buf_size","sound_channels","sound_freq","sound_sample_size","start","stimulus","subject_nr","subject_parity","time_Block1","time_Block2","time_Block3","time_Instruction1","time_errorfeedback","time_experiment","time_faster","time_finish","time_fixation","time_instructions2","time_instructions2_1","time_instructions3","time_instructions3_1","time_isi","time_keyboard_response","time_logger","time_new_sketchpad_1","time_sequence","time_sketchpad","time_stimulus","time_welcome","title","total_correct","total_response_time","total_responses","uniform_coordinates","width"
"0","0","1500","1500","black","legacy","legacy","legacy","0","congruent","uniform","0","undefined","0","s","0","0","0","0","0","0","0","0","0","NA","0","NA","0","0","0","0","NA","0","NA","0","NA","09/21/22 11:37:35","1500","The main experiment item","yes","FlankerTask.osexp","C:\Users\olasa\OneDrive\Desktop","no","mono","no","18","no","white","no","yes","768","legacy","0","0","C:/Users/olasa/OneDrive/Desktop/OL-subject-2.csv","legacy","Lentiform Loewenfeld","3.3.12","0","None","s","NA","NA","NA","NA","NA","None","NA","NA","1500","33059","NA","NA","NA","NA","NA","1500","NA","NA","NA","NA","2","legacy","1024","2","48000","-16","experiment","SSSSS","2","even","35552","NA","NA","2492","NA","2480","NA","NA","35750","NA","NA","NA","NA","NA","35853","37353","NA","35745","NA","35853","NA","Flanker Task","0","1500","1","yes","1024"
"50","50","1185","1185","black","legacy","legacy","legacy","0","incongruent","uniform","1","undefined","1","s","0","0","0","0","1","0","1","0","1","NA","0","NA","0","1","1","1","NA","1","NA","1","NA","09/21/22 11:37:35","1500","The main experiment item","yes","FlankerTask.osexp","C:\Users\olasa\OneDrive\Desktop","no","mono","no","18","no","white","no","yes","768","legacy","1","1","C:/Users/olasa/OneDrive/Desktop/OL-subject-2.csv","legacy","Lentiform Loewenfeld","3.3.12","0","s","s","NA","NA","NA","NA","NA","s","NA","NA","870","33059","NA","NA","NA","NA","NA","870","NA","NA","NA","NA","2","legacy","1024","2","48000","-16","experiment","HHSHH","2","even","35552","NA","NA","2492","37392","2480","NA","NA","38969","NA","NA","NA","NA","37895","39072","39943","NA","38967","NA","39072","NA","Flanker Task","1","2370","2","yes","1024"
"66.6666666667","66.6666666667","992","992","black","legacy","legacy","legacy","0","congruent","uniform","1","undefined","1","h","0","0","0","0","2","0","2","0","2","NA","0","NA","0","2","2","2","NA","2","NA","2","NA","09/21/22 11:37:35","1500","The main experiment item","yes","FlankerTask.osexp","C:\Users\olasa\OneDrive\Desktop","no","mono","no","18","no","white","no","yes","768","legacy","2","2","C:/Users/olasa/OneDrive/Desktop/OL-subject-2.csv","legacy","Lentiform Loewenfeld","3.3.12","0","h","s","NA","NA","NA","NA","NA","h","NA","NA","606","33059","NA","NA","NA","NA","NA","606","NA","NA","NA","NA","2","legacy","1024","2","48000","-16","experiment","HHHHH","2","even","35552","NA","NA","2492","37392","2480","NA","NA","41033","NA","NA","NA","NA","39950","41135","41742","NA","41031","NA","41134","NA","Flanker Task","2","2976","3","yes","1024"
"75","75","894","894","black","legacy","legacy","legacy","0","incongruent","uniform","1","undefined","1","h","0","0","0","0","3","0","3","0","3","NA","0","NA","0","3","3","3","NA","3","NA","3","NA","09/21/22 11:37:35","1500","The main experiment item","yes","FlankerTask.osexp","C:\Users\olasa\OneDrive\Desktop","no","mono","no","18","no","white","no","yes","768","legacy","3","3","C:/Users/olasa/OneDrive/Desktop/OL-subject-2.csv","legacy","Lentiform Loewenfeld","3.3.12","0","h","s","NA","NA","NA","NA","NA","h","NA","NA","600","33059","NA","NA","NA","NA","NA","600","NA","NA","NA","NA","2","legacy","1024","2","48000","-16","experiment","SSHSS","2","even","35552","NA","NA","2492","37392","2480","NA","NA","42823","NA","NA","NA","NA","41752","42926","43527","NA","42821","NA","42926","NA","Flanker Task","3","3576","4","yes","1024"
"80","80","835.2","835.2","black","legacy","legacy","legacy","0","congruent","uniform","1","undefined","1","h","0","0","0","0","4","0","4","0","4","NA","0","NA","0","4","4","4","NA","4","NA","4","NA","09/21/22 11:37:35","1500","The main experiment item","yes","FlankerTask.osexp","C:\Users\olasa\OneDrive\Desktop","no","mono","no","18","no","white","no","yes","768","legacy","4","4","C:/Users/olasa/OneDrive/Desktop/OL-subject-2.csv","legacy","Lentiform Loewenfeld","3.3.12","0","h","s","NA","NA","NA","NA","NA","h","NA","NA","600","33059","NA","NA","NA","NA","NA","600","NA","NA","NA","NA","2","legacy","1024","2","48000","-16","experiment","HHHHH","2","even","35552","NA","NA","2492","37392","2480","NA","NA","44607","NA","NA","NA","NA","43536","44710","45310","NA","44605","NA","44710","NA","Flanker Task","4","4176","5","yes","1024"
"83.3333333333","83.3333333333","792.5","792.5","black","legacy","legacy","legacy","0","incongruent","uniform","1","undefined","1","h","0","0","0","0","5","0","5","0","5","NA","0","NA","0","5","5","5","NA","5","NA","5","NA","09/21/22 11:37:35","1500","The main experiment item","yes","FlankerTask.osexp","C:\Users\olasa\OneDrive\Desktop","no","mono","no","18","no","white","no","yes","768","legacy","5","5","C:/Users/olasa/OneDrive/Desktop/OL-subject-2.csv","legacy","Lentiform Loewenfeld","3.3.12","0","h","s","NA","NA","NA","NA","NA","h","NA","NA","579","33059","NA","NA","NA","NA","NA","579","NA","NA","NA","NA","2","legacy","1024","2","48000","-16","experiment","SSHSS","2","even","35552","NA","NA","2492","37392","2480","NA","NA","46412","NA","NA","NA","NA","45340","46515","47095","NA","46411","NA","46515","NA","Flanker Task","5","4755","6","yes","1024"
"85.7142857143","85.7142857143","763.571428571","763.571428571","black","legacy","legacy","legacy","0","congruent","uniform","1","undefined","1","h","0","0","0","0","6","0","6","0","6","NA","0","NA","0","6","6","6","NA","6","NA","6","NA","09/21/22 11:37:35","1500","The main experiment item","yes","FlankerTask.osexp","C:\Users\olasa\OneDrive\Desktop","no","mono","no","18","no","white","no","yes","768","legacy","6","6","C:/Users/olasa/OneDrive/Desktop/OL-subject-2.csv","legacy","Lentiform Loewenfeld","3.3.12","0","h","s","NA","NA","NA","NA","NA","h","NA","NA","590","33059","NA","NA","NA","NA","NA","590","NA","NA","NA","NA","2","legacy","1024","2","48000","-16","experiment","HHHHH","2","even","35552","NA","NA","2492","37392","2480","NA","NA","48177","NA","NA","NA","NA","47106","48280","48871","NA","48175","NA","48280","NA","Flanker Task","6","5345","7","yes","1024"
"87.5","87.5","750.5","750.5","black","legacy","legacy","legacy","0","congruent","uniform","1","undefined","1","h","0","0","0","0","7","0","7","0","7","NA","0","NA","0","7","7","7","NA","7","NA","7","NA","09/21/22 11:37:35","1500","The main experiment item","yes","FlankerTask.osexp","C:\Users\olasa\OneDrive\Desktop","no","mono","no","18","no","white","no","yes","768","legacy","7","7","C:/Users/olasa/OneDrive/Desktop/OL-subject-2.csv","legacy","Lentiform Loewenfeld","3.3.12","0","h","s","NA","NA","NA","NA","NA","h","NA","NA","659","33059","NA","NA","NA","NA","NA","659","NA","NA","NA","NA","2","legacy","1024","2","48000","-16","experiment","HHHHH","2","even","35552","NA","NA","2492","37392","2480","NA","NA","49948","NA","NA","NA","NA","48880","50051","50711","NA","49946","NA","50051","NA","Flanker Task","7","6004","8","yes","1024"
"88.8888888889","88.8888888889","743.444444444","743.444444444","black","legacy","legacy","legacy","0","congruent","uniform","1","undefined","1","h","0","0","0","0","8","0","8","0","8","NA","0","NA","0","8","8","8","NA","8","NA","8","NA","09/21/22 11:37:35","1500","The main experiment item","yes","FlankerTask.osexp","C:\Users\olasa\OneDrive\Desktop","no","mono","no","18","no","white","no","yes","768","legacy","8","8","C:/Users/olasa/OneDrive/Desktop/OL-subject-2.csv","legacy","Lentiform Loewenfeld","3.3.12","0","h","s","NA","NA","NA","NA","NA","h","NA","NA","687","33059","NA","NA","NA","NA","NA","687","NA","NA","NA","NA","2","legacy","1024","2","48000","-16","experiment","HHHHH","2","even","35552","NA","NA","2492","37392","2480","NA","NA","51792","NA","NA","NA","NA","50722","51895","52584","NA","51789","NA","51895","NA","Flanker Task","8","6691","9","yes","1024"
"90","90","739.3","739.3","black","legacy","legacy","legacy","0","congruent","uniform","1","undefined","1","s","0","0","0","0","9","0","9","0","9","NA","0","NA","0","9","9","9","NA","9","NA","9","NA","09/21/22 11:37:35","1500","The main experiment item","yes","FlankerTask.osexp","C:\Users\olasa\OneDrive\Desktop","no","mono","no","18","no","white","no","yes","768","legacy","9","9","C:/Users/olasa/OneDrive/Desktop/OL-subject-2.csv","legacy","Lentiform Loewenfeld","3.3.12","0","s","s","NA","NA","NA","NA","NA","s","NA","NA","702","33059","NA","NA","NA","NA","NA","702","NA","NA","NA","NA","2","legacy","1024","2","48000","-16","experiment","SSSSS","2","even","35552","NA","NA","2492","37392","2480","NA","NA","53664","NA","NA","NA","NA","52597","53767","54470","NA","53662","NA","53767","NA","Flanker Task","9","7393","10","yes","1024"
"90.9090909091","90.9090909091","737.909090909","737.909090909","black","legacy","legacy","legacy","0","incongruent","uniform","1","undefined","1","h","0","0","0","0","10","0","10","0","10","NA","0","NA","0","10","10","10","NA","10","NA","10","NA","09/21/22 11:37:35","1500","The main experiment item","yes","FlankerTask.osexp","C:\Users\olasa\OneDrive\Desktop","no","mono","no","18","no","white","no","yes","768","legacy","10","10","C:/Users/olasa/OneDrive/Desktop/OL-subject-2.csv","legacy","Lentiform Loewenfeld","3.3.12","0","h","s","NA","NA","NA","NA","NA","h","NA","NA","724","33059","NA","NA","NA","NA","NA","724","NA","NA","NA","NA","2","legacy","1024","2","48000","-16","experiment","SSHSS","2","even","35552","NA","NA","2492","37392","2480","NA","NA","55571","NA","NA","NA","NA","54500","55674","56400","NA","55568","NA","55673","NA","Flanker Task","10","8117","11","yes","1024"
"91.6666666667","91.6666666667","739.833333333","739.833333333","black","legacy","legacy","legacy","0","congruent","uniform","1","undefined","1","s","0","0","0","0","11","0","11","0","11","NA","0","NA","0","11","11","11","NA","11","NA","11","NA","09/21/22 11:37:35","1500","The main experiment item","yes","FlankerTask.osexp","C:\Users\olasa\OneDrive\Desktop","no","mono","no","18","no","white","no","yes","768","legacy","11","11","C:/Users/olasa/OneDrive/Desktop/OL-subject-2.csv","legacy","Lentiform Loewenfeld","3.3.12","0","s","s","NA","NA","NA","NA","NA","s","NA","NA","761","33059","NA","NA","NA","NA","NA","761","NA","NA","NA","NA","2","legacy","1024","2","48000","-16","experiment","SSSSS","2","even","35552","NA","NA","2492","37392","2480","NA","NA","57478","NA","NA","NA","NA","56408","57581","58343","NA","57476","NA","57581","NA","Flanker Task","11","8878","12","yes","1024"
"92.3076923077","92.3076923077","738.615384615","738.615384615","black","legacy","legacy","legacy","0","incongruent","uniform","1","undefined","1","s","0","0","0","0","12","0","12","0","12","NA","0","NA","0","12","12","12","NA","12","NA","12","NA","09/21/22 11:37:35","1500","The main experiment item","yes","FlankerTask.osexp","C:\Users\olasa\OneDrive\Desktop","no","mono","no","18","no","white","no","yes","768","legacy","12","12","C:/Users/olasa/OneDrive/Desktop/OL-subject-2.csv","legacy","Lentiform Loewenfeld","3.3.12","0","s","s","NA","NA","NA","NA","NA","s","NA","NA","724","33059","NA","NA","NA","NA","NA","724","NA","NA","NA","NA","2","legacy","1024","2","48000","-16","experiment","HHSHH","2","even","35552","NA","NA","2492","37392","2480","NA","NA","59453","NA","NA","NA","NA","58353","59554","60278","NA","59448","NA","59554","NA","Flanker Task","12","9602","13","yes","1024"
"85.7142857143","85.7142857143","736.071428571","736.071428571","black","legacy","legacy","legacy","0","incongruent","uniform","0","undefined","0","h","0","0","0","0","13","0","13","0","13","NA","0","NA","0","13","13","13","NA","13","NA","13","NA","09/21/22 11:37:35","1500","The main experiment item","yes","FlankerTask.osexp","C:\Users\olasa\OneDrive\Desktop","no","mono","no","18","no","white","no","yes","768","legacy","13","13","C:/Users/olasa/OneDrive/Desktop/OL-subject-2.csv","legacy","Lentiform Loewenfeld","3.3.12","0","s","s","NA","NA","NA","NA","NA","s","NA","NA","703","33059","NA","NA","NA","NA","NA","703","NA","NA","NA","NA","2","legacy","1024","2","48000","-16","experiment","SSHSS","2","even","35552","NA","NA","2492","37392","2480","NA","NA","61355","NA","NA","NA","NA","60286","61458","62163","NA","61354","NA","61458","NA","Flanker Task","12","10305","14","yes","1024"
"86.6666666667","86.6666666667","732.066666667","732.066666667","black","legacy","legacy","legacy","0","congruent","uniform","1","undefined","1","h","0","0","0","0","14","0","14","0","14","NA","0","NA","0","14","14","14","NA","14","NA","14","NA","09/21/22 11:37:35","1500","The main experiment item","yes","FlankerTask.osexp","C:\Users\olasa\OneDrive\Desktop","no","mono","no","18","no","white","no","yes","768","legacy","14","14","C:/Users/olasa/OneDrive/Desktop/OL-subject-2.csv","legacy","Lentiform Loewenfeld","3.3.12","0","h","s","NA","NA","NA","NA","NA","h","NA","NA","676","33059","NA","NA","NA","NA","NA","676","NA","NA","NA","NA","2","legacy","1024","2","48000","-16","experiment","HHHHH","2","even","35552","NA","NA","2492","62173","2480","NA","NA","63747","NA","NA","NA","NA","62676","63850","64527","NA","63746","NA","63850","NA","Flanker Task","13","10981","15","yes","1024"
"87.5","87.5","723","723","black","legacy","legacy","legacy","0","incongruent","uniform","1","undefined","1","h","0","0","0","0","15","0","15","0","15","NA","0","NA","0","15","15","15","NA","15","NA","15","NA","09/21/22 11:37:35","1500","The main experiment item","yes","FlankerTask.osexp","C:\Users\olasa\OneDrive\Desktop","no","mono","no","18","no","white","no","yes","768","legacy","15","15","C:/Users/olasa/OneDrive/Desktop/OL-subject-2.csv","legacy","Lentiform Loewenfeld","3.3.12","0","h","s","NA","NA","NA","NA","NA","h","NA","NA","587","33059","NA","NA","NA","NA","NA","587","NA","NA","NA","NA","2","legacy","1024","2","48000","-16","experiment","SSHSS","2","even","35552","NA","NA","2492","62173","2480","NA","NA","65637","NA","NA","NA","NA","64557","65739","66326","NA","65634","NA","65739","NA","Flanker Task","14","11568","16","yes","1024"
"88.2352941176","88.2352941176","717.764705882","717.764705882","black","legacy","legacy","legacy","0","incongruent","uniform","1","undefined","1","s","0","0","0","0","16","0","16","0","16","NA","0","NA","0","16","16","16","NA","16","NA","16","NA","09/21/22 11:37:35","1500","The main experiment item","yes","FlankerTask.osexp","C:\Users\olasa\OneDrive\Desktop","no","mono","no","18","no","white","no","yes","768","legacy","16","16","C:/Users/olasa/OneDrive/Desktop/OL-subject-2.csv","legacy","Lentiform Loewenfeld","3.3.12","0","s","s","NA","NA","NA","NA","NA","s","NA","NA","634","33059","NA","NA","NA","NA","NA","634","NA","NA","NA","NA","2","legacy","1024","2","48000","-16","experiment","HHSHH","2","even","35552","NA","NA","2492","62173","2480","NA","NA","67413","NA","NA","NA","NA","66335","67516","68151","NA","67411","NA","67516","NA","Flanker Task","15","12202","17","yes","1024"
"88.8888888889","88.8888888889","711.722222222","711.722222222","black","legacy","legacy","legacy","0","congruent","uniform","1","undefined","1","h","0","0","0","0","17","0","17","0","17","NA","0","NA","0","17","17","17","NA","17","NA","17","NA","09/21/22 11:37:35","1500","The main experiment item","yes","FlankerTask.osexp","C:\Users\olasa\OneDrive\Desktop","no","mono","no","18","no","white","no","yes","768","legacy","17","17","C:/Users/olasa/OneDrive/Desktop/OL-subject-2.csv","legacy","Lentiform Loewenfeld","3.3.12","0","h","s","NA","NA","NA","NA","NA","h","NA","NA","609","33059","NA","NA","NA","NA","NA","609","NA","NA","NA","NA","2","legacy","1024","2","48000","-16","experiment","HHHHH","2","even","35552","NA","NA","2492","62173","2480","NA","NA","69222","NA","NA","NA","NA","68159","69325","69934","NA","69220","NA","69324","NA","Flanker Task","16","12811","18","yes","1024"
"89.4736842105","89.4736842105","705.842105263","705.842105263","black","legacy","legacy","legacy","0","congruent","uniform","1","undefined","1","s","0","0","0","0","18","0","18","0","18","NA","0","NA","0","18","18","18","NA","18","NA","18","NA","09/21/22 11:37:35","1500","The main experiment item","yes","FlankerTask.osexp","C:\Users\olasa\OneDrive\Desktop","no","mono","no","18","no","white","no","yes","768","legacy","18","18","C:/Users/olasa/OneDrive/Desktop/OL-subject-2.csv","legacy","Lentiform Loewenfeld","3.3.12","0","s","s","NA","NA","NA","NA","NA","s","NA","NA","600","33059","NA","NA","NA","NA","NA","600","NA","NA","NA","NA","2","legacy","1024","2","48000","-16","experiment","SSSSS","2","even","35552","NA","NA","2492","62173","2480","NA","NA","71015","NA","NA","NA","NA","69943","71118","71718","NA","71012","NA","71118","NA","Flanker Task","17","13411","19","yes","1024"
"90","90","706.95","706.95","black","legacy","legacy","legacy","0","congruent","uniform","1","undefined","1","h","0","0","0","0","19","0","19","0","19","NA","0","NA","0","19","19","19","NA","19","NA","19","NA","09/21/22 11:37:35","1500","The main experiment item","yes","FlankerTask.osexp","C:\Users\olasa\OneDrive\Desktop","no","mono","no","18","no","white","no","yes","768","legacy","19","19","C:/Users/olasa/OneDrive/Desktop/OL-subject-2.csv","legacy","Lentiform Loewenfeld","3.3.12","0","h","s","NA","NA","NA","NA","NA","h","NA","NA","728","33059","NA","NA","NA","NA","NA","728","NA","NA","NA","NA","2","legacy","1024","2","48000","-16","experiment","HHHHH","2","even","35552","NA","NA","2492","62173","2480","NA","NA","72816","NA","NA","NA","NA","71748","72919","73647","NA","72813","NA","72919","NA","Flanker Task","18","14139","20","yes","1024"
"90.4761904762","90.4761904762","714.904761905","714.904761905","black","legacy","legacy","legacy","0","incongruent","uniform","1","undefined","1","s","0","0","0","0","20","0","20","0","20","NA","0","NA","0","20","20","20","NA","20","NA","20","NA","09/21/22 11:37:35","1500","The main experiment item","yes","FlankerTask.osexp","C:\Users\olasa\OneDrive\Desktop","no","mono","no","18","no","white","no","yes","768","legacy","20","20","C:/Users/olasa/OneDrive/Desktop/OL-subject-2.csv","legacy","Lentiform Loewenfeld","3.3.12","0","s","s","NA","NA","NA","NA","NA","s","NA","NA","874","33059","NA","NA","NA","NA","NA","874","NA","NA","NA","NA","2","legacy","1024","2","48000","-16","experiment","HHSHH","2","even","35552","NA","NA","2492","62173","2480","NA","NA","74725","NA","NA","NA","NA","73654","74828","75702","NA","74723","NA","74828","NA","Flanker Task","19","15013","21","yes","1024"
"90.9090909091","90.9090909091","707.227272727","707.227272727","black","legacy","legacy","legacy","0","incongruent","uniform","1","undefined","1","s","0","0","0","0","21","0","21","0","21","NA","0","NA","0","21","21","21","NA","21","NA","21","NA","09/21/22 11:37:35","1500","The main experiment item","yes","FlankerTask.osexp","C:\Users\olasa\OneDrive\Desktop","no","mono","no","18","no","white","no","yes","768","legacy","21","21","C:/Users/olasa/OneDrive/Desktop/OL-subject-2.csv","legacy","Lentiform Loewenfeld","3.3.12","0","s","s","NA","NA","NA","NA","NA","s","NA","NA","546","33059","NA","NA","NA","NA","NA","546","NA","NA","NA","NA","2","legacy","1024","2","48000","-16","experiment","HHSHH","2","even","35552","NA","NA","2492","62173","2480","NA","NA","76788","NA","NA","NA","NA","75711","76891","77438","NA","76786","NA","76891","NA","Flanker Task","20","15559","22","yes","1024"
"91.3043478261","91.3043478261","709.695652174","709.695652174","black","legacy","legacy","legacy","0","incongruent","uniform","1","undefined","1","h","0","0","0","0","22","0","22","0","22","NA","0","NA","0","22","22","22","NA","22","NA","22","NA","09/21/22 11:37:35","1500","The main experiment item","yes","FlankerTask.osexp","C:\Users\olasa\OneDrive\Desktop","no","mono","no","18","no","white","no","yes","768","legacy","22","22","C:/Users/olasa/OneDrive/Desktop/OL-subject-2.csv","legacy","Lentiform Loewenfeld","3.3.12","0","h","s","NA","NA","NA","NA","NA","h","NA","NA","764","33059","NA","NA","NA","NA","NA","764","NA","NA","NA","NA","2","legacy","1024","2","48000","-16","experiment","SSHSS","2","even","35552","NA","NA","2492","62173","2480","NA","NA","78539","NA","NA","NA","NA","77468","78642","79406","NA","78537","NA","78642","NA","Flanker Task","21","16323","23","yes","1024"
"91.6666666667","91.6666666667","714.416666667","714.416666667","black","legacy","legacy","legacy","0","incongruent","uniform","1","undefined","1","s","0","0","0","0","23","0","23","0","23","NA","0","NA","0","23","23","23","NA","23","NA","23","NA","09/21/22 11:37:35","1500","The main experiment item","yes","FlankerTask.osexp","C:\Users\olasa\OneDrive\Desktop","no","mono","no","18","no","white","no","yes","768","legacy","23","23","C:/Users/olasa/OneDrive/Desktop/OL-subject-2.csv","legacy","Lentiform Loewenfeld","3.3.12","0","s","s","NA","NA","NA","NA","NA","s","NA","NA","823","33059","NA","NA","NA","NA","NA","823","NA","NA","NA","NA","2","legacy","1024","2","48000","-16","experiment","HHSHH","2","even","35552","NA","NA","2492","62173","2480","NA","NA","80504","NA","NA","NA","NA","79411","80607","81430","NA","80501","NA","80607","NA","Flanker Task","22","17146","24","yes","1024"
"92","92","720.88","720.88","black","legacy","legacy","legacy","0","congruent","uniform","1","undefined","1","s","0","0","0","0","24","0","24","0","24","NA","0","NA","0","24","24","24","NA","24","NA","24","NA","09/21/22 11:37:35","1500","The main experiment item","yes","FlankerTask.osexp","C:\Users\olasa\OneDrive\Desktop","no","mono","no","18","no","white","no","yes","768","legacy","24","24","C:/Users/olasa/OneDrive/Desktop/OL-subject-2.csv","legacy","Lentiform Loewenfeld","3.3.12","0","s","s","NA","NA","NA","NA","NA","s","NA","NA","876","33059","NA","NA","NA","NA","NA","876","NA","NA","NA","NA","2","legacy","1024","2","48000","-16","experiment","SSSSS","2","even","35552","NA","NA","2492","62173","2480","NA","NA","82508","NA","NA","NA","NA","81434","82610","83488","NA","82506","NA","82610","NA","Flanker Task","23","18022","25","yes","1024"
"92.3076923077","92.3076923077","715.653846154","715.653846154","black","legacy","legacy","legacy","0","congruent","uniform","1","undefined","1","h","0","0","0","0","25","0","25","0","25","NA","0","NA","0","25","25","25","NA","25","NA","25","NA","09/21/22 11:37:35","1500","The main experiment item","yes","FlankerTask.osexp","C:\Users\olasa\OneDrive\Desktop","no","mono","no","18","no","white","no","yes","768","legacy","25","25","C:/Users/olasa/OneDrive/Desktop/OL-subject-2.csv","legacy","Lentiform Loewenfeld","3.3.12","0","h","s","NA","NA","NA","NA","NA","h","NA","NA","585","33059","NA","NA","NA","NA","NA","585","NA","NA","NA","NA","2","legacy","1024","2","48000","-16","experiment","HHHHH","2","even","35552","NA","NA","2492","62173","2480","NA","NA","84566","NA","NA","NA","NA","83499","84669","85255","NA","84564","NA","84669","NA","Flanker Task","24","18607","26","yes","1024"
"92.5925925926","92.5925925926","714.888888889","714.888888889","black","legacy","legacy","legacy","0","congruent","uniform","1","undefined","1","s","0","0","0","0","26","0","26","0","26","NA","0","NA","0","26","26","26","NA","26","NA","26","NA","09/21/22 11:37:35","1500","The main experiment item","yes","FlankerTask.osexp","C:\Users\olasa\OneDrive\Desktop","no","mono","no","18","no","white","no","yes","768","legacy","26","26","C:/Users/olasa/OneDrive/Desktop/OL-subject-2.csv","legacy","Lentiform Loewenfeld","3.3.12","0","s","s","NA","NA","NA","NA","NA","s","NA","NA","695","33059","NA","NA","NA","NA","NA","695","NA","NA","NA","NA","2","legacy","1024","2","48000","-16","experiment","SSSSS","2","even","35552","NA","NA","2492","62173","2480","NA","NA","86337","NA","NA","NA","NA","85265","86440","87136","NA","86335","NA","86440","NA","Flanker Task","25","19302","27","yes","1024"
"92.8571428571","92.8571428571","710.535714286","710.535714286","black","legacy","legacy","legacy","0","congruent","uniform","1","undefined","1","h","0","0","0","0","27","0","27","0","27","NA","0","NA","0","27","27","27","NA","27","NA","27","NA","09/21/22 11:37:35","1500","The main experiment item","yes","FlankerTask.osexp","C:\Users\olasa\OneDrive\Desktop","no","mono","no","18","no","white","no","yes","768","legacy","27","27","C:/Users/olasa/OneDrive/Desktop/OL-subject-2.csv","legacy","Lentiform Loewenfeld","3.3.12","0","h","s","NA","NA","NA","NA","NA","h","NA","NA","593","33059","NA","NA","NA","NA","NA","593","NA","NA","NA","NA","2","legacy","1024","2","48000","-16","experiment","HHHHH","2","even","35552","NA","NA","2492","62173","2480","NA","NA","88262","NA","NA","NA","NA","87166","88365","88958","NA","88260","NA","88364","NA","Flanker Task","26","19895","28","yes","1024"
"93.1034482759","93.1034482759","710.310344828","710.310344828","black","legacy","legacy","legacy","0","incongruent","uniform","1","undefined","1","h","0","0","0","0","28","0","28","0","28","NA","0","NA","0","28","28","28","NA","28","NA","28","NA","09/21/22 11:37:35","1500","The main experiment item","yes","FlankerTask.osexp","C:\Users\olasa\OneDrive\Desktop","no","mono","no","18","no","white","no","yes","768","legacy","28","28","C:/Users/olasa/OneDrive/Desktop/OL-subject-2.csv","legacy","Lentiform Loewenfeld","3.3.12","0","h","s","NA","NA","NA","NA","NA","h","NA","NA","704","33059","NA","NA","NA","NA","NA","704","NA","NA","NA","NA","2","legacy","1024","2","48000","-16","experiment","SSHSS","2","even","35552","NA","NA","2492","62173","2480","NA","NA","90040","NA","NA","NA","NA","88967","90143","90849","NA","90038","NA","90143","NA","Flanker Task","27","20599","29","yes","1024"
"93.3333333333","93.3333333333","711.033333333","711.033333333","black","legacy","legacy","legacy","0","incongruent","uniform","1","undefined","1","s","0","0","0","0","29","0","29","0","29","NA","0","NA","0","29","29","29","NA","29","NA","29","NA","09/21/22 11:37:35","1500","The main experiment item","yes","FlankerTask.osexp","C:\Users\olasa\OneDrive\Desktop","no","mono","no","18","no","white","no","yes","768","legacy","29","29","C:/Users/olasa/OneDrive/Desktop/OL-subject-2.csv","legacy","Lentiform Loewenfeld","3.3.12","0","s","s","NA","NA","NA","NA","NA","s","NA","NA","732","33059","NA","NA","NA","NA","NA","732","NA","NA","NA","NA","2","legacy","1024","2","48000","-16","experiment","HHSHH","2","even","35552","NA","NA","2492","62173","2480","NA","NA","91931","NA","NA","NA","NA","90860","92034","92768","NA","91929","NA","92034","NA","Flanker Task","28","21331","30","yes","1024"
"93.5483870968","93.5483870968","706.580645161","706.580645161","black","legacy","legacy","legacy","0","incongruent","uniform","1","undefined","1","s","0","0","0","0","30","0","30","0","30","NA","0","NA","0","30","30","30","NA","30","NA","30","NA","09/21/22 11:37:35","1500","The main experiment item","yes","FlankerTask.osexp","C:\Users\olasa\OneDrive\Desktop","no","mono","no","18","no","white","no","yes","768","legacy","30","30","C:/Users/olasa/OneDrive/Desktop/OL-subject-2.csv","legacy","Lentiform Loewenfeld","3.3.12","0","s","s","NA","NA","NA","NA","NA","s","NA","NA","573","33059","NA","NA","NA","NA","NA","573","NA","NA","NA","NA","2","legacy","1024","2","48000","-16","experiment","HHSHH","2","even","35552","NA","NA","2492","62173","2480","NA","NA","93834","NA","NA","NA","NA","92772","93937","94511","NA","93832","NA","93936","NA","Flanker Task","29","21904","31","yes","1024"
"93.75","93.75","702.28125","702.28125","black","legacy","legacy","legacy","0","congruent","uniform","1","undefined","1","h","0","0","0","0","31","0","31","0","31","NA","0","NA","0","31","31","31","NA","31","NA","31","NA","09/21/22 11:37:35","1500","The main experiment item","yes","FlankerTask.osexp","C:\Users\olasa\OneDrive\Desktop","no","mono","no","18","no","white","no","yes","768","legacy","31","31","C:/Users/olasa/OneDrive/Desktop/OL-subject-2.csv","legacy","Lentiform Loewenfeld","3.3.12","0","h","s","NA","NA","NA","NA","NA","h","NA","NA","569","33059","NA","NA","NA","NA","NA","569","NA","NA","NA","NA","2","legacy","1024","2","48000","-16","experiment","HHHHH","2","even","35552","NA","NA","2492","62173","2480","NA","NA","95590","NA","NA","NA","NA","94521","95693","96262","NA","95588","NA","95693","NA","Flanker Task","30","22473","32","yes","1024"
"93.9393939394","93.9393939394","698.393939394","698.393939394","black","legacy","legacy","legacy","0","congruent","uniform","1","undefined","1","s","0","0","0","0","32","0","32","0","32","NA","0","NA","0","32","32","32","NA","32","NA","32","NA","09/21/22 11:37:35","1500","The main experiment item","yes","FlankerTask.osexp","C:\Users\olasa\OneDrive\Desktop","no","mono","no","18","no","white","no","yes","768","legacy","32","32","C:/Users/olasa/OneDrive/Desktop/OL-subject-2.csv","legacy","Lentiform Loewenfeld","3.3.12","0","s","s","NA","NA","NA","NA","NA","s","NA","NA","574","33059","NA","NA","NA","NA","NA","574","NA","NA","NA","NA","2","legacy","1024","2","48000","-16","experiment","SSSSS","2","even","35552","NA","NA","2492","62173","2480","NA","NA","97362","NA","NA","NA","NA","96292","97464","98039","NA","97360","NA","97464","NA","Flanker Task","31","23047","33","yes","1024"
"94.1176470588","94.1176470588","692.911764706","692.911764706","black","legacy","legacy","legacy","0","congruent","uniform","1","undefined","1","s","0","0","0","0","33","0","33","0","33","NA","0","NA","0","33","33","33","NA","33","NA","33","NA","09/21/22 11:37:35","1500","The main experiment item","yes","FlankerTask.osexp","C:\Users\olasa\OneDrive\Desktop","no","mono","no","18","no","white","no","yes","768","legacy","33","33","C:/Users/olasa/OneDrive/Desktop/OL-subject-2.csv","legacy","Lentiform Loewenfeld","3.3.12","0","s","s","NA","NA","NA","NA","NA","s","NA","NA","512","33059","NA","NA","NA","NA","NA","512","NA","NA","NA","NA","2","legacy","1024","2","48000","-16","experiment","SSSSS","2","even","35552","NA","NA","2492","62173","2480","NA","NA","99118","NA","NA","NA","NA","98048","99221","99734","NA","99117","NA","99221","NA","Flanker Task","32","23559","34","yes","1024"
"94.2857142857","94.2857142857","690.114285714","690.114285714","black","legacy","legacy","legacy","0","incongruent","uniform","1","undefined","1","s","0","0","0","0","34","0","34","0","34","NA","0","NA","0","34","34","34","NA","34","NA","34","NA","09/21/22 11:37:35","1500","The main experiment item","yes","FlankerTask.osexp","C:\Users\olasa\OneDrive\Desktop","no","mono","no","18","no","white","no","yes","768","legacy","34","34","C:/Users/olasa/OneDrive/Desktop/OL-subject-2.csv","legacy","Lentiform Loewenfeld","3.3.12","0","s","s","NA","NA","NA","NA","NA","s","NA","NA","595","33059","NA","NA","NA","NA","NA","595","NA","NA","NA","NA","2","legacy","1024","2","48000","-16","experiment","HHSHH","2","even","35552","NA","NA","2492","62173","2480","NA","NA","100804","NA","NA","NA","NA","99743","100907","101502","NA","100802","NA","100907","NA","Flanker Task","33","24154","35","yes","1024"
"94.4444444444","94.4444444444","684.25","684.25","black","legacy","legacy","legacy","0","incongruent","uniform","1","undefined","1","s","0","0","0","0","35","0","35","0","35","NA","0","NA","0","35","35","35","NA","35","NA","35","NA","09/21/22 11:37:35","1500","The main experiment item","yes","FlankerTask.osexp","C:\Users\olasa\OneDrive\Desktop","no","mono","no","18","no","white","no","yes","768","legacy","35","35","C:/Users/olasa/OneDrive/Desktop/OL-subject-2.csv","legacy","Lentiform Loewenfeld","3.3.12","0","s","s","NA","NA","NA","NA","NA","s","NA","NA","479","33059","NA","NA","NA","NA","NA","479","NA","NA","NA","NA","2","legacy","1024","2","48000","-16","experiment","HHSHH","2","even","35552","NA","NA","2492","62173","2480","NA","NA","102584","NA","NA","NA","NA","101506","102687","103167","NA","102582","NA","102687","NA","Flanker Task","34","24633","36","yes","1024"
"94.5945945946","94.5945945946","679.054054054","679.054054054","black","legacy","legacy","legacy","0","congruent","uniform","1","undefined","1","h","0","0","0","0","36","0","36","0","36","NA","0","NA","0","36","36","36","NA","36","NA","36","NA","09/21/22 11:37:35","1500","The main experiment item","yes","FlankerTask.osexp","C:\Users\olasa\OneDrive\Desktop","no","mono","no","18","no","white","no","yes","768","legacy","36","36","C:/Users/olasa/OneDrive/Desktop/OL-subject-2.csv","legacy","Lentiform Loewenfeld","3.3.12","0","h","s","NA","NA","NA","NA","NA","h","NA","NA","492","33059","NA","NA","NA","NA","NA","492","NA","NA","NA","NA","2","legacy","1024","2","48000","-16","experiment","HHHHH","2","even","35552","NA","NA","2492","62173","2480","NA","NA","104243","NA","NA","NA","NA","103171","104346","104839","NA","104241","NA","104346","NA","Flanker Task","35","25125","37","yes","1024"
"94.7368421053","94.7368421053","680.973684211","680.973684211","black","legacy","legacy","legacy","0","incongruent","uniform","1","undefined","1","h","0","0","0","0","37","0","37","0","37","NA","0","NA","0","37","37","37","NA","37","NA","37","NA","09/21/22 11:37:35","1500","The main experiment item","yes","FlankerTask.osexp","C:\Users\olasa\OneDrive\Desktop","no","mono","no","18","no","white","no","yes","768","legacy","37","37","C:/Users/olasa/OneDrive/Desktop/OL-subject-2.csv","legacy","Lentiform Loewenfeld","3.3.12","0","h","s","NA","NA","NA","NA","NA","h","NA","NA","752","33059","NA","NA","NA","NA","NA","752","NA","NA","NA","NA","2","legacy","1024","2","48000","-16","experiment","SSHSS","2","even","35552","NA","NA","2492","62173","2480","NA","NA","105919","NA","NA","NA","NA","104848","106022","106775","NA","105917","NA","106022","NA","Flanker Task","36","25877","38","yes","1024"
"94.8717948718","94.8717948718","679.256410256","679.256410256","black","legacy","legacy","legacy","0","incongruent","uniform","1","undefined","1","h","0","0","0","0","38","0","38","0","38","NA","0","NA","0","38","38","38","NA","38","NA","38","NA","09/21/22 11:37:35","1500","The main experiment item","yes","FlankerTask.osexp","C:\Users\olasa\OneDrive\Desktop","no","mono","no","18","no","white","no","yes","768","legacy","38","38","C:/Users/olasa/OneDrive/Desktop/OL-subject-2.csv","legacy","Lentiform Loewenfeld","3.3.12","0","h","s","NA","NA","NA","NA","NA","h","NA","NA","614","33059","NA","NA","NA","NA","NA","614","NA","NA","NA","NA","2","legacy","1024","2","48000","-16","experiment","SSHSS","2","even","35552","NA","NA","2492","62173","2480","NA","NA","107882","NA","NA","NA","NA","106784","107984","108599","NA","107879","NA","107984","NA","Flanker Task","37","26491","39","yes","1024"
"95","95","679.625","679.625","black","legacy","legacy","legacy","0","congruent","uniform","1","undefined","1","s","0","0","0","0","39","0","39","0","39","NA","0","NA","0","39","39","39","NA","39","NA","39","NA","09/21/22 11:37:35","1500","The main experiment item","yes","FlankerTask.osexp","C:\Users\olasa\OneDrive\Desktop","no","mono","no","18","no","white","no","yes","768","legacy","39","39","C:/Users/olasa/OneDrive/Desktop/OL-subject-2.csv","legacy","Lentiform Loewenfeld","3.3.12","0","s","s","NA","NA","NA","NA","NA","s","NA","NA","694","33059","NA","NA","NA","NA","NA","694","NA","NA","NA","NA","2","legacy","1024","2","48000","-16","experiment","SSSSS","2","even","35552","NA","NA","2492","62173","2480","NA","NA","109681","NA","NA","NA","NA","108608","109784","110478","NA","109679","NA","109784","NA","Flanker Task","38","27185","40","yes","1024"
"95.1219512195","95.1219512195","677.585365854","677.585365854","black","legacy","legacy","legacy","0","congruent","uniform","1","undefined","1","s","0","0","0","0","40","0","40","0","40","NA","0","NA","0","40","40","40","NA","40","NA","40","NA","09/21/22 11:37:35","1500","The main experiment item","yes","FlankerTask.osexp","C:\Users\olasa\OneDrive\Desktop","no","mono","no","18","no","white","no","yes","768","legacy","40","40","C:/Users/olasa/OneDrive/Desktop/OL-subject-2.csv","legacy","Lentiform Loewenfeld","3.3.12","0","s","s","NA","NA","NA","NA","NA","s","NA","NA","596","33059","NA","NA","NA","NA","NA","596","NA","NA","NA","NA","2","legacy","1024","2","48000","-16","experiment","SSSSS","2","even","35552","NA","NA","2492","62173","2480","NA","NA","111554","NA","NA","NA","NA","110482","111657","112254","NA","111552","NA","111657","NA","Flanker Task","39","27781","41","yes","1024"
"95.2380952381","95.2380952381","675.595238095","675.595238095","black","legacy","legacy","legacy","0","congruent","uniform","1","undefined","1","s","0","0","0","0","41","0","41","0","41","NA","0","NA","0","41","41","41","NA","41","NA","41","NA","09/21/22 11:37:35","1500","The main experiment item","yes","FlankerTask.osexp","C:\Users\olasa\OneDrive\Desktop","no","mono","no","18","no","white","no","yes","768","legacy","41","41","C:/Users/olasa/OneDrive/Desktop/OL-subject-2.csv","legacy","Lentiform Loewenfeld","3.3.12","0","s","s","NA","NA","NA","NA","NA","s","NA","NA","594","33059","NA","NA","NA","NA","NA","594","NA","NA","NA","NA","2","legacy","1024","2","48000","-16","experiment","SSSSS","2","even","35552","NA","NA","2492","62173","2480","NA","NA","113357","NA","NA","NA","NA","112284","113460","114056","NA","113354","NA","113460","NA","Flanker Task","40","28375","42","yes","1024"
"95.3488372093","95.3488372093","673.046511628","673.046511628","black","legacy","legacy","legacy","0","incongruent","uniform","1","undefined","1","s","0","0","0","0","42","0","42","0","42","NA","0","NA","0","42","42","42","NA","42","NA","42","NA","09/21/22 11:37:35","1500","The main experiment item","yes","FlankerTask.osexp","C:\Users\olasa\OneDrive\Desktop","no","mono","no","18","no","white","no","yes","768","legacy","42","42","C:/Users/olasa/OneDrive/Desktop/OL-subject-2.csv","legacy","Lentiform Loewenfeld","3.3.12","0","s","s","NA","NA","NA","NA","NA","s","NA","NA","566","33059","NA","NA","NA","NA","NA","566","NA","NA","NA","NA","2","legacy","1024","2","48000","-16","experiment","HHSHH","2","even","35552","NA","NA","2492","62173","2480","NA","NA","115136","NA","NA","NA","NA","114066","115239","115807","NA","115133","NA","115239","NA","Flanker Task","41","28941","43","yes","1024"
"95.4545454545","95.4545454545","671.022727273","671.022727273","black","legacy","legacy","legacy","0","incongruent","uniform","1","undefined","1","s","0","0","0","0","43","0","43","0","43","NA","0","NA","0","43","43","43","NA","43","NA","43","NA","09/21/22 11:37:35","1500","The main experiment item","yes","FlankerTask.osexp","C:\Users\olasa\OneDrive\Desktop","no","mono","no","18","no","white","no","yes","768","legacy","43","43","C:/Users/olasa/OneDrive/Desktop/OL-subject-2.csv","legacy","Lentiform Loewenfeld","3.3.12","0","s","s","NA","NA","NA","NA","NA","s","NA","NA","584","33059","NA","NA","NA","NA","NA","584","NA","NA","NA","NA","2","legacy","1024","2","48000","-16","experiment","HHSHH","2","even","35552","NA","NA","2492","62173","2480","NA","NA","116935","NA","NA","NA","NA","115837","117038","117624","NA","116932","NA","117038","NA","Flanker Task","42","29525","44","yes","1024"
"95.5555555556","95.5555555556","668.2","668.2","black","legacy","legacy","legacy","0","congruent","uniform","1","undefined","1","s","0","0","0","0","44","0","44","0","44","NA","0","NA","0","44","44","44","NA","44","NA","44","NA","09/21/22 11:37:35","1500","The main experiment item","yes","FlankerTask.osexp","C:\Users\olasa\OneDrive\Desktop","no","mono","no","18","no","white","no","yes","768","legacy","44","44","C:/Users/olasa/OneDrive/Desktop/OL-subject-2.csv","legacy","Lentiform Loewenfeld","3.3.12","0","s","s","NA","NA","NA","NA","NA","s","NA","NA","544","33059","NA","NA","NA","NA","NA","544","NA","NA","NA","NA","2","legacy","1024","2","48000","-16","experiment","SSSSS","2","even","35552","NA","NA","2492","62173","2480","NA","NA","118702","NA","NA","NA","NA","117633","118805","119350","NA","118700","NA","118805","NA","Flanker Task","43","30069","45","yes","1024"
"95.652173913","95.652173913","666.152173913","666.152173913","black","legacy","legacy","legacy","0","congruent","uniform","1","undefined","1","h","0","0","0","0","45","0","45","0","45","NA","0","NA","0","45","45","45","NA","45","NA","45","NA","09/21/22 11:37:35","1500","The main experiment item","yes","FlankerTask.osexp","C:\Users\olasa\OneDrive\Desktop","no","mono","no","18","no","white","no","yes","768","legacy","45","45","C:/Users/olasa/OneDrive/Desktop/OL-subject-2.csv","legacy","Lentiform Loewenfeld","3.3.12","0","h","s","NA","NA","NA","NA","NA","h","NA","NA","574","33059","NA","NA","NA","NA","NA","574","NA","NA","NA","NA","2","legacy","1024","2","48000","-16","experiment","HHHHH","2","even","35552","NA","NA","2492","62173","2480","NA","NA","120455","NA","NA","NA","NA","119382","120559","121134","NA","120453","NA","120559","NA","Flanker Task","44","30643","46","yes","1024"
"95.7446808511","95.7446808511","664.14893617","664.14893617","black","legacy","legacy","legacy","0","congruent","uniform","1","undefined","1","h","0","0","0","0","46","0","46","0","46","NA","0","NA","0","46","46","46","NA","46","NA","46","NA","09/21/22 11:37:35","1500","The main experiment item","yes","FlankerTask.osexp","C:\Users\olasa\OneDrive\Desktop","no","mono","no","18","no","white","no","yes","768","legacy","46","46","C:/Users/olasa/OneDrive/Desktop/OL-subject-2.csv","legacy","Lentiform Loewenfeld","3.3.12","0","h","s","NA","NA","NA","NA","NA","h","NA","NA","572","33059","NA","NA","NA","NA","NA","572","NA","NA","NA","NA","2","legacy","1024","2","48000","-16","experiment","HHHHH","2","even","35552","NA","NA","2492","62173","2480","NA","NA","122235","NA","NA","NA","NA","121164","122338","122914","NA","122234","NA","122338","NA","Flanker Task","45","31215","47","yes","1024"
"95.8333333333","95.8333333333","664.854166667","664.854166667","black","legacy","legacy","legacy","0","incongruent","uniform","1","undefined","1","s","0","0","0","0","47","0","47","0","47","NA","0","NA","0","47","47","47","NA","47","NA","47","NA","09/21/22 11:37:35","1500","The main experiment item","yes","FlankerTask.osexp","C:\Users\olasa\OneDrive\Desktop","no","mono","no","18","no","white","no","yes","768","legacy","47","47","C:/Users/olasa/OneDrive/Desktop/OL-subject-2.csv","legacy","Lentiform Loewenfeld","3.3.12","0","s","s","NA","NA","NA","NA","NA","s","NA","NA","698","33059","NA","NA","NA","NA","NA","698","NA","NA","NA","NA","2","legacy","1024","2","48000","-16","experiment","HHSHH","2","even","35552","NA","NA","2492","62173","2480","NA","NA","123997","NA","NA","NA","NA","122927","124100","124799","NA","123995","NA","124099","NA","Flanker Task","46","31913","48","yes","1024"
"95.9183673469","95.9183673469","663.979591837","663.979591837","black","legacy","legacy","legacy","0","incongruent","uniform","1","undefined","1","h","0","0","0","0","48","0","48","0","48","NA","0","NA","0","48","48","48","NA","48","NA","48","NA","09/21/22 11:37:35","1500","The main experiment item","yes","FlankerTask.osexp","C:\Users\olasa\OneDrive\Desktop","no","mono","no","18","no","white","no","yes","768","legacy","48","48","C:/Users/olasa/OneDrive/Desktop/OL-subject-2.csv","legacy","Lentiform Loewenfeld","3.3.12","0","h","s","NA","NA","NA","NA","NA","h","NA","NA","622","33059","NA","NA","NA","NA","NA","622","NA","NA","NA","NA","2","legacy","1024","2","48000","-16","experiment","SSHSS","2","even","35552","NA","NA","2492","62173","2480","NA","NA","125921","NA","NA","NA","NA","124829","126023","126646","NA","125917","NA","126023","NA","Flanker Task","47","32535","49","yes","1024"
"96","96","662.46","662.46","black","legacy","legacy","legacy","0","congruent","uniform","1","undefined","1","s","0","0","0","0","49","0","49","0","49","NA","0","NA","0","49","49","49","NA","49","NA","49","NA","09/21/22 11:37:35","1500","The main experiment item","yes","FlankerTask.osexp","C:\Users\olasa\OneDrive\Desktop","no","mono","no","18","no","white","no","yes","768","legacy","49","49","C:/Users/olasa/OneDrive/Desktop/OL-subject-2.csv","legacy","Lentiform Loewenfeld","3.3.12","0","s","s","NA","NA","NA","NA","NA","s","NA","NA","588","33059","NA","NA","NA","NA","NA","588","NA","NA","NA","NA","2","legacy","1024","2","48000","-16","experiment","SSSSS","2","even","35552","NA","NA","2492","62173","2480","NA","NA","127747","NA","NA","NA","NA","126651","127850","128438","NA","127745","NA","127850","NA","Flanker Task","48","33123","50","yes","1024"
"96.0784313725","96.0784313725","663.117647059","663.117647059","black","legacy","legacy","legacy","0","incongruent","uniform","1","undefined","1","s","0","0","0","0","50","0","50","0","50","NA","0","NA","0","50","50","50","NA","50","NA","50","NA","09/21/22 11:37:35","1500","The main experiment item","yes","FlankerTask.osexp","C:\Users\olasa\OneDrive\Desktop","no","mono","no","18","no","white","no","yes","768","legacy","50","50","C:/Users/olasa/OneDrive/Desktop/OL-subject-2.csv","legacy","Lentiform Loewenfeld","3.3.12","0","s","s","NA","NA","NA","NA","NA","s","NA","NA","696","33059","NA","NA","NA","NA","NA","696","NA","NA","NA","NA","2","legacy","1024","2","48000","-16","experiment","HHSHH","2","even","35552","NA","NA","2492","62173","2480","NA","NA","129543","NA","NA","NA","NA","128468","129646","130344","NA","129541","NA","129646","NA","Flanker Task","49","33819","51","yes","1024"
"96.1538461538","96.1538461538","662.903846154","662.903846154","black","legacy","legacy","legacy","0","incongruent","uniform","1","undefined","1","h","0","0","0","0","51","0","51","0","51","NA","0","NA","0","51","51","51","NA","51","NA","51","NA","09/21/22 11:37:35","1500","The main experiment item","yes","FlankerTask.osexp","C:\Users\olasa\OneDrive\Desktop","no","mono","no","18","no","white","no","yes","768","legacy","51","51","C:/Users/olasa/OneDrive/Desktop/OL-subject-2.csv","legacy","Lentiform Loewenfeld","3.3.12","0","h","s","NA","NA","NA","NA","NA","h","NA","NA","652","33059","NA","NA","NA","NA","NA","652","NA","NA","NA","NA","2","legacy","1024","2","48000","-16","experiment","SSHSS","2","even","35552","NA","NA","2492","62173","2480","NA","NA","131419","NA","NA","NA","NA","130356","131522","132174","NA","131418","NA","131522","NA","Flanker Task","50","34471","52","yes","1024"
"96.2264150943","96.2264150943","663.943396226","663.943396226","black","legacy","legacy","legacy","0","congruent","uniform","1","undefined","1","s","0","0","0","0","52","0","52","0","52","NA","0","NA","0","52","52","52","NA","52","NA","52","NA","09/21/22 11:37:35","1500","The main experiment item","yes","FlankerTask.osexp","C:\Users\olasa\OneDrive\Desktop","no","mono","no","18","no","white","no","yes","768","legacy","52","52","C:/Users/olasa/OneDrive/Desktop/OL-subject-2.csv","legacy","Lentiform Loewenfeld","3.3.12","0","s","s","NA","NA","NA","NA","NA","s","NA","NA","718","33059","NA","NA","NA","NA","NA","718","NA","NA","NA","NA","2","legacy","1024","2","48000","-16","experiment","SSSSS","2","even","35552","NA","NA","2492","62173","2480","NA","NA","133275","NA","NA","NA","NA","132204","133377","134097","NA","133271","NA","133376","NA","Flanker Task","51","35189","53","yes","1024"
"96.2962962963","96.2962962963","663.277777778","663.277777778","black","legacy","legacy","legacy","0","congruent","uniform","1","undefined","1","h","0","0","0","0","53","0","53","0","53","NA","0","NA","0","53","53","53","NA","53","NA","53","NA","09/21/22 11:37:35","1500","The main experiment item","yes","FlankerTask.osexp","C:\Users\olasa\OneDrive\Desktop","no","mono","no","18","no","white","no","yes","768","legacy","53","53","C:/Users/olasa/OneDrive/Desktop/OL-subject-2.csv","legacy","Lentiform Loewenfeld","3.3.12","0","h","s","NA","NA","NA","NA","NA","h","NA","NA","628","33059","NA","NA","NA","NA","NA","628","NA","NA","NA","NA","2","legacy","1024","2","48000","-16","experiment","HHHHH","2","even","35552","NA","NA","2492","62173","2480","NA","NA","135179","NA","NA","NA","NA","134108","135282","135911","NA","135177","NA","135282","NA","Flanker Task","52","35817","54","yes","1024"
"96.3636363636","96.3636363636","662.036363636","662.036363636","black","legacy","legacy","legacy","0","incongruent","uniform","1","undefined","1","h","0","0","0","0","54","0","54","0","54","NA","0","NA","0","54","54","54","NA","54","NA","54","NA","09/21/22 11:37:35","1500","The main experiment item","yes","FlankerTask.osexp","C:\Users\olasa\OneDrive\Desktop","no","mono","no","18","no","white","no","yes","768","legacy","54","54","C:/Users/olasa/OneDrive/Desktop/OL-subject-2.csv","legacy","Lentiform Loewenfeld","3.3.12","0","h","s","NA","NA","NA","NA","NA","h","NA","NA","595","33059","NA","NA","NA","NA","NA","595","NA","NA","NA","NA","2","legacy","1024","2","48000","-16","experiment","SSHSS","2","even","35552","NA","NA","2492","62173","2480","NA","NA","137006","NA","NA","NA","NA","135922","137107","137703","NA","137004","NA","137106","NA","Flanker Task","53","36412","55","yes","1024"
"96.4285714286","96.4285714286","661.732142857","661.732142857","black","legacy","legacy","legacy","0","incongruent","uniform","1","undefined","1","s","0","0","0","0","55","0","55","0","55","NA","0","NA","0","55","55","55","NA","55","NA","55","NA","09/21/22 11:37:35","1500","The main experiment item","yes","FlankerTask.osexp","C:\Users\olasa\OneDrive\Desktop","no","mono","no","18","no","white","no","yes","768","legacy","55","55","C:/Users/olasa/OneDrive/Desktop/OL-subject-2.csv","legacy","Lentiform Loewenfeld","3.3.12","0","s","s","NA","NA","NA","NA","NA","s","NA","NA","645","33059","NA","NA","NA","NA","NA","645","NA","NA","NA","NA","2","legacy","1024","2","48000","-16","experiment","HHSHH","2","even","35552","NA","NA","2492","62173","2480","NA","NA","138803","NA","NA","NA","NA","137734","138906","139552","NA","138802","NA","138906","NA","Flanker Task","54","37057","56","yes","1024"
"96.4912280702","96.4912280702","660.403508772","660.403508772","black","legacy","legacy","legacy","0","congruent","uniform","1","undefined","1","h","0","0","0","0","56","0","56","0","56","NA","0","NA","0","56","56","56","NA","56","NA","56","NA","09/21/22 11:37:35","1500","The main experiment item","yes","FlankerTask.osexp","C:\Users\olasa\OneDrive\Desktop","no","mono","no","18","no","white","no","yes","768","legacy","56","56","C:/Users/olasa/OneDrive/Desktop/OL-subject-2.csv","legacy","Lentiform Loewenfeld","3.3.12","0","h","s","NA","NA","NA","NA","NA","h","NA","NA","586","33059","NA","NA","NA","NA","NA","586","NA","NA","NA","NA","2","legacy","1024","2","48000","-16","experiment","HHHHH","2","even","35552","NA","NA","2492","62173","2480","NA","NA","140653","NA","NA","NA","NA","139583","140756","141343","NA","140651","NA","140756","NA","Flanker Task","55","37643","57","yes","1024"
"96.5517241379","96.5517241379","660.844827586","660.844827586","black","legacy","legacy","legacy","0","incongruent","uniform","1","undefined","1","h","0","0","0","0","57","0","57","0","57","NA","0","NA","0","57","57","57","NA","57","NA","57","NA","09/21/22 11:37:35","1500","The main experiment item","yes","FlankerTask.osexp","C:\Users\olasa\OneDrive\Desktop","no","mono","no","18","no","white","no","yes","768","legacy","57","57","C:/Users/olasa/OneDrive/Desktop/OL-subject-2.csv","legacy","Lentiform Loewenfeld","3.3.12","0","h","s","NA","NA","NA","NA","NA","h","NA","NA","686","33059","NA","NA","NA","NA","NA","686","NA","NA","NA","NA","2","legacy","1024","2","48000","-16","experiment","SSHSS","2","even","35552","NA","NA","2492","62173","2480","NA","NA","142424","NA","NA","NA","NA","141352","142528","143215","NA","142422","NA","142528","NA","Flanker Task","56","38329","58","yes","1024"
"96.6101694915","96.6101694915","663.084745763","663.084745763","black","legacy","legacy","legacy","0","incongruent","uniform","1","undefined","1","s","0","0","0","0","58","0","58","0","58","NA","0","NA","0","58","58","58","NA","58","NA","58","NA","09/21/22 11:37:35","1500","The main experiment item","yes","FlankerTask.osexp","C:\Users\olasa\OneDrive\Desktop","no","mono","no","18","no","white","no","yes","768","legacy","58","58","C:/Users/olasa/OneDrive/Desktop/OL-subject-2.csv","legacy","Lentiform Loewenfeld","3.3.12","0","s","s","NA","NA","NA","NA","NA","s","NA","NA","793","33059","NA","NA","NA","NA","NA","793","NA","NA","NA","NA","2","legacy","1024","2","48000","-16","experiment","HHSHH","2","even","35552","NA","NA","2492","62173","2480","NA","NA","144278","NA","NA","NA","NA","143220","144381","145175","NA","144277","NA","144381","NA","Flanker Task","57","39122","59","yes","1024"
"96.6666666667","96.6666666667","663.55","663.55","black","legacy","legacy","legacy","0","incongruent","uniform","1","undefined","1","h","0","0","0","0","59","0","59","0","59","NA","0","NA","0","59","59","59","NA","59","NA","59","NA","09/21/22 11:37:35","1500","The main experiment item","yes","FlankerTask.osexp","C:\Users\olasa\OneDrive\Desktop","no","mono","no","18","no","white","no","yes","768","legacy","59","59","C:/Users/olasa/OneDrive/Desktop/OL-subject-2.csv","legacy","Lentiform Loewenfeld","3.3.12","0","h","s","NA","NA","NA","NA","NA","h","NA","NA","691","33059","NA","NA","NA","NA","NA","691","NA","NA","NA","NA","2","legacy","1024","2","48000","-16","experiment","SSHSS","2","even","35552","NA","NA","2492","62173","2480","NA","NA","146276","NA","NA","NA","NA","145206","146379","147072","NA","146274","NA","146379","NA","Flanker Task","58","39813","60","yes","1024"
"96.7213114754","96.7213114754","662.836065574","662.836065574","black","legacy","legacy","legacy","0","incongruent","uniform","1","undefined","1","s","0","0","0","0","60","0","60","0","60","NA","0","NA","0","60","60","60","NA","60","NA","60","NA","09/21/22 11:37:35","1500","The main experiment item","yes","FlankerTask.osexp","C:\Users\olasa\OneDrive\Desktop","no","mono","no","18","no","white","no","yes","768","legacy","60","60","C:/Users/olasa/OneDrive/Desktop/OL-subject-2.csv","legacy","Lentiform Loewenfeld","3.3.12","0","s","s","NA","NA","NA","NA","NA","s","NA","NA","620","33059","NA","NA","NA","NA","NA","620","NA","NA","NA","NA","2","legacy","1024","2","48000","-16","experiment","HHSHH","2","even","35552","NA","NA","2492","62173","2480","NA","NA","148179","NA","NA","NA","NA","147081","148283","148904","NA","148178","NA","148283","NA","Flanker Task","59","40433","61","yes","1024"
"96.7741935484","96.7741935484","662.274193548","662.274193548","black","legacy","legacy","legacy","0","congruent","uniform","1","undefined","1","h","0","0","0","0","61","0","61","0","61","NA","0","NA","0","61","61","61","NA","61","NA","61","NA","09/21/22 11:37:35","1500","The main experiment item","yes","FlankerTask.osexp","C:\Users\olasa\OneDrive\Desktop","no","mono","no","18","no","white","no","yes","768","legacy","61","61","C:/Users/olasa/OneDrive/Desktop/OL-subject-2.csv","legacy","Lentiform Loewenfeld","3.3.12","0","h","s","NA","NA","NA","NA","NA","h","NA","NA","628","33059","NA","NA","NA","NA","NA","628","NA","NA","NA","NA","2","legacy","1024","2","48000","-16","experiment","HHHHH","2","even","35552","NA","NA","2492","62173","2480","NA","NA","149979","NA","NA","NA","NA","148913","150082","150711","NA","149977","NA","150082","NA","Flanker Task","60","41061","62","yes","1024"
"96.8253968254","96.8253968254","662.222222222","662.222222222","black","legacy","legacy","legacy","0","incongruent","uniform","1","undefined","1","s","0","0","0","0","62","0","62","0","62","NA","0","NA","0","62","62","62","NA","62","NA","62","NA","09/21/22 11:37:35","1500","The main experiment item","yes","FlankerTask.osexp","C:\Users\olasa\OneDrive\Desktop","no","mono","no","18","no","white","no","yes","768","legacy","62","62","C:/Users/olasa/OneDrive/Desktop/OL-subject-2.csv","legacy","Lentiform Loewenfeld","3.3.12","0","s","s","NA","NA","NA","NA","NA","s","NA","NA","659","33059","NA","NA","NA","NA","NA","659","NA","NA","NA","NA","2","legacy","1024","2","48000","-16","experiment","HHSHH","2","even","35552","NA","NA","2492","62173","2480","NA","NA","151812","NA","NA","NA","NA","150740","151915","152576","NA","151811","NA","151915","NA","Flanker Task","61","41720","63","yes","1024"
"96.875","96.875","662.390625","662.390625","black","legacy","legacy","legacy","0","congruent","uniform","1","undefined","1","s","0","0","0","0","63","0","63","0","63","NA","0","NA","0","63","63","63","NA","63","NA","63","NA","09/21/22 11:37:35","1500","The main experiment item","yes","FlankerTask.osexp","C:\Users\olasa\OneDrive\Desktop","no","mono","no","18","no","white","no","yes","768","legacy","63","63","C:/Users/olasa/OneDrive/Desktop/OL-subject-2.csv","legacy","Lentiform Loewenfeld","3.3.12","0","s","s","NA","NA","NA","NA","NA","s","NA","NA","673","33059","NA","NA","NA","NA","NA","673","NA","NA","NA","NA","2","legacy","1024","2","48000","-16","experiment","SSSSS","2","even","35552","NA","NA","2492","62173","2480","NA","NA","153654","NA","NA","NA","NA","152584","153757","154431","NA","153653","NA","153757","NA","Flanker Task","62","42393","64","yes","1024"
"96.9230769231","96.9230769231","662.6","662.6","black","legacy","legacy","legacy","0","incongruent","uniform","1","undefined","1","s","0","0","0","0","64","0","64","0","64","NA","0","NA","0","64","64","64","NA","64","NA","64","NA","09/21/22 11:37:35","1500","The main experiment item","yes","FlankerTask.osexp","C:\Users\olasa\OneDrive\Desktop","no","mono","no","18","no","white","no","yes","768","legacy","64","64","C:/Users/olasa/OneDrive/Desktop/OL-subject-2.csv","legacy","Lentiform Loewenfeld","3.3.12","0","s","s","NA","NA","NA","NA","NA","s","NA","NA","676","33059","NA","NA","NA","NA","NA","676","NA","NA","NA","NA","2","legacy","1024","2","48000","-16","experiment","HHSHH","2","even","35552","NA","NA","2492","62173","2480","NA","NA","155531","NA","NA","NA","NA","154460","155634","156311","NA","155529","NA","155634","NA","Flanker Task","63","43069","65","yes","1024"
"96.9696969697","96.9696969697","662.833333333","662.833333333","black","legacy","legacy","legacy","0","congruent","uniform","1","undefined","1","s","0","0","0","0","65","0","65","0","65","NA","0","NA","0","65","65","65","NA","65","NA","65","NA","09/21/22 11:37:35","1500","The main experiment item","yes","FlankerTask.osexp","C:\Users\olasa\OneDrive\Desktop","no","mono","no","18","no","white","no","yes","768","legacy","65","65","C:/Users/olasa/OneDrive/Desktop/OL-subject-2.csv","legacy","Lentiform Loewenfeld","3.3.12","0","s","s","NA","NA","NA","NA","NA","s","NA","NA","678","33059","NA","NA","NA","NA","NA","678","NA","NA","NA","NA","2","legacy","1024","2","48000","-16","experiment","SSSSS","2","even","35552","NA","NA","2492","62173","2480","NA","NA","157377","NA","NA","NA","NA","156320","157480","158160","NA","157375","NA","157480","NA","Flanker Task","64","43747","66","yes","1024"
"97.0149253731","97.0149253731","661.28358209","661.28358209","black","legacy","legacy","legacy","0","incongruent","uniform","1","undefined","1","h","0","0","0","0","66","0","66","0","66","NA","0","NA","0","66","66","66","NA","66","NA","66","NA","09/21/22 11:37:35","1500","The main experiment item","yes","FlankerTask.osexp","C:\Users\olasa\OneDrive\Desktop","no","mono","no","18","no","white","no","yes","768","legacy","66","66","C:/Users/olasa/OneDrive/Desktop/OL-subject-2.csv","legacy","Lentiform Loewenfeld","3.3.12","0","h","s","NA","NA","NA","NA","NA","h","NA","NA","559","33059","NA","NA","NA","NA","NA","559","NA","NA","NA","NA","2","legacy","1024","2","48000","-16","experiment","SSHSS","2","even","35552","NA","NA","2492","62173","2480","NA","NA","159250","NA","NA","NA","NA","158178","159353","159916","NA","159248","NA","159353","NA","Flanker Task","65","44306","67","yes","1024"
"97.0588235294","97.0588235294","660.5","660.5","black","legacy","legacy","legacy","0","incongruent","uniform","1","undefined","1","h","0","0","0","0","67","0","67","0","67","NA","0","NA","0","67","67","67","NA","67","NA","67","NA","09/21/22 11:37:35","1500","The main experiment item","yes","FlankerTask.osexp","C:\Users\olasa\OneDrive\Desktop","no","mono","no","18","no","white","no","yes","768","legacy","67","67","C:/Users/olasa/OneDrive/Desktop/OL-subject-2.csv","legacy","Lentiform Loewenfeld","3.3.12","0","h","s","NA","NA","NA","NA","NA","h","NA","NA","608","33059","NA","NA","NA","NA","NA","608","NA","NA","NA","NA","2","legacy","1024","2","48000","-16","experiment","SSHSS","2","even","35552","NA","NA","2492","62173","2480","NA","NA","160991","NA","NA","NA","NA","159924","161094","161704","NA","160990","NA","161093","NA","Flanker Task","66","44914","68","yes","1024"
"97.1014492754","97.1014492754","660.086956522","660.086956522","black","legacy","legacy","legacy","0","congruent","uniform","1","undefined","1","h","0","0","0","0","68","0","68","0","68","NA","0","NA","0","68","68","68","NA","68","NA","68","NA","09/21/22 11:37:35","1500","The main experiment item","yes","FlankerTask.osexp","C:\Users\olasa\OneDrive\Desktop","no","mono","no","18","no","white","no","yes","768","legacy","68","68","C:/Users/olasa/OneDrive/Desktop/OL-subject-2.csv","legacy","Lentiform Loewenfeld","3.3.12","0","h","s","NA","NA","NA","NA","NA","h","NA","NA","632","33059","NA","NA","NA","NA","NA","632","NA","NA","NA","NA","2","legacy","1024","2","48000","-16","experiment","HHHHH","2","even","35552","NA","NA","2492","62173","2480","NA","NA","162807","NA","NA","NA","NA","161736","162910","163543","NA","162805","NA","162910","NA","Flanker Task","67","45546","69","yes","1024"
"97.1428571429","97.1428571429","659.8","659.8","black","legacy","legacy","legacy","0","incongruent","uniform","1","undefined","1","h","0","0","0","0","69","0","69","0","69","NA","0","NA","0","69","69","69","NA","69","NA","69","NA","09/21/22 11:37:35","1500","The main experiment item","yes","FlankerTask.osexp","C:\Users\olasa\OneDrive\Desktop","no","mono","no","18","no","white","no","yes","768","legacy","69","69","C:/Users/olasa/OneDrive/Desktop/OL-subject-2.csv","legacy","Lentiform Loewenfeld","3.3.12","0","h","s","NA","NA","NA","NA","NA","h","NA","NA","640","33059","NA","NA","NA","NA","NA","640","NA","NA","NA","NA","2","legacy","1024","2","48000","-16","experiment","SSHSS","2","even","35552","NA","NA","2492","62173","2480","NA","NA","164623","NA","NA","NA","NA","163552","164726","165368","NA","164621","NA","164726","NA","Flanker Task","68","46186","70","yes","1024"
"97.1830985915","97.1830985915","661","661","black","legacy","legacy","legacy","0","congruent","uniform","1","undefined","1","s","0","0","0","0","70","0","70","0","70","NA","0","NA","0","70","70","70","NA","70","NA","70","NA","09/21/22 11:37:35","1500","The main experiment item","yes","FlankerTask.osexp","C:\Users\olasa\OneDrive\Desktop","no","mono","no","18","no","white","no","yes","768","legacy","70","70","C:/Users/olasa/OneDrive/Desktop/OL-subject-2.csv","legacy","Lentiform Loewenfeld","3.3.12","0","s","s","NA","NA","NA","NA","NA","s","NA","NA","745","33059","NA","NA","NA","NA","NA","745","NA","NA","NA","NA","2","legacy","1024","2","48000","-16","experiment","SSSSS","2","even","35552","NA","NA","2492","62173","2480","NA","NA","166470","NA","NA","NA","NA","165400","166573","167319","NA","166468","NA","166573","NA","Flanker Task","69","46931","71","yes","1024"
"97.2222222222","97.2222222222","660.861111111","660.861111111","black","legacy","legacy","legacy","0","congruent","uniform","1","undefined","1","h","0","0","0","0","71","0","71","0","71","NA","0","NA","0","71","71","71","NA","71","NA","71","NA","09/21/22 11:37:35","1500","The main experiment item","yes","FlankerTask.osexp","C:\Users\olasa\OneDrive\Desktop","no","mono","no","18","no","white","no","yes","768","legacy","71","71","C:/Users/olasa/OneDrive/Desktop/OL-subject-2.csv","legacy","Lentiform Loewenfeld","3.3.12","0","h","s","NA","NA","NA","NA","NA","h","NA","NA","651","33059","NA","NA","NA","NA","NA","651","NA","NA","NA","NA","2","legacy","1024","2","48000","-16","experiment","HHHHH","2","even","35552","NA","NA","2492","62173","2480","NA","NA","168422","NA","NA","NA","NA","167328","168524","169176","NA","168420","NA","168524","NA","Flanker Task","70","47582","72","yes","1024"
"97.2602739726","97.2602739726","660.095890411","660.095890411","black","legacy","legacy","legacy","0","incongruent","uniform","1","undefined","1","h","0","0","0","0","72","0","72","0","72","NA","0","NA","0","72","72","72","NA","72","NA","72","NA","09/21/22 11:37:35","1500","The main experiment item","yes","FlankerTask.osexp","C:\Users\olasa\OneDrive\Desktop","no","mono","no","18","no","white","no","yes","768","legacy","72","72","C:/Users/olasa/OneDrive/Desktop/OL-subject-2.csv","legacy","Lentiform Loewenfeld","3.3.12","0","h","s","NA","NA","NA","NA","NA","h","NA","NA","605","33059","NA","NA","NA","NA","NA","605","NA","NA","NA","NA","2","legacy","1024","2","48000","-16","experiment","SSHSS","2","even","35552","NA","NA","2492","62173","2480","NA","NA","170256","NA","NA","NA","NA","169185","170361","170967","NA","170256","NA","170361","NA","Flanker Task","71","48187","73","yes","1024"
"97.2972972973","97.2972972973","660.405405405","660.405405405","black","legacy","legacy","legacy","0","congruent","uniform","1","undefined","1","s","0","0","0","0","73","0","73","0","73","NA","0","NA","0","73","73","73","NA","73","NA","73","NA","09/21/22 11:37:35","1500","The main experiment item","yes","FlankerTask.osexp","C:\Users\olasa\OneDrive\Desktop","no","mono","no","18","no","white","no","yes","768","legacy","73","73","C:/Users/olasa/OneDrive/Desktop/OL-subject-2.csv","legacy","Lentiform Loewenfeld","3.3.12","0","s","s","NA","NA","NA","NA","NA","s","NA","NA","683","33059","NA","NA","NA","NA","NA","683","NA","NA","NA","NA","2","legacy","1024","2","48000","-16","experiment","SSSSS","2","even","35552","NA","NA","2492","62173","2480","NA","NA","172069","NA","NA","NA","NA","170998","172172","172856","NA","172068","NA","172172","NA","Flanker Task","72","48870","74","yes","1024"
"97.3333333333","97.3333333333","660.32","660.32","black","legacy","legacy","legacy","0","incongruent","uniform","1","undefined","1","h","0","0","0","0","74","0","74","0","74","NA","0","NA","0","74","74","74","NA","74","NA","74","NA","09/21/22 11:37:35","1500","The main experiment item","yes","FlankerTask.osexp","C:\Users\olasa\OneDrive\Desktop","no","mono","no","18","no","white","no","yes","768","legacy","74","74","C:/Users/olasa/OneDrive/Desktop/OL-subject-2.csv","legacy","Lentiform Loewenfeld","3.3.12","0","h","s","NA","NA","NA","NA","NA","h","NA","NA","654","33059","NA","NA","NA","NA","NA","654","NA","NA","NA","NA","2","legacy","1024","2","48000","-16","experiment","SSHSS","2","even","35552","NA","NA","2492","62173","2480","NA","NA","173935","NA","NA","NA","NA","172865","174039","174694","NA","173934","NA","174039","NA","Flanker Task","73","49524","75","yes","1024"
"97.3684210526","97.3684210526","660.157894737","660.157894737","black","legacy","legacy","legacy","0","congruent","uniform","1","undefined","1","h","0","0","0","0","75","0","75","0","75","NA","0","NA","0","75","75","75","NA","75","NA","75","NA","09/21/22 11:37:35","1500","The main experiment item","yes","FlankerTask.osexp","C:\Users\olasa\OneDrive\Desktop","no","mono","no","18","no","white","no","yes","768","legacy","75","75","C:/Users/olasa/OneDrive/Desktop/OL-subject-2.csv","legacy","Lentiform Loewenfeld","3.3.12","0","h","s","NA","NA","NA","NA","NA","h","NA","NA","648","33059","NA","NA","NA","NA","NA","648","NA","NA","NA","NA","2","legacy","1024","2","48000","-16","experiment","HHHHH","2","even","35552","NA","NA","2492","62173","2480","NA","NA","175775","NA","NA","NA","NA","174702","175878","176528","NA","175773","NA","175878","NA","Flanker Task","74","50172","76","yes","1024"
"97.4025974026","97.4025974026","659.441558442","659.441558442","black","legacy","legacy","legacy","0","incongruent","uniform","1","undefined","1","h","0","0","0","0","76","0","76","0","76","NA","0","NA","0","76","76","76","NA","76","NA","76","NA","09/21/22 11:37:35","1500","The main experiment item","yes","FlankerTask.osexp","C:\Users\olasa\OneDrive\Desktop","no","mono","no","18","no","white","no","yes","768","legacy","76","76","C:/Users/olasa/OneDrive/Desktop/OL-subject-2.csv","legacy","Lentiform Loewenfeld","3.3.12","0","h","s","NA","NA","NA","NA","NA","h","NA","NA","605","33059","NA","NA","NA","NA","NA","605","NA","NA","NA","NA","2","legacy","1024","2","48000","-16","experiment","SSHSS","2","even","35552","NA","NA","2492","62173","2480","NA","NA","177658","NA","NA","NA","NA","176558","177761","178367","NA","177655","NA","177761","NA","Flanker Task","75","50777","77","yes","1024"
"97.4358974359","97.4358974359","659.461538462","659.461538462","black","legacy","legacy","legacy","0","congruent","uniform","1","undefined","1","s","0","0","0","0","77","0","77","0","77","NA","0","NA","0","77","77","77","NA","77","NA","77","NA","09/21/22 11:37:35","1500","The main experiment item","yes","FlankerTask.osexp","C:\Users\olasa\OneDrive\Desktop","no","mono","no","18","no","white","no","yes","768","legacy","77","77","C:/Users/olasa/OneDrive/Desktop/OL-subject-2.csv","legacy","Lentiform Loewenfeld","3.3.12","0","s","s","NA","NA","NA","NA","NA","s","NA","NA","661","33059","NA","NA","NA","NA","NA","661","NA","NA","NA","NA","2","legacy","1024","2","48000","-16","experiment","SSSSS","2","even","35552","NA","NA","2492","62173","2480","NA","NA","179468","NA","NA","NA","NA","178398","179570","180233","NA","179466","NA","179569","NA","Flanker Task","76","51438","78","yes","1024"
"97.4683544304","97.4683544304","660.860759494","660.860759494","black","legacy","legacy","legacy","0","incongruent","uniform","1","undefined","1","s","0","0","0","0","78","0","78","0","78","NA","0","NA","0","78","78","78","NA","78","NA","78","NA","09/21/22 11:37:35","1500","The main experiment item","yes","FlankerTask.osexp","C:\Users\olasa\OneDrive\Desktop","no","mono","no","18","no","white","no","yes","768","legacy","78","78","C:/Users/olasa/OneDrive/Desktop/OL-subject-2.csv","legacy","Lentiform Loewenfeld","3.3.12","0","s","s","NA","NA","NA","NA","NA","s","NA","NA","770","33059","NA","NA","NA","NA","NA","770","NA","NA","NA","NA","2","legacy","1024","2","48000","-16","experiment","HHSHH","2","even","35552","NA","NA","2492","62173","2480","NA","NA","181325","NA","NA","NA","NA","180242","181428","182199","NA","181322","NA","181428","NA","Flanker Task","77","52208","79","yes","1024"
"97.5","97.5","661.9375","661.9375","black","legacy","legacy","legacy","0","congruent","uniform","1","undefined","1","s","0","0","0","0","79","0","79","0","79","NA","0","NA","0","79","79","79","NA","79","NA","79","NA","09/21/22 11:37:35","1500","The main experiment item","yes","FlankerTask.osexp","C:\Users\olasa\OneDrive\Desktop","no","mono","no","18","no","white","no","yes","768","legacy","79","79","C:/Users/olasa/OneDrive/Desktop/OL-subject-2.csv","legacy","Lentiform Loewenfeld","3.3.12","0","s","s","NA","NA","NA","NA","NA","s","NA","NA","747","33059","NA","NA","NA","NA","NA","747","NA","NA","NA","NA","2","legacy","1024","2","48000","-16","experiment","SSSSS","2","even","35552","NA","NA","2492","62173","2480","NA","NA","183268","NA","NA","NA","NA","182209","183371","184120","NA","183265","NA","183371","NA","Flanker Task","78","52955","80","yes","1024"
"97.5308641975","97.5308641975","660.691358025","660.691358025","black","legacy","legacy","legacy","0","congruent","uniform","1","undefined","1","s","0","0","0","0","80","0","80","0","80","NA","0","NA","0","80","80","80","NA","80","NA","80","NA","09/21/22 11:37:35","600","The main experiment item","yes","FlankerTask.osexp","C:\Users\olasa\OneDrive\Desktop","no","mono","no","18","no","white","no","yes","768","legacy","0","79","C:/Users/olasa/OneDrive/Desktop/OL-subject-2.csv","legacy","Lentiform Loewenfeld","3.3.12","0","s","s","NA","NA","h","NA","NA","s","NA","NA","561","33059","NA","NA","41218","NA","NA","561","NA","NA","NA","NA","2","legacy","1024","2","48000","-16","experiment","SSSSS","2","even","35552","226367","NA","2492","62173","2480","NA","NA","226414","NA","185148","NA","NA","184127","226517","227079","NA","226412","NA","226516","NA","Flanker Task","79","53516","81","yes","1024"
"97.5609756098","97.5609756098","659.37804878","659.37804878","black","legacy","legacy","legacy","0","incongruent","uniform","1","undefined","1","h","0","0","0","0","81","0","81","0","81","NA","0","NA","0","81","81","81","NA","81","NA","81","NA","09/21/22 11:37:35","600","The main experiment item","yes","FlankerTask.osexp","C:\Users\olasa\OneDrive\Desktop","no","mono","no","18","no","white","no","yes","768","legacy","1","79","C:/Users/olasa/OneDrive/Desktop/OL-subject-2.csv","legacy","Lentiform Loewenfeld","3.3.12","0","h","s","NA","NA","h","NA","NA","h","NA","NA","553","33059","NA","NA","41218","NA","NA","553","NA","NA","NA","NA","2","legacy","1024","2","48000","-16","experiment","SSHSS","2","even","35552","226367","NA","2492","62173","2480","NA","NA","228181","NA","185148","NA","NA","227108","228284","228839","NA","228180","NA","228284","NA","Flanker Task","80","54069","82","yes","1024"
"97.5903614458","97.5903614458","658.012048193","658.012048193","black","legacy","legacy","legacy","0","congruent","uniform","1","undefined","1","s","0","0","0","0","82","0","82","0","82","NA","0","NA","0","82","82","82","NA","82","NA","82","NA","09/21/22 11:37:35","600","The main experiment item","yes","FlankerTask.osexp","C:\Users\olasa\OneDrive\Desktop","no","mono","no","18","no","white","no","yes","768","legacy","2","79","C:/Users/olasa/OneDrive/Desktop/OL-subject-2.csv","legacy","Lentiform Loewenfeld","3.3.12","0","s","s","NA","NA","h","NA","NA","s","NA","NA","546","33059","NA","NA","41218","NA","NA","546","NA","NA","NA","NA","2","legacy","1024","2","48000","-16","experiment","SSSSS","2","even","35552","226367","NA","2492","62173","2480","NA","NA","229934","NA","185148","NA","NA","228866","230037","230584","NA","229932","NA","230037","NA","Flanker Task","81","54615","83","yes","1024"
"97.619047619","97.619047619","656.654761905","656.654761905","black","legacy","legacy","legacy","0","incongruent","uniform","1","undefined","1","s","0","0","0","0","83","0","83","0","83","NA","0","NA","0","83","83","83","NA","83","NA","83","NA","09/21/22 11:37:35","600","The main experiment item","yes","FlankerTask.osexp","C:\Users\olasa\OneDrive\Desktop","no","mono","no","18","no","white","no","yes","768","legacy","3","79","C:/Users/olasa/OneDrive/Desktop/OL-subject-2.csv","legacy","Lentiform Loewenfeld","3.3.12","0","s","s","NA","NA","h","NA","NA","s","NA","NA","544","33059","NA","NA","41218","NA","NA","544","NA","NA","NA","NA","2","legacy","1024","2","48000","-16","experiment","HHSHH","2","even","35552","226367","NA","2492","62173","2480","NA","NA","231671","NA","185148","NA","NA","230595","231774","232319","NA","231668","NA","231774","NA","Flanker Task","82","55159","84","yes","1024"
"97.6470588235","97.6470588235","655.741176471","655.741176471","black","legacy","legacy","legacy","0","incongruent","uniform","1","undefined","1","h","0","0","0","0","84","0","84","0","84","NA","0","NA","0","84","84","84","NA","84","NA","84","NA","09/21/22 11:37:35","600","The main experiment item","yes","FlankerTask.osexp","C:\Users\olasa\OneDrive\Desktop","no","mono","no","18","no","white","no","yes","768","legacy","4","79","C:/Users/olasa/OneDrive/Desktop/OL-subject-2.csv","legacy","Lentiform Loewenfeld","3.3.12","0","h","s","NA","NA","h","NA","NA","h","NA","NA","579","33059","NA","NA","41218","NA","NA","579","NA","NA","NA","NA","2","legacy","1024","2","48000","-16","experiment","SSHSS","2","even","35552","226367","NA","2492","62173","2480","NA","NA","233421","NA","185148","NA","NA","232350","233524","234104","NA","233420","NA","233524","NA","Flanker Task","83","55738","85","yes","1024"
"97.6744186047","97.6744186047","654.918604651","654.918604651","black","legacy","legacy","legacy","0","congruent","uniform","1","undefined","1","s","0","0","0","0","85","0","85","0","85","NA","0","NA","0","85","85","85","NA","85","NA","85","NA","09/21/22 11:37:35","600","The main experiment item","yes","FlankerTask.osexp","C:\Users\olasa\OneDrive\Desktop","no","mono","no","18","no","white","no","yes","768","legacy","5","79","C:/Users/olasa/OneDrive/Desktop/OL-subject-2.csv","legacy","Lentiform Loewenfeld","3.3.12","0","s","s","NA","NA","h","NA","NA","s","NA","NA","585","33059","NA","NA","41218","NA","NA","585","NA","NA","NA","NA","2","legacy","1024","2","48000","-16","experiment","SSSSS","2","even","35552","226367","NA","2492","62173","2480","NA","NA","235205","NA","185148","NA","NA","234135","235308","235894","NA","235204","NA","235308","NA","Flanker Task","84","56323","86","yes","1024"
"97.7011494253","97.7011494253","653.586206897","653.586206897","black","legacy","legacy","legacy","0","congruent","uniform","1","undefined","1","h","0","0","0","0","86","0","86","0","86","NA","0","NA","0","86","86","86","NA","86","NA","86","NA","09/21/22 11:37:35","600","The main experiment item","yes","FlankerTask.osexp","C:\Users\olasa\OneDrive\Desktop","no","mono","no","18","no","white","no","yes","768","legacy","6","79","C:/Users/olasa/OneDrive/Desktop/OL-subject-2.csv","legacy","Lentiform Loewenfeld","3.3.12","0","h","s","NA","NA","h","NA","NA","h","NA","NA","539","33059","NA","NA","41218","NA","NA","539","NA","NA","NA","NA","2","legacy","1024","2","48000","-16","experiment","HHHHH","2","even","35552","226367","NA","2492","62173","2480","NA","NA","236972","NA","185148","NA","NA","235898","237075","237618","NA","236970","NA","237075","NA","Flanker Task","85","56862","87","yes","1024"
"97.7272727273","97.7272727273","651.909090909","651.909090909","black","legacy","legacy","legacy","0","congruent","uniform","1","undefined","1","h","0","0","0","0","87","0","87","0","87","NA","0","NA","0","87","87","87","NA","87","NA","87","NA","09/21/22 11:37:35","600","The main experiment item","yes","FlankerTask.osexp","C:\Users\olasa\OneDrive\Desktop","no","mono","no","18","no","white","no","yes","768","legacy","7","79","C:/Users/olasa/OneDrive/Desktop/OL-subject-2.csv","legacy","Lentiform Loewenfeld","3.3.12","0","h","s","NA","NA","h","NA","NA","h","NA","NA","506","33059","NA","NA","41218","NA","NA","506","NA","NA","NA","NA","2","legacy","1024","2","48000","-16","experiment","HHHHH","2","even","35552","226367","NA","2492","62173","2480","NA","NA","238701","NA","185148","NA","NA","237628","238804","239312","NA","238699","NA","238804","NA","Flanker Task","86","57368","88","yes","1024"
"97.7528089888","97.7528089888","650.786516854","650.786516854","black","legacy","legacy","legacy","0","incongruent","uniform","1","undefined","1","h","0","0","0","0","88","0","88","0","88","NA","0","NA","0","88","88","88","NA","88","NA","88","NA","09/21/22 11:37:35","600","The main experiment item","yes","FlankerTask.osexp","C:\Users\olasa\OneDrive\Desktop","no","mono","no","18","no","white","no","yes","768","legacy","8","79","C:/Users/olasa/OneDrive/Desktop/OL-subject-2.csv","legacy","Lentiform Loewenfeld","3.3.12","0","h","s","NA","NA","h","NA","NA","h","NA","NA","552","33059","NA","NA","41218","NA","NA","552","NA","NA","NA","NA","2","legacy","1024","2","48000","-16","experiment","SSHSS","2","even","35552","226367","NA","2492","62173","2480","NA","NA","240393","NA","185148","NA","NA","239321","240496","241050","NA","240391","NA","240496","NA","Flanker Task","87","57920","89","yes","1024"
"97.7777777778","97.7777777778","649.422222222","649.422222222","black","legacy","legacy","legacy","0","congruent","uniform","1","undefined","1","h","0","0","0","0","89","0","89","0","89","NA","0","NA","0","89","89","89","NA","89","NA","89","NA","09/21/22 11:37:35","600","The main experiment item","yes","FlankerTask.osexp","C:\Users\olasa\OneDrive\Desktop","no","mono","no","18","no","white","no","yes","768","legacy","9","79","C:/Users/olasa/OneDrive/Desktop/OL-subject-2.csv","legacy","Lentiform Loewenfeld","3.3.12","0","h","s","NA","NA","h","NA","NA","h","NA","NA","528","33059","NA","NA","41218","NA","NA","528","NA","NA","NA","NA","2","legacy","1024","2","48000","-16","experiment","HHHHH","2","even","35552","226367","NA","2492","62173","2480","NA","NA","242134","NA","185148","NA","NA","241063","242237","242766","NA","242132","NA","242237","NA","Flanker Task","88","58448","90","yes","1024"
"97.8021978022","97.8021978022","647.868131868","647.868131868","black","legacy","legacy","legacy","0","incongruent","uniform","1","undefined","1","h","0","0","0","0","90","0","90","0","90","NA","0","NA","0","90","90","90","NA","90","NA","90","NA","09/21/22 11:37:35","600","The main experiment item","yes","FlankerTask.osexp","C:\Users\olasa\OneDrive\Desktop","no","mono","no","18","no","white","no","yes","768","legacy","10","79","C:/Users/olasa/OneDrive/Desktop/OL-subject-2.csv","legacy","Lentiform Loewenfeld","3.3.12","0","h","s","NA","NA","h","NA","NA","h","NA","NA","508","33059","NA","NA","41218","NA","NA","508","NA","NA","NA","NA","2","legacy","1024","2","48000","-16","experiment","SSHSS","2","even","35552","226367","NA","2492","62173","2480","NA","NA","243854","NA","185148","NA","NA","242775","243955","244466","NA","243852","NA","243955","NA","Flanker Task","89","58956","91","yes","1024"
"97.8260869565","97.8260869565","646.695652174","646.695652174","black","legacy","legacy","legacy","0","incongruent","uniform","1","undefined","1","h","0","0","0","0","91","0","91","0","91","NA","0","NA","0","91","91","91","NA","91","NA","91","NA","09/21/22 11:37:35","600","The main experiment item","yes","FlankerTask.osexp","C:\Users\olasa\OneDrive\Desktop","no","mono","no","18","no","white","no","yes","768","legacy","11","79","C:/Users/olasa/OneDrive/Desktop/OL-subject-2.csv","legacy","Lentiform Loewenfeld","3.3.12","0","h","s","NA","NA","h","NA","NA","h","NA","NA","540","33059","NA","NA","41218","NA","NA","540","NA","NA","NA","NA","2","legacy","1024","2","48000","-16","experiment","SSHSS","2","even","35552","226367","NA","2492","62173","2480","NA","NA","245547","NA","185148","NA","NA","244476","245650","246191","NA","245545","NA","245650","NA","Flanker Task","90","59496","92","yes","1024"
"97.8494623656","97.8494623656","646.322580645","646.322580645","black","legacy","legacy","legacy","0","incongruent","uniform","1","undefined","1","s","0","0","0","0","92","0","92","0","92","NA","0","NA","0","92","92","92","NA","92","NA","92","NA","09/21/22 11:37:35","600","The main experiment item","yes","FlankerTask.osexp","C:\Users\olasa\OneDrive\Desktop","no","mono","no","18","no","white","no","yes","768","legacy","12","79","C:/Users/olasa/OneDrive/Desktop/OL-subject-2.csv","legacy","Lentiform Loewenfeld","3.3.12","0","s","s","NA","NA","h","NA","NA","s","NA","NA","612","33059","NA","NA","41218","NA","NA","612","NA","NA","NA","NA","2","legacy","1024","2","48000","-16","experiment","HHSHH","2","even","35552","226367","NA","2492","62173","2480","NA","NA","247316","NA","185148","NA","NA","246221","247419","248033","NA","247314","NA","247419","NA","Flanker Task","91","60108","93","yes","1024"
"97.8723404255","97.8723404255","645.063829787","645.063829787","black","legacy","legacy","legacy","0","incongruent","uniform","1","undefined","1","h","0","0","0","0","93","0","93","0","93","NA","0","NA","0","93","93","93","NA","93","NA","93","NA","09/21/22 11:37:35","600","The main experiment item","yes","FlankerTask.osexp","C:\Users\olasa\OneDrive\Desktop","no","mono","no","18","no","white","no","yes","768","legacy","13","79","C:/Users/olasa/OneDrive/Desktop/OL-subject-2.csv","legacy","Lentiform Loewenfeld","3.3.12","0","h","s","NA","NA","h","NA","NA","h","NA","NA","528","33059","NA","NA","41218","NA","NA","528","NA","NA","NA","NA","2","legacy","1024","2","48000","-16","experiment","SSHSS","2","even","35552","226367","NA","2492","62173","2480","248043","NA","249615","NA","185148","NA","NA","248546","249718","250247","NA","249614","NA","249718","NA","Flanker Task","92","60636","94","yes","1024"
"97.8947368421","97.8947368421","643.368421053","643.368421053","black","legacy","legacy","legacy","0","congruent","uniform","1","undefined","1","h","0","0","0","0","94","0","94","0","94","NA","0","NA","0","94","94","94","NA","94","NA","94","NA","09/21/22 11:37:35","600","The main experiment item","yes","FlankerTask.osexp","C:\Users\olasa\OneDrive\Desktop","no","mono","no","18","no","white","no","yes","768","legacy","14","79","C:/Users/olasa/OneDrive/Desktop/OL-subject-2.csv","legacy","Lentiform Loewenfeld","3.3.12","0","h","s","NA","NA","h","NA","NA","h","NA","NA","484","33059","NA","NA","41218","NA","NA","484","NA","NA","NA","NA","2","legacy","1024","2","48000","-16","experiment","HHHHH","2","even","35552","226367","NA","2492","62173","2480","248043","NA","251356","NA","185148","NA","NA","250278","251458","251944","NA","251352","NA","251458","NA","Flanker Task","93","61120","95","yes","1024"
"97.9166666667","97.9166666667","641.958333333","641.958333333","black","legacy","legacy","legacy","0","incongruent","uniform","1","undefined","1","s","0","0","0","0","95","0","95","0","95","NA","0","NA","0","95","95","95","NA","95","NA","95","NA","09/21/22 11:37:35","600","The main experiment item","yes","FlankerTask.osexp","C:\Users\olasa\OneDrive\Desktop","no","mono","no","18","no","white","no","yes","768","legacy","15","79","C:/Users/olasa/OneDrive/Desktop/OL-subject-2.csv","legacy","Lentiform Loewenfeld","3.3.12","0","s","s","NA","NA","h","NA","NA","s","NA","NA","508","33059","NA","NA","41218","NA","NA","508","NA","NA","NA","NA","2","legacy","1024","2","48000","-16","experiment","HHSHH","2","even","35552","226367","NA","2492","62173","2480","248043","NA","253044","NA","185148","NA","NA","251973","253147","253656","NA","253042","NA","253147","NA","Flanker Task","94","61628","96","yes","1024"
"97.9381443299","97.9381443299","641.072164948","641.072164948","black","legacy","legacy","legacy","0","incongruent","uniform","1","undefined","1","h","0","0","0","0","96","0","96","0","96","NA","0","NA","0","96","96","96","NA","96","NA","96","NA","09/21/22 11:37:35","600","The main experiment item","yes","FlankerTask.osexp","C:\Users\olasa\OneDrive\Desktop","no","mono","no","18","no","white","no","yes","768","legacy","16","79","C:/Users/olasa/OneDrive/Desktop/OL-subject-2.csv","legacy","Lentiform Loewenfeld","3.3.12","0","h","s","NA","NA","h","NA","NA","h","NA","NA","556","33059","NA","NA","41218","NA","NA","556","NA","NA","NA","NA","2","legacy","1024","2","48000","-16","experiment","SSHSS","2","even","35552","226367","NA","2492","62173","2480","248043","NA","254731","NA","185148","NA","NA","253663","254834","255391","NA","254730","NA","254834","NA","Flanker Task","95","62184","97","yes","1024"
"97.9591836735","97.9591836735","640.857142857","640.857142857","black","legacy","legacy","legacy","0","congruent","uniform","1","undefined","1","s","0","0","0","0","97","0","97","0","97","NA","0","NA","0","97","97","97","NA","97","NA","97","NA","09/21/22 11:37:35","600","The main experiment item","yes","FlankerTask.osexp","C:\Users\olasa\OneDrive\Desktop","no","mono","no","18","no","white","no","yes","768","legacy","17","79","C:/Users/olasa/OneDrive/Desktop/OL-subject-2.csv","legacy","Lentiform Loewenfeld","3.3.12","0","s","s","NA","NA","h","NA","NA","s","NA","NA","620","33059","NA","NA","41218","NA","NA","620","NA","NA","NA","NA","2","legacy","1024","2","48000","-16","experiment","SSSSS","2","even","35552","226367","NA","2492","62173","2480","248043","NA","256491","NA","185148","NA","NA","255421","256594","257217","NA","256490","NA","256594","NA","Flanker Task","96","62804","98","yes","1024"
"97.9797979798","97.9797979798","639.949494949","639.949494949","black","legacy","legacy","legacy","0","congruent","uniform","1","undefined","1","h","0","0","0","0","98","0","98","0","98","NA","0","NA","0","98","98","98","NA","98","NA","98","NA","09/21/22 11:37:35","600","The main experiment item","yes","FlankerTask.osexp","C:\Users\olasa\OneDrive\Desktop","no","mono","no","18","no","white","no","yes","768","legacy","18","79","C:/Users/olasa/OneDrive/Desktop/OL-subject-2.csv","legacy","Lentiform Loewenfeld","3.3.12","0","h","s","NA","NA","h","NA","NA","h","NA","NA","551","33059","NA","NA","41218","NA","NA","551","NA","NA","NA","NA","2","legacy","1024","2","48000","-16","experiment","HHHHH","2","even","35552","226367","NA","2492","62173","2480","257229","NA","258808","NA","185148","NA","NA","257731","258911","259463","NA","258805","NA","258911","NA","Flanker Task","97","63355","99","yes","1024"
"98","98","638.47","638.47","black","legacy","legacy","legacy","0","congruent","uniform","1","undefined","1","h","0","0","0","0","99","0","99","0","99","NA","0","NA","0","99","99","99","NA","99","NA","99","NA","09/21/22 11:37:35","600","The main experiment item","yes","FlankerTask.osexp","C:\Users\olasa\OneDrive\Desktop","no","mono","no","18","no","white","no","yes","768","legacy","19","79","C:/Users/olasa/OneDrive/Desktop/OL-subject-2.csv","legacy","Lentiform Loewenfeld","3.3.12","0","h","s","NA","NA","h","NA","NA","h","NA","NA","492","33059","NA","NA","41218","NA","NA","492","NA","NA","NA","NA","2","legacy","1024","2","48000","-16","experiment","HHHHH","2","even","35552","226367","NA","2492","62173","2480","257229","NA","260557","NA","185148","NA","NA","259492","260658","261151","NA","260554","NA","260658","NA","Flanker Task","98","63847","100","yes","1024"
"98.0198019802","98.0198019802","636.732673267","636.732673267","black","legacy","legacy","legacy","0","congruent","uniform","1","undefined","1","h","0","0","0","0","100","0","100","0","100","NA","0","NA","0","100","100","100","NA","100","NA","100","NA","09/21/22 11:37:35","600","The main experiment item","yes","FlankerTask.osexp","C:\Users\olasa\OneDrive\Desktop","no","mono","no","18","no","white","no","yes","768","legacy","20","79","C:/Users/olasa/OneDrive/Desktop/OL-subject-2.csv","legacy","Lentiform Loewenfeld","3.3.12","0","h","s","NA","NA","h","NA","NA","h","NA","NA","463","33059","NA","NA","41218","NA","NA","463","NA","NA","NA","NA","2","legacy","1024","2","48000","-16","experiment","HHHHH","2","even","35552","226367","NA","2492","62173","2480","257229","NA","262255","NA","185148","NA","NA","261183","262358","262822","NA","262252","NA","262357","NA","Flanker Task","99","64310","101","yes","1024"
"98.0392156863","98.0392156863","634.696078431","634.696078431","black","legacy","legacy","legacy","0","incongruent","uniform","1","undefined","1","s","0","0","0","0","101","0","101","0","101","NA","0","NA","0","101","101","101","NA","101","NA","101","NA","09/21/22 11:37:35","600","The main experiment item","yes","FlankerTask.osexp","C:\Users\olasa\OneDrive\Desktop","no","mono","no","18","no","white","no","yes","768","legacy","21","79","C:/Users/olasa/OneDrive/Desktop/OL-subject-2.csv","legacy","Lentiform Loewenfeld","3.3.12","0","s","s","NA","NA","h","NA","NA","s","NA","NA","429","33059","NA","NA","41218","NA","NA","429","NA","NA","NA","NA","2","legacy","1024","2","48000","-16","experiment","HHSHH","2","even","35552","226367","NA","2492","62173","2480","257229","NA","263898","NA","185148","NA","NA","262831","264001","264434","NA","263896","NA","264001","NA","Flanker Task","100","64739","102","yes","1024"
"97.0873786408","97.0873786408","633.776699029","633.776699029","black","legacy","legacy","legacy","0","incongruent","uniform","0","undefined","0","h","0","0","0","0","102","0","102","0","102","NA","0","NA","0","102","102","102","NA","102","NA","102","NA","09/21/22 11:37:35","600","The main experiment item","yes","FlankerTask.osexp","C:\Users\olasa\OneDrive\Desktop","no","mono","no","18","no","white","no","yes","768","legacy","22","79","C:/Users/olasa/OneDrive/Desktop/OL-subject-2.csv","legacy","Lentiform Loewenfeld","3.3.12","0","s","s","NA","NA","h","NA","NA","s","NA","NA","540","33059","NA","NA","41218","NA","NA","540","NA","NA","NA","NA","2","legacy","1024","2","48000","-16","experiment","SSHSS","2","even","35552","226367","NA","2492","62173","2480","257229","NA","265514","NA","185148","NA","NA","264443","265618","266159","NA","265512","NA","265618","NA","Flanker Task","100","65279","103","yes","1024"
"97.1153846154","97.1153846154","633.586538462","633.586538462","black","legacy","legacy","legacy","0","congruent","uniform","1","undefined","1","s","0","0","0","0","103","0","103","0","103","NA","0","NA","0","103","103","103","NA","103","NA","103","NA","09/21/22 11:37:35","600","The main experiment item","yes","FlankerTask.osexp","C:\Users\olasa\OneDrive\Desktop","no","mono","no","18","no","white","no","yes","768","legacy","23","79","C:/Users/olasa/OneDrive/Desktop/OL-subject-2.csv","legacy","Lentiform Loewenfeld","3.3.12","0","s","s","NA","NA","h","NA","NA","s","NA","NA","614","33059","NA","NA","41218","NA","NA","614","NA","NA","NA","NA","2","legacy","1024","2","48000","-16","experiment","SSSSS","2","even","35552","226367","NA","2492","266169","2480","257229","NA","267744","NA","185148","NA","NA","266672","267847","268462","NA","267740","NA","267847","NA","Flanker Task","101","65893","104","yes","1024"
"97.1428571429","97.1428571429","632.323809524","632.323809524","black","legacy","legacy","legacy","0","incongruent","uniform","1","undefined","1","h","0","0","0","0","104","0","104","0","104","NA","0","NA","0","104","104","104","NA","104","NA","104","NA","09/21/22 11:37:35","600","The main experiment item","yes","FlankerTask.osexp","C:\Users\olasa\OneDrive\Desktop","no","mono","no","18","no","white","no","yes","768","legacy","24","79","C:/Users/olasa/OneDrive/Desktop/OL-subject-2.csv","legacy","Lentiform Loewenfeld","3.3.12","0","h","s","NA","NA","h","NA","NA","h","NA","NA","501","33059","NA","NA","41218","NA","NA","501","NA","NA","NA","NA","2","legacy","1024","2","48000","-16","experiment","SSHSS","2","even","35552","226367","NA","2492","266169","2480","268467","NA","270041","NA","185148","NA","NA","268970","270145","270647","NA","270040","NA","270144","NA","Flanker Task","102","66394","105","yes","1024"
"97.1698113208","97.1698113208","631.990566038","631.990566038","black","legacy","legacy","legacy","0","incongruent","uniform","1","undefined","1","s","0","0","0","0","105","0","105","0","105","NA","0","NA","0","105","105","105","NA","105","NA","105","NA","09/21/22 11:37:35","600","The main experiment item","yes","FlankerTask.osexp","C:\Users\olasa\OneDrive\Desktop","no","mono","no","18","no","white","no","yes","768","legacy","25","79","C:/Users/olasa/OneDrive/Desktop/OL-subject-2.csv","legacy","Lentiform Loewenfeld","3.3.12","0","s","s","NA","NA","h","NA","NA","s","NA","NA","597","33059","NA","NA","41218","NA","NA","597","NA","NA","NA","NA","2","legacy","1024","2","48000","-16","experiment","HHSHH","2","even","35552","226367","NA","2492","266169","2480","268467","NA","271769","NA","185148","NA","NA","270677","271872","272470","NA","271767","NA","271872","NA","Flanker Task","103","66991","106","yes","1024"
"97.1962616822","97.1962616822","631.112149533","631.112149533","black","legacy","legacy","legacy","0","incongruent","uniform","1","undefined","1","s","0","0","0","0","106","0","106","0","106","NA","0","NA","0","106","106","106","NA","106","NA","106","NA","09/21/22 11:37:35","600","The main experiment item","yes","FlankerTask.osexp","C:\Users\olasa\OneDrive\Desktop","no","mono","no","18","no","white","no","yes","768","legacy","26","79","C:/Users/olasa/OneDrive/Desktop/OL-subject-2.csv","legacy","Lentiform Loewenfeld","3.3.12","0","s","s","NA","NA","h","NA","NA","s","NA","NA","538","33059","NA","NA","41218","NA","NA","538","NA","NA","NA","NA","2","legacy","1024","2","48000","-16","experiment","HHSHH","2","even","35552","226367","NA","2492","266169","2480","268467","NA","273550","NA","185148","NA","NA","272479","273653","274194","NA","273548","NA","273653","NA","Flanker Task","104","67529","107","yes","1024"
"97.2222222222","97.2222222222","629.583333333","629.583333333","black","legacy","legacy","legacy","0","incongruent","uniform","1","undefined","1","h","0","0","0","0","107","0","107","0","107","NA","0","NA","0","107","107","107","NA","107","NA","107","NA","09/21/22 11:37:35","600","The main experiment item","yes","FlankerTask.osexp","C:\Users\olasa\OneDrive\Desktop","no","mono","no","18","no","white","no","yes","768","legacy","27","79","C:/Users/olasa/OneDrive/Desktop/OL-subject-2.csv","legacy","Lentiform Loewenfeld","3.3.12","0","h","s","NA","NA","h","NA","NA","h","NA","NA","466","33059","NA","NA","41218","NA","NA","466","NA","NA","NA","NA","2","legacy","1024","2","48000","-16","experiment","SSHSS","2","even","35552","226367","NA","2492","266169","2480","268467","NA","275276","NA","185148","NA","NA","274205","275379","275847","NA","275274","NA","275379","NA","Flanker Task","105","67995","108","yes","1024"
"97.247706422","97.247706422","628.165137615","628.165137615","black","legacy","legacy","legacy","0","incongruent","uniform","1","undefined","1","h","0","0","0","0","108","0","108","0","108","NA","0","NA","0","108","108","108","NA","108","NA","108","NA","09/21/22 11:37:35","600","The main experiment item","yes","FlankerTask.osexp","C:\Users\olasa\OneDrive\Desktop","no","mono","no","18","no","white","no","yes","768","legacy","28","79","C:/Users/olasa/OneDrive/Desktop/OL-subject-2.csv","legacy","Lentiform Loewenfeld","3.3.12","0","h","s","NA","NA","h","NA","NA","h","NA","NA","475","33059","NA","NA","41218","NA","NA","475","NA","NA","NA","NA","2","legacy","1024","2","48000","-16","experiment","SSHSS","2","even","35552","226367","NA","2492","266169","2480","268467","NA","276932","NA","185148","NA","NA","275855","277035","277514","NA","276929","NA","277034","NA","Flanker Task","106","68470","109","yes","1024"
