acc,accuracy,average_response_time,avg_rt,background,canvas_backend,clock_backend,color_backend,compensation,condition,coordinates,correct,correct_instructions1,correct_keyboard_response,correct_response,count_ISI,count_block1,count_block2,count_block3,count_errorFeedback,count_experiment,count_faster,count_finish,count_fixation,count_instruction3,count_instructions1,count_instructions2,count_keyboard_response,count_logger,count_sequence,count_stimulus,datetime,deadline,description,disable_garbage_collection,experiment_file,experiment_path,font_bold,font_family,font_italic,font_size,font_underline,foreground,form_clicks,fullscreen,height,keyboard_backend,live_row,live_row_block1,logfile,mouse_backend,opensesame_codename,opensesame_version,repeat_cycle,response,response_finish,response_instruction3,response_instructions1,response_instructions2,response_keyboard_response,response_time,response_time_finish,response_time_instruction3,response_time_instructions1,response_time_instructions2,response_time_keyboard_response,round_decimals,sampler_backend,sound_buf_size,sound_channels,sound_freq,sound_sample_size,start,stimulus,subject_nr,subject_parity,time_ISI,time_block1,time_block2,time_block3,time_errorFeedback,time_experiment,time_faster,time_finish,time_fixation,time_instruction3,time_instructions1,time_instructions2,time_keyboard_response,time_logger,time_sequence,time_stimulus,title,total_correct,total_response_time,total_responses,uniform_coordinates,width
100,100,1100,1100,black,legacy,legacy,legacy,0,congruent,uniform,1,undefined,1,h,0,0,0,0,0,0,0,0,0,0,0,0,0,0,0,0,9/27/19 17:47,1500,The main experiment item,yes,Flankertask.osexp,C:\Users\Edgar\Documents\Edgar School\Fall 2019\Lab 2-1,no,mono,no,18,no,white,no,yes,768,legacy,0,0,C:/Users/Edgar/Documents/Edgar School/Fall 2019/Lab 2-2/OJ-subject-3.csv,legacy,Kafkaesque Koffka,3.2.8,0,h,NA,NA,space,NA,h,1100,NA,NA,25471,NA,1100,2,legacy,1024,2,48000,-16,experiment,HHHHH,3,odd,NA,32872,NA,NA,NA,7378,NA,NA,33267,NA,7398,NA,33372,34473,33259,33372,Flanker task,1,1100,1,yes,1024
100,100,944.5,944.5,black,legacy,legacy,legacy,0,incongruent,uniform,1,undefined,1,s,1,0,0,0,1,0,1,0,1,0,0,0,1,1,1,1,9/27/19 17:47,1500,The main experiment item,yes,Flankertask.osexp,C:\Users\Edgar\Documents\Edgar School\Fall 2019\Lab 2-1,no,mono,no,18,no,white,no,yes,768,legacy,1,1,C:/Users/Edgar/Documents/Edgar School/Fall 2019/Lab 2-2/OJ-subject-3.csv,legacy,Kafkaesque Koffka,3.2.8,0,s,NA,NA,space,NA,s,789,NA,NA,25471,NA,789,2,legacy,1024,2,48000,-16,experiment,HHSHH,3,odd,34573,32872,NA,NA,NA,7378,NA,NA,35813,NA,7398,NA,35918,36708,35806,35918,Flanker task,2,1889,2,yes,1024
100,100,818.6666667,818.6666667,black,legacy,legacy,legacy,0,incongruent,uniform,1,undefined,1,s,2,0,0,0,2,0,2,0,2,0,0,0,2,2,2,2,9/27/19 17:47,1500,The main experiment item,yes,Flankertask.osexp,C:\Users\Edgar\Documents\Edgar School\Fall 2019\Lab 2-1,no,mono,no,18,no,white,no,yes,768,legacy,2,2,C:/Users/Edgar/Documents/Edgar School/Fall 2019/Lab 2-2/OJ-subject-3.csv,legacy,Kafkaesque Koffka,3.2.8,0,s,NA,NA,space,NA,s,567,NA,NA,25471,NA,567,2,legacy,1024,2,48000,-16,experiment,HHSHH,3,odd,36787,32872,NA,NA,NA,7378,NA,NA,38019,NA,7398,NA,38124,38693,38012,38124,Flanker task,3,2456,3,yes,1024
100,100,736.5,736.5,black,legacy,legacy,legacy,0,congruent,uniform,1,undefined,1,s,3,0,0,0,3,0,3,0,3,0,0,0,3,3,3,3,9/27/19 17:47,1500,The main experiment item,yes,Flankertask.osexp,C:\Users\Edgar\Documents\Edgar School\Fall 2019\Lab 2-1,no,mono,no,18,no,white,no,yes,768,legacy,3,3,C:/Users/Edgar/Documents/Edgar School/Fall 2019/Lab 2-2/OJ-subject-3.csv,legacy,Kafkaesque Koffka,3.2.8,0,s,NA,NA,space,NA,s,490,NA,NA,25471,NA,490,2,legacy,1024,2,48000,-16,experiment,SSSSS,3,odd,38758,32872,NA,NA,NA,7378,NA,NA,40035,NA,7398,NA,40141,40632,40028,40140,Flanker task,4,2946,4,yes,1024
100,100,676,676,black,legacy,legacy,legacy,0,congruent,uniform,1,undefined,1,h,4,0,0,0,4,0,4,0,4,0,0,0,4,4,4,4,9/27/19 17:47,1500,The main experiment item,yes,Flankertask.osexp,C:\Users\Edgar\Documents\Edgar School\Fall 2019\Lab 2-1,no,mono,no,18,no,white,no,yes,768,legacy,4,4,C:/Users/Edgar/Documents/Edgar School/Fall 2019/Lab 2-2/OJ-subject-3.csv,legacy,Kafkaesque Koffka,3.2.8,0,h,NA,NA,space,NA,h,434,NA,NA,25471,NA,434,2,legacy,1024,2,48000,-16,experiment,HHHHH,3,odd,40688,32872,NA,NA,NA,7378,NA,NA,41921,NA,7398,NA,42026,42462,41914,42026,Flanker task,5,3380,5,yes,1024
100,100,642.5,642.5,black,legacy,legacy,legacy,0,incongruent,uniform,1,undefined,1,s,5,0,0,0,5,0,5,0,5,0,0,0,5,5,5,5,9/27/19 17:47,1500,The main experiment item,yes,Flankertask.osexp,C:\Users\Edgar\Documents\Edgar School\Fall 2019\Lab 2-1,no,mono,no,18,no,white,no,yes,768,legacy,5,5,C:/Users/Edgar/Documents/Edgar School/Fall 2019/Lab 2-2/OJ-subject-3.csv,legacy,Kafkaesque Koffka,3.2.8,0,s,NA,NA,space,NA,s,475,NA,NA,25471,NA,475,2,legacy,1024,2,48000,-16,experiment,HHSHH,3,odd,42517,32872,NA,NA,NA,7378,NA,NA,43773,NA,7398,NA,43879,44356,43766,43879,Flanker task,6,3855,6,yes,1024
100,100,622,622,black,legacy,legacy,legacy,0,incongruent,uniform,1,undefined,1,s,6,0,0,0,6,0,6,0,6,0,0,0,6,6,6,6,9/27/19 17:47,1500,The main experiment item,yes,Flankertask.osexp,C:\Users\Edgar\Documents\Edgar School\Fall 2019\Lab 2-1,no,mono,no,18,no,white,no,yes,768,legacy,6,6,C:/Users/Edgar/Documents/Edgar School/Fall 2019/Lab 2-2/OJ-subject-3.csv,legacy,Kafkaesque Koffka,3.2.8,0,s,NA,NA,space,NA,s,499,NA,NA,25471,NA,499,2,legacy,1024,2,48000,-16,experiment,HHSHH,3,odd,44403,32872,NA,NA,NA,7378,NA,NA,45647,NA,7398,NA,45754,46254,45639,45754,Flanker task,7,4354,7,yes,1024
100,100,609.25,609.25,black,legacy,legacy,legacy,0,congruent,uniform,1,undefined,1,h,7,0,0,0,7,0,7,0,7,0,0,0,7,7,7,7,9/27/19 17:47,1500,The main experiment item,yes,Flankertask.osexp,C:\Users\Edgar\Documents\Edgar School\Fall 2019\Lab 2-1,no,mono,no,18,no,white,no,yes,768,legacy,7,7,C:/Users/Edgar/Documents/Edgar School/Fall 2019/Lab 2-2/OJ-subject-3.csv,legacy,Kafkaesque Koffka,3.2.8,0,h,NA,NA,space,NA,h,520,NA,NA,25471,NA,520,2,legacy,1024,2,48000,-16,experiment,HHHHH,3,odd,46313,32872,NA,NA,NA,7378,NA,NA,47550,NA,7398,NA,47656,48177,47543,47656,Flanker task,8,4874,8,yes,1024
100,100,599.1111111,599.1111111,black,legacy,legacy,legacy,0,congruent,uniform,1,undefined,1,s,8,0,0,0,8,0,8,0,8,0,0,0,8,8,8,8,9/27/19 17:47,1500,The main experiment item,yes,Flankertask.osexp,C:\Users\Edgar\Documents\Edgar School\Fall 2019\Lab 2-1,no,mono,no,18,no,white,no,yes,768,legacy,8,8,C:/Users/Edgar/Documents/Edgar School/Fall 2019/Lab 2-2/OJ-subject-3.csv,legacy,Kafkaesque Koffka,3.2.8,0,s,NA,NA,space,NA,s,518,NA,NA,25471,NA,518,2,legacy,1024,2,48000,-16,experiment,SSSSS,3,odd,48248,32872,NA,NA,NA,7378,NA,NA,49492,NA,7398,NA,49599,50118,49484,49598,Flanker task,9,5392,9,yes,1024
100,100,616.5,616.5,black,legacy,legacy,legacy,0,incongruent,uniform,1,undefined,1,h,9,0,0,0,9,0,9,0,9,0,0,0,9,9,9,9,9/27/19 17:47,1500,The main experiment item,yes,Flankertask.osexp,C:\Users\Edgar\Documents\Edgar School\Fall 2019\Lab 2-1,no,mono,no,18,no,white,no,yes,768,legacy,9,9,C:/Users/Edgar/Documents/Edgar School/Fall 2019/Lab 2-2/OJ-subject-3.csv,legacy,Kafkaesque Koffka,3.2.8,0,h,NA,NA,space,NA,h,773,NA,NA,25471,NA,773,2,legacy,1024,2,48000,-16,experiment,SSHSS,3,odd,50173,32872,NA,NA,NA,7378,NA,NA,51438,NA,7398,NA,51543,52317,51430,51543,Flanker task,10,6165,10,yes,1024
100,100,604,604,black,legacy,legacy,legacy,0,congruent,uniform,1,undefined,1,s,10,0,0,0,10,0,10,0,10,0,0,0,10,10,10,10,9/27/19 17:47,1500,The main experiment item,yes,Flankertask.osexp,C:\Users\Edgar\Documents\Edgar School\Fall 2019\Lab 2-1,no,mono,no,18,no,white,no,yes,768,legacy,10,10,C:/Users/Edgar/Documents/Edgar School/Fall 2019/Lab 2-2/OJ-subject-3.csv,legacy,Kafkaesque Koffka,3.2.8,0,s,NA,NA,space,NA,s,479,NA,NA,25471,NA,479,2,legacy,1024,2,48000,-16,experiment,SSSSS,3,odd,52408,32872,NA,NA,NA,7378,NA,NA,53666,NA,7398,NA,53773,54253,53658,53772,Flanker task,11,6644,11,yes,1024
100,100,607.25,607.25,black,legacy,legacy,legacy,0,incongruent,uniform,1,undefined,1,s,11,0,0,0,11,0,11,0,11,0,0,0,11,11,11,11,9/27/19 17:47,1500,The main experiment item,yes,Flankertask.osexp,C:\Users\Edgar\Documents\Edgar School\Fall 2019\Lab 2-1,no,mono,no,18,no,white,no,yes,768,legacy,11,11,C:/Users/Edgar/Documents/Edgar School/Fall 2019/Lab 2-2/OJ-subject-3.csv,legacy,Kafkaesque Koffka,3.2.8,0,s,NA,NA,space,NA,s,643,NA,NA,25471,NA,643,2,legacy,1024,2,48000,-16,experiment,HHSHH,3,odd,54310,32872,NA,NA,NA,7378,NA,NA,55544,NA,7398,NA,55649,56293,55536,55649,Flanker task,12,7287,12,yes,1024
100,100,604.5384615,604.5384615,black,legacy,legacy,legacy,0,congruent,uniform,1,undefined,1,s,12,0,0,0,12,0,12,0,12,0,0,0,12,12,12,12,9/27/19 17:47,1500,The main experiment item,yes,Flankertask.osexp,C:\Users\Edgar\Documents\Edgar School\Fall 2019\Lab 2-1,no,mono,no,18,no,white,no,yes,768,legacy,12,12,C:/Users/Edgar/Documents/Edgar School/Fall 2019/Lab 2-2/OJ-subject-3.csv,legacy,Kafkaesque Koffka,3.2.8,0,s,NA,NA,space,NA,s,572,NA,NA,25471,NA,572,2,legacy,1024,2,48000,-16,experiment,SSSSS,3,odd,56353,32872,NA,NA,NA,7378,NA,NA,57587,NA,7398,NA,57692,58266,57579,57692,Flanker task,13,7859,13,yes,1024
100,100,592.5714286,592.5714286,black,legacy,legacy,legacy,0,congruent,uniform,1,undefined,1,s,13,0,0,0,13,0,13,0,13,0,0,0,13,13,13,13,9/27/19 17:47,1500,The main experiment item,yes,Flankertask.osexp,C:\Users\Edgar\Documents\Edgar School\Fall 2019\Lab 2-1,no,mono,no,18,no,white,no,yes,768,legacy,13,13,C:/Users/Edgar/Documents/Edgar School/Fall 2019/Lab 2-2/OJ-subject-3.csv,legacy,Kafkaesque Koffka,3.2.8,0,s,NA,NA,space,NA,s,437,NA,NA,25471,NA,437,2,legacy,1024,2,48000,-16,experiment,SSSSS,3,odd,58349,32872,NA,NA,NA,7378,NA,NA,59609,NA,7398,NA,59715,60153,59602,59715,Flanker task,14,8296,14,yes,1024
100,100,586.6666667,586.6666667,black,legacy,legacy,legacy,0,congruent,uniform,1,undefined,1,h,14,0,0,0,14,0,14,0,14,0,0,0,14,14,14,14,9/27/19 17:47,1500,The main experiment item,yes,Flankertask.osexp,C:\Users\Edgar\Documents\Edgar School\Fall 2019\Lab 2-1,no,mono,no,18,no,white,no,yes,768,legacy,14,14,C:/Users/Edgar/Documents/Edgar School/Fall 2019/Lab 2-2/OJ-subject-3.csv,legacy,Kafkaesque Koffka,3.2.8,0,h,NA,NA,space,NA,h,504,NA,NA,25471,NA,504,2,legacy,1024,2,48000,-16,experiment,HHHHH,3,odd,60229,32872,NA,NA,NA,7378,NA,NA,61472,NA,7398,NA,61578,62084,61464,61577,Flanker task,15,8800,15,yes,1024
100,100,584.8125,584.8125,black,legacy,legacy,legacy,0,incongruent,uniform,1,undefined,1,s,15,0,0,0,15,0,15,0,15,0,0,0,15,15,15,15,9/27/19 17:47,1500,The main experiment item,yes,Flankertask.osexp,C:\Users\Edgar\Documents\Edgar School\Fall 2019\Lab 2-1,no,mono,no,18,no,white,no,yes,768,legacy,15,15,C:/Users/Edgar/Documents/Edgar School/Fall 2019/Lab 2-2/OJ-subject-3.csv,legacy,Kafkaesque Koffka,3.2.8,0,s,NA,NA,space,NA,s,557,NA,NA,25471,NA,557,2,legacy,1024,2,48000,-16,experiment,HHSHH,3,odd,62149,32872,NA,NA,NA,7378,NA,NA,63383,NA,7398,NA,63489,64048,63376,63489,Flanker task,16,9357,16,yes,1024
100,100,583.5882353,583.5882353,black,legacy,legacy,legacy,0,incongruent,uniform,1,undefined,1,h,16,0,0,0,16,0,16,0,16,0,0,0,16,16,16,16,9/27/19 17:47,1500,The main experiment item,yes,Flankertask.osexp,C:\Users\Edgar\Documents\Edgar School\Fall 2019\Lab 2-1,no,mono,no,18,no,white,no,yes,768,legacy,16,16,C:/Users/Edgar/Documents/Edgar School/Fall 2019/Lab 2-2/OJ-subject-3.csv,legacy,Kafkaesque Koffka,3.2.8,0,h,NA,NA,space,NA,h,564,NA,NA,25471,NA,564,2,legacy,1024,2,48000,-16,experiment,SSHSS,3,odd,64118,32872,NA,NA,NA,7378,NA,NA,65377,NA,7398,NA,65482,66048,65370,65482,Flanker task,17,9921,17,yes,1024
100,100,574.2222222,574.2222222,black,legacy,legacy,legacy,0,congruent,uniform,1,undefined,1,h,17,0,0,0,17,0,17,0,17,0,0,0,17,17,17,17,9/27/19 17:47,1500,The main experiment item,yes,Flankertask.osexp,C:\Users\Edgar\Documents\Edgar School\Fall 2019\Lab 2-1,no,mono,no,18,no,white,no,yes,768,legacy,17,17,C:/Users/Edgar/Documents/Edgar School/Fall 2019/Lab 2-2/OJ-subject-3.csv,legacy,Kafkaesque Koffka,3.2.8,0,h,NA,NA,space,NA,h,415,NA,NA,25471,NA,415,2,legacy,1024,2,48000,-16,experiment,HHHHH,3,odd,66099,32872,NA,NA,NA,7378,NA,NA,67329,NA,7398,NA,67435,67853,67322,67434,Flanker task,18,10336,18,yes,1024
100,100,572.3157895,572.3157895,black,legacy,legacy,legacy,0,congruent,uniform,1,undefined,1,s,18,0,0,0,18,0,18,0,18,0,0,0,18,18,18,18,9/27/19 17:47,1500,The main experiment item,yes,Flankertask.osexp,C:\Users\Edgar\Documents\Edgar School\Fall 2019\Lab 2-1,no,mono,no,18,no,white,no,yes,768,legacy,18,18,C:/Users/Edgar/Documents/Edgar School/Fall 2019/Lab 2-2/OJ-subject-3.csv,legacy,Kafkaesque Koffka,3.2.8,0,s,NA,NA,space,NA,s,538,NA,NA,25471,NA,538,2,legacy,1024,2,48000,-16,experiment,SSSSS,3,odd,67916,32872,NA,NA,NA,7378,NA,NA,69165,NA,7398,NA,69270,69810,69156,69270,Flanker task,19,10874,19,yes,1024
100,100,592.7,592.7,black,legacy,legacy,legacy,0,incongruent,uniform,1,undefined,1,h,19,0,0,0,19,0,19,0,19,0,0,0,19,19,19,19,9/27/19 17:47,1500,The main experiment item,yes,Flankertask.osexp,C:\Users\Edgar\Documents\Edgar School\Fall 2019\Lab 2-1,no,mono,no,18,no,white,no,yes,768,legacy,19,19,C:/Users/Edgar/Documents/Edgar School/Fall 2019/Lab 2-2/OJ-subject-3.csv,legacy,Kafkaesque Koffka,3.2.8,0,h,NA,NA,space,NA,h,980,NA,NA,25471,NA,980,2,legacy,1024,2,48000,-16,experiment,SSHSS,3,odd,69854,32872,NA,NA,NA,7378,NA,NA,71120,NA,7398,NA,71227,72208,71113,71226,Flanker task,20,11854,20,yes,1024
100,100,589.5714286,589.5714286,black,legacy,legacy,legacy,0,incongruent,uniform,1,undefined,1,h,20,0,0,0,20,0,20,0,20,0,0,0,20,20,20,20,9/27/19 17:47,1500,The main experiment item,yes,Flankertask.osexp,C:\Users\Edgar\Documents\Edgar School\Fall 2019\Lab 2-1,no,mono,no,18,no,white,no,yes,768,legacy,20,20,C:/Users/Edgar/Documents/Edgar School/Fall 2019/Lab 2-2/OJ-subject-3.csv,legacy,Kafkaesque Koffka,3.2.8,0,h,NA,NA,space,NA,h,527,NA,NA,25471,NA,527,2,legacy,1024,2,48000,-16,experiment,SSHSS,3,odd,72261,32872,NA,NA,NA,7378,NA,NA,73508,NA,7398,NA,73614,74143,73501,73613,Flanker task,21,12381,21,yes,1024
100,100,586,586,black,legacy,legacy,legacy,0,congruent,uniform,1,undefined,1,s,21,0,0,0,21,0,21,0,21,0,0,0,21,21,21,21,9/27/19 17:47,1500,The main experiment item,yes,Flankertask.osexp,C:\Users\Edgar\Documents\Edgar School\Fall 2019\Lab 2-1,no,mono,no,18,no,white,no,yes,768,legacy,21,21,C:/Users/Edgar/Documents/Edgar School/Fall 2019/Lab 2-2/OJ-subject-3.csv,legacy,Kafkaesque Koffka,3.2.8,0,s,NA,NA,space,NA,s,511,NA,NA,25471,NA,511,2,legacy,1024,2,48000,-16,experiment,SSSSS,3,odd,74197,32872,NA,NA,NA,7378,NA,NA,75433,NA,7398,NA,75541,76054,75426,75540,Flanker task,22,12892,22,yes,1024
100,100,582.7391304,582.7391304,black,legacy,legacy,legacy,0,congruent,uniform,1,undefined,1,s,22,0,0,0,22,0,22,0,22,0,0,0,22,22,22,22,9/27/19 17:47,1500,The main experiment item,yes,Flankertask.osexp,C:\Users\Edgar\Documents\Edgar School\Fall 2019\Lab 2-1,no,mono,no,18,no,white,no,yes,768,legacy,22,22,C:/Users/Edgar/Documents/Edgar School/Fall 2019/Lab 2-2/OJ-subject-3.csv,legacy,Kafkaesque Koffka,3.2.8,0,s,NA,NA,space,NA,s,511,NA,NA,25471,NA,511,2,legacy,1024,2,48000,-16,experiment,SSSSS,3,odd,76090,32872,NA,NA,NA,7378,NA,NA,77319,NA,7398,NA,77426,77939,77312,77425,Flanker task,23,13403,23,yes,1024
100,100,577.4583333,577.4583333,black,legacy,legacy,legacy,0,congruent,uniform,1,undefined,1,s,23,0,0,0,23,0,23,0,23,0,0,0,23,23,23,23,9/27/19 17:47,1500,The main experiment item,yes,Flankertask.osexp,C:\Users\Edgar\Documents\Edgar School\Fall 2019\Lab 2-1,no,mono,no,18,no,white,no,yes,768,legacy,23,23,C:/Users/Edgar/Documents/Edgar School/Fall 2019/Lab 2-2/OJ-subject-3.csv,legacy,Kafkaesque Koffka,3.2.8,0,s,NA,NA,space,NA,s,456,NA,NA,25471,NA,456,2,legacy,1024,2,48000,-16,experiment,SSSSS,3,odd,78014,32872,NA,NA,NA,7378,NA,NA,79255,NA,7398,NA,79361,79819,79248,79361,Flanker task,24,13859,24,yes,1024
100,100,574.08,574.08,black,legacy,legacy,legacy,0,incongruent,uniform,1,undefined,1,h,24,0,0,0,24,0,24,0,24,0,0,0,24,24,24,24,9/27/19 17:47,1500,The main experiment item,yes,Flankertask.osexp,C:\Users\Edgar\Documents\Edgar School\Fall 2019\Lab 2-1,no,mono,no,18,no,white,no,yes,768,legacy,24,24,C:/Users/Edgar/Documents/Edgar School/Fall 2019/Lab 2-2/OJ-subject-3.csv,legacy,Kafkaesque Koffka,3.2.8,0,h,NA,NA,space,NA,h,493,NA,NA,25471,NA,493,2,legacy,1024,2,48000,-16,experiment,SSHSS,3,odd,79888,32872,NA,NA,NA,7378,NA,NA,81125,NA,7398,NA,81231,81727,81117,81231,Flanker task,25,14352,25,yes,1024
100,100,572.7307692,572.7307692,black,legacy,legacy,legacy,0,incongruent,uniform,1,undefined,1,h,25,0,0,0,25,0,25,0,25,0,0,0,25,25,25,25,9/27/19 17:47,1500,The main experiment item,yes,Flankertask.osexp,C:\Users\Edgar\Documents\Edgar School\Fall 2019\Lab 2-1,no,mono,no,18,no,white,no,yes,768,legacy,25,25,C:/Users/Edgar/Documents/Edgar School/Fall 2019/Lab 2-2/OJ-subject-3.csv,legacy,Kafkaesque Koffka,3.2.8,0,h,NA,NA,space,NA,h,539,NA,NA,25471,NA,539,2,legacy,1024,2,48000,-16,experiment,SSHSS,3,odd,81791,32872,NA,NA,NA,7378,NA,NA,83069,NA,7398,NA,83176,83719,83062,83175,Flanker task,26,14891,26,yes,1024
100,100,570.1851852,570.1851852,black,legacy,legacy,legacy,0,incongruent,uniform,1,undefined,1,s,26,0,0,0,26,0,26,0,26,0,0,0,26,26,26,26,9/27/19 17:47,1500,The main experiment item,yes,Flankertask.osexp,C:\Users\Edgar\Documents\Edgar School\Fall 2019\Lab 2-1,no,mono,no,18,no,white,no,yes,768,legacy,26,26,C:/Users/Edgar/Documents/Edgar School/Fall 2019/Lab 2-2/OJ-subject-3.csv,legacy,Kafkaesque Koffka,3.2.8,0,s,NA,NA,space,NA,s,504,NA,NA,25471,NA,504,2,legacy,1024,2,48000,-16,experiment,HHSHH,3,odd,83793,32872,NA,NA,NA,7378,NA,NA,85086,NA,7398,NA,85191,85698,85078,85191,Flanker task,27,15395,27,yes,1024
100,100,566.6428571,566.6428571,black,legacy,legacy,legacy,0,congruent,uniform,1,undefined,1,h,27,0,0,0,27,0,27,0,27,0,0,0,27,27,27,27,9/27/19 17:47,1500,The main experiment item,yes,Flankertask.osexp,C:\Users\Edgar\Documents\Edgar School\Fall 2019\Lab 2-1,no,mono,no,18,no,white,no,yes,768,legacy,27,27,C:/Users/Edgar/Documents/Edgar School/Fall 2019/Lab 2-2/OJ-subject-3.csv,legacy,Kafkaesque Koffka,3.2.8,0,h,NA,NA,space,NA,h,471,NA,NA,25471,NA,471,2,legacy,1024,2,48000,-16,experiment,HHHHH,3,odd,85742,32872,NA,NA,NA,7378,NA,NA,87049,NA,7398,NA,87156,87630,87040,87155,Flanker task,28,15866,28,yes,1024
100,100,563.4137931,563.4137931,black,legacy,legacy,legacy,0,incongruent,uniform,1,undefined,1,h,28,0,0,0,28,0,28,0,28,0,0,0,28,28,28,28,9/27/19 17:47,1500,The main experiment item,yes,Flankertask.osexp,C:\Users\Edgar\Documents\Edgar School\Fall 2019\Lab 2-1,no,mono,no,18,no,white,no,yes,768,legacy,28,28,C:/Users/Edgar/Documents/Edgar School/Fall 2019/Lab 2-2/OJ-subject-3.csv,legacy,Kafkaesque Koffka,3.2.8,0,h,NA,NA,space,NA,h,473,NA,NA,25471,NA,473,2,legacy,1024,2,48000,-16,experiment,SSHSS,3,odd,87833,32872,NA,NA,NA,7378,NA,NA,89124,NA,7398,NA,89230,89705,89116,89230,Flanker task,29,16339,29,yes,1024
100,100,558.1333333,558.1333333,black,legacy,legacy,legacy,0,congruent,uniform,1,undefined,1,h,29,0,0,0,29,0,29,0,29,0,0,0,29,29,29,29,9/27/19 17:47,1500,The main experiment item,yes,Flankertask.osexp,C:\Users\Edgar\Documents\Edgar School\Fall 2019\Lab 2-1,no,mono,no,18,no,white,no,yes,768,legacy,29,29,C:/Users/Edgar/Documents/Edgar School/Fall 2019/Lab 2-2/OJ-subject-3.csv,legacy,Kafkaesque Koffka,3.2.8,0,h,NA,NA,space,NA,h,405,NA,NA,25471,NA,405,2,legacy,1024,2,48000,-16,experiment,HHHHH,3,odd,89773,32872,NA,NA,NA,7378,NA,NA,91005,NA,7398,NA,91111,91518,90997,91110,Flanker task,30,16744,30,yes,1024
100,100,555.0967742,555.0967742,black,legacy,legacy,legacy,0,congruent,uniform,1,undefined,1,s,30,0,0,0,30,0,30,0,30,0,0,0,30,30,30,30,9/27/19 17:47,1500,The main experiment item,yes,Flankertask.osexp,C:\Users\Edgar\Documents\Edgar School\Fall 2019\Lab 2-1,no,mono,no,18,no,white,no,yes,768,legacy,30,30,C:/Users/Edgar/Documents/Edgar School/Fall 2019/Lab 2-2/OJ-subject-3.csv,legacy,Kafkaesque Koffka,3.2.8,0,s,NA,NA,space,NA,s,464,NA,NA,25471,NA,464,2,legacy,1024,2,48000,-16,experiment,SSSSS,3,odd,91577,32872,NA,NA,NA,7378,NA,NA,92816,NA,7398,NA,92925,93398,92808,92925,Flanker task,31,17208,31,yes,1024
100,100,551.4375,551.4375,black,legacy,legacy,legacy,0,congruent,uniform,1,undefined,1,s,31,0,0,0,31,0,31,0,31,0,0,0,31,31,31,31,9/27/19 17:47,1500,The main experiment item,yes,Flankertask.osexp,C:\Users\Edgar\Documents\Edgar School\Fall 2019\Lab 2-1,no,mono,no,18,no,white,no,yes,768,legacy,31,31,C:/Users/Edgar/Documents/Edgar School/Fall 2019/Lab 2-2/OJ-subject-3.csv,legacy,Kafkaesque Koffka,3.2.8,0,s,NA,NA,space,NA,s,438,NA,NA,25471,NA,438,2,legacy,1024,2,48000,-16,experiment,SSSSS,3,odd,93458,32872,NA,NA,NA,7378,NA,NA,94695,NA,7398,NA,94801,95242,94687,94801,Flanker task,32,17646,32,yes,1024
100,100,547.0606061,547.0606061,black,legacy,legacy,legacy,0,congruent,uniform,1,undefined,1,h,32,0,0,0,32,0,32,0,32,0,0,0,32,32,32,32,9/27/19 17:47,1500,The main experiment item,yes,Flankertask.osexp,C:\Users\Edgar\Documents\Edgar School\Fall 2019\Lab 2-1,no,mono,no,18,no,white,no,yes,768,legacy,32,32,C:/Users/Edgar/Documents/Edgar School/Fall 2019/Lab 2-2/OJ-subject-3.csv,legacy,Kafkaesque Koffka,3.2.8,0,h,NA,NA,space,NA,h,407,NA,NA,25471,NA,407,2,legacy,1024,2,48000,-16,experiment,HHHHH,3,odd,95305,32872,NA,NA,NA,7378,NA,NA,96572,NA,7398,NA,96678,97088,96565,96678,Flanker task,33,18053,33,yes,1024
100,100,545.0588235,545.0588235,black,legacy,legacy,legacy,0,incongruent,uniform,1,undefined,1,h,33,0,0,0,33,0,33,0,33,0,0,0,33,33,33,33,9/27/19 17:47,1500,The main experiment item,yes,Flankertask.osexp,C:\Users\Edgar\Documents\Edgar School\Fall 2019\Lab 2-1,no,mono,no,18,no,white,no,yes,768,legacy,33,33,C:/Users/Edgar/Documents/Edgar School/Fall 2019/Lab 2-2/OJ-subject-3.csv,legacy,Kafkaesque Koffka,3.2.8,0,h,NA,NA,space,NA,h,479,NA,NA,25471,NA,479,2,legacy,1024,2,48000,-16,experiment,SSHSS,3,odd,97151,32872,NA,NA,NA,7378,NA,NA,98387,NA,7398,NA,98493,98974,98379,98493,Flanker task,34,18532,34,yes,1024
100,100,543.8,543.8,black,legacy,legacy,legacy,0,incongruent,uniform,1,undefined,1,h,34,0,0,0,34,0,34,0,34,0,0,0,34,34,34,34,9/27/19 17:47,1500,The main experiment item,yes,Flankertask.osexp,C:\Users\Edgar\Documents\Edgar School\Fall 2019\Lab 2-1,no,mono,no,18,no,white,no,yes,768,legacy,34,34,C:/Users/Edgar/Documents/Edgar School/Fall 2019/Lab 2-2/OJ-subject-3.csv,legacy,Kafkaesque Koffka,3.2.8,0,h,NA,NA,space,NA,h,501,NA,NA,25471,NA,501,2,legacy,1024,2,48000,-16,experiment,SSHSS,3,odd,99038,32872,NA,NA,NA,7378,NA,NA,100273,NA,7398,NA,100378,100881,100266,100378,Flanker task,35,19033,35,yes,1024
100,100,543.1388889,543.1388889,black,legacy,legacy,legacy,0,incongruent,uniform,1,undefined,1,h,35,0,0,0,35,0,35,0,35,0,0,0,35,35,35,35,9/27/19 17:47,1500,The main experiment item,yes,Flankertask.osexp,C:\Users\Edgar\Documents\Edgar School\Fall 2019\Lab 2-1,no,mono,no,18,no,white,no,yes,768,legacy,35,35,C:/Users/Edgar/Documents/Edgar School/Fall 2019/Lab 2-2/OJ-subject-3.csv,legacy,Kafkaesque Koffka,3.2.8,0,h,NA,NA,space,NA,h,520,NA,NA,25471,NA,520,2,legacy,1024,2,48000,-16,experiment,SSHSS,3,odd,100951,32872,NA,NA,NA,7378,NA,NA,102193,NA,7398,NA,102298,102821,102183,102298,Flanker task,36,19553,36,yes,1024
100,100,540.8378378,540.8378378,black,legacy,legacy,legacy,0,incongruent,uniform,1,undefined,1,h,36,0,0,0,36,0,36,0,36,0,0,0,36,36,36,36,9/27/19 17:47,1500,The main experiment item,yes,Flankertask.osexp,C:\Users\Edgar\Documents\Edgar School\Fall 2019\Lab 2-1,no,mono,no,18,no,white,no,yes,768,legacy,36,36,C:/Users/Edgar/Documents/Edgar School/Fall 2019/Lab 2-2/OJ-subject-3.csv,legacy,Kafkaesque Koffka,3.2.8,0,h,NA,NA,space,NA,h,458,NA,NA,25471,NA,458,2,legacy,1024,2,48000,-16,experiment,SSHSS,3,odd,102872,32872,NA,NA,NA,7378,NA,NA,104134,NA,7398,NA,104240,104700,104127,104239,Flanker task,37,20011,37,yes,1024
100,100,539.9210526,539.9210526,black,legacy,legacy,legacy,0,incongruent,uniform,1,undefined,1,s,37,0,0,0,37,0,37,0,37,0,0,0,37,37,37,37,9/27/19 17:47,1500,The main experiment item,yes,Flankertask.osexp,C:\Users\Edgar\Documents\Edgar School\Fall 2019\Lab 2-1,no,mono,no,18,no,white,no,yes,768,legacy,37,37,C:/Users/Edgar/Documents/Edgar School/Fall 2019/Lab 2-2/OJ-subject-3.csv,legacy,Kafkaesque Koffka,3.2.8,0,s,NA,NA,space,NA,s,506,NA,NA,25471,NA,506,2,legacy,1024,2,48000,-16,experiment,HHSHH,3,odd,104773,32872,NA,NA,NA,7378,NA,NA,106001,NA,7398,NA,106109,106617,105994,106108,Flanker task,38,20517,38,yes,1024
100,100,539.4358974,539.4358974,black,legacy,legacy,legacy,0,congruent,uniform,1,undefined,1,h,38,0,0,0,38,0,38,0,38,0,0,0,38,38,38,38,9/27/19 17:47,1500,The main experiment item,yes,Flankertask.osexp,C:\Users\Edgar\Documents\Edgar School\Fall 2019\Lab 2-1,no,mono,no,18,no,white,no,yes,768,legacy,38,38,C:/Users/Edgar/Documents/Edgar School/Fall 2019/Lab 2-2/OJ-subject-3.csv,legacy,Kafkaesque Koffka,3.2.8,0,h,NA,NA,space,NA,h,521,NA,NA,25471,NA,521,2,legacy,1024,2,48000,-16,experiment,HHHHH,3,odd,106681,32872,NA,NA,NA,7378,NA,NA,107930,NA,7398,NA,108036,108559,107922,108036,Flanker task,39,21038,39,yes,1024
100,100,538.2,538.2,black,legacy,legacy,legacy,0,incongruent,uniform,1,undefined,1,h,39,0,0,0,39,0,39,0,39,0,0,0,39,39,39,39,9/27/19 17:47,1500,The main experiment item,yes,Flankertask.osexp,C:\Users\Edgar\Documents\Edgar School\Fall 2019\Lab 2-1,no,mono,no,18,no,white,no,yes,768,legacy,39,39,C:/Users/Edgar/Documents/Edgar School/Fall 2019/Lab 2-2/OJ-subject-3.csv,legacy,Kafkaesque Koffka,3.2.8,0,h,NA,NA,space,NA,h,490,NA,NA,25471,NA,490,2,legacy,1024,2,48000,-16,experiment,SSHSS,3,odd,108623,32872,NA,NA,NA,7378,NA,NA,109856,NA,7398,NA,109962,110455,109849,109962,Flanker task,40,21528,40,yes,1024
100,100,536.0243902,536.0243902,black,legacy,legacy,legacy,0,congruent,uniform,1,undefined,1,h,40,0,0,0,40,0,40,0,40,0,0,0,40,40,40,40,9/27/19 17:47,1500,The main experiment item,yes,Flankertask.osexp,C:\Users\Edgar\Documents\Edgar School\Fall 2019\Lab 2-1,no,mono,no,18,no,white,no,yes,768,legacy,40,40,C:/Users/Edgar/Documents/Edgar School/Fall 2019/Lab 2-2/OJ-subject-3.csv,legacy,Kafkaesque Koffka,3.2.8,0,h,NA,NA,space,NA,h,449,NA,NA,25471,NA,449,2,legacy,1024,2,48000,-16,experiment,HHHHH,3,odd,110516,32872,NA,NA,NA,7378,NA,NA,111753,NA,7398,NA,111858,112309,111745,111858,Flanker task,41,21977,41,yes,1024
100,100,533.5714286,533.5714286,black,legacy,legacy,legacy,0,congruent,uniform,1,undefined,1,s,41,0,0,0,41,0,41,0,41,0,0,0,41,41,41,41,9/27/19 17:47,1500,The main experiment item,yes,Flankertask.osexp,C:\Users\Edgar\Documents\Edgar School\Fall 2019\Lab 2-1,no,mono,no,18,no,white,no,yes,768,legacy,41,41,C:/Users/Edgar/Documents/Edgar School/Fall 2019/Lab 2-2/OJ-subject-3.csv,legacy,Kafkaesque Koffka,3.2.8,0,s,NA,NA,space,NA,s,433,NA,NA,25471,NA,433,2,legacy,1024,2,48000,-16,experiment,SSSSS,3,odd,112345,32872,NA,NA,NA,7378,NA,NA,113584,NA,7398,NA,113690,114127,113574,113689,Flanker task,42,22410,42,yes,1024
100,100,531.4651163,531.4651163,black,legacy,legacy,legacy,0,incongruent,uniform,1,undefined,1,h,42,0,0,0,42,0,42,0,42,0,0,0,42,42,42,42,9/27/19 17:47,1500,The main experiment item,yes,Flankertask.osexp,C:\Users\Edgar\Documents\Edgar School\Fall 2019\Lab 2-1,no,mono,no,18,no,white,no,yes,768,legacy,42,42,C:/Users/Edgar/Documents/Edgar School/Fall 2019/Lab 2-2/OJ-subject-3.csv,legacy,Kafkaesque Koffka,3.2.8,0,h,NA,NA,space,NA,h,443,NA,NA,25471,NA,443,2,legacy,1024,2,48000,-16,experiment,SSHSS,3,odd,114193,32872,NA,NA,NA,7378,NA,NA,115427,NA,7398,NA,115532,115978,115420,115532,Flanker task,43,22853,43,yes,1024
100,100,533.6818182,533.6818182,black,legacy,legacy,legacy,0,incongruent,uniform,1,undefined,1,s,43,0,0,0,43,0,43,0,43,0,0,0,43,43,43,43,9/27/19 17:47,1500,The main experiment item,yes,Flankertask.osexp,C:\Users\Edgar\Documents\Edgar School\Fall 2019\Lab 2-1,no,mono,no,18,no,white,no,yes,768,legacy,43,43,C:/Users/Edgar/Documents/Edgar School/Fall 2019/Lab 2-2/OJ-subject-3.csv,legacy,Kafkaesque Koffka,3.2.8,0,s,NA,NA,space,NA,s,629,NA,NA,25471,NA,629,2,legacy,1024,2,48000,-16,experiment,HHSHH,3,odd,116034,32872,NA,NA,NA,7378,NA,NA,117286,NA,7398,NA,117392,118025,117278,117392,Flanker task,44,23482,44,yes,1024
100,100,532.5333333,532.5333333,black,legacy,legacy,legacy,0,incongruent,uniform,1,undefined,1,s,44,0,0,0,44,0,44,0,44,0,0,0,44,44,44,44,9/27/19 17:47,1500,The main experiment item,yes,Flankertask.osexp,C:\Users\Edgar\Documents\Edgar School\Fall 2019\Lab 2-1,no,mono,no,18,no,white,no,yes,768,legacy,44,44,C:/Users/Edgar/Documents/Edgar School/Fall 2019/Lab 2-2/OJ-subject-3.csv,legacy,Kafkaesque Koffka,3.2.8,0,s,NA,NA,space,NA,s,482,NA,NA,25471,NA,482,2,legacy,1024,2,48000,-16,experiment,HHSHH,3,odd,118081,32872,NA,NA,NA,7378,NA,NA,119311,NA,7398,NA,119417,119902,119304,119417,Flanker task,45,23964,45,yes,1024
100,100,532.2608696,532.2608696,black,legacy,legacy,legacy,0,incongruent,uniform,1,undefined,1,s,45,0,0,0,45,0,45,0,45,0,0,0,45,45,45,45,9/27/19 17:47,1500,The main experiment item,yes,Flankertask.osexp,C:\Users\Edgar\Documents\Edgar School\Fall 2019\Lab 2-1,no,mono,no,18,no,white,no,yes,768,legacy,45,45,C:/Users/Edgar/Documents/Edgar School/Fall 2019/Lab 2-2/OJ-subject-3.csv,legacy,Kafkaesque Koffka,3.2.8,0,s,NA,NA,space,NA,s,520,NA,NA,25471,NA,520,2,legacy,1024,2,48000,-16,experiment,HHSHH,3,odd,119972,32872,NA,NA,NA,7378,NA,NA,121204,NA,7398,NA,121309,121832,121197,121309,Flanker task,46,24484,46,yes,1024
100,100,531.0851064,531.0851064,black,legacy,legacy,legacy,0,congruent,uniform,1,undefined,1,h,46,0,0,0,46,0,46,0,46,0,0,0,46,46,46,46,9/27/19 17:47,1500,The main experiment item,yes,Flankertask.osexp,C:\Users\Edgar\Documents\Edgar School\Fall 2019\Lab 2-1,no,mono,no,18,no,white,no,yes,768,legacy,46,46,C:/Users/Edgar/Documents/Edgar School/Fall 2019/Lab 2-2/OJ-subject-3.csv,legacy,Kafkaesque Koffka,3.2.8,0,h,NA,NA,space,NA,h,477,NA,NA,25471,NA,477,2,legacy,1024,2,48000,-16,experiment,HHHHH,3,odd,121866,32872,NA,NA,NA,7378,NA,NA,123123,NA,7398,NA,123229,123708,123114,123228,Flanker task,47,24961,47,yes,1024
100,100,530.625,530.625,black,legacy,legacy,legacy,0,congruent,uniform,1,undefined,1,h,47,0,0,0,47,0,47,0,47,0,0,0,47,47,47,47,9/27/19 17:47,1500,The main experiment item,yes,Flankertask.osexp,C:\Users\Edgar\Documents\Edgar School\Fall 2019\Lab 2-1,no,mono,no,18,no,white,no,yes,768,legacy,47,47,C:/Users/Edgar/Documents/Edgar School/Fall 2019/Lab 2-2/OJ-subject-3.csv,legacy,Kafkaesque Koffka,3.2.8,0,h,NA,NA,space,NA,h,509,NA,NA,25471,NA,509,2,legacy,1024,2,48000,-16,experiment,HHHHH,3,odd,123778,32872,NA,NA,NA,7378,NA,NA,125015,NA,7398,NA,125120,125631,125008,125120,Flanker task,48,25470,48,yes,1024
100,100,528.5918367,528.5918367,black,legacy,legacy,legacy,0,congruent,uniform,1,undefined,1,h,48,0,0,0,48,0,48,0,48,0,0,0,48,48,48,48,9/27/19 17:47,1500,The main experiment item,yes,Flankertask.osexp,C:\Users\Edgar\Documents\Edgar School\Fall 2019\Lab 2-1,no,mono,no,18,no,white,no,yes,768,legacy,48,48,C:/Users/Edgar/Documents/Edgar School/Fall 2019/Lab 2-2/OJ-subject-3.csv,legacy,Kafkaesque Koffka,3.2.8,0,h,NA,NA,space,NA,h,431,NA,NA,25471,NA,431,2,legacy,1024,2,48000,-16,experiment,HHHHH,3,odd,125708,32872,NA,NA,NA,7378,NA,NA,126944,NA,7398,NA,127051,127485,126937,127050,Flanker task,49,25901,49,yes,1024
100,100,526.66,526.66,black,legacy,legacy,legacy,0,congruent,uniform,1,undefined,1,s,49,0,0,0,49,0,49,0,49,0,0,0,49,49,49,49,9/27/19 17:47,1500,The main experiment item,yes,Flankertask.osexp,C:\Users\Edgar\Documents\Edgar School\Fall 2019\Lab 2-1,no,mono,no,18,no,white,no,yes,768,legacy,49,49,C:/Users/Edgar/Documents/Edgar School/Fall 2019/Lab 2-2/OJ-subject-3.csv,legacy,Kafkaesque Koffka,3.2.8,0,s,NA,NA,space,NA,s,432,NA,NA,25471,NA,432,2,legacy,1024,2,48000,-16,experiment,SSSSS,3,odd,127534,32872,NA,NA,NA,7378,NA,NA,128807,NA,7398,NA,128912,129347,128799,128912,Flanker task,50,26333,50,yes,1024
100,100,524.7647059,524.7647059,black,legacy,legacy,legacy,0,congruent,uniform,1,undefined,1,s,50,0,0,0,50,0,50,0,50,0,0,0,50,50,50,50,9/27/19 17:47,1500,The main experiment item,yes,Flankertask.osexp,C:\Users\Edgar\Documents\Edgar School\Fall 2019\Lab 2-1,no,mono,no,18,no,white,no,yes,768,legacy,50,50,C:/Users/Edgar/Documents/Edgar School/Fall 2019/Lab 2-2/OJ-subject-3.csv,legacy,Kafkaesque Koffka,3.2.8,0,s,NA,NA,space,NA,s,430,NA,NA,25471,NA,430,2,legacy,1024,2,48000,-16,experiment,SSSSS,3,odd,129413,32872,NA,NA,NA,7378,NA,NA,130649,NA,7398,NA,130755,131187,130642,130754,Flanker task,51,26763,51,yes,1024
100,100,524.9615385,524.9615385,black,legacy,legacy,legacy,0,incongruent,uniform,1,undefined,1,s,51,0,0,0,51,0,51,0,51,0,0,0,51,51,51,51,9/27/19 17:47,1500,The main experiment item,yes,Flankertask.osexp,C:\Users\Edgar\Documents\Edgar School\Fall 2019\Lab 2-1,no,mono,no,18,no,white,no,yes,768,legacy,51,51,C:/Users/Edgar/Documents/Edgar School/Fall 2019/Lab 2-2/OJ-subject-3.csv,legacy,Kafkaesque Koffka,3.2.8,0,s,NA,NA,space,NA,s,535,NA,NA,25471,NA,535,2,legacy,1024,2,48000,-16,experiment,HHSHH,3,odd,131255,32872,NA,NA,NA,7378,NA,NA,132493,NA,7398,NA,132598,133136,132486,132598,Flanker task,52,27298,52,yes,1024
100,100,522.6792453,522.6792453,black,legacy,legacy,legacy,0,congruent,uniform,1,undefined,1,h,52,0,0,0,52,0,52,0,52,0,0,0,52,52,52,52,9/27/19 17:47,1500,The main experiment item,yes,Flankertask.osexp,C:\Users\Edgar\Documents\Edgar School\Fall 2019\Lab 2-1,no,mono,no,18,no,white,no,yes,768,legacy,52,52,C:/Users/Edgar/Documents/Edgar School/Fall 2019/Lab 2-2/OJ-subject-3.csv,legacy,Kafkaesque Koffka,3.2.8,0,h,NA,NA,space,NA,h,404,NA,NA,25471,NA,404,2,legacy,1024,2,48000,-16,experiment,HHHHH,3,odd,133193,32872,NA,NA,NA,7378,NA,NA,134443,NA,7398,NA,134549,134956,134436,134549,Flanker task,53,27702,53,yes,1024
100,100,522.2777778,522.2777778,black,legacy,legacy,legacy,0,incongruent,uniform,1,undefined,1,h,53,0,0,0,53,0,53,0,53,0,0,0,53,53,53,53,9/27/19 17:47,1500,The main experiment item,yes,Flankertask.osexp,C:\Users\Edgar\Documents\Edgar School\Fall 2019\Lab 2-1,no,mono,no,18,no,white,no,yes,768,legacy,53,53,C:/Users/Edgar/Documents/Edgar School/Fall 2019/Lab 2-2/OJ-subject-3.csv,legacy,Kafkaesque Koffka,3.2.8,0,h,NA,NA,space,NA,h,501,NA,NA,25471,NA,501,2,legacy,1024,2,48000,-16,experiment,SSHSS,3,odd,135027,32872,NA,NA,NA,7378,NA,NA,136267,NA,7398,NA,136374,136878,136260,136373,Flanker task,54,28203,54,yes,1024
100,100,521.7454545,521.7454545,black,legacy,legacy,legacy,0,incongruent,uniform,1,undefined,1,s,54,0,0,0,54,0,54,0,54,0,0,0,54,54,54,54,9/27/19 17:47,1500,The main experiment item,yes,Flankertask.osexp,C:\Users\Edgar\Documents\Edgar School\Fall 2019\Lab 2-1,no,mono,no,18,no,white,no,yes,768,legacy,54,54,C:/Users/Edgar/Documents/Edgar School/Fall 2019/Lab 2-2/OJ-subject-3.csv,legacy,Kafkaesque Koffka,3.2.8,0,s,NA,NA,space,NA,s,493,NA,NA,25471,NA,493,2,legacy,1024,2,48000,-16,experiment,HHSHH,3,odd,136969,32872,NA,NA,NA,7378,NA,NA,138198,NA,7398,NA,138303,138798,138191,138303,Flanker task,55,28696,55,yes,1024
100,100,521.5,521.5,black,legacy,legacy,legacy,0,incongruent,uniform,1,undefined,1,h,55,0,0,0,55,0,55,0,55,0,0,0,55,55,55,55,9/27/19 17:47,1500,The main experiment item,yes,Flankertask.osexp,C:\Users\Edgar\Documents\Edgar School\Fall 2019\Lab 2-1,no,mono,no,18,no,white,no,yes,768,legacy,55,55,C:/Users/Edgar/Documents/Edgar School/Fall 2019/Lab 2-2/OJ-subject-3.csv,legacy,Kafkaesque Koffka,3.2.8,0,h,NA,NA,space,NA,h,508,NA,NA,25471,NA,508,2,legacy,1024,2,48000,-16,experiment,SSHSS,3,odd,138845,32872,NA,NA,NA,7378,NA,NA,140094,NA,7398,NA,140200,140711,140085,140200,Flanker task,56,29204,56,yes,1024
100,100,521,521,black,legacy,legacy,legacy,0,incongruent,uniform,1,undefined,1,h,56,0,0,0,56,0,56,0,56,0,0,0,56,56,56,56,9/27/19 17:47,1500,The main experiment item,yes,Flankertask.osexp,C:\Users\Edgar\Documents\Edgar School\Fall 2019\Lab 2-1,no,mono,no,18,no,white,no,yes,768,legacy,56,56,C:/Users/Edgar/Documents/Edgar School/Fall 2019/Lab 2-2/OJ-subject-3.csv,legacy,Kafkaesque Koffka,3.2.8,0,h,NA,NA,space,NA,h,493,NA,NA,25471,NA,493,2,legacy,1024,2,48000,-16,experiment,SSHSS,3,odd,140769,32872,NA,NA,NA,7378,NA,NA,142002,NA,7398,NA,142109,142604,141994,142108,Flanker task,57,29697,57,yes,1024
100,100,519.2241379,519.2241379,black,legacy,legacy,legacy,0,congruent,uniform,1,undefined,1,h,57,0,0,0,57,0,57,0,57,0,0,0,57,57,57,57,9/27/19 17:47,1500,The main experiment item,yes,Flankertask.osexp,C:\Users\Edgar\Documents\Edgar School\Fall 2019\Lab 2-1,no,mono,no,18,no,white,no,yes,768,legacy,57,57,C:/Users/Edgar/Documents/Edgar School/Fall 2019/Lab 2-2/OJ-subject-3.csv,legacy,Kafkaesque Koffka,3.2.8,0,h,NA,NA,space,NA,h,418,NA,NA,25471,NA,418,2,legacy,1024,2,48000,-16,experiment,HHHHH,3,odd,142645,32872,NA,NA,NA,7378,NA,NA,143881,NA,7398,NA,143987,144408,143874,143987,Flanker task,58,30115,58,yes,1024
100,100,518.3389831,518.3389831,black,legacy,legacy,legacy,0,congruent,uniform,1,undefined,1,s,58,0,0,0,58,0,58,0,58,0,0,0,58,58,58,58,9/27/19 17:47,1500,The main experiment item,yes,Flankertask.osexp,C:\Users\Edgar\Documents\Edgar School\Fall 2019\Lab 2-1,no,mono,no,18,no,white,no,yes,768,legacy,58,58,C:/Users/Edgar/Documents/Edgar School/Fall 2019/Lab 2-2/OJ-subject-3.csv,legacy,Kafkaesque Koffka,3.2.8,0,s,NA,NA,space,NA,s,467,NA,NA,25471,NA,467,2,legacy,1024,2,48000,-16,experiment,SSSSS,3,odd,144459,32872,NA,NA,NA,7378,NA,NA,145697,NA,7398,NA,145803,146273,145689,145803,Flanker task,59,30582,59,yes,1024
100,100,518.2333333,518.2333333,black,legacy,legacy,legacy,0,incongruent,uniform,1,undefined,1,s,59,0,0,0,59,0,59,0,59,0,0,0,59,59,59,59,9/27/19 17:47,1500,The main experiment item,yes,Flankertask.osexp,C:\Users\Edgar\Documents\Edgar School\Fall 2019\Lab 2-1,no,mono,no,18,no,white,no,yes,768,legacy,59,59,C:/Users/Edgar/Documents/Edgar School/Fall 2019/Lab 2-2/OJ-subject-3.csv,legacy,Kafkaesque Koffka,3.2.8,0,s,NA,NA,space,NA,s,512,NA,NA,25471,NA,512,2,legacy,1024,2,48000,-16,experiment,HHSHH,3,odd,146339,32872,NA,NA,NA,7378,NA,NA,147572,NA,7398,NA,147677,148191,147565,147677,Flanker task,60,31094,60,yes,1024
100,100,516.5081967,516.5081967,black,legacy,legacy,legacy,0,congruent,uniform,1,undefined,1,s,60,0,0,0,60,0,60,0,60,0,0,0,60,60,60,60,9/27/19 17:47,1500,The main experiment item,yes,Flankertask.osexp,C:\Users\Edgar\Documents\Edgar School\Fall 2019\Lab 2-1,no,mono,no,18,no,white,no,yes,768,legacy,60,60,C:/Users/Edgar/Documents/Edgar School/Fall 2019/Lab 2-2/OJ-subject-3.csv,legacy,Kafkaesque Koffka,3.2.8,0,s,NA,NA,space,NA,s,413,NA,NA,25471,NA,413,2,legacy,1024,2,48000,-16,experiment,SSSSS,3,odd,148258,32872,NA,NA,NA,7378,NA,NA,149491,NA,7398,NA,149597,150013,149484,149597,Flanker task,61,31507,61,yes,1024
100,100,516.6451613,516.6451613,black,legacy,legacy,legacy,0,incongruent,uniform,1,undefined,1,s,61,0,0,0,61,0,61,0,61,0,0,0,61,61,61,61,9/27/19 17:47,1500,The main experiment item,yes,Flankertask.osexp,C:\Users\Edgar\Documents\Edgar School\Fall 2019\Lab 2-1,no,mono,no,18,no,white,no,yes,768,legacy,61,61,C:/Users/Edgar/Documents/Edgar School/Fall 2019/Lab 2-2/OJ-subject-3.csv,legacy,Kafkaesque Koffka,3.2.8,0,s,NA,NA,space,NA,s,525,NA,NA,25471,NA,525,2,legacy,1024,2,48000,-16,experiment,HHSHH,3,odd,150082,32872,NA,NA,NA,7378,NA,NA,151317,NA,7398,NA,151422,151950,151310,151422,Flanker task,62,32032,62,yes,1024
100,100,515.6825397,515.6825397,black,legacy,legacy,legacy,0,congruent,uniform,1,undefined,1,h,62,0,0,0,62,0,62,0,62,0,0,0,62,62,62,62,9/27/19 17:47,1500,The main experiment item,yes,Flankertask.osexp,C:\Users\Edgar\Documents\Edgar School\Fall 2019\Lab 2-1,no,mono,no,18,no,white,no,yes,768,legacy,62,62,C:/Users/Edgar/Documents/Edgar School/Fall 2019/Lab 2-2/OJ-subject-3.csv,legacy,Kafkaesque Koffka,3.2.8,0,h,NA,NA,space,NA,h,456,NA,NA,25471,NA,456,2,legacy,1024,2,48000,-16,experiment,HHHHH,3,odd,152012,32872,NA,NA,NA,7378,NA,NA,153243,NA,7398,NA,153349,153808,153236,153349,Flanker task,63,32488,63,yes,1024
100,100,514.109375,514.109375,black,legacy,legacy,legacy,0,incongruent,uniform,1,undefined,1,h,63,0,0,0,63,0,63,0,63,0,0,0,63,63,63,63,9/27/19 17:47,1500,The main experiment item,yes,Flankertask.osexp,C:\Users\Edgar\Documents\Edgar School\Fall 2019\Lab 2-1,no,mono,no,18,no,white,no,yes,768,legacy,63,63,C:/Users/Edgar/Documents/Edgar School/Fall 2019/Lab 2-2/OJ-subject-3.csv,legacy,Kafkaesque Koffka,3.2.8,0,h,NA,NA,space,NA,h,415,NA,NA,25471,NA,415,2,legacy,1024,2,48000,-16,experiment,SSHSS,3,odd,153862,32872,NA,NA,NA,7378,NA,NA,155116,NA,7398,NA,155224,155642,155109,155224,Flanker task,64,32903,64,yes,1024
100,100,513.9538462,513.9538462,black,legacy,legacy,legacy,0,congruent,uniform,1,undefined,1,s,64,0,0,0,64,0,64,0,64,0,0,0,64,64,64,64,9/27/19 17:47,1500,The main experiment item,yes,Flankertask.osexp,C:\Users\Edgar\Documents\Edgar School\Fall 2019\Lab 2-1,no,mono,no,18,no,white,no,yes,768,legacy,64,64,C:/Users/Edgar/Documents/Edgar School/Fall 2019/Lab 2-2/OJ-subject-3.csv,legacy,Kafkaesque Koffka,3.2.8,0,s,NA,NA,space,NA,s,504,NA,NA,25471,NA,504,2,legacy,1024,2,48000,-16,experiment,SSSSS,3,odd,155697,32872,NA,NA,NA,7378,NA,NA,156943,NA,7398,NA,157050,157557,156934,157049,Flanker task,65,33407,65,yes,1024
100,100,512.0757576,512.0757576,black,legacy,legacy,legacy,0,congruent,uniform,1,undefined,1,s,65,0,0,0,65,0,65,0,65,0,0,0,65,65,65,65,9/27/19 17:47,1500,The main experiment item,yes,Flankertask.osexp,C:\Users\Edgar\Documents\Edgar School\Fall 2019\Lab 2-1,no,mono,no,18,no,white,no,yes,768,legacy,65,65,C:/Users/Edgar/Documents/Edgar School/Fall 2019/Lab 2-2/OJ-subject-3.csv,legacy,Kafkaesque Koffka,3.2.8,0,s,NA,NA,space,NA,s,390,NA,NA,25471,NA,390,2,legacy,1024,2,48000,-16,experiment,SSSSS,3,odd,157589,32872,NA,NA,NA,7378,NA,NA,158840,NA,7398,NA,158946,159340,158833,158946,Flanker task,66,33797,66,yes,1024
100,100,511.358209,511.358209,black,legacy,legacy,legacy,0,incongruent,uniform,1,undefined,1,s,66,0,0,0,66,0,66,0,66,0,0,0,66,66,66,66,9/27/19 17:47,1500,The main experiment item,yes,Flankertask.osexp,C:\Users\Edgar\Documents\Edgar School\Fall 2019\Lab 2-1,no,mono,no,18,no,white,no,yes,768,legacy,66,66,C:/Users/Edgar/Documents/Edgar School/Fall 2019/Lab 2-2/OJ-subject-3.csv,legacy,Kafkaesque Koffka,3.2.8,0,s,NA,NA,space,NA,s,464,NA,NA,25471,NA,464,2,legacy,1024,2,48000,-16,experiment,HHSHH,3,odd,159391,32872,NA,NA,NA,7378,NA,NA,160637,NA,7398,NA,160742,161209,160628,160742,Flanker task,67,34261,67,yes,1024
100,100,509.4264706,509.4264706,black,legacy,legacy,legacy,0,congruent,uniform,1,undefined,1,s,67,0,0,0,67,0,67,0,67,0,0,0,67,67,67,67,9/27/19 17:47,1500,The main experiment item,yes,Flankertask.osexp,C:\Users\Edgar\Documents\Edgar School\Fall 2019\Lab 2-1,no,mono,no,18,no,white,no,yes,768,legacy,67,67,C:/Users/Edgar/Documents/Edgar School/Fall 2019/Lab 2-2/OJ-subject-3.csv,legacy,Kafkaesque Koffka,3.2.8,0,s,NA,NA,space,NA,s,380,NA,NA,25471,NA,380,2,legacy,1024,2,48000,-16,experiment,SSSSS,3,odd,161261,32872,NA,NA,NA,7378,NA,NA,162500,NA,7398,NA,162605,162989,162493,162605,Flanker task,68,34641,68,yes,1024
100,100,508.2898551,508.2898551,black,legacy,legacy,legacy,0,incongruent,uniform,1,undefined,1,s,68,0,0,0,68,0,68,0,68,0,0,0,68,68,68,68,9/27/19 17:47,1500,The main experiment item,yes,Flankertask.osexp,C:\Users\Edgar\Documents\Edgar School\Fall 2019\Lab 2-1,no,mono,no,18,no,white,no,yes,768,legacy,68,68,C:/Users/Edgar/Documents/Edgar School/Fall 2019/Lab 2-2/OJ-subject-3.csv,legacy,Kafkaesque Koffka,3.2.8,0,s,NA,NA,space,NA,s,431,NA,NA,25471,NA,431,2,legacy,1024,2,48000,-16,experiment,HHSHH,3,odd,163047,32872,NA,NA,NA,7378,NA,NA,164294,NA,7398,NA,164400,164834,164287,164400,Flanker task,69,35072,69,yes,1024
100,100,507.4428571,507.4428571,black,legacy,legacy,legacy,0,incongruent,uniform,1,undefined,1,h,69,0,0,0,69,0,69,0,69,0,0,0,69,69,69,69,9/27/19 17:47,1500,The main experiment item,yes,Flankertask.osexp,C:\Users\Edgar\Documents\Edgar School\Fall 2019\Lab 2-1,no,mono,no,18,no,white,no,yes,768,legacy,69,69,C:/Users/Edgar/Documents/Edgar School/Fall 2019/Lab 2-2/OJ-subject-3.csv,legacy,Kafkaesque Koffka,3.2.8,0,h,NA,NA,space,NA,h,449,NA,NA,25471,NA,449,2,legacy,1024,2,48000,-16,experiment,SSHSS,3,odd,164904,32872,NA,NA,NA,7378,NA,NA,166144,NA,7398,NA,166250,166702,166136,166249,Flanker task,70,35521,70,yes,1024
100,100,506.5915493,506.5915493,black,legacy,legacy,legacy,0,incongruent,uniform,1,undefined,1,h,70,0,0,0,70,0,70,0,70,0,0,0,70,70,70,70,9/27/19 17:47,1500,The main experiment item,yes,Flankertask.osexp,C:\Users\Edgar\Documents\Edgar School\Fall 2019\Lab 2-1,no,mono,no,18,no,white,no,yes,768,legacy,70,70,C:/Users/Edgar/Documents/Edgar School/Fall 2019/Lab 2-2/OJ-subject-3.csv,legacy,Kafkaesque Koffka,3.2.8,0,h,NA,NA,space,NA,h,447,NA,NA,25471,NA,447,2,legacy,1024,2,48000,-16,experiment,SSHSS,3,odd,166763,32872,NA,NA,NA,7378,NA,NA,168017,NA,7398,NA,168124,168574,168008,168124,Flanker task,71,35968,71,yes,1024
100,100,506.6388889,506.6388889,black,legacy,legacy,legacy,0,incongruent,uniform,1,undefined,1,s,71,0,0,0,71,0,71,0,71,0,0,0,71,71,71,71,9/27/19 17:47,1500,The main experiment item,yes,Flankertask.osexp,C:\Users\Edgar\Documents\Edgar School\Fall 2019\Lab 2-1,no,mono,no,18,no,white,no,yes,768,legacy,71,71,C:/Users/Edgar/Documents/Edgar School/Fall 2019/Lab 2-2/OJ-subject-3.csv,legacy,Kafkaesque Koffka,3.2.8,0,s,NA,NA,space,NA,s,510,NA,NA,25471,NA,510,2,legacy,1024,2,48000,-16,experiment,HHSHH,3,odd,168656,32872,NA,NA,NA,7378,NA,NA,169917,NA,7398,NA,170022,170535,169910,170022,Flanker task,72,36478,72,yes,1024
100,100,506.0684932,506.0684932,black,legacy,legacy,legacy,0,congruent,uniform,1,undefined,1,h,72,0,0,0,72,0,72,0,72,0,0,0,72,72,72,72,9/27/19 17:47,1500,The main experiment item,yes,Flankertask.osexp,C:\Users\Edgar\Documents\Edgar School\Fall 2019\Lab 2-1,no,mono,no,18,no,white,no,yes,768,legacy,72,72,C:/Users/Edgar/Documents/Edgar School/Fall 2019/Lab 2-2/OJ-subject-3.csv,legacy,Kafkaesque Koffka,3.2.8,0,h,NA,NA,space,NA,h,465,NA,NA,25471,NA,465,2,legacy,1024,2,48000,-16,experiment,HHHHH,3,odd,170602,32872,NA,NA,NA,7378,NA,NA,171835,NA,7398,NA,171940,172409,171828,171940,Flanker task,73,36943,73,yes,1024
100,100,506.0540541,506.0540541,black,legacy,legacy,legacy,0,incongruent,uniform,1,undefined,1,s,73,0,0,0,73,0,73,0,73,0,0,0,73,73,73,73,9/27/19 17:47,1500,The main experiment item,yes,Flankertask.osexp,C:\Users\Edgar\Documents\Edgar School\Fall 2019\Lab 2-1,no,mono,no,18,no,white,no,yes,768,legacy,73,73,C:/Users/Edgar/Documents/Edgar School/Fall 2019/Lab 2-2/OJ-subject-3.csv,legacy,Kafkaesque Koffka,3.2.8,0,s,NA,NA,space,NA,s,505,NA,NA,25471,NA,505,2,legacy,1024,2,48000,-16,experiment,HHSHH,3,odd,172459,32872,NA,NA,NA,7378,NA,NA,173710,NA,7398,NA,173816,174325,173701,173815,Flanker task,74,37448,74,yes,1024
100,100,505.6266667,505.6266667,black,legacy,legacy,legacy,0,incongruent,uniform,1,undefined,1,s,74,0,0,0,74,0,74,0,74,0,0,0,74,74,74,74,9/27/19 17:47,1500,The main experiment item,yes,Flankertask.osexp,C:\Users\Edgar\Documents\Edgar School\Fall 2019\Lab 2-1,no,mono,no,18,no,white,no,yes,768,legacy,74,74,C:/Users/Edgar/Documents/Edgar School/Fall 2019/Lab 2-2/OJ-subject-3.csv,legacy,Kafkaesque Koffka,3.2.8,0,s,NA,NA,space,NA,s,474,NA,NA,25471,NA,474,2,legacy,1024,2,48000,-16,experiment,HHSHH,3,odd,174387,32872,NA,NA,NA,7378,NA,NA,175649,NA,7398,NA,175755,176233,175642,175754,Flanker task,75,37922,75,yes,1024
100,100,503.9473684,503.9473684,black,legacy,legacy,legacy,0,congruent,uniform,1,undefined,1,s,75,0,0,0,75,0,75,0,75,0,0,0,75,75,75,75,9/27/19 17:47,1500,The main experiment item,yes,Flankertask.osexp,C:\Users\Edgar\Documents\Edgar School\Fall 2019\Lab 2-1,no,mono,no,18,no,white,no,yes,768,legacy,75,75,C:/Users/Edgar/Documents/Edgar School/Fall 2019/Lab 2-2/OJ-subject-3.csv,legacy,Kafkaesque Koffka,3.2.8,0,s,NA,NA,space,NA,s,378,NA,NA,25471,NA,378,2,legacy,1024,2,48000,-16,experiment,SSSSS,3,odd,176272,32872,NA,NA,NA,7378,NA,NA,177502,NA,7398,NA,177607,177988,177495,177607,Flanker task,76,38300,76,yes,1024
100,100,503.6753247,503.6753247,black,legacy,legacy,legacy,0,incongruent,uniform,1,undefined,1,h,76,0,0,0,76,0,76,0,76,0,0,0,76,76,76,76,9/27/19 17:47,1500,The main experiment item,yes,Flankertask.osexp,C:\Users\Edgar\Documents\Edgar School\Fall 2019\Lab 2-1,no,mono,no,18,no,white,no,yes,768,legacy,76,76,C:/Users/Edgar/Documents/Edgar School/Fall 2019/Lab 2-2/OJ-subject-3.csv,legacy,Kafkaesque Koffka,3.2.8,0,h,NA,NA,space,NA,h,483,NA,NA,25471,NA,483,2,legacy,1024,2,48000,-16,experiment,SSHSS,3,odd,178050,32872,NA,NA,NA,7378,NA,NA,179285,NA,7398,NA,179390,179877,179277,179390,Flanker task,77,38783,77,yes,1024
100,100,502.7564103,502.7564103,black,legacy,legacy,legacy,0,congruent,uniform,1,undefined,1,h,77,0,0,0,77,0,77,0,77,0,0,0,77,77,77,77,9/27/19 17:47,1500,The main experiment item,yes,Flankertask.osexp,C:\Users\Edgar\Documents\Edgar School\Fall 2019\Lab 2-1,no,mono,no,18,no,white,no,yes,768,legacy,77,77,C:/Users/Edgar/Documents/Edgar School/Fall 2019/Lab 2-2/OJ-subject-3.csv,legacy,Kafkaesque Koffka,3.2.8,0,h,NA,NA,space,NA,h,432,NA,NA,25471,NA,432,2,legacy,1024,2,48000,-16,experiment,HHHHH,3,odd,179926,32872,NA,NA,NA,7378,NA,NA,181155,NA,7398,NA,181261,181697,181147,181261,Flanker task,78,39215,78,yes,1024
100,100,501.6962025,501.6962025,black,legacy,legacy,legacy,0,congruent,uniform,1,undefined,1,h,78,0,0,0,78,0,78,0,78,0,0,0,78,78,78,78,9/27/19 17:47,1500,The main experiment item,yes,Flankertask.osexp,C:\Users\Edgar\Documents\Edgar School\Fall 2019\Lab 2-1,no,mono,no,18,no,white,no,yes,768,legacy,78,78,C:/Users/Edgar/Documents/Edgar School/Fall 2019/Lab 2-2/OJ-subject-3.csv,legacy,Kafkaesque Koffka,3.2.8,0,h,NA,NA,space,NA,h,419,NA,NA,25471,NA,419,2,legacy,1024,2,48000,-16,experiment,HHHHH,3,odd,181752,32872,NA,NA,NA,7378,NA,NA,182993,NA,7398,NA,183098,183521,182984,183098,Flanker task,79,39634,79,yes,1024
100,100,500.425,500.425,black,legacy,legacy,legacy,0,congruent,uniform,1,undefined,1,h,79,0,0,0,79,0,79,0,79,0,0,0,79,79,79,79,9/27/19 17:47,1500,The main experiment item,yes,Flankertask.osexp,C:\Users\Edgar\Documents\Edgar School\Fall 2019\Lab 2-1,no,mono,no,18,no,white,no,yes,768,legacy,79,79,C:/Users/Edgar/Documents/Edgar School/Fall 2019/Lab 2-2/OJ-subject-3.csv,legacy,Kafkaesque Koffka,3.2.8,0,h,NA,NA,space,NA,h,400,NA,NA,25471,NA,400,2,legacy,1024,2,48000,-16,experiment,HHHHH,3,odd,183576,32872,NA,NA,NA,7378,NA,NA,184836,NA,7398,NA,184942,185346,184829,184942,Flanker task,80,40034,80,yes,1024
100,100,505.7901235,505.7901235,black,legacy,legacy,legacy,0,incongruent,uniform,1,undefined,1,s,80,0,0,0,80,0,80,0,80,0,0,0,80,80,80,80,9/27/19 17:47,600,The main experiment item,yes,Flankertask.osexp,C:\Users\Edgar\Documents\Edgar School\Fall 2019\Lab 2-1,no,mono,no,18,no,white,no,yes,768,legacy,0,79,C:/Users/Edgar/Documents/Edgar School/Fall 2019/Lab 2-2/OJ-subject-3.csv,legacy,Kafkaesque Koffka,3.2.8,0,s,NA,NA,space,s,s,935,NA,NA,25471,12695,935,2,legacy,1024,2,48000,-16,experiment,HHSHH,3,odd,185414,32872,199153,NA,NA,7378,NA,NA,199393,NA,7398,186453,199498,200436,199386,199498,Flanker task,81,40969,81,yes,1024
100,100,505.4268293,505.4268293,black,legacy,legacy,legacy,0,congruent,uniform,1,undefined,1,h,81,0,0,0,81,0,81,0,81,0,0,0,81,81,81,81,9/27/19 17:47,600,The main experiment item,yes,Flankertask.osexp,C:\Users\Edgar\Documents\Edgar School\Fall 2019\Lab 2-1,no,mono,no,18,no,white,no,yes,768,legacy,1,79,C:/Users/Edgar/Documents/Edgar School/Fall 2019/Lab 2-2/OJ-subject-3.csv,legacy,Kafkaesque Koffka,3.2.8,0,h,NA,NA,space,s,h,476,NA,NA,25471,12695,476,2,legacy,1024,2,48000,-16,experiment,HHHHH,3,odd,201011,32872,199153,NA,NA,7378,200506,NA,202247,NA,7398,186453,202352,202832,202240,202352,Flanker task,82,41445,82,yes,1024
100,100,504.8795181,504.8795181,black,legacy,legacy,legacy,0,congruent,uniform,1,undefined,1,s,82,0,0,0,82,0,82,0,82,0,0,0,82,82,82,82,9/27/19 17:47,600,The main experiment item,yes,Flankertask.osexp,C:\Users\Edgar\Documents\Edgar School\Fall 2019\Lab 2-1,no,mono,no,18,no,white,no,yes,768,legacy,2,79,C:/Users/Edgar/Documents/Edgar School/Fall 2019/Lab 2-2/OJ-subject-3.csv,legacy,Kafkaesque Koffka,3.2.8,0,s,NA,NA,space,s,s,460,NA,NA,25471,12695,460,2,legacy,1024,2,48000,-16,experiment,SSSSS,3,odd,202887,32872,199153,NA,NA,7378,200506,NA,204118,NA,7398,186453,204225,204689,204110,204224,Flanker task,83,41905,83,yes,1024
100,100,504.0595238,504.0595238,black,legacy,legacy,legacy,0,congruent,uniform,1,undefined,1,s,83,0,0,0,83,0,83,0,83,0,0,0,83,83,83,83,9/27/19 17:47,600,The main experiment item,yes,Flankertask.osexp,C:\Users\Edgar\Documents\Edgar School\Fall 2019\Lab 2-1,no,mono,no,18,no,white,no,yes,768,legacy,3,79,C:/Users/Edgar/Documents/Edgar School/Fall 2019/Lab 2-2/OJ-subject-3.csv,legacy,Kafkaesque Koffka,3.2.8,0,s,NA,NA,space,s,s,436,NA,NA,25471,12695,436,2,legacy,1024,2,48000,-16,experiment,SSSSS,3,odd,204743,32872,199153,NA,NA,7378,200506,NA,205978,NA,7398,186453,206083,206523,205970,206083,Flanker task,84,42341,84,yes,1024
100,100,503.0117647,503.0117647,black,legacy,legacy,legacy,0,incongruent,uniform,1,undefined,1,s,84,0,0,0,84,0,84,0,84,0,0,0,84,84,84,84,9/27/19 17:47,600,The main experiment item,yes,Flankertask.osexp,C:\Users\Edgar\Documents\Edgar School\Fall 2019\Lab 2-1,no,mono,no,18,no,white,no,yes,768,legacy,4,79,C:/Users/Edgar/Documents/Edgar School/Fall 2019/Lab 2-2/OJ-subject-3.csv,legacy,Kafkaesque Koffka,3.2.8,0,s,NA,NA,space,s,s,415,NA,NA,25471,12695,415,2,legacy,1024,2,48000,-16,experiment,HHSHH,3,odd,206597,32872,199153,NA,NA,7378,200506,NA,207856,NA,7398,186453,207961,208380,207849,207961,Flanker task,85,42756,85,yes,1024
100,100,504.4651163,504.4651163,black,legacy,legacy,legacy,0,congruent,uniform,1,undefined,1,h,85,0,0,0,85,0,85,0,85,0,0,0,85,85,85,85,9/27/19 17:47,600,The main experiment item,yes,Flankertask.osexp,C:\Users\Edgar\Documents\Edgar School\Fall 2019\Lab 2-1,no,mono,no,18,no,white,no,yes,768,legacy,5,79,C:/Users/Edgar/Documents/Edgar School/Fall 2019/Lab 2-2/OJ-subject-3.csv,legacy,Kafkaesque Koffka,3.2.8,0,h,NA,NA,space,s,h,628,NA,NA,25471,12695,628,2,legacy,1024,2,48000,-16,experiment,HHHHH,3,odd,208434,32872,199153,NA,NA,7378,200506,NA,209673,NA,7398,186453,209779,210410,209665,209778,Flanker task,86,43384,86,yes,1024
100,100,503.1264368,503.1264368,black,legacy,legacy,legacy,0,congruent,uniform,1,undefined,1,h,86,0,0,0,86,0,86,0,86,0,0,0,86,86,86,86,9/27/19 17:47,600,The main experiment item,yes,Flankertask.osexp,C:\Users\Edgar\Documents\Edgar School\Fall 2019\Lab 2-1,no,mono,no,18,no,white,no,yes,768,legacy,6,79,C:/Users/Edgar/Documents/Edgar School/Fall 2019/Lab 2-2/OJ-subject-3.csv,legacy,Kafkaesque Koffka,3.2.8,0,h,NA,NA,space,s,h,388,NA,NA,25471,12695,388,2,legacy,1024,2,48000,-16,experiment,HHHHH,3,odd,210984,32872,199153,NA,NA,7378,210479,NA,212220,NA,7398,186453,212326,212718,212212,212325,Flanker task,87,43772,87,yes,1024
100,100,500.9318182,500.9318182,black,legacy,legacy,legacy,0,congruent,uniform,1,undefined,1,h,87,0,0,0,87,0,87,0,87,0,0,0,87,87,87,87,9/27/19 17:47,600,The main experiment item,yes,Flankertask.osexp,C:\Users\Edgar\Documents\Edgar School\Fall 2019\Lab 2-1,no,mono,no,18,no,white,no,yes,768,legacy,7,79,C:/Users/Edgar/Documents/Edgar School/Fall 2019/Lab 2-2/OJ-subject-3.csv,legacy,Kafkaesque Koffka,3.2.8,0,h,NA,NA,space,s,h,310,NA,NA,25471,12695,310,2,legacy,1024,2,48000,-16,experiment,HHHHH,3,odd,212778,32872,199153,NA,NA,7378,210479,NA,214034,NA,7398,186453,214139,214454,214024,214139,Flanker task,88,44082,88,yes,1024
100,100,500.1348315,500.1348315,black,legacy,legacy,legacy,0,incongruent,uniform,1,undefined,1,h,88,0,0,0,88,0,88,0,88,0,0,0,88,88,88,88,9/27/19 17:47,600,The main experiment item,yes,Flankertask.osexp,C:\Users\Edgar\Documents\Edgar School\Fall 2019\Lab 2-1,no,mono,no,18,no,white,no,yes,768,legacy,8,79,C:/Users/Edgar/Documents/Edgar School/Fall 2019/Lab 2-2/OJ-subject-3.csv,legacy,Kafkaesque Koffka,3.2.8,0,h,NA,NA,space,s,h,430,NA,NA,25471,12695,430,2,legacy,1024,2,48000,-16,experiment,SSHSS,3,odd,214507,32872,199153,NA,NA,7378,210479,NA,215754,NA,7398,186453,215859,216295,215746,215859,Flanker task,89,44512,89,yes,1024
100,100,498.9111111,498.9111111,black,legacy,legacy,legacy,0,congruent,uniform,1,undefined,1,s,89,0,0,0,89,0,89,0,89,0,0,0,89,89,89,89,9/27/19 17:47,600,The main experiment item,yes,Flankertask.osexp,C:\Users\Edgar\Documents\Edgar School\Fall 2019\Lab 2-1,no,mono,no,18,no,white,no,yes,768,legacy,9,79,C:/Users/Edgar/Documents/Edgar School/Fall 2019/Lab 2-2/OJ-subject-3.csv,legacy,Kafkaesque Koffka,3.2.8,0,s,NA,NA,space,s,s,390,NA,NA,25471,12695,390,2,legacy,1024,2,48000,-16,experiment,SSSSS,3,odd,216356,32872,199153,NA,NA,7378,210479,NA,217591,NA,7398,186453,217696,218090,217584,217696,Flanker task,90,44902,90,yes,1024
100,100,498.4615385,498.4615385,black,legacy,legacy,legacy,0,incongruent,uniform,1,undefined,1,s,90,0,0,0,90,0,90,0,90,0,0,0,90,90,90,90,9/27/19 17:47,600,The main experiment item,yes,Flankertask.osexp,C:\Users\Edgar\Documents\Edgar School\Fall 2019\Lab 2-1,no,mono,no,18,no,white,no,yes,768,legacy,10,79,C:/Users/Edgar/Documents/Edgar School/Fall 2019/Lab 2-2/OJ-subject-3.csv,legacy,Kafkaesque Koffka,3.2.8,0,s,NA,NA,space,s,s,458,NA,NA,25471,12695,458,2,legacy,1024,2,48000,-16,experiment,HHSHH,3,odd,218157,32872,199153,NA,NA,7378,210479,NA,219458,NA,7398,186453,219563,220026,219451,219563,Flanker task,91,45360,91,yes,1024
100,100,497.7282609,497.7282609,black,legacy,legacy,legacy,0,congruent,uniform,1,undefined,1,h,91,0,0,0,91,0,91,0,91,0,0,0,91,91,91,91,9/27/19 17:47,600,The main experiment item,yes,Flankertask.osexp,C:\Users\Edgar\Documents\Edgar School\Fall 2019\Lab 2-1,no,mono,no,18,no,white,no,yes,768,legacy,11,79,C:/Users/Edgar/Documents/Edgar School/Fall 2019/Lab 2-2/OJ-subject-3.csv,legacy,Kafkaesque Koffka,3.2.8,0,h,NA,NA,space,s,h,431,NA,NA,25471,12695,431,2,legacy,1024,2,48000,-16,experiment,HHHHH,3,odd,220062,32872,199153,NA,NA,7378,210479,NA,221298,NA,7398,186453,221406,221840,221290,221405,Flanker task,92,45791,92,yes,1024
100,100,495.7096774,495.7096774,black,legacy,legacy,legacy,0,congruent,uniform,1,undefined,1,h,92,0,0,0,92,0,92,0,92,0,0,0,92,92,92,92,9/27/19 17:47,600,The main experiment item,yes,Flankertask.osexp,C:\Users\Edgar\Documents\Edgar School\Fall 2019\Lab 2-1,no,mono,no,18,no,white,no,yes,768,legacy,12,79,C:/Users/Edgar/Documents/Edgar School/Fall 2019/Lab 2-2/OJ-subject-3.csv,legacy,Kafkaesque Koffka,3.2.8,0,h,NA,NA,space,s,h,310,NA,NA,25471,12695,310,2,legacy,1024,2,48000,-16,experiment,HHHHH,3,odd,221880,32872,199153,NA,NA,7378,210479,NA,223122,NA,7398,186453,223227,223541,223115,223227,Flanker task,93,46101,93,yes,1024
100,100,494.8191489,494.8191489,black,legacy,legacy,legacy,0,congruent,uniform,1,undefined,1,s,93,0,0,0,93,0,93,0,93,0,0,0,93,93,93,93,9/27/19 17:47,600,The main experiment item,yes,Flankertask.osexp,C:\Users\Edgar\Documents\Edgar School\Fall 2019\Lab 2-1,no,mono,no,18,no,white,no,yes,768,legacy,13,79,C:/Users/Edgar/Documents/Edgar School/Fall 2019/Lab 2-2/OJ-subject-3.csv,legacy,Kafkaesque Koffka,3.2.8,0,s,NA,NA,space,s,s,412,NA,NA,25471,12695,412,2,legacy,1024,2,48000,-16,experiment,SSSSS,3,odd,223605,32872,199153,NA,NA,7378,210479,NA,224844,NA,7398,186453,224950,225366,224837,224950,Flanker task,94,46513,94,yes,1024
100,100,493.1263158,493.1263158,black,legacy,legacy,legacy,0,congruent,uniform,1,undefined,1,h,94,0,0,0,94,0,94,0,94,0,0,0,94,94,94,94,9/27/19 17:47,600,The main experiment item,yes,Flankertask.osexp,C:\Users\Edgar\Documents\Edgar School\Fall 2019\Lab 2-1,no,mono,no,18,no,white,no,yes,768,legacy,14,79,C:/Users/Edgar/Documents/Edgar School/Fall 2019/Lab 2-2/OJ-subject-3.csv,legacy,Kafkaesque Koffka,3.2.8,0,h,NA,NA,space,s,h,334,NA,NA,25471,12695,334,2,legacy,1024,2,48000,-16,experiment,HHHHH,3,odd,225431,32872,199153,NA,NA,7378,210479,NA,226671,NA,7398,186453,226777,227116,226663,226777,Flanker task,95,46847,95,yes,1024
100,100,492.2083333,492.2083333,black,legacy,legacy,legacy,0,congruent,uniform,1,undefined,1,s,95,0,0,0,95,0,95,0,95,0,0,0,95,95,95,95,9/27/19 17:47,600,The main experiment item,yes,Flankertask.osexp,C:\Users\Edgar\Documents\Edgar School\Fall 2019\Lab 2-1,no,mono,no,18,no,white,no,yes,768,legacy,15,79,C:/Users/Edgar/Documents/Edgar School/Fall 2019/Lab 2-2/OJ-subject-3.csv,legacy,Kafkaesque Koffka,3.2.8,0,s,NA,NA,space,s,s,405,NA,NA,25471,12695,405,2,legacy,1024,2,48000,-16,experiment,SSSSS,3,odd,227175,32872,199153,NA,NA,7378,210479,NA,228427,NA,7398,186453,228532,228941,228419,228532,Flanker task,96,47252,96,yes,1024
98.96907216,98.96907216,490.556701,490.556701,black,legacy,legacy,legacy,0,congruent,uniform,0,undefined,0,h,96,0,0,0,96,0,96,0,96,0,0,0,96,96,96,96,9/27/19 17:47,600,The main experiment item,yes,Flankertask.osexp,C:\Users\Edgar\Documents\Edgar School\Fall 2019\Lab 2-1,no,mono,no,18,no,white,no,yes,768,legacy,16,79,C:/Users/Edgar/Documents/Edgar School/Fall 2019/Lab 2-2/OJ-subject-3.csv,legacy,Kafkaesque Koffka,3.2.8,0,s,NA,NA,space,s,s,332,NA,NA,25471,12695,332,2,legacy,1024,2,48000,-16,experiment,HHHHH,3,odd,229017,32872,199153,NA,NA,7378,210479,NA,230249,NA,7398,186453,230355,230691,230242,230355,Flanker task,96,47584,97,yes,1024
98.97959184,98.97959184,490.5918367,490.5918367,black,legacy,legacy,legacy,0,incongruent,uniform,1,undefined,1,h,97,0,0,0,97,0,97,0,97,0,0,0,97,97,97,97,9/27/19 17:47,600,The main experiment item,yes,Flankertask.osexp,C:\Users\Edgar\Documents\Edgar School\Fall 2019\Lab 2-1,no,mono,no,18,no,white,no,yes,768,legacy,17,79,C:/Users/Edgar/Documents/Edgar School/Fall 2019/Lab 2-2/OJ-subject-3.csv,legacy,Kafkaesque Koffka,3.2.8,0,h,NA,NA,space,s,h,494,NA,NA,25471,12695,494,2,legacy,1024,2,48000,-16,experiment,SSHSS,3,odd,231240,32872,199153,NA,230734,7378,210479,NA,232471,NA,7398,186453,232578,233076,232464,232577,Flanker task,97,48078,98,yes,1024
98.98989899,98.98989899,490.1515152,490.1515152,black,legacy,legacy,legacy,0,incongruent,uniform,1,undefined,1,s,98,0,0,0,98,0,98,0,98,0,0,0,98,98,98,98,9/27/19 17:47,600,The main experiment item,yes,Flankertask.osexp,C:\Users\Edgar\Documents\Edgar School\Fall 2019\Lab 2-1,no,mono,no,18,no,white,no,yes,768,legacy,18,79,C:/Users/Edgar/Documents/Edgar School/Fall 2019/Lab 2-2/OJ-subject-3.csv,legacy,Kafkaesque Koffka,3.2.8,0,s,NA,NA,space,s,s,447,NA,NA,25471,12695,447,2,legacy,1024,2,48000,-16,experiment,HHSHH,3,odd,233156,32872,199153,NA,230734,7378,210479,NA,234398,NA,7398,186453,234504,234956,234391,234504,Flanker task,98,48525,99,yes,1024
99,99,489.19,489.19,black,legacy,legacy,legacy,0,congruent,uniform,1,undefined,1,s,99,0,0,0,99,0,99,0,99,0,0,0,99,99,99,99,9/27/19 17:47,600,The main experiment item,yes,Flankertask.osexp,C:\Users\Edgar\Documents\Edgar School\Fall 2019\Lab 2-1,no,mono,no,18,no,white,no,yes,768,legacy,19,79,C:/Users/Edgar/Documents/Edgar School/Fall 2019/Lab 2-2/OJ-subject-3.csv,legacy,Kafkaesque Koffka,3.2.8,0,s,NA,NA,space,s,s,394,NA,NA,25471,12695,394,2,legacy,1024,2,48000,-16,experiment,SSSSS,3,odd,235017,32872,199153,NA,230734,7378,210479,NA,236247,NA,7398,186453,236353,236751,236239,236353,Flanker task,99,48919,100,yes,1024
99.00990099,99.00990099,488.5742574,488.5742574,black,legacy,legacy,legacy,0,incongruent,uniform,1,undefined,1,h,100,0,0,0,100,0,100,0,100,0,0,0,100,100,100,100,9/27/19 17:47,600,The main experiment item,yes,Flankertask.osexp,C:\Users\Edgar\Documents\Edgar School\Fall 2019\Lab 2-1,no,mono,no,18,no,white,no,yes,768,legacy,20,79,C:/Users/Edgar/Documents/Edgar School/Fall 2019/Lab 2-2/OJ-subject-3.csv,legacy,Kafkaesque Koffka,3.2.8,0,h,NA,NA,space,s,h,427,NA,NA,25471,12695,427,2,legacy,1024,2,48000,-16,experiment,SSHSS,3,odd,236814,32872,199153,NA,230734,7378,210479,NA,238046,NA,7398,186453,238151,238582,238038,238151,Flanker task,100,49346,101,yes,1024
99.01960784,99.01960784,488.1176471,488.1176471,black,legacy,legacy,legacy,0,congruent,uniform,1,undefined,1,s,101,0,0,0,101,0,101,0,101,0,0,0,101,101,101,101,9/27/19 17:47,600,The main experiment item,yes,Flankertask.osexp,C:\Users\Edgar\Documents\Edgar School\Fall 2019\Lab 2-1,no,mono,no,18,no,white,no,yes,768,legacy,21,79,C:/Users/Edgar/Documents/Edgar School/Fall 2019/Lab 2-2/OJ-subject-3.csv,legacy,Kafkaesque Koffka,3.2.8,0,s,NA,NA,space,s,s,442,NA,NA,25471,12695,442,2,legacy,1024,2,48000,-16,experiment,SSSSS,3,odd,238649,32872,199153,NA,230734,7378,210479,NA,239893,NA,7398,186453,240001,240448,239885,240000,Flanker task,101,49788,102,yes,1024
99.02912621,99.02912621,487.2038835,487.2038835,black,legacy,legacy,legacy,0,incongruent,uniform,1,undefined,1,h,102,0,0,0,102,0,102,0,102,0,0,0,102,102,102,102,9/27/19 17:47,600,The main experiment item,yes,Flankertask.osexp,C:\Users\Edgar\Documents\Edgar School\Fall 2019\Lab 2-1,no,mono,no,18,no,white,no,yes,768,legacy,22,79,C:/Users/Edgar/Documents/Edgar School/Fall 2019/Lab 2-2/OJ-subject-3.csv,legacy,Kafkaesque Koffka,3.2.8,0,h,NA,NA,space,s,h,394,NA,NA,25471,12695,394,2,legacy,1024,2,48000,-16,experiment,SSHSS,3,odd,240511,32872,199153,NA,230734,7378,210479,NA,241743,NA,7398,186453,241849,242248,241736,241848,Flanker task,102,50182,103,yes,1024
99.03846154,99.03846154,486,486,black,legacy,legacy,legacy,0,congruent,uniform,1,undefined,1,h,103,0,0,0,103,0,103,0,103,0,0,0,103,103,103,103,9/27/19 17:47,600,The main experiment item,yes,Flankertask.osexp,C:\Users\Edgar\Documents\Edgar School\Fall 2019\Lab 2-1,no,mono,no,18,no,white,no,yes,768,legacy,23,79,C:/Users/Edgar/Documents/Edgar School/Fall 2019/Lab 2-2/OJ-subject-3.csv,legacy,Kafkaesque Koffka,3.2.8,0,h,NA,NA,space,s,h,362,NA,NA,25471,12695,362,2,legacy,1024,2,48000,-16,experiment,HHHHH,3,odd,242307,32872,199153,NA,230734,7378,210479,NA,243586,NA,7398,186453,243691,244057,243578,243691,Flanker task,103,50544,104,yes,1024
99.04761905,99.04761905,485.1238095,485.1238095,black,legacy,legacy,legacy,0,congruent,uniform,1,undefined,1,s,104,0,0,0,104,0,104,0,104,0,0,0,104,104,104,104,9/27/19 17:47,600,The main experiment item,yes,Flankertask.osexp,C:\Users\Edgar\Documents\Edgar School\Fall 2019\Lab 2-1,no,mono,no,18,no,white,no,yes,768,legacy,24,79,C:/Users/Edgar/Documents/Edgar School/Fall 2019/Lab 2-2/OJ-subject-3.csv,legacy,Kafkaesque Koffka,3.2.8,0,s,NA,NA,space,s,s,394,NA,NA,25471,12695,394,2,legacy,1024,2,48000,-16,experiment,SSSSS,3,odd,244118,32872,199153,NA,230734,7378,210479,NA,245355,NA,7398,186453,245461,245859,245348,245461,Flanker task,104,50938,105,yes,1024
99.05660377,99.05660377,484.0188679,484.0188679,black,legacy,legacy,legacy,0,congruent,uniform,1,undefined,1,s,105,0,0,0,105,0,105,0,105,0,0,0,105,105,105,105,9/27/19 17:47,600,The main experiment item,yes,Flankertask.osexp,C:\Users\Edgar\Documents\Edgar School\Fall 2019\Lab 2-1,no,mono,no,18,no,white,no,yes,768,legacy,25,79,C:/Users/Edgar/Documents/Edgar School/Fall 2019/Lab 2-2/OJ-subject-3.csv,legacy,Kafkaesque Koffka,3.2.8,0,s,NA,NA,space,s,s,368,NA,NA,25471,12695,368,2,legacy,1024,2,48000,-16,experiment,SSSSS,3,odd,245899,32872,199153,NA,230734,7378,210479,NA,247133,NA,7398,186453,247239,247611,247126,247239,Flanker task,105,51306,106,yes,1024
99.06542056,99.06542056,482.4859813,482.4859813,black,legacy,legacy,legacy,0,congruent,uniform,1,undefined,1,h,106,0,0,0,106,0,106,0,106,0,0,0,106,106,106,106,9/27/19 17:47,600,The main experiment item,yes,Flankertask.osexp,C:\Users\Edgar\Documents\Edgar School\Fall 2019\Lab 2-1,no,mono,no,18,no,white,no,yes,768,legacy,26,79,C:/Users/Edgar/Documents/Edgar School/Fall 2019/Lab 2-2/OJ-subject-3.csv,legacy,Kafkaesque Koffka,3.2.8,0,h,NA,NA,space,s,h,320,NA,NA,25471,12695,320,2,legacy,1024,2,48000,-16,experiment,HHHHH,3,odd,247668,32872,199153,NA,230734,7378,210479,NA,248936,NA,7398,186453,249041,249365,248929,249041,Flanker task,106,51626,107,yes,1024
99.07407407,99.07407407,481.2962963,481.2962963,black,legacy,legacy,legacy,0,congruent,uniform,1,undefined,1,h,107,0,0,0,107,0,107,0,107,0,0,0,107,107,107,107,9/27/19 17:47,600,The main experiment item,yes,Flankertask.osexp,C:\Users\Edgar\Documents\Edgar School\Fall 2019\Lab 2-1,no,mono,no,18,no,white,no,yes,768,legacy,27,79,C:/Users/Edgar/Documents/Edgar School/Fall 2019/Lab 2-2/OJ-subject-3.csv,legacy,Kafkaesque Koffka,3.2.8,0,h,NA,NA,space,s,h,354,NA,NA,25471,12695,354,2,legacy,1024,2,48000,-16,experiment,HHHHH,3,odd,249432,32872,199153,NA,230734,7378,210479,NA,250667,NA,7398,186453,250773,251131,250660,250773,Flanker task,107,51980,108,yes,1024
99.08256881,99.08256881,481.0275229,481.0275229,black,legacy,legacy,legacy,0,incongruent,uniform,1,undefined,1,s,108,0,0,0,108,0,108,0,108,0,0,0,108,108,108,108,9/27/19 17:47,600,The main experiment item,yes,Flankertask.osexp,C:\Users\Edgar\Documents\Edgar School\Fall 2019\Lab 2-1,no,mono,no,18,no,white,no,yes,768,legacy,28,79,C:/Users/Edgar/Documents/Edgar School/Fall 2019/Lab 2-2/OJ-subject-3.csv,legacy,Kafkaesque Koffka,3.2.8,0,s,NA,NA,space,s,s,452,NA,NA,25471,12695,452,2,legacy,1024,2,48000,-16,experiment,HHSHH,3,odd,251214,32872,199153,NA,230734,7378,210479,NA,252447,NA,7398,186453,252553,253010,252440,252553,Flanker task,108,52432,109,yes,1024
98.18181818,98.18181818,479.7272727,479.7272727,black,legacy,legacy,legacy,0,incongruent,uniform,0,undefined,0,h,109,0,0,0,109,0,109,0,109,0,0,0,109,109,109,109,9/27/19 17:47,600,The main experiment item,yes,Flankertask.osexp,C:\Users\Edgar\Documents\Edgar School\Fall 2019\Lab 2-1,no,mono,no,18,no,white,no,yes,768,legacy,29,79,C:/Users/Edgar/Documents/Edgar School/Fall 2019/Lab 2-2/OJ-subject-3.csv,legacy,Kafkaesque Koffka,3.2.8,0,s,NA,NA,space,s,s,338,NA,NA,25471,12695,338,2,legacy,1024,2,48000,-16,experiment,SSHSS,3,odd,253089,32872,199153,NA,230734,7378,210479,NA,254322,NA,7398,186453,254428,254770,254313,254427,Flanker task,108,52770,110,yes,1024
98.1981982,98.1981982,478.972973,478.972973,black,legacy,legacy,legacy,0,incongruent,uniform,1,undefined,1,h,110,0,0,0,110,0,110,0,110,0,0,0,110,110,110,110,9/27/19 17:47,600,The main experiment item,yes,Flankertask.osexp,C:\Users\Edgar\Documents\Edgar School\Fall 2019\Lab 2-1,no,mono,no,18,no,white,no,yes,768,legacy,30,79,C:/Users/Edgar/Documents/Edgar School/Fall 2019/Lab 2-2/OJ-subject-3.csv,legacy,Kafkaesque Koffka,3.2.8,0,h,NA,NA,space,s,h,396,NA,NA,25471,12695,396,2,legacy,1024,2,48000,-16,experiment,SSHSS,3,odd,255339,32872,199153,NA,254834,7378,210479,NA,256585,NA,7398,186453,256691,257092,256578,256690,Flanker task,109,53166,111,yes,1024
98.21428571,98.21428571,478.8035714,478.8035714,black,legacy,legacy,legacy,0,incongruent,uniform,1,undefined,1,s,111,0,0,0,111,0,111,0,111,0,0,0,111,111,111,111,9/27/19 17:47,600,The main experiment item,yes,Flankertask.osexp,C:\Users\Edgar\Documents\Edgar School\Fall 2019\Lab 2-1,no,mono,no,18,no,white,no,yes,768,legacy,31,79,C:/Users/Edgar/Documents/Edgar School/Fall 2019/Lab 2-2/OJ-subject-3.csv,legacy,Kafkaesque Koffka,3.2.8,0,s,NA,NA,space,s,s,460,NA,NA,25471,12695,460,2,legacy,1024,2,48000,-16,experiment,HHSHH,3,odd,257156,32872,199153,NA,254834,7378,210479,NA,258395,NA,7398,186453,258501,258965,258387,258501,Flanker task,110,53626,112,yes,1024
98.2300885,98.2300885,479.0265487,479.0265487,black,legacy,legacy,legacy,0,incongruent,uniform,1,undefined,1,s,112,0,0,0,112,0,112,0,112,0,0,0,112,112,112,112,9/27/19 17:47,600,The main experiment item,yes,Flankertask.osexp,C:\Users\Edgar\Documents\Edgar School\Fall 2019\Lab 2-1,no,mono,no,18,no,white,no,yes,768,legacy,32,79,C:/Users/Edgar/Documents/Edgar School/Fall 2019/Lab 2-2/OJ-subject-3.csv,legacy,Kafkaesque Koffka,3.2.8,0,s,NA,NA,space,s,s,504,NA,NA,25471,12695,504,2,legacy,1024,2,48000,-16,experiment,HHSHH,3,odd,259024,32872,199153,NA,254834,7378,210479,NA,260255,NA,7398,186453,260360,260869,260248,260360,Flanker task,111,54130,113,yes,1024
98.24561404,98.24561404,479.0350877,479.0350877,black,legacy,legacy,legacy,0,congruent,uniform,1,undefined,1,s,113,0,0,0,113,0,113,0,113,0,0,0,113,113,113,113,9/27/19 17:47,600,The main experiment item,yes,Flankertask.osexp,C:\Users\Edgar\Documents\Edgar School\Fall 2019\Lab 2-1,no,mono,no,18,no,white,no,yes,768,legacy,33,79,C:/Users/Edgar/Documents/Edgar School/Fall 2019/Lab 2-2/OJ-subject-3.csv,legacy,Kafkaesque Koffka,3.2.8,0,s,NA,NA,space,s,s,480,NA,NA,25471,12695,480,2,legacy,1024,2,48000,-16,experiment,SSSSS,3,odd,260910,32872,199153,NA,254834,7378,210479,NA,262149,NA,7398,186453,262255,262741,262142,262255,Flanker task,112,54610,114,yes,1024
98.26086957,98.26086957,478.7565217,478.7565217,black,legacy,legacy,legacy,0,congruent,uniform,1,undefined,1,h,114,0,0,0,114,0,114,0,114,0,0,0,114,114,114,114,9/27/19 17:47,600,The main experiment item,yes,Flankertask.osexp,C:\Users\Edgar\Documents\Edgar School\Fall 2019\Lab 2-1,no,mono,no,18,no,white,no,yes,768,legacy,34,79,C:/Users/Edgar/Documents/Edgar School/Fall 2019/Lab 2-2/OJ-subject-3.csv,legacy,Kafkaesque Koffka,3.2.8,0,h,NA,NA,space,s,h,447,NA,NA,25471,12695,447,2,legacy,1024,2,48000,-16,experiment,HHHHH,3,odd,262801,32872,199153,NA,254834,7378,210479,NA,264032,NA,7398,186453,264139,264592,264025,264139,Flanker task,113,55057,115,yes,1024
98.27586207,98.27586207,479.1551724,479.1551724,black,legacy,legacy,legacy,0,incongruent,uniform,1,undefined,1,h,115,0,0,0,115,0,115,0,115,0,0,0,115,115,115,115,9/27/19 17:47,600,The main experiment item,yes,Flankertask.osexp,C:\Users\Edgar\Documents\Edgar School\Fall 2019\Lab 2-1,no,mono,no,18,no,white,no,yes,768,legacy,35,79,C:/Users/Edgar/Documents/Edgar School/Fall 2019/Lab 2-2/OJ-subject-3.csv,legacy,Kafkaesque Koffka,3.2.8,0,h,NA,NA,space,s,h,525,NA,NA,25471,12695,525,2,legacy,1024,2,48000,-16,experiment,SSHSS,3,odd,264661,32872,199153,NA,254834,7378,210479,NA,265900,NA,7398,186453,266005,266537,265893,266005,Flanker task,114,55582,116,yes,1024
98.29059829,98.29059829,479.965812,479.965812,black,legacy,legacy,legacy,0,incongruent,uniform,1,undefined,1,s,116,0,0,0,116,0,116,0,116,0,0,0,116,116,116,116,9/27/19 17:47,600,The main experiment item,yes,Flankertask.osexp,C:\Users\Edgar\Documents\Edgar School\Fall 2019\Lab 2-1,no,mono,no,18,no,white,no,yes,768,legacy,36,79,C:/Users/Edgar/Documents/Edgar School/Fall 2019/Lab 2-2/OJ-subject-3.csv,legacy,Kafkaesque Koffka,3.2.8,0,s,NA,NA,space,s,s,574,NA,NA,25471,12695,574,2,legacy,1024,2,48000,-16,experiment,HHSHH,3,odd,266580,32872,199153,NA,254834,7378,210479,NA,267856,NA,7398,186453,267963,268541,267848,267962,Flanker task,115,56156,117,yes,1024
98.30508475,98.30508475,479.3220339,479.3220339,black,legacy,legacy,legacy,0,congruent,uniform,1,undefined,1,s,117,0,0,0,117,0,117,0,117,0,0,0,117,117,117,117,9/27/19 17:47,600,The main experiment item,yes,Flankertask.osexp,C:\Users\Edgar\Documents\Edgar School\Fall 2019\Lab 2-1,no,mono,no,18,no,white,no,yes,768,legacy,37,79,C:/Users/Edgar/Documents/Edgar School/Fall 2019/Lab 2-2/OJ-subject-3.csv,legacy,Kafkaesque Koffka,3.2.8,0,s,NA,NA,space,s,s,404,NA,NA,25471,12695,404,2,legacy,1024,2,48000,-16,experiment,SSSSS,3,odd,268603,32872,199153,NA,254834,7378,210479,NA,269839,NA,7398,186453,269946,270356,269831,269945,Flanker task,116,56560,118,yes,1024
98.31932773,98.31932773,478.7226891,478.7226891,black,legacy,legacy,legacy,0,congruent,uniform,1,undefined,1,h,118,0,0,0,118,0,118,0,118,0,0,0,118,118,118,118,9/27/19 17:47,600,The main experiment item,yes,Flankertask.osexp,C:\Users\Edgar\Documents\Edgar School\Fall 2019\Lab 2-1,no,mono,no,18,no,white,no,yes,768,legacy,38,79,C:/Users/Edgar/Documents/Edgar School/Fall 2019/Lab 2-2/OJ-subject-3.csv,legacy,Kafkaesque Koffka,3.2.8,0,h,NA,NA,space,s,h,408,NA,NA,25471,12695,408,2,legacy,1024,2,48000,-16,experiment,HHHHH,3,odd,270418,32872,199153,NA,254834,7378,210479,NA,271667,NA,7398,186453,271773,272187,271660,271773,Flanker task,117,56968,119,yes,1024
98.33333333,98.33333333,478.1583333,478.1583333,black,legacy,legacy,legacy,0,congruent,uniform,1,undefined,1,s,119,0,0,0,119,0,119,0,119,0,0,0,119,119,119,119,9/27/19 17:47,600,The main experiment item,yes,Flankertask.osexp,C:\Users\Edgar\Documents\Edgar School\Fall 2019\Lab 2-1,no,mono,no,18,no,white,no,yes,768,legacy,39,79,C:/Users/Edgar/Documents/Edgar School/Fall 2019/Lab 2-2/OJ-subject-3.csv,legacy,Kafkaesque Koffka,3.2.8,0,s,NA,NA,space,s,s,411,NA,NA,25471,12695,411,2,legacy,1024,2,48000,-16,experiment,SSSSS,3,odd,272254,32872,199153,NA,254834,7378,210479,NA,273509,NA,7398,186453,273615,274031,273502,273615,Flanker task,118,57379,120,yes,1024
98.34710744,98.34710744,477.6363636,477.6363636,black,legacy,legacy,legacy,0,congruent,uniform,1,undefined,1,h,120,0,0,0,120,0,120,0,120,0,0,0,120,120,120,120,9/27/19 17:47,600,The main experiment item,yes,Flankertask.osexp,C:\Users\Edgar\Documents\Edgar School\Fall 2019\Lab 2-1,no,mono,no,18,no,white,no,yes,768,legacy,40,79,C:/Users/Edgar/Documents/Edgar School/Fall 2019/Lab 2-2/OJ-subject-3.csv,legacy,Kafkaesque Koffka,3.2.8,0,h,NA,NA,space,s,h,415,NA,NA,25471,12695,415,2,legacy,1024,2,48000,-16,experiment,HHHHH,3,odd,274091,32872,199153,NA,254834,7378,210479,NA,275327,NA,7398,186453,275433,275853,275319,275433,Flanker task,119,57794,121,yes,1024
98.36065574,98.36065574,476.7868852,476.7868852,black,legacy,legacy,legacy,0,congruent,uniform,1,undefined,1,s,121,0,0,0,121,0,121,0,121,0,0,0,121,121,121,121,9/27/19 17:47,600,The main experiment item,yes,Flankertask.osexp,C:\Users\Edgar\Documents\Edgar School\Fall 2019\Lab 2-1,no,mono,no,18,no,white,no,yes,768,legacy,41,79,C:/Users/Edgar/Documents/Edgar School/Fall 2019/Lab 2-2/OJ-subject-3.csv,legacy,Kafkaesque Koffka,3.2.8,0,s,NA,NA,space,s,s,374,NA,NA,25471,12695,374,2,legacy,1024,2,48000,-16,experiment,SSSSS,3,odd,275924,32872,199153,NA,254834,7378,210479,NA,277201,NA,7398,186453,277306,277685,277193,277306,Flanker task,120,58168,122,yes,1024
98.37398374,98.37398374,476.6097561,476.6097561,black,legacy,legacy,legacy,0,incongruent,uniform,1,undefined,1,h,122,0,0,0,122,0,122,0,122,0,0,0,122,122,122,122,9/27/19 17:47,600,The main experiment item,yes,Flankertask.osexp,C:\Users\Edgar\Documents\Edgar School\Fall 2019\Lab 2-1,no,mono,no,18,no,white,no,yes,768,legacy,42,79,C:/Users/Edgar/Documents/Edgar School/Fall 2019/Lab 2-2/OJ-subject-3.csv,legacy,Kafkaesque Koffka,3.2.8,0,h,NA,NA,space,s,h,455,NA,NA,25471,12695,455,2,legacy,1024,2,48000,-16,experiment,SSHSS,3,odd,277745,32872,199153,NA,254834,7378,210479,NA,278976,NA,7398,186453,279082,279543,278969,279082,Flanker task,121,58623,123,yes,1024
98.38709677,98.38709677,475.6048387,475.6048387,black,legacy,legacy,legacy,0,congruent,uniform,1,undefined,1,h,123,0,0,0,123,0,123,0,123,0,0,0,123,123,123,123,9/27/19 17:47,600,The main experiment item,yes,Flankertask.osexp,C:\Users\Edgar\Documents\Edgar School\Fall 2019\Lab 2-1,no,mono,no,18,no,white,no,yes,768,legacy,43,79,C:/Users/Edgar/Documents/Edgar School/Fall 2019/Lab 2-2/OJ-subject-3.csv,legacy,Kafkaesque Koffka,3.2.8,0,h,NA,NA,space,s,h,352,NA,NA,25471,12695,352,2,legacy,1024,2,48000,-16,experiment,HHHHH,3,odd,279611,32872,199153,NA,254834,7378,210479,NA,280855,NA,7398,186453,280960,281318,280847,280960,Flanker task,122,58975,124,yes,1024
98.4,98.4,474.464,474.464,black,legacy,legacy,legacy,0,incongruent,uniform,1,undefined,1,h,124,0,0,0,124,0,124,0,124,0,0,0,124,124,124,124,9/27/19 17:47,600,The main experiment item,yes,Flankertask.osexp,C:\Users\Edgar\Documents\Edgar School\Fall 2019\Lab 2-1,no,mono,no,18,no,white,no,yes,768,legacy,44,79,C:/Users/Edgar/Documents/Edgar School/Fall 2019/Lab 2-2/OJ-subject-3.csv,legacy,Kafkaesque Koffka,3.2.8,0,h,NA,NA,space,s,h,333,NA,NA,25471,12695,333,2,legacy,1024,2,48000,-16,experiment,SSHSS,3,odd,281357,32872,199153,NA,254834,7378,210479,NA,282590,NA,7398,186453,282697,283035,282582,282696,Flanker task,123,59308,125,yes,1024
98.41269841,98.41269841,474.1825397,474.1825397,black,legacy,legacy,legacy,0,incongruent,uniform,1,undefined,1,h,125,0,0,0,125,0,125,0,125,0,0,0,125,125,125,125,9/27/19 17:47,600,The main experiment item,yes,Flankertask.osexp,C:\Users\Edgar\Documents\Edgar School\Fall 2019\Lab 2-1,no,mono,no,18,no,white,no,yes,768,legacy,45,79,C:/Users/Edgar/Documents/Edgar School/Fall 2019/Lab 2-2/OJ-subject-3.csv,legacy,Kafkaesque Koffka,3.2.8,0,h,NA,NA,space,s,h,439,NA,NA,25471,12695,439,2,legacy,1024,2,48000,-16,experiment,SSHSS,3,odd,283088,32872,199153,NA,254834,7378,210479,NA,284321,NA,7398,186453,284426,284871,284314,284426,Flanker task,124,59747,126,yes,1024
98.42519685,98.42519685,473.511811,473.511811,black,legacy,legacy,legacy,0,incongruent,uniform,1,undefined,1,s,126,0,0,0,126,0,126,0,126,0,0,0,126,126,126,126,9/27/19 17:47,600,The main experiment item,yes,Flankertask.osexp,C:\Users\Edgar\Documents\Edgar School\Fall 2019\Lab 2-1,no,mono,no,18,no,white,no,yes,768,legacy,46,79,C:/Users/Edgar/Documents/Edgar School/Fall 2019/Lab 2-2/OJ-subject-3.csv,legacy,Kafkaesque Koffka,3.2.8,0,s,NA,NA,space,s,s,389,NA,NA,25471,12695,389,2,legacy,1024,2,48000,-16,experiment,HHSHH,3,odd,284930,32872,199153,NA,254834,7378,210479,NA,286184,NA,7398,186453,286289,286683,286176,286289,Flanker task,125,60136,127,yes,1024
98.4375,98.4375,473.171875,473.171875,black,legacy,legacy,legacy,0,congruent,uniform,1,undefined,1,s,127,0,0,0,127,0,127,0,127,0,0,0,127,127,127,127,9/27/19 17:47,600,The main experiment item,yes,Flankertask.osexp,C:\Users\Edgar\Documents\Edgar School\Fall 2019\Lab 2-1,no,mono,no,18,no,white,no,yes,768,legacy,47,79,C:/Users/Edgar/Documents/Edgar School/Fall 2019/Lab 2-2/OJ-subject-3.csv,legacy,Kafkaesque Koffka,3.2.8,0,s,NA,NA,space,s,s,430,NA,NA,25471,12695,430,2,legacy,1024,2,48000,-16,experiment,SSSSS,3,odd,286749,32872,199153,NA,254834,7378,210479,NA,287983,NA,7398,186453,288088,288524,287975,288088,Flanker task,126,60566,128,yes,1024
97.6744186,97.6744186,472.6511628,472.6511628,black,legacy,legacy,legacy,0,incongruent,uniform,0,undefined,0,h,128,0,0,0,128,0,128,0,128,0,0,0,128,128,128,128,9/27/19 17:47,600,The main experiment item,yes,Flankertask.osexp,C:\Users\Edgar\Documents\Edgar School\Fall 2019\Lab 2-1,no,mono,no,18,no,white,no,yes,768,legacy,48,79,C:/Users/Edgar/Documents/Edgar School/Fall 2019/Lab 2-2/OJ-subject-3.csv,legacy,Kafkaesque Koffka,3.2.8,0,s,NA,NA,space,s,s,406,NA,NA,25471,12695,406,2,legacy,1024,2,48000,-16,experiment,SSHSS,3,odd,288573,32872,199153,NA,254834,7378,210479,NA,289831,NA,7398,186453,289936,290347,289823,289936,Flanker task,126,60972,129,yes,1024
97.69230769,97.69230769,471.8307692,471.8307692,black,legacy,legacy,legacy,0,incongruent,uniform,1,undefined,1,s,129,0,0,0,129,0,129,0,129,0,0,0,129,129,129,129,9/27/19 17:47,600,The main experiment item,yes,Flankertask.osexp,C:\Users\Edgar\Documents\Edgar School\Fall 2019\Lab 2-1,no,mono,no,18,no,white,no,yes,768,legacy,49,79,C:/Users/Edgar/Documents/Edgar School/Fall 2019/Lab 2-2/OJ-subject-3.csv,legacy,Kafkaesque Koffka,3.2.8,0,s,NA,NA,space,s,s,366,NA,NA,25471,12695,366,2,legacy,1024,2,48000,-16,experiment,HHSHH,3,odd,290931,32872,199153,NA,290425,7378,210479,NA,292175,NA,7398,186453,292282,292653,292167,292281,Flanker task,127,61338,130,yes,1024
97.70992366,97.70992366,472.0534351,472.0534351,black,legacy,legacy,legacy,0,incongruent,uniform,1,undefined,1,h,130,0,0,0,130,0,130,0,130,0,0,0,130,130,130,130,9/27/19 17:47,600,The main experiment item,yes,Flankertask.osexp,C:\Users\Edgar\Documents\Edgar School\Fall 2019\Lab 2-1,no,mono,no,18,no,white,no,yes,768,legacy,50,79,C:/Users/Edgar/Documents/Edgar School/Fall 2019/Lab 2-2/OJ-subject-3.csv,legacy,Kafkaesque Koffka,3.2.8,0,h,NA,NA,space,s,h,501,NA,NA,25471,12695,501,2,legacy,1024,2,48000,-16,experiment,SSHSS,3,odd,292696,32872,199153,NA,290425,7378,210479,NA,293936,NA,7398,186453,294041,294547,293928,294041,Flanker task,128,61839,131,yes,1024
97.72727273,97.72727273,472.280303,472.280303,black,legacy,legacy,legacy,0,incongruent,uniform,1,undefined,1,s,131,0,0,0,131,0,131,0,131,0,0,0,131,131,131,131,9/27/19 17:47,600,The main experiment item,yes,Flankertask.osexp,C:\Users\Edgar\Documents\Edgar School\Fall 2019\Lab 2-1,no,mono,no,18,no,white,no,yes,768,legacy,51,79,C:/Users/Edgar/Documents/Edgar School/Fall 2019/Lab 2-2/OJ-subject-3.csv,legacy,Kafkaesque Koffka,3.2.8,0,s,NA,NA,space,s,s,502,NA,NA,25471,12695,502,2,legacy,1024,2,48000,-16,experiment,HHSHH,3,odd,294597,32872,199153,NA,290425,7378,210479,NA,295842,NA,7398,186453,295947,296457,295834,295947,Flanker task,129,62341,132,yes,1024
96.9924812,96.9924812,471.2030075,471.2030075,black,legacy,legacy,legacy,0,incongruent,uniform,0,undefined,0,s,132,0,0,0,132,0,132,0,132,0,0,0,132,132,132,132,9/27/19 17:47,600,The main experiment item,yes,Flankertask.osexp,C:\Users\Edgar\Documents\Edgar School\Fall 2019\Lab 2-1,no,mono,no,18,no,white,no,yes,768,legacy,52,79,C:/Users/Edgar/Documents/Edgar School/Fall 2019/Lab 2-2/OJ-subject-3.csv,legacy,Kafkaesque Koffka,3.2.8,0,h,NA,NA,space,s,h,329,NA,NA,25471,12695,329,2,legacy,1024,2,48000,-16,experiment,HHSHH,3,odd,296502,32872,199153,NA,290425,7378,210479,NA,297751,NA,7398,186453,297856,298190,297742,297856,Flanker task,129,62670,133,yes,1024
97.01492537,97.01492537,471.3880597,471.3880597,black,legacy,legacy,legacy,0,incongruent,uniform,1,undefined,1,h,133,0,0,0,133,0,133,0,133,0,0,0,133,133,133,133,9/27/19 17:47,600,The main experiment item,yes,Flankertask.osexp,C:\Users\Edgar\Documents\Edgar School\Fall 2019\Lab 2-1,no,mono,no,18,no,white,no,yes,768,legacy,53,79,C:/Users/Edgar/Documents/Edgar School/Fall 2019/Lab 2-2/OJ-subject-3.csv,legacy,Kafkaesque Koffka,3.2.8,0,h,NA,NA,space,s,h,496,NA,NA,25471,12695,496,2,legacy,1024,2,48000,-16,experiment,SSHSS,3,odd,298747,32872,199153,NA,298242,7378,210479,NA,299994,NA,7398,186453,300101,300602,299986,300100,Flanker task,130,63166,134,yes,1024
97.03703704,97.03703704,471.1111111,471.1111111,black,legacy,legacy,legacy,0,congruent,uniform,1,undefined,1,s,134,0,0,0,134,0,134,0,134,0,0,0,134,134,134,134,9/27/19 17:47,600,The main experiment item,yes,Flankertask.osexp,C:\Users\Edgar\Documents\Edgar School\Fall 2019\Lab 2-1,no,mono,no,18,no,white,no,yes,768,legacy,54,79,C:/Users/Edgar/Documents/Edgar School/Fall 2019/Lab 2-2/OJ-subject-3.csv,legacy,Kafkaesque Koffka,3.2.8,0,s,NA,NA,space,s,s,434,NA,NA,25471,12695,434,2,legacy,1024,2,48000,-16,experiment,SSSSS,3,odd,300655,32872,199153,NA,298242,7378,210479,NA,301902,NA,7398,186453,302008,302448,301895,302008,Flanker task,131,63600,135,yes,1024
97.05882353,97.05882353,470.7573529,470.7573529,black,legacy,legacy,legacy,0,congruent,uniform,1,undefined,1,h,135,0,0,0,135,0,135,0,135,0,0,0,135,135,135,135,9/27/19 17:47,600,The main experiment item,yes,Flankertask.osexp,C:\Users\Edgar\Documents\Edgar School\Fall 2019\Lab 2-1,no,mono,no,18,no,white,no,yes,768,legacy,55,79,C:/Users/Edgar/Documents/Edgar School/Fall 2019/Lab 2-2/OJ-subject-3.csv,legacy,Kafkaesque Koffka,3.2.8,0,h,NA,NA,space,s,h,423,NA,NA,25471,12695,423,2,legacy,1024,2,48000,-16,experiment,HHHHH,3,odd,302481,32872,199153,NA,298242,7378,210479,NA,303740,NA,7398,186453,303845,304274,303732,303845,Flanker task,132,64023,136,yes,1024
97.08029197,97.08029197,470.5036496,470.5036496,black,legacy,legacy,legacy,0,incongruent,uniform,1,undefined,1,h,136,0,0,0,136,0,136,0,136,0,0,0,136,136,136,136,9/27/19 17:47,600,The main experiment item,yes,Flankertask.osexp,C:\Users\Edgar\Documents\Edgar School\Fall 2019\Lab 2-1,no,mono,no,18,no,white,no,yes,768,legacy,56,79,C:/Users/Edgar/Documents/Edgar School/Fall 2019/Lab 2-2/OJ-subject-3.csv,legacy,Kafkaesque Koffka,3.2.8,0,h,NA,NA,space,s,h,436,NA,NA,25471,12695,436,2,legacy,1024,2,48000,-16,experiment,SSHSS,3,odd,304333,32872,199153,NA,298242,7378,210479,NA,305565,NA,7398,186453,305671,306113,305558,305670,Flanker task,133,64459,137,yes,1024
97.10144928,97.10144928,469.8333333,469.8333333,black,legacy,legacy,legacy,0,congruent,uniform,1,undefined,1,h,137,0,0,0,137,0,137,0,137,0,0,0,137,137,137,137,9/27/19 17:47,600,The main experiment item,yes,Flankertask.osexp,C:\Users\Edgar\Documents\Edgar School\Fall 2019\Lab 2-1,no,mono,no,18,no,white,no,yes,768,legacy,57,79,C:/Users/Edgar/Documents/Edgar School/Fall 2019/Lab 2-2/OJ-subject-3.csv,legacy,Kafkaesque Koffka,3.2.8,0,h,NA,NA,space,s,h,378,NA,NA,25471,12695,378,2,legacy,1024,2,48000,-16,experiment,HHHHH,3,odd,306180,32872,199153,NA,298242,7378,210479,NA,307414,NA,7398,186453,307519,307902,307406,307519,Flanker task,134,64837,138,yes,1024
97.12230216,97.12230216,469.3597122,469.3597122,black,legacy,legacy,legacy,0,incongruent,uniform,1,undefined,1,s,138,0,0,0,138,0,138,0,138,0,0,0,138,138,138,138,9/27/19 17:47,600,The main experiment item,yes,Flankertask.osexp,C:\Users\Edgar\Documents\Edgar School\Fall 2019\Lab 2-1,no,mono,no,18,no,white,no,yes,768,legacy,58,79,C:/Users/Edgar/Documents/Edgar School/Fall 2019/Lab 2-2/OJ-subject-3.csv,legacy,Kafkaesque Koffka,3.2.8,0,s,NA,NA,space,s,s,404,NA,NA,25471,12695,404,2,legacy,1024,2,48000,-16,experiment,HHSHH,3,odd,307962,32872,199153,NA,298242,7378,210479,NA,309203,NA,7398,186453,309309,309719,309195,309308,Flanker task,135,65241,139,yes,1024
97.14285714,97.14285714,470.4928571,470.4928571,black,legacy,legacy,legacy,0,incongruent,uniform,1,undefined,1,h,139,0,0,0,139,0,139,0,139,0,0,0,139,139,139,139,9/27/19 17:47,600,The main experiment item,yes,Flankertask.osexp,C:\Users\Edgar\Documents\Edgar School\Fall 2019\Lab 2-1,no,mono,no,18,no,white,no,yes,768,legacy,59,79,C:/Users/Edgar/Documents/Edgar School/Fall 2019/Lab 2-2/OJ-subject-3.csv,legacy,Kafkaesque Koffka,3.2.8,0,h,NA,NA,space,s,h,628,NA,NA,25471,12695,628,2,legacy,1024,2,48000,-16,experiment,SSHSS,3,odd,309784,32872,199153,NA,298242,7378,210479,NA,311020,NA,7398,186453,311127,311760,311013,311127,Flanker task,136,65869,140,yes,1024
97.16312057,97.16312057,470.2695035,470.2695035,black,legacy,legacy,legacy,0,congruent,uniform,1,undefined,1,h,140,0,0,0,140,0,140,0,140,0,0,0,140,140,140,140,9/27/19 17:47,600,The main experiment item,yes,Flankertask.osexp,C:\Users\Edgar\Documents\Edgar School\Fall 2019\Lab 2-1,no,mono,no,18,no,white,no,yes,768,legacy,60,79,C:/Users/Edgar/Documents/Edgar School/Fall 2019/Lab 2-2/OJ-subject-3.csv,legacy,Kafkaesque Koffka,3.2.8,0,h,NA,NA,space,s,h,439,NA,NA,25471,12695,439,2,legacy,1024,2,48000,-16,experiment,HHHHH,3,odd,312322,32872,199153,NA,298242,7378,311816,NA,313552,NA,7398,186453,313660,314104,313545,313659,Flanker task,137,66308,141,yes,1024
97.18309859,97.18309859,469.8591549,469.8591549,black,legacy,legacy,legacy,0,congruent,uniform,1,undefined,1,s,141,0,0,0,141,0,141,0,141,0,0,0,141,141,141,141,9/27/19 17:47,600,The main experiment item,yes,Flankertask.osexp,C:\Users\Edgar\Documents\Edgar School\Fall 2019\Lab 2-1,no,mono,no,18,no,white,no,yes,768,legacy,61,79,C:/Users/Edgar/Documents/Edgar School/Fall 2019/Lab 2-2/OJ-subject-3.csv,legacy,Kafkaesque Koffka,3.2.8,0,s,NA,NA,space,s,s,412,NA,NA,25471,12695,412,2,legacy,1024,2,48000,-16,experiment,SSSSS,3,odd,314163,32872,199153,NA,298242,7378,311816,NA,315399,NA,7398,186453,315505,315924,315392,315504,Flanker task,138,66720,142,yes,1024
97.2027972,97.2027972,469.6223776,469.6223776,black,legacy,legacy,legacy,0,incongruent,uniform,1,undefined,1,h,142,0,0,0,142,0,142,0,142,0,0,0,142,142,142,142,9/27/19 17:47,600,The main experiment item,yes,Flankertask.osexp,C:\Users\Edgar\Documents\Edgar School\Fall 2019\Lab 2-1,no,mono,no,18,no,white,no,yes,768,legacy,62,79,C:/Users/Edgar/Documents/Edgar School/Fall 2019/Lab 2-2/OJ-subject-3.csv,legacy,Kafkaesque Koffka,3.2.8,0,h,NA,NA,space,s,h,436,NA,NA,25471,12695,436,2,legacy,1024,2,48000,-16,experiment,SSHSS,3,odd,315986,32872,199153,NA,298242,7378,311816,NA,317219,NA,7398,186453,317327,317769,317212,317326,Flanker task,139,67156,143,yes,1024
97.22222222,97.22222222,469.8055556,469.8055556,black,legacy,legacy,legacy,0,incongruent,uniform,1,undefined,1,h,143,0,0,0,143,0,143,0,143,0,0,0,143,143,143,143,9/27/19 17:47,600,The main experiment item,yes,Flankertask.osexp,C:\Users\Edgar\Documents\Edgar School\Fall 2019\Lab 2-1,no,mono,no,18,no,white,no,yes,768,legacy,63,79,C:/Users/Edgar/Documents/Edgar School/Fall 2019/Lab 2-2/OJ-subject-3.csv,legacy,Kafkaesque Koffka,3.2.8,0,h,NA,NA,space,s,h,496,NA,NA,25471,12695,496,2,legacy,1024,2,48000,-16,experiment,SSHSS,3,odd,317803,32872,199153,NA,298242,7378,311816,NA,319050,NA,7398,186453,319156,319659,319043,319155,Flanker task,140,67652,144,yes,1024
96.55172414,96.55172414,469.2206897,469.2206897,black,legacy,legacy,legacy,0,incongruent,uniform,0,undefined,0,s,144,0,0,0,144,0,144,0,144,0,0,0,144,144,144,144,9/27/19 17:47,600,The main experiment item,yes,Flankertask.osexp,C:\Users\Edgar\Documents\Edgar School\Fall 2019\Lab 2-1,no,mono,no,18,no,white,no,yes,768,legacy,64,79,C:/Users/Edgar/Documents/Edgar School/Fall 2019/Lab 2-2/OJ-subject-3.csv,legacy,Kafkaesque Koffka,3.2.8,0,h,NA,NA,space,s,h,385,NA,NA,25471,12695,385,2,legacy,1024,2,48000,-16,experiment,HHSHH,3,odd,319725,32872,199153,NA,298242,7378,311816,NA,320988,NA,7398,186453,321093,321486,320981,321093,Flanker task,140,68037,145,yes,1024
96.57534247,96.57534247,468.7739726,468.7739726,black,legacy,legacy,legacy,0,congruent,uniform,1,undefined,1,h,145,0,0,0,145,0,145,0,145,0,0,0,145,145,145,145,9/27/19 17:47,600,The main experiment item,yes,Flankertask.osexp,C:\Users\Edgar\Documents\Edgar School\Fall 2019\Lab 2-1,no,mono,no,18,no,white,no,yes,768,legacy,65,79,C:/Users/Edgar/Documents/Edgar School/Fall 2019/Lab 2-2/OJ-subject-3.csv,legacy,Kafkaesque Koffka,3.2.8,0,h,NA,NA,space,s,h,404,NA,NA,25471,12695,404,2,legacy,1024,2,48000,-16,experiment,HHHHH,3,odd,322057,32872,199153,NA,321552,7378,311816,NA,323320,NA,7398,186453,323426,323835,323312,323425,Flanker task,141,68441,146,yes,1024
96.59863946,96.59863946,468.5986395,468.5986395,black,legacy,legacy,legacy,0,incongruent,uniform,1,undefined,1,h,146,0,0,0,146,0,146,0,146,0,0,0,146,146,146,146,9/27/19 17:47,600,The main experiment item,yes,Flankertask.osexp,C:\Users\Edgar\Documents\Edgar School\Fall 2019\Lab 2-1,no,mono,no,18,no,white,no,yes,768,legacy,66,79,C:/Users/Edgar/Documents/Edgar School/Fall 2019/Lab 2-2/OJ-subject-3.csv,legacy,Kafkaesque Koffka,3.2.8,0,h,NA,NA,space,s,h,443,NA,NA,25471,12695,443,2,legacy,1024,2,48000,-16,experiment,SSHSS,3,odd,323894,32872,199153,NA,321552,7378,311816,NA,325133,NA,7398,186453,325238,325686,325126,325238,Flanker task,142,68884,147,yes,1024
96.62162162,96.62162162,468.1486486,468.1486486,black,legacy,legacy,legacy,0,incongruent,uniform,1,undefined,1,s,147,0,0,0,147,0,147,0,147,0,0,0,147,147,147,147,9/27/19 17:47,600,The main experiment item,yes,Flankertask.osexp,C:\Users\Edgar\Documents\Edgar School\Fall 2019\Lab 2-1,no,mono,no,18,no,white,no,yes,768,legacy,67,79,C:/Users/Edgar/Documents/Edgar School/Fall 2019/Lab 2-2/OJ-subject-3.csv,legacy,Kafkaesque Koffka,3.2.8,0,s,NA,NA,space,s,s,402,NA,NA,25471,12695,402,2,legacy,1024,2,48000,-16,experiment,HHSHH,3,odd,325738,32872,199153,NA,321552,7378,311816,NA,326972,NA,7398,186453,327077,327485,326964,327077,Flanker task,143,69286,148,yes,1024
96.6442953,96.6442953,467.4630872,467.4630872,black,legacy,legacy,legacy,0,incongruent,uniform,1,undefined,1,s,148,0,0,0,148,0,148,0,148,0,0,0,148,148,148,148,9/27/19 17:47,600,The main experiment item,yes,Flankertask.osexp,C:\Users\Edgar\Documents\Edgar School\Fall 2019\Lab 2-1,no,mono,no,18,no,white,no,yes,768,legacy,68,79,C:/Users/Edgar/Documents/Edgar School/Fall 2019/Lab 2-2/OJ-subject-3.csv,legacy,Kafkaesque Koffka,3.2.8,0,s,NA,NA,space,s,s,366,NA,NA,25471,12695,366,2,legacy,1024,2,48000,-16,experiment,HHSHH,3,odd,327558,32872,199153,NA,321552,7378,311816,NA,328817,NA,7398,186453,328923,329295,328809,328922,Flanker task,144,69652,149,yes,1024
96.66666667,96.66666667,466.8466667,466.8466667,black,legacy,legacy,legacy,0,congruent,uniform,1,undefined,1,h,149,0,0,0,149,0,149,0,149,0,0,0,149,149,149,149,9/27/19 17:47,600,The main experiment item,yes,Flankertask.osexp,C:\Users\Edgar\Documents\Edgar School\Fall 2019\Lab 2-1,no,mono,no,18,no,white,no,yes,768,legacy,69,79,C:/Users/Edgar/Documents/Edgar School/Fall 2019/Lab 2-2/OJ-subject-3.csv,legacy,Kafkaesque Koffka,3.2.8,0,h,NA,NA,space,s,h,375,NA,NA,25471,12695,375,2,legacy,1024,2,48000,-16,experiment,HHHHH,3,odd,329353,32872,199153,NA,321552,7378,311816,NA,330583,NA,7398,186453,330688,331068,330576,330688,Flanker task,145,70027,150,yes,1024
96.68874172,96.68874172,466.6092715,466.6092715,black,legacy,legacy,legacy,0,incongruent,uniform,1,undefined,1,h,150,0,0,0,150,0,150,0,150,0,0,0,150,150,150,150,9/27/19 17:47,600,The main experiment item,yes,Flankertask.osexp,C:\Users\Edgar\Documents\Edgar School\Fall 2019\Lab 2-1,no,mono,no,18,no,white,no,yes,768,legacy,70,79,C:/Users/Edgar/Documents/Edgar School/Fall 2019/Lab 2-2/OJ-subject-3.csv,legacy,Kafkaesque Koffka,3.2.8,0,h,NA,NA,space,s,h,431,NA,NA,25471,12695,431,2,legacy,1024,2,48000,-16,experiment,SSHSS,3,odd,331130,32872,199153,NA,321552,7378,311816,NA,332369,NA,7398,186453,332477,332914,332359,332476,Flanker task,146,70458,151,yes,1024
96.71052632,96.71052632,466.5723684,466.5723684,black,legacy,legacy,legacy,0,incongruent,uniform,1,undefined,1,s,151,0,0,0,151,0,151,0,151,0,0,0,151,151,151,151,9/27/19 17:47,600,The main experiment item,yes,Flankertask.osexp,C:\Users\Edgar\Documents\Edgar School\Fall 2019\Lab 2-1,no,mono,no,18,no,white,no,yes,768,legacy,71,79,C:/Users/Edgar/Documents/Edgar School/Fall 2019/Lab 2-2/OJ-subject-3.csv,legacy,Kafkaesque Koffka,3.2.8,0,s,NA,NA,space,s,s,461,NA,NA,25471,12695,461,2,legacy,1024,2,48000,-16,experiment,HHSHH,3,odd,332957,32872,199153,NA,321552,7378,311816,NA,334187,NA,7398,186453,334292,334759,334179,334292,Flanker task,147,70919,152,yes,1024
96.73202614,96.73202614,466.2026144,466.2026144,black,legacy,legacy,legacy,0,congruent,uniform,1,undefined,1,s,152,0,0,0,152,0,152,0,152,0,0,0,152,152,152,152,9/27/19 17:47,600,The main experiment item,yes,Flankertask.osexp,C:\Users\Edgar\Documents\Edgar School\Fall 2019\Lab 2-1,no,mono,no,18,no,white,no,yes,768,legacy,72,79,C:/Users/Edgar/Documents/Edgar School/Fall 2019/Lab 2-2/OJ-subject-3.csv,legacy,Kafkaesque Koffka,3.2.8,0,s,NA,NA,space,s,s,410,NA,NA,25471,12695,410,2,legacy,1024,2,48000,-16,experiment,SSSSS,3,odd,334800,32872,199153,NA,321552,7378,311816,NA,336055,NA,7398,186453,336161,336578,336048,336161,Flanker task,148,71329,153,yes,1024
96.1038961,96.1038961,466.0779221,466.0779221,black,legacy,legacy,legacy,0,incongruent,uniform,0,undefined,0,s,153,0,0,0,153,0,153,0,153,0,0,0,153,153,153,153,9/27/19 17:47,600,The main experiment item,yes,Flankertask.osexp,C:\Users\Edgar\Documents\Edgar School\Fall 2019\Lab 2-1,no,mono,no,18,no,white,no,yes,768,legacy,73,79,C:/Users/Edgar/Documents/Edgar School/Fall 2019/Lab 2-2/OJ-subject-3.csv,legacy,Kafkaesque Koffka,3.2.8,0,h,NA,NA,space,s,h,447,NA,NA,25471,12695,447,2,legacy,1024,2,48000,-16,experiment,HHSHH,3,odd,337355,32872,199153,NA,321552,7378,311816,NA,338585,NA,7398,186453,338691,339143,338578,338691,Flanker task,148,71776,154,yes,1024
96.12903226,96.12903226,465.8967742,465.8967742,black,legacy,legacy,legacy,0,congruent,uniform,1,undefined,1,s,154,0,0,0,154,0,154,0,154,0,0,0,154,154,154,154,9/27/19 17:47,600,The main experiment item,yes,Flankertask.osexp,C:\Users\Edgar\Documents\Edgar School\Fall 2019\Lab 2-1,no,mono,no,18,no,white,no,yes,768,legacy,74,79,C:/Users/Edgar/Documents/Edgar School/Fall 2019/Lab 2-2/OJ-subject-3.csv,legacy,Kafkaesque Koffka,3.2.8,0,s,NA,NA,space,s,s,438,NA,NA,25471,12695,438,2,legacy,1024,2,48000,-16,experiment,SSSSS,3,odd,339723,32872,199153,NA,339218,7378,311816,NA,340962,NA,7398,186453,341068,341512,340955,341068,Flanker task,149,72214,155,yes,1024
96.15384615,96.15384615,465.4358974,465.4358974,black,legacy,legacy,legacy,0,incongruent,uniform,1,undefined,1,s,155,0,0,0,155,0,155,0,155,0,0,0,155,155,155,155,9/27/19 17:47,600,The main experiment item,yes,Flankertask.osexp,C:\Users\Edgar\Documents\Edgar School\Fall 2019\Lab 2-1,no,mono,no,18,no,white,no,yes,768,legacy,75,79,C:/Users/Edgar/Documents/Edgar School/Fall 2019/Lab 2-2/OJ-subject-3.csv,legacy,Kafkaesque Koffka,3.2.8,0,s,NA,NA,space,s,s,394,NA,NA,25471,12695,394,2,legacy,1024,2,48000,-16,experiment,HHSHH,3,odd,341555,32872,199153,NA,339218,7378,311816,NA,342811,NA,7398,186453,342919,343318,342803,342919,Flanker task,150,72608,156,yes,1024
