acc,accuracy,average_response_time,avg_rt,background,bidi,canvas_backend,clock_backend,color_backend,compensation,condition,coordinates,correct,correct_instructions1,correct_keyboard_response,correct_response,count_Block1,count_Block2,count_Block3,count_ISI,count_errorFeedback,count_experiment,count_faster,count_finish,count_fixation,count_instructions1,count_instructions2,count_instructions3,count_keyboard_response,count_new_logger,count_sequence,count_stimulus,datetime,deadline,description,disable_garbage_collection,experiment_path,font_bold,font_family,font_italic,font_size,font_underline,foreground,form_clicks,fullscreen,height,keyboard_backend,live_row,live_row_Block1,logfile,mouse_backend,opensesame_codename,opensesame_version,repeat_cycle,response,response_finish,response_instructions1,response_instructions2,response_instructions3,response_keyboard_response,response_time,response_time_finish,response_time_instructions1,response_time_instructions2,response_time_instructions3,response_time_keyboard_response,round_decimals,sampler_backend,sound_buf_size,sound_channels,sound_freq,sound_sample_size,start,stimulus,subject_nr,subject_parity,time_Block1,time_Block2,time_Block3,time_ISI,time_errorFeedback,time_experiment,time_faster,time_finish,time_fixation,time_instructions1,time_instructions2,time_instructions3,time_keyboard_response,time_new_logger,time_sequence,time_stimulus,title,total_correct,total_response_time,total_responses,uniform_coordinates,width
100,100,556,556,black,no,legacy,legacy,legacy,0,congruent,uniform,1,undefined,1,s,0,0,0,0,0,0,0,0,0,0,0,0,0,0,0,0,Sat Sep 21 18:22:48 2019,1500,The main experiment item,yes,/Users/KrisBow/Desktop/FlankerTaskKBowman.osexp,no,mono,no,18,no,white,no,yes,768,legacy,0,0,/Users/KrisBow/Desktop/KBsubject-0.csv,legacy,Kafkaesque Koffka,3.2.6,0,s,NA,h,NA,NA,s,556,NA,1441,NA,NA,556,2,legacy,1024,2,48000,-16,experiment,SSSSS,1,odd,3162,NA,NA,NA,NA,1706,NA,NA,3263,1718,NA,NA,3374,3932,3253,3373,FlankerTaskKBowman,1,556,1,yes,1024
100,100,490,490,black,no,legacy,legacy,legacy,0,incongruent,uniform,1,undefined,1,s,0,0,0,1,1,0,1,0,1,0,0,0,1,1,1,1,Sat Sep 21 18:22:48 2019,1500,The main experiment item,yes,/Users/KrisBow/Desktop/FlankerTaskKBowman.osexp,no,mono,no,18,no,white,no,yes,768,legacy,1,1,/Users/KrisBow/Desktop/KBsubject-0.csv,legacy,Kafkaesque Koffka,3.2.6,0,s,NA,h,NA,NA,s,424,NA,1441,NA,NA,424,2,legacy,1024,2,48000,-16,experiment,HHSHH,1,odd,3162,NA,NA,3951,NA,1706,NA,NA,5057,1718,NA,NA,5167,5593,5045,5167,FlankerTaskKBowman,2,980,2,yes,1024
100,100,468.3333333,468.3333333,black,no,legacy,legacy,legacy,0,congruent,uniform,1,undefined,1,h,0,0,0,2,2,0,2,0,2,0,0,0,2,2,2,2,Sat Sep 21 18:22:48 2019,1500,The main experiment item,yes,/Users/KrisBow/Desktop/FlankerTaskKBowman.osexp,no,mono,no,18,no,white,no,yes,768,legacy,2,2,/Users/KrisBow/Desktop/KBsubject-0.csv,legacy,Kafkaesque Koffka,3.2.6,0,h,NA,h,NA,NA,h,425,NA,1441,NA,NA,425,2,legacy,1024,2,48000,-16,experiment,HHHHH,1,odd,3162,NA,NA,5605,NA,1706,NA,NA,6708,1718,NA,NA,6818,7245,6698,6818,FlankerTaskKBowman,3,1405,3,yes,1024
100,100,474.5,474.5,black,no,legacy,legacy,legacy,0,congruent,uniform,1,undefined,1,s,0,0,0,3,3,0,3,0,3,0,0,0,3,3,3,3,Sat Sep 21 18:22:48 2019,1500,The main experiment item,yes,/Users/KrisBow/Desktop/FlankerTaskKBowman.osexp,no,mono,no,18,no,white,no,yes,768,legacy,3,3,/Users/KrisBow/Desktop/KBsubject-0.csv,legacy,Kafkaesque Koffka,3.2.6,0,s,NA,h,NA,NA,s,493,NA,1441,NA,NA,493,2,legacy,1024,2,48000,-16,experiment,SSSSS,1,odd,3162,NA,NA,7257,NA,1706,NA,NA,8358,1718,NA,NA,8469,8964,8347,8469,FlankerTaskKBowman,4,1898,4,yes,1024
100,100,490.6,490.6,black,no,legacy,legacy,legacy,0,incongruent,uniform,1,undefined,1,s,0,0,0,4,4,0,4,0,4,0,0,0,4,4,4,4,Sat Sep 21 18:22:48 2019,1500,The main experiment item,yes,/Users/KrisBow/Desktop/FlankerTaskKBowman.osexp,no,mono,no,18,no,white,no,yes,768,legacy,4,4,/Users/KrisBow/Desktop/KBsubject-0.csv,legacy,Kafkaesque Koffka,3.2.6,0,s,NA,h,NA,NA,s,555,NA,1441,NA,NA,555,2,legacy,1024,2,48000,-16,experiment,HHSHH,1,odd,3162,NA,NA,8976,NA,1706,NA,NA,10076,1718,NA,NA,10186,10743,10065,10186,FlankerTaskKBowman,5,2453,5,yes,1024
100,100,482.5,482.5,black,no,legacy,legacy,legacy,0,incongruent,uniform,1,undefined,1,s,0,0,0,5,5,0,5,0,5,0,0,0,5,5,5,5,Sat Sep 21 18:22:48 2019,1500,The main experiment item,yes,/Users/KrisBow/Desktop/FlankerTaskKBowman.osexp,no,mono,no,18,no,white,no,yes,768,legacy,5,5,/Users/KrisBow/Desktop/KBsubject-0.csv,legacy,Kafkaesque Koffka,3.2.6,0,s,NA,h,NA,NA,s,442,NA,1441,NA,NA,442,2,legacy,1024,2,48000,-16,experiment,HHSHH,1,odd,3162,NA,NA,10756,NA,1706,NA,NA,11856,1718,NA,NA,11967,12411,11846,11966,FlankerTaskKBowman,6,2895,6,yes,1024
100,100,488.8571429,488.8571429,black,no,legacy,legacy,legacy,0,incongruent,uniform,1,undefined,1,h,0,0,0,6,6,0,6,0,6,0,0,0,6,6,6,6,Sat Sep 21 18:22:48 2019,1500,The main experiment item,yes,/Users/KrisBow/Desktop/FlankerTaskKBowman.osexp,no,mono,no,18,no,white,no,yes,768,legacy,6,6,/Users/KrisBow/Desktop/KBsubject-0.csv,legacy,Kafkaesque Koffka,3.2.6,0,h,NA,h,NA,NA,h,527,NA,1441,NA,NA,527,2,legacy,1024,2,48000,-16,experiment,SSHSS,1,odd,3162,NA,NA,12424,NA,1706,NA,NA,13524,1718,NA,NA,13635,14164,13514,13634,FlankerTaskKBowman,7,3422,7,yes,1024
100,100,482.5,482.5,black,no,legacy,legacy,legacy,0,incongruent,uniform,1,undefined,1,h,0,0,0,7,7,0,7,0,7,0,0,0,7,7,7,7,Sat Sep 21 18:22:48 2019,1500,The main experiment item,yes,/Users/KrisBow/Desktop/FlankerTaskKBowman.osexp,no,mono,no,18,no,white,no,yes,768,legacy,7,7,/Users/KrisBow/Desktop/KBsubject-0.csv,legacy,Kafkaesque Koffka,3.2.6,0,h,NA,h,NA,NA,h,438,NA,1441,NA,NA,438,2,legacy,1024,2,48000,-16,experiment,SSHSS,1,odd,3162,NA,NA,14177,NA,1706,NA,NA,15284,1718,NA,NA,15395,15835,15273,15395,FlankerTaskKBowman,8,3860,8,yes,1024
100,100,485.8888889,485.8888889,black,no,legacy,legacy,legacy,0,congruent,uniform,1,undefined,1,h,0,0,0,8,8,0,8,0,8,0,0,0,8,8,8,8,Sat Sep 21 18:22:48 2019,1500,The main experiment item,yes,/Users/KrisBow/Desktop/FlankerTaskKBowman.osexp,no,mono,no,18,no,white,no,yes,768,legacy,8,8,/Users/KrisBow/Desktop/KBsubject-0.csv,legacy,Kafkaesque Koffka,3.2.6,0,h,NA,h,NA,NA,h,513,NA,1441,NA,NA,513,2,legacy,1024,2,48000,-16,experiment,HHHHH,1,odd,3162,NA,NA,15849,NA,1706,NA,NA,16955,1718,NA,NA,17065,17580,16945,17065,FlankerTaskKBowman,9,4373,9,yes,1024
100,100,479.6,479.6,black,no,legacy,legacy,legacy,0,incongruent,uniform,1,undefined,1,s,0,0,0,9,9,0,9,0,9,0,0,0,9,9,9,9,Sat Sep 21 18:22:48 2019,1500,The main experiment item,yes,/Users/KrisBow/Desktop/FlankerTaskKBowman.osexp,no,mono,no,18,no,white,no,yes,768,legacy,9,9,/Users/KrisBow/Desktop/KBsubject-0.csv,legacy,Kafkaesque Koffka,3.2.6,0,s,NA,h,NA,NA,s,423,NA,1441,NA,NA,423,2,legacy,1024,2,48000,-16,experiment,HHSHH,1,odd,3162,NA,NA,17592,NA,1706,NA,NA,18692,1718,NA,NA,18803,19228,18682,18803,FlankerTaskKBowman,10,4796,10,yes,1024
100,100,476.2727273,476.2727273,black,no,legacy,legacy,legacy,0,congruent,uniform,1,undefined,1,h,0,0,0,10,10,0,10,0,10,0,0,0,10,10,10,10,Sat Sep 21 18:22:48 2019,1500,The main experiment item,yes,/Users/KrisBow/Desktop/FlankerTaskKBowman.osexp,no,mono,no,18,no,white,no,yes,768,legacy,10,10,/Users/KrisBow/Desktop/KBsubject-0.csv,legacy,Kafkaesque Koffka,3.2.6,0,h,NA,h,NA,NA,h,443,NA,1441,NA,NA,443,2,legacy,1024,2,48000,-16,experiment,HHHHH,1,odd,3162,NA,NA,19240,NA,1706,NA,NA,20344,1718,NA,NA,20455,20900,20334,20454,FlankerTaskKBowman,11,5239,11,yes,1024
100,100,473.0833333,473.0833333,black,no,legacy,legacy,legacy,0,congruent,uniform,1,undefined,1,s,0,0,0,11,11,0,11,0,11,0,0,0,11,11,11,11,Sat Sep 21 18:22:48 2019,1500,The main experiment item,yes,/Users/KrisBow/Desktop/FlankerTaskKBowman.osexp,no,mono,no,18,no,white,no,yes,768,legacy,11,11,/Users/KrisBow/Desktop/KBsubject-0.csv,legacy,Kafkaesque Koffka,3.2.6,0,s,NA,h,NA,NA,s,438,NA,1441,NA,NA,438,2,legacy,1024,2,48000,-16,experiment,SSSSS,1,odd,3162,NA,NA,20913,NA,1706,NA,NA,22011,1718,NA,NA,22122,22562,22001,22122,FlankerTaskKBowman,12,5677,12,yes,1024
100,100,470.1538462,470.1538462,black,no,legacy,legacy,legacy,0,congruent,uniform,1,undefined,1,s,0,0,0,12,12,0,12,0,12,0,0,0,12,12,12,12,Sat Sep 21 18:22:48 2019,1500,The main experiment item,yes,/Users/KrisBow/Desktop/FlankerTaskKBowman.osexp,no,mono,no,18,no,white,no,yes,768,legacy,12,12,/Users/KrisBow/Desktop/KBsubject-0.csv,legacy,Kafkaesque Koffka,3.2.6,0,s,NA,h,NA,NA,s,435,NA,1441,NA,NA,435,2,legacy,1024,2,48000,-16,experiment,SSSSS,1,odd,3162,NA,NA,22578,NA,1706,NA,NA,23679,1718,NA,NA,23789,24226,23669,23789,FlankerTaskKBowman,13,6112,13,yes,1024
92.85714286,92.85714286,467,467,black,no,legacy,legacy,legacy,0,incongruent,uniform,0,undefined,0,h,0,0,0,13,13,0,13,0,13,0,0,0,13,13,13,13,Sat Sep 21 18:22:48 2019,1500,The main experiment item,yes,/Users/KrisBow/Desktop/FlankerTaskKBowman.osexp,no,mono,no,18,no,white,no,yes,768,legacy,13,13,/Users/KrisBow/Desktop/KBsubject-0.csv,legacy,Kafkaesque Koffka,3.2.6,0,s,NA,h,NA,NA,s,426,NA,1441,NA,NA,426,2,legacy,1024,2,48000,-16,experiment,SSHSS,1,odd,3162,NA,NA,24239,NA,1706,NA,NA,25340,1718,NA,NA,25451,25880,25329,25450,FlankerTaskKBowman,13,6538,14,yes,1024
93.33333333,93.33333333,467.7333333,467.7333333,black,no,legacy,legacy,legacy,0,incongruent,uniform,1,undefined,1,h,0,0,0,14,14,0,14,0,14,0,0,0,14,14,14,14,Sat Sep 21 18:22:48 2019,1500,The main experiment item,yes,/Users/KrisBow/Desktop/FlankerTaskKBowman.osexp,no,mono,no,18,no,white,no,yes,768,legacy,14,14,/Users/KrisBow/Desktop/KBsubject-0.csv,legacy,Kafkaesque Koffka,3.2.6,0,h,NA,h,NA,NA,h,478,NA,1441,NA,NA,478,2,legacy,1024,2,48000,-16,experiment,SSHSS,1,odd,3162,NA,NA,26403,25893,1706,NA,NA,27503,1718,NA,NA,27613,28093,27493,27613,FlankerTaskKBowman,14,7016,15,yes,1024
93.75,93.75,469.3125,469.3125,black,no,legacy,legacy,legacy,0,incongruent,uniform,1,undefined,1,s,0,0,0,15,15,0,15,0,15,0,0,0,15,15,15,15,Sat Sep 21 18:22:48 2019,1500,The main experiment item,yes,/Users/KrisBow/Desktop/FlankerTaskKBowman.osexp,no,mono,no,18,no,white,no,yes,768,legacy,15,15,/Users/KrisBow/Desktop/KBsubject-0.csv,legacy,Kafkaesque Koffka,3.2.6,0,s,NA,h,NA,NA,s,493,NA,1441,NA,NA,493,2,legacy,1024,2,48000,-16,experiment,HHSHH,1,odd,3162,NA,NA,28106,25893,1706,NA,NA,29207,1718,NA,NA,29318,29813,29197,29318,FlankerTaskKBowman,15,7509,16,yes,1024
94.11764706,94.11764706,472.2352941,472.2352941,black,no,legacy,legacy,legacy,0,incongruent,uniform,1,undefined,1,s,0,0,0,16,16,0,16,0,16,0,0,0,16,16,16,16,Sat Sep 21 18:22:48 2019,1500,The main experiment item,yes,/Users/KrisBow/Desktop/FlankerTaskKBowman.osexp,no,mono,no,18,no,white,no,yes,768,legacy,16,16,/Users/KrisBow/Desktop/KBsubject-0.csv,legacy,Kafkaesque Koffka,3.2.6,0,s,NA,h,NA,NA,s,519,NA,1441,NA,NA,519,2,legacy,1024,2,48000,-16,experiment,HHSHH,1,odd,3162,NA,NA,29826,25893,1706,NA,NA,30930,1718,NA,NA,31040,31561,30919,31040,FlankerTaskKBowman,16,8028,17,yes,1024
94.44444444,94.44444444,477.1111111,477.1111111,black,no,legacy,legacy,legacy,0,congruent,uniform,1,undefined,1,h,0,0,0,17,17,0,17,0,17,0,0,0,17,17,17,17,Sat Sep 21 18:22:48 2019,1500,The main experiment item,yes,/Users/KrisBow/Desktop/FlankerTaskKBowman.osexp,no,mono,no,18,no,white,no,yes,768,legacy,17,17,/Users/KrisBow/Desktop/KBsubject-0.csv,legacy,Kafkaesque Koffka,3.2.6,0,h,NA,h,NA,NA,h,560,NA,1441,NA,NA,560,2,legacy,1024,2,48000,-16,experiment,HHHHH,1,odd,3162,NA,NA,31574,25893,1706,NA,NA,32674,1718,NA,NA,32784,33346,32664,32784,FlankerTaskKBowman,17,8588,18,yes,1024
94.73684211,94.73684211,478.7894737,478.7894737,black,no,legacy,legacy,legacy,0,congruent,uniform,1,undefined,1,h,0,0,0,18,18,0,18,0,18,0,0,0,18,18,18,18,Sat Sep 21 18:22:48 2019,1500,The main experiment item,yes,/Users/KrisBow/Desktop/FlankerTaskKBowman.osexp,no,mono,no,18,no,white,no,yes,768,legacy,18,18,/Users/KrisBow/Desktop/KBsubject-0.csv,legacy,Kafkaesque Koffka,3.2.6,0,h,NA,h,NA,NA,h,509,NA,1441,NA,NA,509,2,legacy,1024,2,48000,-16,experiment,HHHHH,1,odd,3162,NA,NA,33359,25893,1706,NA,NA,34461,1718,NA,NA,34573,35084,34451,34572,FlankerTaskKBowman,18,9097,19,yes,1024
95,95,477.15,477.15,black,no,legacy,legacy,legacy,0,incongruent,uniform,1,undefined,1,s,0,0,0,19,19,0,19,0,19,0,0,0,19,19,19,19,Sat Sep 21 18:22:48 2019,1500,The main experiment item,yes,/Users/KrisBow/Desktop/FlankerTaskKBowman.osexp,no,mono,no,18,no,white,no,yes,768,legacy,19,19,/Users/KrisBow/Desktop/KBsubject-0.csv,legacy,Kafkaesque Koffka,3.2.6,0,s,NA,h,NA,NA,s,446,NA,1441,NA,NA,446,2,legacy,1024,2,48000,-16,experiment,HHSHH,1,odd,3162,NA,NA,35097,25893,1706,NA,NA,36200,1718,NA,NA,36311,36759,36189,36311,FlankerTaskKBowman,19,9543,20,yes,1024
95.23809524,95.23809524,477.2857143,477.2857143,black,no,legacy,legacy,legacy,0,congruent,uniform,1,undefined,1,h,0,0,0,20,20,0,20,0,20,0,0,0,20,20,20,20,Sat Sep 21 18:22:48 2019,1500,The main experiment item,yes,/Users/KrisBow/Desktop/FlankerTaskKBowman.osexp,no,mono,no,18,no,white,no,yes,768,legacy,20,20,/Users/KrisBow/Desktop/KBsubject-0.csv,legacy,Kafkaesque Koffka,3.2.6,0,h,NA,h,NA,NA,h,480,NA,1441,NA,NA,480,2,legacy,1024,2,48000,-16,experiment,HHHHH,1,odd,3162,NA,NA,36771,25893,1706,NA,NA,37894,1718,NA,NA,38004,38486,37882,38004,FlankerTaskKBowman,20,10023,21,yes,1024
95.45454545,95.45454545,477.5454545,477.5454545,black,no,legacy,legacy,legacy,0,congruent,uniform,1,undefined,1,s,0,0,0,21,21,0,21,0,21,0,0,0,21,21,21,21,Sat Sep 21 18:22:48 2019,1500,The main experiment item,yes,/Users/KrisBow/Desktop/FlankerTaskKBowman.osexp,no,mono,no,18,no,white,no,yes,768,legacy,21,21,/Users/KrisBow/Desktop/KBsubject-0.csv,legacy,Kafkaesque Koffka,3.2.6,0,s,NA,h,NA,NA,s,483,NA,1441,NA,NA,483,2,legacy,1024,2,48000,-16,experiment,SSSSS,1,odd,3162,NA,NA,38498,25893,1706,NA,NA,39599,1718,NA,NA,39710,40195,39589,39709,FlankerTaskKBowman,21,10506,22,yes,1024
95.65217391,95.65217391,478.4782609,478.4782609,black,no,legacy,legacy,legacy,0,incongruent,uniform,1,undefined,1,h,0,0,0,22,22,0,22,0,22,0,0,0,22,22,22,22,Sat Sep 21 18:22:48 2019,1500,The main experiment item,yes,/Users/KrisBow/Desktop/FlankerTaskKBowman.osexp,no,mono,no,18,no,white,no,yes,768,legacy,22,22,/Users/KrisBow/Desktop/KBsubject-0.csv,legacy,Kafkaesque Koffka,3.2.6,0,h,NA,h,NA,NA,h,499,NA,1441,NA,NA,499,2,legacy,1024,2,48000,-16,experiment,SSHSS,1,odd,3162,NA,NA,40208,25893,1706,NA,NA,41308,1718,NA,NA,41419,41920,41298,41419,FlankerTaskKBowman,22,11005,23,yes,1024
95.83333333,95.83333333,478.875,478.875,black,no,legacy,legacy,legacy,0,incongruent,uniform,1,undefined,1,h,0,0,0,23,23,0,23,0,23,0,0,0,23,23,23,23,Sat Sep 21 18:22:48 2019,1500,The main experiment item,yes,/Users/KrisBow/Desktop/FlankerTaskKBowman.osexp,no,mono,no,18,no,white,no,yes,768,legacy,23,23,/Users/KrisBow/Desktop/KBsubject-0.csv,legacy,Kafkaesque Koffka,3.2.6,0,h,NA,h,NA,NA,h,488,NA,1441,NA,NA,488,2,legacy,1024,2,48000,-16,experiment,SSHSS,1,odd,3162,NA,NA,41932,25893,1706,NA,NA,43032,1718,NA,NA,43142,43632,43022,43142,FlankerTaskKBowman,23,11493,24,yes,1024
96,96,478.08,478.08,black,no,legacy,legacy,legacy,0,congruent,uniform,1,undefined,1,s,0,0,0,24,24,0,24,0,24,0,0,0,24,24,24,24,Sat Sep 21 18:22:48 2019,1500,The main experiment item,yes,/Users/KrisBow/Desktop/FlankerTaskKBowman.osexp,no,mono,no,18,no,white,no,yes,768,legacy,24,24,/Users/KrisBow/Desktop/KBsubject-0.csv,legacy,Kafkaesque Koffka,3.2.6,0,s,NA,h,NA,NA,s,459,NA,1441,NA,NA,459,2,legacy,1024,2,48000,-16,experiment,SSSSS,1,odd,3162,NA,NA,43644,25893,1706,NA,NA,44745,1718,NA,NA,44855,45316,44734,44855,FlankerTaskKBowman,24,11952,25,yes,1024
96.15384615,96.15384615,476.7307692,476.7307692,black,no,legacy,legacy,legacy,0,congruent,uniform,1,undefined,1,h,0,0,0,25,25,0,25,0,25,0,0,0,25,25,25,25,Sat Sep 21 18:22:48 2019,1500,The main experiment item,yes,/Users/KrisBow/Desktop/FlankerTaskKBowman.osexp,no,mono,no,18,no,white,no,yes,768,legacy,25,25,/Users/KrisBow/Desktop/KBsubject-0.csv,legacy,Kafkaesque Koffka,3.2.6,0,h,NA,h,NA,NA,h,443,NA,1441,NA,NA,443,2,legacy,1024,2,48000,-16,experiment,HHHHH,1,odd,3162,NA,NA,45340,25893,1706,NA,NA,46441,1718,NA,NA,46552,46997,46430,46551,FlankerTaskKBowman,25,12395,26,yes,1024
96.2962963,96.2962963,475.4444444,475.4444444,black,no,legacy,legacy,legacy,0,congruent,uniform,1,undefined,1,h,0,0,0,26,26,0,26,0,26,0,0,0,26,26,26,26,Sat Sep 21 18:22:48 2019,1500,The main experiment item,yes,/Users/KrisBow/Desktop/FlankerTaskKBowman.osexp,no,mono,no,18,no,white,no,yes,768,legacy,26,26,/Users/KrisBow/Desktop/KBsubject-0.csv,legacy,Kafkaesque Koffka,3.2.6,0,h,NA,h,NA,NA,h,442,NA,1441,NA,NA,442,2,legacy,1024,2,48000,-16,experiment,HHHHH,1,odd,3162,NA,NA,47008,25893,1706,NA,NA,48109,1718,NA,NA,48220,48664,48098,48219,FlankerTaskKBowman,26,12837,27,yes,1024
96.42857143,96.42857143,477.7857143,477.7857143,black,no,legacy,legacy,legacy,0,incongruent,uniform,1,undefined,1,h,0,0,0,27,27,0,27,0,27,0,0,0,27,27,27,27,Sat Sep 21 18:22:48 2019,1500,The main experiment item,yes,/Users/KrisBow/Desktop/FlankerTaskKBowman.osexp,no,mono,no,18,no,white,no,yes,768,legacy,27,27,/Users/KrisBow/Desktop/KBsubject-0.csv,legacy,Kafkaesque Koffka,3.2.6,0,h,NA,h,NA,NA,h,541,NA,1441,NA,NA,541,2,legacy,1024,2,48000,-16,experiment,SSHSS,1,odd,3162,NA,NA,48677,25893,1706,NA,NA,49777,1718,NA,NA,49887,50429,49767,49887,FlankerTaskKBowman,27,13378,28,yes,1024
96.55172414,96.55172414,475.7241379,475.7241379,black,no,legacy,legacy,legacy,0,incongruent,uniform,1,undefined,1,s,0,0,0,28,28,0,28,0,28,0,0,0,28,28,28,28,Sat Sep 21 18:22:48 2019,1500,The main experiment item,yes,/Users/KrisBow/Desktop/FlankerTaskKBowman.osexp,no,mono,no,18,no,white,no,yes,768,legacy,28,28,/Users/KrisBow/Desktop/KBsubject-0.csv,legacy,Kafkaesque Koffka,3.2.6,0,s,NA,h,NA,NA,s,418,NA,1441,NA,NA,418,2,legacy,1024,2,48000,-16,experiment,HHSHH,1,odd,3162,NA,NA,50442,25893,1706,NA,NA,51543,1718,NA,NA,51654,52074,51532,51654,FlankerTaskKBowman,28,13796,29,yes,1024
96.66666667,96.66666667,476.6,476.6,black,no,legacy,legacy,legacy,0,congruent,uniform,1,undefined,1,h,0,0,0,29,29,0,29,0,29,0,0,0,29,29,29,29,Sat Sep 21 18:22:48 2019,1500,The main experiment item,yes,/Users/KrisBow/Desktop/FlankerTaskKBowman.osexp,no,mono,no,18,no,white,no,yes,768,legacy,29,29,/Users/KrisBow/Desktop/KBsubject-0.csv,legacy,Kafkaesque Koffka,3.2.6,0,h,NA,h,NA,NA,h,502,NA,1441,NA,NA,502,2,legacy,1024,2,48000,-16,experiment,HHHHH,1,odd,3162,NA,NA,52086,25893,1706,NA,NA,53186,1718,NA,NA,53297,53801,53175,53296,FlankerTaskKBowman,29,14298,30,yes,1024
96.77419355,96.77419355,477.7096774,477.7096774,black,no,legacy,legacy,legacy,0,congruent,uniform,1,undefined,1,h,0,0,0,30,30,0,30,0,30,0,0,0,30,30,30,30,Sat Sep 21 18:22:48 2019,1500,The main experiment item,yes,/Users/KrisBow/Desktop/FlankerTaskKBowman.osexp,no,mono,no,18,no,white,no,yes,768,legacy,30,30,/Users/KrisBow/Desktop/KBsubject-0.csv,legacy,Kafkaesque Koffka,3.2.6,0,h,NA,h,NA,NA,h,511,NA,1441,NA,NA,511,2,legacy,1024,2,48000,-16,experiment,HHHHH,1,odd,3162,NA,NA,53814,25893,1706,NA,NA,54914,1718,NA,NA,55026,55539,54904,55025,FlankerTaskKBowman,30,14809,31,yes,1024
96.875,96.875,477.46875,477.46875,black,no,legacy,legacy,legacy,0,congruent,uniform,1,undefined,1,h,0,0,0,31,31,0,31,0,31,0,0,0,31,31,31,31,Sat Sep 21 18:22:48 2019,1500,The main experiment item,yes,/Users/KrisBow/Desktop/FlankerTaskKBowman.osexp,no,mono,no,18,no,white,no,yes,768,legacy,31,31,/Users/KrisBow/Desktop/KBsubject-0.csv,legacy,Kafkaesque Koffka,3.2.6,0,h,NA,h,NA,NA,h,470,NA,1441,NA,NA,470,2,legacy,1024,2,48000,-16,experiment,HHHHH,1,odd,3162,NA,NA,55552,25893,1706,NA,NA,56652,1718,NA,NA,56763,57236,56642,56762,FlankerTaskKBowman,31,15279,32,yes,1024
96.96969697,96.96969697,479.0606061,479.0606061,black,no,legacy,legacy,legacy,0,incongruent,uniform,1,undefined,1,h,0,0,0,32,32,0,32,0,32,0,0,0,32,32,32,32,Sat Sep 21 18:22:48 2019,1500,The main experiment item,yes,/Users/KrisBow/Desktop/FlankerTaskKBowman.osexp,no,mono,no,18,no,white,no,yes,768,legacy,32,32,/Users/KrisBow/Desktop/KBsubject-0.csv,legacy,Kafkaesque Koffka,3.2.6,0,h,NA,h,NA,NA,h,530,NA,1441,NA,NA,530,2,legacy,1024,2,48000,-16,experiment,SSHSS,1,odd,3162,NA,NA,57248,25893,1706,NA,NA,58353,1718,NA,NA,58463,58995,58342,58463,FlankerTaskKBowman,32,15809,33,yes,1024
97.05882353,97.05882353,479.1470588,479.1470588,black,no,legacy,legacy,legacy,0,congruent,uniform,1,undefined,1,s,0,0,0,33,33,0,33,0,33,0,0,0,33,33,33,33,Sat Sep 21 18:22:48 2019,1500,The main experiment item,yes,/Users/KrisBow/Desktop/FlankerTaskKBowman.osexp,no,mono,no,18,no,white,no,yes,768,legacy,33,33,/Users/KrisBow/Desktop/KBsubject-0.csv,legacy,Kafkaesque Koffka,3.2.6,0,s,NA,h,NA,NA,s,482,NA,1441,NA,NA,482,2,legacy,1024,2,48000,-16,experiment,SSSSS,1,odd,3162,NA,NA,59008,25893,1706,NA,NA,60107,1718,NA,NA,60219,60703,60097,60218,FlankerTaskKBowman,33,16291,34,yes,1024
97.14285714,97.14285714,479.0857143,479.0857143,black,no,legacy,legacy,legacy,0,incongruent,uniform,1,undefined,1,h,0,0,0,34,34,0,34,0,34,0,0,0,34,34,34,34,Sat Sep 21 18:22:48 2019,1500,The main experiment item,yes,/Users/KrisBow/Desktop/FlankerTaskKBowman.osexp,no,mono,no,18,no,white,no,yes,768,legacy,34,34,/Users/KrisBow/Desktop/KBsubject-0.csv,legacy,Kafkaesque Koffka,3.2.6,0,h,NA,h,NA,NA,h,477,NA,1441,NA,NA,477,2,legacy,1024,2,48000,-16,experiment,SSHSS,1,odd,3162,NA,NA,60716,25893,1706,NA,NA,61818,1718,NA,NA,61928,62407,61808,61928,FlankerTaskKBowman,34,16768,35,yes,1024
97.22222222,97.22222222,477.8055556,477.8055556,black,no,legacy,legacy,legacy,0,incongruent,uniform,1,undefined,1,s,0,0,0,35,35,0,35,0,35,0,0,0,35,35,35,35,Sat Sep 21 18:22:48 2019,1500,The main experiment item,yes,/Users/KrisBow/Desktop/FlankerTaskKBowman.osexp,no,mono,no,18,no,white,no,yes,768,legacy,35,35,/Users/KrisBow/Desktop/KBsubject-0.csv,legacy,Kafkaesque Koffka,3.2.6,0,s,NA,h,NA,NA,s,433,NA,1441,NA,NA,433,2,legacy,1024,2,48000,-16,experiment,HHSHH,1,odd,3162,NA,NA,62420,25893,1706,NA,NA,63521,1718,NA,NA,63631,64067,63510,63631,FlankerTaskKBowman,35,17201,36,yes,1024
97.2972973,97.2972973,479.5675676,479.5675676,black,no,legacy,legacy,legacy,0,congruent,uniform,1,undefined,1,s,0,0,0,36,36,0,36,0,36,0,0,0,36,36,36,36,Sat Sep 21 18:22:48 2019,1500,The main experiment item,yes,/Users/KrisBow/Desktop/FlankerTaskKBowman.osexp,no,mono,no,18,no,white,no,yes,768,legacy,36,36,/Users/KrisBow/Desktop/KBsubject-0.csv,legacy,Kafkaesque Koffka,3.2.6,0,s,NA,h,NA,NA,s,543,NA,1441,NA,NA,543,2,legacy,1024,2,48000,-16,experiment,SSSSS,1,odd,3162,NA,NA,64080,25893,1706,NA,NA,65180,1718,NA,NA,65290,65836,65170,65290,FlankerTaskKBowman,36,17744,37,yes,1024
97.36842105,97.36842105,479.4473684,479.4473684,black,no,legacy,legacy,legacy,0,congruent,uniform,1,undefined,1,h,0,0,0,37,37,0,37,0,37,0,0,0,37,37,37,37,Sat Sep 21 18:22:48 2019,1500,The main experiment item,yes,/Users/KrisBow/Desktop/FlankerTaskKBowman.osexp,no,mono,no,18,no,white,no,yes,768,legacy,37,37,/Users/KrisBow/Desktop/KBsubject-0.csv,legacy,Kafkaesque Koffka,3.2.6,0,h,NA,h,NA,NA,h,475,NA,1441,NA,NA,475,2,legacy,1024,2,48000,-16,experiment,HHHHH,1,odd,3162,NA,NA,65849,25893,1706,NA,NA,66950,1718,NA,NA,67060,67537,66939,67060,FlankerTaskKBowman,37,18219,38,yes,1024
97.43589744,97.43589744,478.6153846,478.6153846,black,no,legacy,legacy,legacy,0,congruent,uniform,1,undefined,1,s,0,0,0,38,38,0,38,0,38,0,0,0,38,38,38,38,Sat Sep 21 18:22:48 2019,1500,The main experiment item,yes,/Users/KrisBow/Desktop/FlankerTaskKBowman.osexp,no,mono,no,18,no,white,no,yes,768,legacy,38,38,/Users/KrisBow/Desktop/KBsubject-0.csv,legacy,Kafkaesque Koffka,3.2.6,0,s,NA,h,NA,NA,s,447,NA,1441,NA,NA,447,2,legacy,1024,2,48000,-16,experiment,SSSSS,1,odd,3162,NA,NA,67550,25893,1706,NA,NA,68650,1718,NA,NA,68760,69209,68640,68760,FlankerTaskKBowman,38,18666,39,yes,1024
97.5,97.5,481.1,481.1,black,no,legacy,legacy,legacy,0,congruent,uniform,1,undefined,1,s,0,0,0,39,39,0,39,0,39,0,0,0,39,39,39,39,Sat Sep 21 18:22:48 2019,1500,The main experiment item,yes,/Users/KrisBow/Desktop/FlankerTaskKBowman.osexp,no,mono,no,18,no,white,no,yes,768,legacy,39,39,/Users/KrisBow/Desktop/KBsubject-0.csv,legacy,Kafkaesque Koffka,3.2.6,0,s,NA,h,NA,NA,s,578,NA,1441,NA,NA,578,2,legacy,1024,2,48000,-16,experiment,SSSSS,1,odd,3162,NA,NA,69222,25893,1706,NA,NA,70322,1718,NA,NA,70432,71012,70312,70432,FlankerTaskKBowman,39,19244,40,yes,1024
97.56097561,97.56097561,482.8780488,482.8780488,black,no,legacy,legacy,legacy,0,incongruent,uniform,1,undefined,1,s,0,0,0,40,40,0,40,0,40,0,0,0,40,40,40,40,Sat Sep 21 18:22:48 2019,1500,The main experiment item,yes,/Users/KrisBow/Desktop/FlankerTaskKBowman.osexp,no,mono,no,18,no,white,no,yes,768,legacy,40,40,/Users/KrisBow/Desktop/KBsubject-0.csv,legacy,Kafkaesque Koffka,3.2.6,0,s,NA,h,NA,NA,s,554,NA,1441,NA,NA,554,2,legacy,1024,2,48000,-16,experiment,HHSHH,1,odd,3162,NA,NA,71025,25893,1706,NA,NA,72126,1718,NA,NA,72237,72793,72116,72236,FlankerTaskKBowman,40,19798,41,yes,1024
97.61904762,97.61904762,482.047619,482.047619,black,no,legacy,legacy,legacy,0,congruent,uniform,1,undefined,1,s,0,0,0,41,41,0,41,0,41,0,0,0,41,41,41,41,Sat Sep 21 18:22:48 2019,1500,The main experiment item,yes,/Users/KrisBow/Desktop/FlankerTaskKBowman.osexp,no,mono,no,18,no,white,no,yes,768,legacy,41,41,/Users/KrisBow/Desktop/KBsubject-0.csv,legacy,Kafkaesque Koffka,3.2.6,0,s,NA,h,NA,NA,s,448,NA,1441,NA,NA,448,2,legacy,1024,2,48000,-16,experiment,SSSSS,1,odd,3162,NA,NA,72806,25893,1706,NA,NA,73906,1718,NA,NA,74016,74466,73895,74016,FlankerTaskKBowman,41,20246,42,yes,1024
97.6744186,97.6744186,480.8604651,480.8604651,black,no,legacy,legacy,legacy,0,incongruent,uniform,1,undefined,1,s,0,0,0,42,42,0,42,0,42,0,0,0,42,42,42,42,Sat Sep 21 18:22:48 2019,1500,The main experiment item,yes,/Users/KrisBow/Desktop/FlankerTaskKBowman.osexp,no,mono,no,18,no,white,no,yes,768,legacy,42,42,/Users/KrisBow/Desktop/KBsubject-0.csv,legacy,Kafkaesque Koffka,3.2.6,0,s,NA,h,NA,NA,s,431,NA,1441,NA,NA,431,2,legacy,1024,2,48000,-16,experiment,HHSHH,1,odd,3162,NA,NA,74487,25893,1706,NA,NA,75588,1718,NA,NA,75698,76132,75577,75698,FlankerTaskKBowman,42,20677,43,yes,1024
97.72727273,97.72727273,480.4545455,480.4545455,black,no,legacy,legacy,legacy,0,incongruent,uniform,1,undefined,1,h,0,0,0,43,43,0,43,0,43,0,0,0,43,43,43,43,Sat Sep 21 18:22:48 2019,1500,The main experiment item,yes,/Users/KrisBow/Desktop/FlankerTaskKBowman.osexp,no,mono,no,18,no,white,no,yes,768,legacy,43,43,/Users/KrisBow/Desktop/KBsubject-0.csv,legacy,Kafkaesque Koffka,3.2.6,0,h,NA,h,NA,NA,h,463,NA,1441,NA,NA,463,2,legacy,1024,2,48000,-16,experiment,SSHSS,1,odd,3162,NA,NA,76146,25893,1706,NA,NA,77249,1718,NA,NA,77359,77824,77238,77358,FlankerTaskKBowman,43,21140,44,yes,1024
97.77777778,97.77777778,479.3111111,479.3111111,black,no,legacy,legacy,legacy,0,congruent,uniform,1,undefined,1,s,0,0,0,44,44,0,44,0,44,0,0,0,44,44,44,44,Sat Sep 21 18:22:48 2019,1500,The main experiment item,yes,/Users/KrisBow/Desktop/FlankerTaskKBowman.osexp,no,mono,no,18,no,white,no,yes,768,legacy,44,44,/Users/KrisBow/Desktop/KBsubject-0.csv,legacy,Kafkaesque Koffka,3.2.6,0,s,NA,h,NA,NA,s,429,NA,1441,NA,NA,429,2,legacy,1024,2,48000,-16,experiment,SSSSS,1,odd,3162,NA,NA,77837,25893,1706,NA,NA,78946,1718,NA,NA,79058,79489,78931,79058,FlankerTaskKBowman,44,21569,45,yes,1024
97.82608696,97.82608696,479.4130435,479.4130435,black,no,legacy,legacy,legacy,0,congruent,uniform,1,undefined,1,s,0,0,0,45,45,0,45,0,45,0,0,0,45,45,45,45,Sat Sep 21 18:22:48 2019,1500,The main experiment item,yes,/Users/KrisBow/Desktop/FlankerTaskKBowman.osexp,no,mono,no,18,no,white,no,yes,768,legacy,45,45,/Users/KrisBow/Desktop/KBsubject-0.csv,legacy,Kafkaesque Koffka,3.2.6,0,s,NA,h,NA,NA,s,484,NA,1441,NA,NA,484,2,legacy,1024,2,48000,-16,experiment,SSSSS,1,odd,3162,NA,NA,79502,25893,1706,NA,NA,80602,1718,NA,NA,80712,81198,80592,80712,FlankerTaskKBowman,45,22053,46,yes,1024
97.87234043,97.87234043,479.9574468,479.9574468,black,no,legacy,legacy,legacy,0,congruent,uniform,1,undefined,1,h,0,0,0,46,46,0,46,0,46,0,0,0,46,46,46,46,Sat Sep 21 18:22:48 2019,1500,The main experiment item,yes,/Users/KrisBow/Desktop/FlankerTaskKBowman.osexp,no,mono,no,18,no,white,no,yes,768,legacy,46,46,/Users/KrisBow/Desktop/KBsubject-0.csv,legacy,Kafkaesque Koffka,3.2.6,0,h,NA,h,NA,NA,h,505,NA,1441,NA,NA,505,2,legacy,1024,2,48000,-16,experiment,HHHHH,1,odd,3162,NA,NA,81211,25893,1706,NA,NA,82311,1718,NA,NA,82421,82928,82301,82421,FlankerTaskKBowman,46,22558,47,yes,1024
97.91666667,97.91666667,480.0208333,480.0208333,black,no,legacy,legacy,legacy,0,incongruent,uniform,1,undefined,1,h,0,0,0,47,47,0,47,0,47,0,0,0,47,47,47,47,Sat Sep 21 18:22:48 2019,1500,The main experiment item,yes,/Users/KrisBow/Desktop/FlankerTaskKBowman.osexp,no,mono,no,18,no,white,no,yes,768,legacy,47,47,/Users/KrisBow/Desktop/KBsubject-0.csv,legacy,Kafkaesque Koffka,3.2.6,0,h,NA,h,NA,NA,h,483,NA,1441,NA,NA,483,2,legacy,1024,2,48000,-16,experiment,SSHSS,1,odd,3162,NA,NA,82941,25893,1706,NA,NA,84039,1718,NA,NA,84150,84635,84029,84150,FlankerTaskKBowman,47,23041,48,yes,1024
97.95918367,97.95918367,480.3469388,480.3469388,black,no,legacy,legacy,legacy,0,congruent,uniform,1,undefined,1,h,0,0,0,48,48,0,48,0,48,0,0,0,48,48,48,48,Sat Sep 21 18:22:48 2019,1500,The main experiment item,yes,/Users/KrisBow/Desktop/FlankerTaskKBowman.osexp,no,mono,no,18,no,white,no,yes,768,legacy,48,48,/Users/KrisBow/Desktop/KBsubject-0.csv,legacy,Kafkaesque Koffka,3.2.6,0,h,NA,h,NA,NA,h,496,NA,1441,NA,NA,496,2,legacy,1024,2,48000,-16,experiment,HHHHH,1,odd,3162,NA,NA,84648,25893,1706,NA,NA,85748,1718,NA,NA,85859,86358,85738,85858,FlankerTaskKBowman,48,23537,49,yes,1024
98,98,478.34,478.34,black,no,legacy,legacy,legacy,0,incongruent,uniform,1,undefined,1,s,0,0,0,49,49,0,49,0,49,0,0,0,49,49,49,49,Sat Sep 21 18:22:48 2019,1500,The main experiment item,yes,/Users/KrisBow/Desktop/FlankerTaskKBowman.osexp,no,mono,no,18,no,white,no,yes,768,legacy,49,49,/Users/KrisBow/Desktop/KBsubject-0.csv,legacy,Kafkaesque Koffka,3.2.6,0,s,NA,h,NA,NA,s,380,NA,1441,NA,NA,380,2,legacy,1024,2,48000,-16,experiment,HHSHH,1,odd,3162,NA,NA,86371,25893,1706,NA,NA,87473,1718,NA,NA,87583,87965,87462,87583,FlankerTaskKBowman,49,23917,50,yes,1024
98.03921569,98.03921569,477.3333333,477.3333333,black,no,legacy,legacy,legacy,0,congruent,uniform,1,undefined,1,h,0,0,0,50,50,0,50,0,50,0,0,0,50,50,50,50,Sat Sep 21 18:22:48 2019,1500,The main experiment item,yes,/Users/KrisBow/Desktop/FlankerTaskKBowman.osexp,no,mono,no,18,no,white,no,yes,768,legacy,50,50,/Users/KrisBow/Desktop/KBsubject-0.csv,legacy,Kafkaesque Koffka,3.2.6,0,h,NA,h,NA,NA,h,427,NA,1441,NA,NA,427,2,legacy,1024,2,48000,-16,experiment,HHHHH,1,odd,3162,NA,NA,87977,25893,1706,NA,NA,89077,1718,NA,NA,89188,89617,89067,89188,FlankerTaskKBowman,50,24344,51,yes,1024
98.07692308,98.07692308,476.8269231,476.8269231,black,no,legacy,legacy,legacy,0,congruent,uniform,1,undefined,1,h,0,0,0,51,51,0,51,0,51,0,0,0,51,51,51,51,Sat Sep 21 18:22:48 2019,1500,The main experiment item,yes,/Users/KrisBow/Desktop/FlankerTaskKBowman.osexp,no,mono,no,18,no,white,no,yes,768,legacy,51,51,/Users/KrisBow/Desktop/KBsubject-0.csv,legacy,Kafkaesque Koffka,3.2.6,0,h,NA,h,NA,NA,h,451,NA,1441,NA,NA,451,2,legacy,1024,2,48000,-16,experiment,HHHHH,1,odd,3162,NA,NA,89630,25893,1706,NA,NA,90736,1718,NA,NA,90846,91299,90724,90846,FlankerTaskKBowman,51,24795,52,yes,1024
98.11320755,98.11320755,475.0754717,475.0754717,black,no,legacy,legacy,legacy,0,incongruent,uniform,1,undefined,1,s,0,0,0,52,52,0,52,0,52,0,0,0,52,52,52,52,Sat Sep 21 18:22:48 2019,1500,The main experiment item,yes,/Users/KrisBow/Desktop/FlankerTaskKBowman.osexp,no,mono,no,18,no,white,no,yes,768,legacy,52,52,/Users/KrisBow/Desktop/KBsubject-0.csv,legacy,Kafkaesque Koffka,3.2.6,0,s,NA,h,NA,NA,s,384,NA,1441,NA,NA,384,2,legacy,1024,2,48000,-16,experiment,HHSHH,1,odd,3162,NA,NA,91311,25893,1706,NA,NA,92413,1718,NA,NA,92523,92909,92403,92523,FlankerTaskKBowman,52,25179,53,yes,1024
96.2962963,96.2962963,479.7777778,479.7777778,black,no,legacy,legacy,legacy,0,incongruent,uniform,0,undefined,0,s,0,0,0,53,53,0,53,0,53,0,0,0,53,53,53,53,Sat Sep 21 18:22:48 2019,1500,The main experiment item,yes,/Users/KrisBow/Desktop/FlankerTaskKBowman.osexp,no,mono,no,18,no,white,no,yes,768,legacy,53,53,/Users/KrisBow/Desktop/KBsubject-0.csv,legacy,Kafkaesque Koffka,3.2.6,0,h,NA,h,NA,NA,h,729,NA,1441,NA,NA,729,2,legacy,1024,2,48000,-16,experiment,HHSHH,1,odd,3162,NA,NA,92922,25893,1706,NA,NA,94023,1718,NA,NA,94133,94865,94012,94133,FlankerTaskKBowman,52,25908,54,yes,1024
96.36363636,96.36363636,479.0545455,479.0545455,black,no,legacy,legacy,legacy,0,congruent,uniform,1,undefined,1,s,0,0,0,54,54,0,54,0,54,0,0,0,54,54,54,54,Sat Sep 21 18:22:48 2019,1500,The main experiment item,yes,/Users/KrisBow/Desktop/FlankerTaskKBowman.osexp,no,mono,no,18,no,white,no,yes,768,legacy,54,54,/Users/KrisBow/Desktop/KBsubject-0.csv,legacy,Kafkaesque Koffka,3.2.6,0,s,NA,h,NA,NA,s,440,NA,1441,NA,NA,440,2,legacy,1024,2,48000,-16,experiment,SSSSS,1,odd,3162,NA,NA,95389,94878,1706,NA,NA,96490,1718,NA,NA,96601,97043,96480,96600,FlankerTaskKBowman,53,26348,55,yes,1024
96.42857143,96.42857143,480.3392857,480.3392857,black,no,legacy,legacy,legacy,0,incongruent,uniform,1,undefined,1,s,0,0,0,55,55,0,55,0,55,0,0,0,55,55,55,55,Sat Sep 21 18:22:48 2019,1500,The main experiment item,yes,/Users/KrisBow/Desktop/FlankerTaskKBowman.osexp,no,mono,no,18,no,white,no,yes,768,legacy,55,55,/Users/KrisBow/Desktop/KBsubject-0.csv,legacy,Kafkaesque Koffka,3.2.6,0,s,NA,h,NA,NA,s,551,NA,1441,NA,NA,551,2,legacy,1024,2,48000,-16,experiment,HHSHH,1,odd,3162,NA,NA,97056,94878,1706,NA,NA,98157,1718,NA,NA,98268,98822,98146,98267,FlankerTaskKBowman,54,26899,56,yes,1024
96.49122807,96.49122807,480.2631579,480.2631579,black,no,legacy,legacy,legacy,0,incongruent,uniform,1,undefined,1,h,0,0,0,56,56,0,56,0,56,0,0,0,56,56,56,56,Sat Sep 21 18:22:48 2019,1500,The main experiment item,yes,/Users/KrisBow/Desktop/FlankerTaskKBowman.osexp,no,mono,no,18,no,white,no,yes,768,legacy,56,56,/Users/KrisBow/Desktop/KBsubject-0.csv,legacy,Kafkaesque Koffka,3.2.6,0,h,NA,h,NA,NA,h,476,NA,1441,NA,NA,476,2,legacy,1024,2,48000,-16,experiment,SSHSS,1,odd,3162,NA,NA,98835,94878,1706,NA,NA,99941,1718,NA,NA,100052,100531,99930,100052,FlankerTaskKBowman,55,27375,57,yes,1024
96.55172414,96.55172414,480.1896552,480.1896552,black,no,legacy,legacy,legacy,0,incongruent,uniform,1,undefined,1,h,0,0,0,57,57,0,57,0,57,0,0,0,57,57,57,57,Sat Sep 21 18:22:48 2019,1500,The main experiment item,yes,/Users/KrisBow/Desktop/FlankerTaskKBowman.osexp,no,mono,no,18,no,white,no,yes,768,legacy,57,57,/Users/KrisBow/Desktop/KBsubject-0.csv,legacy,Kafkaesque Koffka,3.2.6,0,h,NA,h,NA,NA,h,476,NA,1441,NA,NA,476,2,legacy,1024,2,48000,-16,experiment,SSHSS,1,odd,3162,NA,NA,100543,94878,1706,NA,NA,101644,1718,NA,NA,101754,102233,101634,101754,FlankerTaskKBowman,56,27851,58,yes,1024
96.61016949,96.61016949,480.3220339,480.3220339,black,no,legacy,legacy,legacy,0,congruent,uniform,1,undefined,1,h,0,0,0,58,58,0,58,0,58,0,0,0,58,58,58,58,Sat Sep 21 18:22:48 2019,1500,The main experiment item,yes,/Users/KrisBow/Desktop/FlankerTaskKBowman.osexp,no,mono,no,18,no,white,no,yes,768,legacy,58,58,/Users/KrisBow/Desktop/KBsubject-0.csv,legacy,Kafkaesque Koffka,3.2.6,0,h,NA,h,NA,NA,h,488,NA,1441,NA,NA,488,2,legacy,1024,2,48000,-16,experiment,HHHHH,1,odd,3162,NA,NA,102245,94878,1706,NA,NA,103346,1718,NA,NA,103456,103947,103336,103456,FlankerTaskKBowman,57,28339,59,yes,1024
96.66666667,96.66666667,478.8,478.8,black,no,legacy,legacy,legacy,0,congruent,uniform,1,undefined,1,s,0,0,0,59,59,0,59,0,59,0,0,0,59,59,59,59,Sat Sep 21 18:22:48 2019,1500,The main experiment item,yes,/Users/KrisBow/Desktop/FlankerTaskKBowman.osexp,no,mono,no,18,no,white,no,yes,768,legacy,59,59,/Users/KrisBow/Desktop/KBsubject-0.csv,legacy,Kafkaesque Koffka,3.2.6,0,s,NA,h,NA,NA,s,389,NA,1441,NA,NA,389,2,legacy,1024,2,48000,-16,experiment,SSSSS,1,odd,3162,NA,NA,103960,94878,1706,NA,NA,105058,1718,NA,NA,105169,105561,105048,105169,FlankerTaskKBowman,58,28728,60,yes,1024
96.72131148,96.72131148,477.3770492,477.3770492,black,no,legacy,legacy,legacy,0,incongruent,uniform,1,undefined,1,h,0,0,0,60,60,0,60,0,60,0,0,0,60,60,60,60,Sat Sep 21 18:22:48 2019,1500,The main experiment item,yes,/Users/KrisBow/Desktop/FlankerTaskKBowman.osexp,no,mono,no,18,no,white,no,yes,768,legacy,60,60,/Users/KrisBow/Desktop/KBsubject-0.csv,legacy,Kafkaesque Koffka,3.2.6,0,h,NA,h,NA,NA,h,392,NA,1441,NA,NA,392,2,legacy,1024,2,48000,-16,experiment,SSHSS,1,odd,3162,NA,NA,105579,94878,1706,NA,NA,106680,1718,NA,NA,106791,107185,106670,106790,FlankerTaskKBowman,59,29120,61,yes,1024
96.77419355,96.77419355,476.5645161,476.5645161,black,no,legacy,legacy,legacy,0,incongruent,uniform,1,undefined,1,s,0,0,0,61,61,0,61,0,61,0,0,0,61,61,61,61,Sat Sep 21 18:22:48 2019,1500,The main experiment item,yes,/Users/KrisBow/Desktop/FlankerTaskKBowman.osexp,no,mono,no,18,no,white,no,yes,768,legacy,61,61,/Users/KrisBow/Desktop/KBsubject-0.csv,legacy,Kafkaesque Koffka,3.2.6,0,s,NA,h,NA,NA,s,427,NA,1441,NA,NA,427,2,legacy,1024,2,48000,-16,experiment,HHSHH,1,odd,3162,NA,NA,107199,94878,1706,NA,NA,108299,1718,NA,NA,108409,108839,108289,108409,FlankerTaskKBowman,60,29547,62,yes,1024
96.82539683,96.82539683,479.5079365,479.5079365,black,no,legacy,legacy,legacy,0,incongruent,uniform,1,undefined,1,s,0,0,0,62,62,0,62,0,62,0,0,0,62,62,62,62,Sat Sep 21 18:22:48 2019,1500,The main experiment item,yes,/Users/KrisBow/Desktop/FlankerTaskKBowman.osexp,no,mono,no,18,no,white,no,yes,768,legacy,62,62,/Users/KrisBow/Desktop/KBsubject-0.csv,legacy,Kafkaesque Koffka,3.2.6,0,s,NA,h,NA,NA,s,662,NA,1441,NA,NA,662,2,legacy,1024,2,48000,-16,experiment,HHSHH,1,odd,3162,NA,NA,108853,94878,1706,NA,NA,109953,1718,NA,NA,110063,110728,109943,110063,FlankerTaskKBowman,61,30209,63,yes,1024
96.875,96.875,479.125,479.125,black,no,legacy,legacy,legacy,0,incongruent,uniform,1,undefined,1,h,0,0,0,63,63,0,63,0,63,0,0,0,63,63,63,63,Sat Sep 21 18:22:48 2019,1500,The main experiment item,yes,/Users/KrisBow/Desktop/FlankerTaskKBowman.osexp,no,mono,no,18,no,white,no,yes,768,legacy,63,63,/Users/KrisBow/Desktop/KBsubject-0.csv,legacy,Kafkaesque Koffka,3.2.6,0,h,NA,h,NA,NA,h,455,NA,1441,NA,NA,455,2,legacy,1024,2,48000,-16,experiment,SSHSS,1,odd,3162,NA,NA,110740,94878,1706,NA,NA,111840,1718,NA,NA,111951,112409,111830,111951,FlankerTaskKBowman,62,30664,64,yes,1024
96.92307692,96.92307692,478.7230769,478.7230769,black,no,legacy,legacy,legacy,0,congruent,uniform,1,undefined,1,s,0,0,0,64,64,0,64,0,64,0,0,0,64,64,64,64,Sat Sep 21 18:22:48 2019,1500,The main experiment item,yes,/Users/KrisBow/Desktop/FlankerTaskKBowman.osexp,no,mono,no,18,no,white,no,yes,768,legacy,64,64,/Users/KrisBow/Desktop/KBsubject-0.csv,legacy,Kafkaesque Koffka,3.2.6,0,s,NA,h,NA,NA,s,453,NA,1441,NA,NA,453,2,legacy,1024,2,48000,-16,experiment,SSSSS,1,odd,3162,NA,NA,112421,94878,1706,NA,NA,113524,1718,NA,NA,113635,114091,113513,113634,FlankerTaskKBowman,63,31117,65,yes,1024
96.96969697,96.96969697,478.0909091,478.0909091,black,no,legacy,legacy,legacy,0,incongruent,uniform,1,undefined,1,s,0,0,0,65,65,0,65,0,65,0,0,0,65,65,65,65,Sat Sep 21 18:22:48 2019,1500,The main experiment item,yes,/Users/KrisBow/Desktop/FlankerTaskKBowman.osexp,no,mono,no,18,no,white,no,yes,768,legacy,65,65,/Users/KrisBow/Desktop/KBsubject-0.csv,legacy,Kafkaesque Koffka,3.2.6,0,s,NA,h,NA,NA,s,437,NA,1441,NA,NA,437,2,legacy,1024,2,48000,-16,experiment,HHSHH,1,odd,3162,NA,NA,114103,94878,1706,NA,NA,115204,1718,NA,NA,115314,115753,115194,115314,FlankerTaskKBowman,64,31554,66,yes,1024
97.01492537,97.01492537,477.3134328,477.3134328,black,no,legacy,legacy,legacy,0,incongruent,uniform,1,undefined,1,s,0,0,0,66,66,0,66,0,66,0,0,0,66,66,66,66,Sat Sep 21 18:22:48 2019,1500,The main experiment item,yes,/Users/KrisBow/Desktop/FlankerTaskKBowman.osexp,no,mono,no,18,no,white,no,yes,768,legacy,66,66,/Users/KrisBow/Desktop/KBsubject-0.csv,legacy,Kafkaesque Koffka,3.2.6,0,s,NA,h,NA,NA,s,426,NA,1441,NA,NA,426,2,legacy,1024,2,48000,-16,experiment,HHSHH,1,odd,3162,NA,NA,115766,94878,1706,NA,NA,116867,1718,NA,NA,116977,117406,116856,116977,FlankerTaskKBowman,65,31980,67,yes,1024
97.05882353,97.05882353,476.9558824,476.9558824,black,no,legacy,legacy,legacy,0,congruent,uniform,1,undefined,1,h,0,0,0,67,67,0,67,0,67,0,0,0,67,67,67,67,Sat Sep 21 18:22:48 2019,1500,The main experiment item,yes,/Users/KrisBow/Desktop/FlankerTaskKBowman.osexp,no,mono,no,18,no,white,no,yes,768,legacy,67,67,/Users/KrisBow/Desktop/KBsubject-0.csv,legacy,Kafkaesque Koffka,3.2.6,0,h,NA,h,NA,NA,h,453,NA,1441,NA,NA,453,2,legacy,1024,2,48000,-16,experiment,HHHHH,1,odd,3162,NA,NA,117418,94878,1706,NA,NA,118526,1718,NA,NA,118636,119091,118515,118636,FlankerTaskKBowman,66,32433,68,yes,1024
97.10144928,97.10144928,477.9130435,477.9130435,black,no,legacy,legacy,legacy,0,incongruent,uniform,1,undefined,1,h,0,0,0,68,68,0,68,0,68,0,0,0,68,68,68,68,Sat Sep 21 18:22:48 2019,1500,The main experiment item,yes,/Users/KrisBow/Desktop/FlankerTaskKBowman.osexp,no,mono,no,18,no,white,no,yes,768,legacy,68,68,/Users/KrisBow/Desktop/KBsubject-0.csv,legacy,Kafkaesque Koffka,3.2.6,0,h,NA,h,NA,NA,h,543,NA,1441,NA,NA,543,2,legacy,1024,2,48000,-16,experiment,SSHSS,1,odd,3162,NA,NA,119104,94878,1706,NA,NA,120205,1718,NA,NA,120316,120863,120195,120315,FlankerTaskKBowman,67,32976,69,yes,1024
97.14285714,97.14285714,477.6285714,477.6285714,black,no,legacy,legacy,legacy,0,incongruent,uniform,1,undefined,1,s,0,0,0,69,69,0,69,0,69,0,0,0,69,69,69,69,Sat Sep 21 18:22:48 2019,1500,The main experiment item,yes,/Users/KrisBow/Desktop/FlankerTaskKBowman.osexp,no,mono,no,18,no,white,no,yes,768,legacy,69,69,/Users/KrisBow/Desktop/KBsubject-0.csv,legacy,Kafkaesque Koffka,3.2.6,0,s,NA,h,NA,NA,s,458,NA,1441,NA,NA,458,2,legacy,1024,2,48000,-16,experiment,HHSHH,1,odd,3162,NA,NA,120876,94878,1706,NA,NA,121980,1718,NA,NA,122091,122552,121970,122090,FlankerTaskKBowman,68,33434,70,yes,1024
97.18309859,97.18309859,477.7042254,477.7042254,black,no,legacy,legacy,legacy,0,incongruent,uniform,1,undefined,1,h,0,0,0,70,70,0,70,0,70,0,0,0,70,70,70,70,Sat Sep 21 18:22:48 2019,1500,The main experiment item,yes,/Users/KrisBow/Desktop/FlankerTaskKBowman.osexp,no,mono,no,18,no,white,no,yes,768,legacy,70,70,/Users/KrisBow/Desktop/KBsubject-0.csv,legacy,Kafkaesque Koffka,3.2.6,0,h,NA,h,NA,NA,h,483,NA,1441,NA,NA,483,2,legacy,1024,2,48000,-16,experiment,SSHSS,1,odd,3162,NA,NA,122565,94878,1706,NA,NA,123664,1718,NA,NA,123775,124260,123654,123775,FlankerTaskKBowman,69,33917,71,yes,1024
97.22222222,97.22222222,478.3472222,478.3472222,black,no,legacy,legacy,legacy,0,incongruent,uniform,1,undefined,1,h,0,0,0,71,71,0,71,0,71,0,0,0,71,71,71,71,Sat Sep 21 18:22:48 2019,1500,The main experiment item,yes,/Users/KrisBow/Desktop/FlankerTaskKBowman.osexp,no,mono,no,18,no,white,no,yes,768,legacy,71,71,/Users/KrisBow/Desktop/KBsubject-0.csv,legacy,Kafkaesque Koffka,3.2.6,0,h,NA,h,NA,NA,h,524,NA,1441,NA,NA,524,2,legacy,1024,2,48000,-16,experiment,SSHSS,1,odd,3162,NA,NA,124273,94878,1706,NA,NA,125372,1718,NA,NA,125484,126011,125362,125484,FlankerTaskKBowman,70,34441,72,yes,1024
97.26027397,97.26027397,477.9589041,477.9589041,black,no,legacy,legacy,legacy,0,congruent,uniform,1,undefined,1,h,0,0,0,72,72,0,72,0,72,0,0,0,72,72,72,72,Sat Sep 21 18:22:48 2019,1500,The main experiment item,yes,/Users/KrisBow/Desktop/FlankerTaskKBowman.osexp,no,mono,no,18,no,white,no,yes,768,legacy,72,72,/Users/KrisBow/Desktop/KBsubject-0.csv,legacy,Kafkaesque Koffka,3.2.6,0,h,NA,h,NA,NA,h,450,NA,1441,NA,NA,450,2,legacy,1024,2,48000,-16,experiment,HHHHH,1,odd,3162,NA,NA,126023,94878,1706,NA,NA,127123,1718,NA,NA,127234,127687,127113,127234,FlankerTaskKBowman,71,34891,73,yes,1024
97.2972973,97.2972973,478.6081081,478.6081081,black,no,legacy,legacy,legacy,0,incongruent,uniform,1,undefined,1,h,0,0,0,73,73,0,73,0,73,0,0,0,73,73,73,73,Sat Sep 21 18:22:48 2019,1500,The main experiment item,yes,/Users/KrisBow/Desktop/FlankerTaskKBowman.osexp,no,mono,no,18,no,white,no,yes,768,legacy,73,73,/Users/KrisBow/Desktop/KBsubject-0.csv,legacy,Kafkaesque Koffka,3.2.6,0,h,NA,h,NA,NA,h,526,NA,1441,NA,NA,526,2,legacy,1024,2,48000,-16,experiment,SSHSS,1,odd,3162,NA,NA,127700,94878,1706,NA,NA,128799,1718,NA,NA,128910,129438,128789,128910,FlankerTaskKBowman,72,35417,74,yes,1024
97.33333333,97.33333333,477.3733333,477.3733333,black,no,legacy,legacy,legacy,0,congruent,uniform,1,undefined,1,s,0,0,0,74,74,0,74,0,74,0,0,0,74,74,74,74,Sat Sep 21 18:22:48 2019,1500,The main experiment item,yes,/Users/KrisBow/Desktop/FlankerTaskKBowman.osexp,no,mono,no,18,no,white,no,yes,768,legacy,74,74,/Users/KrisBow/Desktop/KBsubject-0.csv,legacy,Kafkaesque Koffka,3.2.6,0,s,NA,h,NA,NA,s,386,NA,1441,NA,NA,386,2,legacy,1024,2,48000,-16,experiment,SSSSS,1,odd,3162,NA,NA,129451,94878,1706,NA,NA,130552,1718,NA,NA,130662,131051,130541,130662,FlankerTaskKBowman,73,35803,75,yes,1024
97.36842105,97.36842105,477.5,477.5,black,no,legacy,legacy,legacy,0,congruent,uniform,1,undefined,1,s,0,0,0,75,75,0,75,0,75,0,0,0,75,75,75,75,Sat Sep 21 18:22:48 2019,1500,The main experiment item,yes,/Users/KrisBow/Desktop/FlankerTaskKBowman.osexp,no,mono,no,18,no,white,no,yes,768,legacy,75,75,/Users/KrisBow/Desktop/KBsubject-0.csv,legacy,Kafkaesque Koffka,3.2.6,0,s,NA,h,NA,NA,s,487,NA,1441,NA,NA,487,2,legacy,1024,2,48000,-16,experiment,SSSSS,1,odd,3162,NA,NA,131063,94878,1706,NA,NA,132164,1718,NA,NA,132276,132765,132154,132275,FlankerTaskKBowman,74,36290,76,yes,1024
97.4025974,97.4025974,477.7532468,477.7532468,black,no,legacy,legacy,legacy,0,incongruent,uniform,1,undefined,1,h,0,0,0,76,76,0,76,0,76,0,0,0,76,76,76,76,Sat Sep 21 18:22:48 2019,1500,The main experiment item,yes,/Users/KrisBow/Desktop/FlankerTaskKBowman.osexp,no,mono,no,18,no,white,no,yes,768,legacy,76,76,/Users/KrisBow/Desktop/KBsubject-0.csv,legacy,Kafkaesque Koffka,3.2.6,0,h,NA,h,NA,NA,h,497,NA,1441,NA,NA,497,2,legacy,1024,2,48000,-16,experiment,SSHSS,1,odd,3162,NA,NA,132778,94878,1706,NA,NA,133879,1718,NA,NA,133990,134490,133869,133989,FlankerTaskKBowman,75,36787,77,yes,1024
97.43589744,97.43589744,478.5384615,478.5384615,black,no,legacy,legacy,legacy,0,congruent,uniform,1,undefined,1,s,0,0,0,77,77,0,77,0,77,0,0,0,77,77,77,77,Sat Sep 21 18:22:48 2019,1500,The main experiment item,yes,/Users/KrisBow/Desktop/FlankerTaskKBowman.osexp,no,mono,no,18,no,white,no,yes,768,legacy,77,77,/Users/KrisBow/Desktop/KBsubject-0.csv,legacy,Kafkaesque Koffka,3.2.6,0,s,NA,h,NA,NA,s,539,NA,1441,NA,NA,539,2,legacy,1024,2,48000,-16,experiment,SSSSS,1,odd,3162,NA,NA,134508,94878,1706,NA,NA,135607,1718,NA,NA,135718,136260,135597,135718,FlankerTaskKBowman,76,37326,78,yes,1024
97.46835443,97.46835443,478.3924051,478.3924051,black,no,legacy,legacy,legacy,0,congruent,uniform,1,undefined,1,s,0,0,0,78,78,0,78,0,78,0,0,0,78,78,78,78,Sat Sep 21 18:22:48 2019,1500,The main experiment item,yes,/Users/KrisBow/Desktop/FlankerTaskKBowman.osexp,no,mono,no,18,no,white,no,yes,768,legacy,78,78,/Users/KrisBow/Desktop/KBsubject-0.csv,legacy,Kafkaesque Koffka,3.2.6,0,s,NA,h,NA,NA,s,467,NA,1441,NA,NA,467,2,legacy,1024,2,48000,-16,experiment,SSSSS,1,odd,3162,NA,NA,136272,94878,1706,NA,NA,137372,1718,NA,NA,137484,137954,137362,137484,FlankerTaskKBowman,77,37793,79,yes,1024
97.5,97.5,477.75,477.75,black,no,legacy,legacy,legacy,0,congruent,uniform,1,undefined,1,h,0,0,0,79,79,0,79,0,79,0,0,0,79,79,79,79,Sat Sep 21 18:22:48 2019,1500,The main experiment item,yes,/Users/KrisBow/Desktop/FlankerTaskKBowman.osexp,no,mono,no,18,no,white,no,yes,768,legacy,79,79,/Users/KrisBow/Desktop/KBsubject-0.csv,legacy,Kafkaesque Koffka,3.2.6,0,h,NA,h,NA,NA,h,427,NA,1441,NA,NA,427,2,legacy,1024,2,48000,-16,experiment,HHHHH,1,odd,3162,NA,NA,137966,94878,1706,NA,NA,139066,1718,NA,NA,139176,139606,139055,139176,FlankerTaskKBowman,78,38220,80,yes,1024
97.5308642,97.5308642,478.5432099,478.5432099,black,no,legacy,legacy,legacy,0,incongruent,uniform,1,undefined,1,h,0,0,0,80,80,0,80,0,80,0,0,0,80,80,80,80,Sat Sep 21 18:22:48 2019,600,The main experiment item,yes,/Users/KrisBow/Desktop/FlankerTaskKBowman.osexp,no,mono,no,18,no,white,no,yes,768,legacy,0,79,/Users/KrisBow/Desktop/KBsubject-0.csv,legacy,Kafkaesque Koffka,3.2.6,0,h,NA,h,h,NA,h,542,NA,1441,33083,NA,542,2,legacy,1024,2,48000,-16,experiment,SSHSS,1,odd,3162,173744,NA,139619,94878,1706,NA,NA,173825,1718,140658,NA,173936,174480,173816,173936,FlankerTaskKBowman,79,38762,81,yes,1024
97.56097561,97.56097561,476.8780488,476.8780488,black,no,legacy,legacy,legacy,0,congruent,uniform,1,undefined,1,s,0,0,0,81,81,0,81,0,81,0,0,0,81,81,81,81,Sat Sep 21 18:22:48 2019,600,The main experiment item,yes,/Users/KrisBow/Desktop/FlankerTaskKBowman.osexp,no,mono,no,18,no,white,no,yes,768,legacy,1,79,/Users/KrisBow/Desktop/KBsubject-0.csv,legacy,Kafkaesque Koffka,3.2.6,0,s,NA,h,h,NA,s,342,NA,1441,33083,NA,342,2,legacy,1024,2,48000,-16,experiment,SSSSS,1,odd,3162,173744,NA,174493,94878,1706,NA,NA,175596,1718,140658,NA,175707,176051,175586,175707,FlankerTaskKBowman,80,39104,82,yes,1024
97.59036145,97.59036145,474.9036145,474.9036145,black,no,legacy,legacy,legacy,0,incongruent,uniform,1,undefined,1,s,0,0,0,82,82,0,82,0,82,0,0,0,82,82,82,82,Sat Sep 21 18:22:48 2019,600,The main experiment item,yes,/Users/KrisBow/Desktop/FlankerTaskKBowman.osexp,no,mono,no,18,no,white,no,yes,768,legacy,2,79,/Users/KrisBow/Desktop/KBsubject-0.csv,legacy,Kafkaesque Koffka,3.2.6,0,s,NA,h,h,NA,s,313,NA,1441,33083,NA,313,2,legacy,1024,2,48000,-16,experiment,HHSHH,1,odd,3162,173744,NA,176064,94878,1706,NA,NA,177167,1718,140658,NA,177279,177594,177157,177278,FlankerTaskKBowman,81,39417,83,yes,1024
97.61904762,97.61904762,473.702381,473.702381,black,no,legacy,legacy,legacy,0,congruent,uniform,1,undefined,1,s,0,0,0,83,83,0,83,0,83,0,0,0,83,83,83,83,Sat Sep 21 18:22:48 2019,600,The main experiment item,yes,/Users/KrisBow/Desktop/FlankerTaskKBowman.osexp,no,mono,no,18,no,white,no,yes,768,legacy,3,79,/Users/KrisBow/Desktop/KBsubject-0.csv,legacy,Kafkaesque Koffka,3.2.6,0,s,NA,h,h,NA,s,374,NA,1441,33083,NA,374,2,legacy,1024,2,48000,-16,experiment,SSSSS,1,odd,3162,173744,NA,177607,94878,1706,NA,NA,178706,1718,140658,NA,178817,179194,178696,178817,FlankerTaskKBowman,82,39791,84,yes,1024
96.47058824,96.47058824,472.5647059,472.5647059,black,no,legacy,legacy,legacy,0,incongruent,uniform,0,undefined,0,h,0,0,0,84,84,0,84,0,84,0,0,0,84,84,84,84,Sat Sep 21 18:22:48 2019,600,The main experiment item,yes,/Users/KrisBow/Desktop/FlankerTaskKBowman.osexp,no,mono,no,18,no,white,no,yes,768,legacy,4,79,/Users/KrisBow/Desktop/KBsubject-0.csv,legacy,Kafkaesque Koffka,3.2.6,0,s,NA,h,h,NA,s,377,NA,1441,33083,NA,377,2,legacy,1024,2,48000,-16,experiment,SSHSS,1,odd,3162,173744,NA,179206,94878,1706,NA,NA,180307,1718,140658,NA,180418,180797,180297,180418,FlankerTaskKBowman,82,40168,85,yes,1024
96.51162791,96.51162791,471.872093,471.872093,black,no,legacy,legacy,legacy,0,incongruent,uniform,1,undefined,1,s,0,0,0,85,85,0,85,0,85,0,0,0,85,85,85,85,Sat Sep 21 18:22:48 2019,600,The main experiment item,yes,/Users/KrisBow/Desktop/FlankerTaskKBowman.osexp,no,mono,no,18,no,white,no,yes,768,legacy,5,79,/Users/KrisBow/Desktop/KBsubject-0.csv,legacy,Kafkaesque Koffka,3.2.6,0,s,NA,h,h,NA,s,413,NA,1441,33083,NA,413,2,legacy,1024,2,48000,-16,experiment,HHSHH,1,odd,3162,173744,NA,181321,180810,1706,NA,NA,182422,1718,140658,NA,182533,182949,182412,182533,FlankerTaskKBowman,83,40581,86,yes,1024
96.55172414,96.55172414,471.2758621,471.2758621,black,no,legacy,legacy,legacy,0,incongruent,uniform,1,undefined,1,s,0,0,0,86,86,0,86,0,86,0,0,0,86,86,86,86,Sat Sep 21 18:22:48 2019,600,The main experiment item,yes,/Users/KrisBow/Desktop/FlankerTaskKBowman.osexp,no,mono,no,18,no,white,no,yes,768,legacy,6,79,/Users/KrisBow/Desktop/KBsubject-0.csv,legacy,Kafkaesque Koffka,3.2.6,0,s,NA,h,h,NA,s,420,NA,1441,33083,NA,420,2,legacy,1024,2,48000,-16,experiment,HHSHH,1,odd,3162,173744,NA,182961,180810,1706,NA,NA,184060,1718,140658,NA,184171,184593,184050,184170,FlankerTaskKBowman,84,41001,87,yes,1024
96.59090909,96.59090909,471.875,471.875,black,no,legacy,legacy,legacy,0,incongruent,uniform,1,undefined,1,s,0,0,0,87,87,0,87,0,87,0,0,0,87,87,87,87,Sat Sep 21 18:22:48 2019,600,The main experiment item,yes,/Users/KrisBow/Desktop/FlankerTaskKBowman.osexp,no,mono,no,18,no,white,no,yes,768,legacy,7,79,/Users/KrisBow/Desktop/KBsubject-0.csv,legacy,Kafkaesque Koffka,3.2.6,0,s,NA,h,h,NA,s,524,NA,1441,33083,NA,524,2,legacy,1024,2,48000,-16,experiment,HHSHH,1,odd,3162,173744,NA,184606,180810,1706,NA,NA,185706,1718,140658,NA,185817,186345,185696,185817,FlankerTaskKBowman,85,41525,88,yes,1024
96.62921348,96.62921348,470.7977528,470.7977528,black,no,legacy,legacy,legacy,0,congruent,uniform,1,undefined,1,h,0,0,0,88,88,0,88,0,88,0,0,0,88,88,88,88,Sat Sep 21 18:22:48 2019,600,The main experiment item,yes,/Users/KrisBow/Desktop/FlankerTaskKBowman.osexp,no,mono,no,18,no,white,no,yes,768,legacy,8,79,/Users/KrisBow/Desktop/KBsubject-0.csv,legacy,Kafkaesque Koffka,3.2.6,0,h,NA,h,h,NA,h,376,NA,1441,33083,NA,376,2,legacy,1024,2,48000,-16,experiment,HHHHH,1,odd,3162,173744,NA,186358,180810,1706,NA,NA,187459,1718,140658,NA,187570,187948,187448,187569,FlankerTaskKBowman,86,41901,89,yes,1024
96.66666667,96.66666667,469.7111111,469.7111111,black,no,legacy,legacy,legacy,0,incongruent,uniform,1,undefined,1,h,0,0,0,89,89,0,89,0,89,0,0,0,89,89,89,89,Sat Sep 21 18:22:48 2019,600,The main experiment item,yes,/Users/KrisBow/Desktop/FlankerTaskKBowman.osexp,no,mono,no,18,no,white,no,yes,768,legacy,9,79,/Users/KrisBow/Desktop/KBsubject-0.csv,legacy,Kafkaesque Koffka,3.2.6,0,h,NA,h,h,NA,h,373,NA,1441,33083,NA,373,2,legacy,1024,2,48000,-16,experiment,SSHSS,1,odd,3162,173744,NA,187961,180810,1706,NA,NA,189060,1718,140658,NA,189171,189546,189050,189171,FlankerTaskKBowman,87,42274,90,yes,1024
95.6043956,95.6043956,468.5384615,468.5384615,black,no,legacy,legacy,legacy,0,congruent,uniform,0,undefined,0,s,0,0,0,90,90,0,90,0,90,0,0,0,90,90,90,90,Sat Sep 21 18:22:48 2019,600,The main experiment item,yes,/Users/KrisBow/Desktop/FlankerTaskKBowman.osexp,no,mono,no,18,no,white,no,yes,768,legacy,10,79,/Users/KrisBow/Desktop/KBsubject-0.csv,legacy,Kafkaesque Koffka,3.2.6,0,h,NA,h,h,NA,h,363,NA,1441,33083,NA,363,2,legacy,1024,2,48000,-16,experiment,SSSSS,1,odd,3162,173744,NA,189559,180810,1706,NA,NA,190660,1718,140658,NA,190770,191135,190649,190770,FlankerTaskKBowman,87,42637,91,yes,1024
95.65217391,95.65217391,469.1413043,469.1413043,black,no,legacy,legacy,legacy,0,incongruent,uniform,1,undefined,1,h,0,0,0,91,91,0,91,0,91,0,0,0,91,91,91,91,Sat Sep 21 18:22:48 2019,600,The main experiment item,yes,/Users/KrisBow/Desktop/FlankerTaskKBowman.osexp,no,mono,no,18,no,white,no,yes,768,legacy,11,79,/Users/KrisBow/Desktop/KBsubject-0.csv,legacy,Kafkaesque Koffka,3.2.6,0,h,NA,h,h,NA,h,524,NA,1441,33083,NA,524,2,legacy,1024,2,48000,-16,experiment,SSHSS,1,odd,3162,173744,NA,191658,191148,1706,NA,NA,192758,1718,140658,NA,192869,193396,192748,192869,FlankerTaskKBowman,88,43161,92,yes,1024
95.69892473,95.69892473,469.1075269,469.1075269,black,no,legacy,legacy,legacy,0,congruent,uniform,1,undefined,1,h,0,0,0,92,92,0,92,0,92,0,0,0,92,92,92,92,Sat Sep 21 18:22:48 2019,600,The main experiment item,yes,/Users/KrisBow/Desktop/FlankerTaskKBowman.osexp,no,mono,no,18,no,white,no,yes,768,legacy,12,79,/Users/KrisBow/Desktop/KBsubject-0.csv,legacy,Kafkaesque Koffka,3.2.6,0,h,NA,h,h,NA,h,466,NA,1441,33083,NA,466,2,legacy,1024,2,48000,-16,experiment,HHHHH,1,odd,3162,173744,NA,193409,191148,1706,NA,NA,194509,1718,140658,NA,194620,195089,194499,194620,FlankerTaskKBowman,89,43627,93,yes,1024
95.74468085,95.74468085,469.7340426,469.7340426,black,no,legacy,legacy,legacy,0,congruent,uniform,1,undefined,1,h,0,0,0,93,93,0,93,0,93,0,0,0,93,93,93,93,Sat Sep 21 18:22:48 2019,600,The main experiment item,yes,/Users/KrisBow/Desktop/FlankerTaskKBowman.osexp,no,mono,no,18,no,white,no,yes,768,legacy,13,79,/Users/KrisBow/Desktop/KBsubject-0.csv,legacy,Kafkaesque Koffka,3.2.6,0,h,NA,h,h,NA,h,528,NA,1441,33083,NA,528,2,legacy,1024,2,48000,-16,experiment,HHHHH,1,odd,3162,173744,NA,195105,191148,1706,NA,NA,196206,1718,140658,NA,196318,196850,196196,196317,FlankerTaskKBowman,90,44155,94,yes,1024
95.78947368,95.78947368,469.5894737,469.5894737,black,no,legacy,legacy,legacy,0,incongruent,uniform,1,undefined,1,s,0,0,0,94,94,0,94,0,94,0,0,0,94,94,94,94,Sat Sep 21 18:22:48 2019,600,The main experiment item,yes,/Users/KrisBow/Desktop/FlankerTaskKBowman.osexp,no,mono,no,18,no,white,no,yes,768,legacy,14,79,/Users/KrisBow/Desktop/KBsubject-0.csv,legacy,Kafkaesque Koffka,3.2.6,0,s,NA,h,h,NA,s,456,NA,1441,33083,NA,456,2,legacy,1024,2,48000,-16,experiment,HHSHH,1,odd,3162,173744,NA,196863,191148,1706,NA,NA,197975,1718,140658,NA,198085,198544,197964,198085,FlankerTaskKBowman,91,44611,95,yes,1024
95.83333333,95.83333333,469.5,469.5,black,no,legacy,legacy,legacy,0,incongruent,uniform,1,undefined,1,s,0,0,0,95,95,0,95,0,95,0,0,0,95,95,95,95,Sat Sep 21 18:22:48 2019,600,The main experiment item,yes,/Users/KrisBow/Desktop/FlankerTaskKBowman.osexp,no,mono,no,18,no,white,no,yes,768,legacy,15,79,/Users/KrisBow/Desktop/KBsubject-0.csv,legacy,Kafkaesque Koffka,3.2.6,0,s,NA,h,h,NA,s,461,NA,1441,33083,NA,461,2,legacy,1024,2,48000,-16,experiment,HHSHH,1,odd,3162,173744,NA,198557,191148,1706,NA,NA,199658,1718,140658,NA,199768,200233,199647,199768,FlankerTaskKBowman,92,45072,96,yes,1024
95.87628866,95.87628866,469.3298969,469.3298969,black,no,legacy,legacy,legacy,0,incongruent,uniform,1,undefined,1,h,0,0,0,96,96,0,96,0,96,0,0,0,96,96,96,96,Sat Sep 21 18:22:48 2019,600,The main experiment item,yes,/Users/KrisBow/Desktop/FlankerTaskKBowman.osexp,no,mono,no,18,no,white,no,yes,768,legacy,16,79,/Users/KrisBow/Desktop/KBsubject-0.csv,legacy,Kafkaesque Koffka,3.2.6,0,h,NA,h,h,NA,h,453,NA,1441,33083,NA,453,2,legacy,1024,2,48000,-16,experiment,SSHSS,1,odd,3162,173744,NA,200245,191148,1706,NA,NA,201345,1718,140658,NA,201456,201913,201335,201455,FlankerTaskKBowman,93,45525,97,yes,1024
95.91836735,95.91836735,469.1938776,469.1938776,black,no,legacy,legacy,legacy,0,congruent,uniform,1,undefined,1,h,0,0,0,97,97,0,97,0,97,0,0,0,97,97,97,97,Sat Sep 21 18:22:48 2019,600,The main experiment item,yes,/Users/KrisBow/Desktop/FlankerTaskKBowman.osexp,no,mono,no,18,no,white,no,yes,768,legacy,17,79,/Users/KrisBow/Desktop/KBsubject-0.csv,legacy,Kafkaesque Koffka,3.2.6,0,h,NA,h,h,NA,h,456,NA,1441,33083,NA,456,2,legacy,1024,2,48000,-16,experiment,HHHHH,1,odd,3162,173744,NA,201926,191148,1706,NA,NA,203026,1718,140658,NA,203137,203596,203016,203137,FlankerTaskKBowman,94,45981,98,yes,1024
95.95959596,95.95959596,469.1919192,469.1919192,black,no,legacy,legacy,legacy,0,congruent,uniform,1,undefined,1,h,0,0,0,98,98,0,98,0,98,0,0,0,98,98,98,98,Sat Sep 21 18:22:48 2019,600,The main experiment item,yes,/Users/KrisBow/Desktop/FlankerTaskKBowman.osexp,no,mono,no,18,no,white,no,yes,768,legacy,18,79,/Users/KrisBow/Desktop/KBsubject-0.csv,legacy,Kafkaesque Koffka,3.2.6,0,h,NA,h,h,NA,h,469,NA,1441,33083,NA,469,2,legacy,1024,2,48000,-16,experiment,HHHHH,1,odd,3162,173744,NA,203609,191148,1706,NA,NA,204711,1718,140658,NA,204822,205294,204700,204821,FlankerTaskKBowman,95,46450,99,yes,1024
96,96,468.52,468.52,black,no,legacy,legacy,legacy,0,congruent,uniform,1,undefined,1,s,0,0,0,99,99,0,99,0,99,0,0,0,99,99,99,99,Sat Sep 21 18:22:48 2019,600,The main experiment item,yes,/Users/KrisBow/Desktop/FlankerTaskKBowman.osexp,no,mono,no,18,no,white,no,yes,768,legacy,19,79,/Users/KrisBow/Desktop/KBsubject-0.csv,legacy,Kafkaesque Koffka,3.2.6,0,s,NA,h,h,NA,s,402,NA,1441,33083,NA,402,2,legacy,1024,2,48000,-16,experiment,SSSSS,1,odd,3162,173744,NA,205307,191148,1706,NA,NA,206408,1718,140658,NA,206518,206923,206398,206518,FlankerTaskKBowman,96,46852,100,yes,1024
96.03960396,96.03960396,468.6534653,468.6534653,black,no,legacy,legacy,legacy,0,congruent,uniform,1,undefined,1,h,0,0,0,100,100,0,100,0,100,0,0,0,100,100,100,100,Sat Sep 21 18:22:48 2019,600,The main experiment item,yes,/Users/KrisBow/Desktop/FlankerTaskKBowman.osexp,no,mono,no,18,no,white,no,yes,768,legacy,20,79,/Users/KrisBow/Desktop/KBsubject-0.csv,legacy,Kafkaesque Koffka,3.2.6,0,h,NA,h,h,NA,h,482,NA,1441,33083,NA,482,2,legacy,1024,2,48000,-16,experiment,HHHHH,1,odd,3162,173744,NA,206936,191148,1706,NA,NA,208036,1718,140658,NA,208146,208631,208025,208146,FlankerTaskKBowman,97,47334,101,yes,1024
95.09803922,95.09803922,468.0098039,468.0098039,black,no,legacy,legacy,legacy,0,incongruent,uniform,0,undefined,0,h,0,0,0,101,101,0,101,0,101,0,0,0,101,101,101,101,Sat Sep 21 18:22:48 2019,600,The main experiment item,yes,/Users/KrisBow/Desktop/FlankerTaskKBowman.osexp,no,mono,no,18,no,white,no,yes,768,legacy,21,79,/Users/KrisBow/Desktop/KBsubject-0.csv,legacy,Kafkaesque Koffka,3.2.6,0,s,NA,h,h,NA,s,403,NA,1441,33083,NA,403,2,legacy,1024,2,48000,-16,experiment,SSHSS,1,odd,3162,173744,NA,208644,191148,1706,NA,NA,209744,1718,140658,NA,209855,210261,209733,209854,FlankerTaskKBowman,97,47737,102,yes,1024
95.14563107,95.14563107,468.1553398,468.1553398,black,no,legacy,legacy,legacy,0,incongruent,uniform,1,undefined,1,h,0,0,0,102,102,0,102,0,102,0,0,0,102,102,102,102,Sat Sep 21 18:22:48 2019,600,The main experiment item,yes,/Users/KrisBow/Desktop/FlankerTaskKBowman.osexp,no,mono,no,18,no,white,no,yes,768,legacy,22,79,/Users/KrisBow/Desktop/KBsubject-0.csv,legacy,Kafkaesque Koffka,3.2.6,0,h,NA,h,h,NA,h,483,NA,1441,33083,NA,483,2,legacy,1024,2,48000,-16,experiment,SSHSS,1,odd,3162,173744,NA,210784,210274,1706,NA,NA,211885,1718,140658,NA,211997,212483,211875,211996,FlankerTaskKBowman,98,48220,103,yes,1024
95.19230769,95.19230769,468.4903846,468.4903846,black,no,legacy,legacy,legacy,0,congruent,uniform,1,undefined,1,s,0,0,0,103,103,0,103,0,103,0,0,0,103,103,103,103,Sat Sep 21 18:22:48 2019,600,The main experiment item,yes,/Users/KrisBow/Desktop/FlankerTaskKBowman.osexp,no,mono,no,18,no,white,no,yes,768,legacy,23,79,/Users/KrisBow/Desktop/KBsubject-0.csv,legacy,Kafkaesque Koffka,3.2.6,0,s,NA,h,h,NA,s,503,NA,1441,33083,NA,503,2,legacy,1024,2,48000,-16,experiment,SSSSS,1,odd,3162,173744,NA,212496,210274,1706,NA,NA,213595,1718,140658,NA,213706,214212,213585,213706,FlankerTaskKBowman,99,48723,104,yes,1024
95.23809524,95.23809524,468.1714286,468.1714286,black,no,legacy,legacy,legacy,0,incongruent,uniform,1,undefined,1,h,0,0,0,104,104,0,104,0,104,0,0,0,104,104,104,104,Sat Sep 21 18:22:48 2019,600,The main experiment item,yes,/Users/KrisBow/Desktop/FlankerTaskKBowman.osexp,no,mono,no,18,no,white,no,yes,768,legacy,24,79,/Users/KrisBow/Desktop/KBsubject-0.csv,legacy,Kafkaesque Koffka,3.2.6,0,h,NA,h,h,NA,h,435,NA,1441,33083,NA,435,2,legacy,1024,2,48000,-16,experiment,SSHSS,1,odd,3162,173744,NA,214224,210274,1706,NA,NA,215325,1718,140658,NA,215435,215874,215315,215435,FlankerTaskKBowman,100,49158,105,yes,1024
95.28301887,95.28301887,468.8773585,468.8773585,black,no,legacy,legacy,legacy,0,incongruent,uniform,1,undefined,1,h,0,0,0,105,105,0,105,0,105,0,0,0,105,105,105,105,Sat Sep 21 18:22:48 2019,600,The main experiment item,yes,/Users/KrisBow/Desktop/FlankerTaskKBowman.osexp,no,mono,no,18,no,white,no,yes,768,legacy,25,79,/Users/KrisBow/Desktop/KBsubject-0.csv,legacy,Kafkaesque Koffka,3.2.6,0,h,NA,h,h,NA,h,543,NA,1441,33083,NA,543,2,legacy,1024,2,48000,-16,experiment,SSHSS,1,odd,3162,173744,NA,215886,210274,1706,NA,NA,216988,1718,140658,NA,217098,217644,216978,217098,FlankerTaskKBowman,101,49701,106,yes,1024
95.3271028,95.3271028,469.3738318,469.3738318,black,no,legacy,legacy,legacy,0,incongruent,uniform,1,undefined,1,h,0,0,0,106,106,0,106,0,106,0,0,0,106,106,106,106,Sat Sep 21 18:22:48 2019,600,The main experiment item,yes,/Users/KrisBow/Desktop/FlankerTaskKBowman.osexp,no,mono,no,18,no,white,no,yes,768,legacy,26,79,/Users/KrisBow/Desktop/KBsubject-0.csv,legacy,Kafkaesque Koffka,3.2.6,0,h,NA,h,h,NA,h,522,NA,1441,33083,NA,522,2,legacy,1024,2,48000,-16,experiment,SSHSS,1,odd,3162,173744,NA,217656,210274,1706,NA,NA,218758,1718,140658,NA,218870,219395,218748,218870,FlankerTaskKBowman,102,50223,107,yes,1024
95.37037037,95.37037037,469.6574074,469.6574074,black,no,legacy,legacy,legacy,0,incongruent,uniform,1,undefined,1,s,0,0,0,107,107,0,107,0,107,0,0,0,107,107,107,107,Sat Sep 21 18:22:48 2019,600,The main experiment item,yes,/Users/KrisBow/Desktop/FlankerTaskKBowman.osexp,no,mono,no,18,no,white,no,yes,768,legacy,27,79,/Users/KrisBow/Desktop/KBsubject-0.csv,legacy,Kafkaesque Koffka,3.2.6,0,s,NA,h,h,NA,s,500,NA,1441,33083,NA,500,2,legacy,1024,2,48000,-16,experiment,HHSHH,1,odd,3162,173744,NA,219408,210274,1706,NA,NA,220509,1718,140658,NA,220619,221122,220498,220619,FlankerTaskKBowman,103,50723,108,yes,1024
95.41284404,95.41284404,469.559633,469.559633,black,no,legacy,legacy,legacy,0,congruent,uniform,1,undefined,1,s,0,0,0,108,108,0,108,0,108,0,0,0,108,108,108,108,Sat Sep 21 18:22:48 2019,600,The main experiment item,yes,/Users/KrisBow/Desktop/FlankerTaskKBowman.osexp,no,mono,no,18,no,white,no,yes,768,legacy,28,79,/Users/KrisBow/Desktop/KBsubject-0.csv,legacy,Kafkaesque Koffka,3.2.6,0,s,NA,h,h,NA,s,459,NA,1441,33083,NA,459,2,legacy,1024,2,48000,-16,experiment,SSSSS,1,odd,3162,173744,NA,221134,210274,1706,NA,NA,222236,1718,140658,NA,222347,222809,222226,222347,FlankerTaskKBowman,104,51182,109,yes,1024
95.45454545,95.45454545,469.3727273,469.3727273,black,no,legacy,legacy,legacy,0,incongruent,uniform,1,undefined,1,h,0,0,0,109,109,0,109,0,109,0,0,0,109,109,109,109,Sat Sep 21 18:22:48 2019,600,The main experiment item,yes,/Users/KrisBow/Desktop/FlankerTaskKBowman.osexp,no,mono,no,18,no,white,no,yes,768,legacy,29,79,/Users/KrisBow/Desktop/KBsubject-0.csv,legacy,Kafkaesque Koffka,3.2.6,0,h,NA,h,h,NA,h,449,NA,1441,33083,NA,449,2,legacy,1024,2,48000,-16,experiment,SSHSS,1,odd,3162,173744,NA,222821,210274,1706,NA,NA,223922,1718,140658,NA,224032,224484,223912,224032,FlankerTaskKBowman,105,51631,110,yes,1024
95.4954955,95.4954955,469.0900901,469.0900901,black,no,legacy,legacy,legacy,0,congruent,uniform,1,undefined,1,s,0,0,0,110,110,0,110,0,110,0,0,0,110,110,110,110,Sat Sep 21 18:22:48 2019,600,The main experiment item,yes,/Users/KrisBow/Desktop/FlankerTaskKBowman.osexp,no,mono,no,18,no,white,no,yes,768,legacy,30,79,/Users/KrisBow/Desktop/KBsubject-0.csv,legacy,Kafkaesque Koffka,3.2.6,0,s,NA,h,h,NA,s,438,NA,1441,33083,NA,438,2,legacy,1024,2,48000,-16,experiment,SSSSS,1,odd,3162,173744,NA,224499,210274,1706,NA,NA,225598,1718,140658,NA,225709,226150,225588,225708,FlankerTaskKBowman,106,52069,111,yes,1024
95.53571429,95.53571429,469.4821429,469.4821429,black,no,legacy,legacy,legacy,0,incongruent,uniform,1,undefined,1,s,0,0,0,111,111,0,111,0,111,0,0,0,111,111,111,111,Sat Sep 21 18:22:48 2019,600,The main experiment item,yes,/Users/KrisBow/Desktop/FlankerTaskKBowman.osexp,no,mono,no,18,no,white,no,yes,768,legacy,31,79,/Users/KrisBow/Desktop/KBsubject-0.csv,legacy,Kafkaesque Koffka,3.2.6,0,s,NA,h,h,NA,s,513,NA,1441,33083,NA,513,2,legacy,1024,2,48000,-16,experiment,HHSHH,1,odd,3162,173744,NA,226162,210274,1706,NA,NA,227263,1718,140658,NA,227374,227890,227253,227373,FlankerTaskKBowman,107,52582,112,yes,1024
95.57522124,95.57522124,470.2123894,470.2123894,black,no,legacy,legacy,legacy,0,incongruent,uniform,1,undefined,1,s,0,0,0,112,112,0,112,0,112,0,0,0,112,112,112,112,Sat Sep 21 18:22:48 2019,600,The main experiment item,yes,/Users/KrisBow/Desktop/FlankerTaskKBowman.osexp,no,mono,no,18,no,white,no,yes,768,legacy,32,79,/Users/KrisBow/Desktop/KBsubject-0.csv,legacy,Kafkaesque Koffka,3.2.6,0,s,NA,h,h,NA,s,552,NA,1441,33083,NA,552,2,legacy,1024,2,48000,-16,experiment,HHSHH,1,odd,3162,173744,NA,227903,210274,1706,NA,NA,229003,1718,140658,NA,229114,229669,228993,229113,FlankerTaskKBowman,108,53134,113,yes,1024
95.61403509,95.61403509,470.5789474,470.5789474,black,no,legacy,legacy,legacy,0,incongruent,uniform,1,undefined,1,s,0,0,0,113,113,0,113,0,113,0,0,0,113,113,113,113,Sat Sep 21 18:22:48 2019,600,The main experiment item,yes,/Users/KrisBow/Desktop/FlankerTaskKBowman.osexp,no,mono,no,18,no,white,no,yes,768,legacy,33,79,/Users/KrisBow/Desktop/KBsubject-0.csv,legacy,Kafkaesque Koffka,3.2.6,0,s,NA,h,h,NA,s,512,NA,1441,33083,NA,512,2,legacy,1024,2,48000,-16,experiment,HHSHH,1,odd,3162,173744,NA,229681,210274,1706,NA,NA,230790,1718,140658,NA,230902,231417,230780,230901,FlankerTaskKBowman,109,53646,114,yes,1024
95.65217391,95.65217391,470.3130435,470.3130435,black,no,legacy,legacy,legacy,0,incongruent,uniform,1,undefined,1,h,0,0,0,114,114,0,114,0,114,0,0,0,114,114,114,114,Sat Sep 21 18:22:48 2019,600,The main experiment item,yes,/Users/KrisBow/Desktop/FlankerTaskKBowman.osexp,no,mono,no,18,no,white,no,yes,768,legacy,34,79,/Users/KrisBow/Desktop/KBsubject-0.csv,legacy,Kafkaesque Koffka,3.2.6,0,h,NA,h,h,NA,h,440,NA,1441,33083,NA,440,2,legacy,1024,2,48000,-16,experiment,SSHSS,1,odd,3162,173744,NA,231430,210274,1706,NA,NA,232531,1718,140658,NA,232641,233084,232520,232641,FlankerTaskKBowman,110,54086,115,yes,1024
95.68965517,95.68965517,471.2672414,471.2672414,black,no,legacy,legacy,legacy,0,incongruent,uniform,1,undefined,1,h,0,0,0,115,115,0,115,0,115,0,0,0,115,115,115,115,Sat Sep 21 18:22:48 2019,600,The main experiment item,yes,/Users/KrisBow/Desktop/FlankerTaskKBowman.osexp,no,mono,no,18,no,white,no,yes,768,legacy,35,79,/Users/KrisBow/Desktop/KBsubject-0.csv,legacy,Kafkaesque Koffka,3.2.6,0,h,NA,h,h,NA,h,581,NA,1441,33083,NA,581,2,legacy,1024,2,48000,-16,experiment,SSHSS,1,odd,3162,173744,NA,233096,210274,1706,NA,NA,234197,1718,140658,NA,234308,234892,234186,234307,FlankerTaskKBowman,111,54667,116,yes,1024
95.72649573,95.72649573,471.2478632,471.2478632,black,no,legacy,legacy,legacy,0,congruent,uniform,1,undefined,1,h,0,0,0,116,116,0,116,0,116,0,0,0,116,116,116,116,Sat Sep 21 18:22:48 2019,600,The main experiment item,yes,/Users/KrisBow/Desktop/FlankerTaskKBowman.osexp,no,mono,no,18,no,white,no,yes,768,legacy,36,79,/Users/KrisBow/Desktop/KBsubject-0.csv,legacy,Kafkaesque Koffka,3.2.6,0,h,NA,h,h,NA,h,469,NA,1441,33083,NA,469,2,legacy,1024,2,48000,-16,experiment,HHHHH,1,odd,3162,173744,NA,234905,210274,1706,NA,NA,236005,1718,140658,NA,236116,236588,235996,236116,FlankerTaskKBowman,112,55136,117,yes,1024
95.76271186,95.76271186,471.3644068,471.3644068,black,no,legacy,legacy,legacy,0,incongruent,uniform,1,undefined,1,h,0,0,0,117,117,0,117,0,117,0,0,0,117,117,117,117,Sat Sep 21 18:22:48 2019,600,The main experiment item,yes,/Users/KrisBow/Desktop/FlankerTaskKBowman.osexp,no,mono,no,18,no,white,no,yes,768,legacy,37,79,/Users/KrisBow/Desktop/KBsubject-0.csv,legacy,Kafkaesque Koffka,3.2.6,0,h,NA,h,h,NA,h,485,NA,1441,33083,NA,485,2,legacy,1024,2,48000,-16,experiment,SSHSS,1,odd,3162,173744,NA,236600,210274,1706,NA,NA,237700,1718,140658,NA,237810,238298,237690,237810,FlankerTaskKBowman,113,55621,118,yes,1024
95.79831933,95.79831933,472.0252101,472.0252101,black,no,legacy,legacy,legacy,0,incongruent,uniform,1,undefined,1,h,0,0,0,118,118,0,118,0,118,0,0,0,118,118,118,118,Sat Sep 21 18:22:48 2019,600,The main experiment item,yes,/Users/KrisBow/Desktop/FlankerTaskKBowman.osexp,no,mono,no,18,no,white,no,yes,768,legacy,38,79,/Users/KrisBow/Desktop/KBsubject-0.csv,legacy,Kafkaesque Koffka,3.2.6,0,h,NA,h,h,NA,h,550,NA,1441,33083,NA,550,2,legacy,1024,2,48000,-16,experiment,SSHSS,1,odd,3162,173744,NA,238311,210274,1706,NA,NA,239411,1718,140658,NA,239523,240076,239401,239522,FlankerTaskKBowman,114,56171,119,yes,1024
95.83333333,95.83333333,471.9083333,471.9083333,black,no,legacy,legacy,legacy,0,congruent,uniform,1,undefined,1,s,0,0,0,119,119,0,119,0,119,0,0,0,119,119,119,119,Sat Sep 21 18:22:48 2019,600,The main experiment item,yes,/Users/KrisBow/Desktop/FlankerTaskKBowman.osexp,no,mono,no,18,no,white,no,yes,768,legacy,39,79,/Users/KrisBow/Desktop/KBsubject-0.csv,legacy,Kafkaesque Koffka,3.2.6,0,s,NA,h,h,NA,s,458,NA,1441,33083,NA,458,2,legacy,1024,2,48000,-16,experiment,SSSSS,1,odd,3162,173744,NA,240089,210274,1706,NA,NA,241190,1718,140658,NA,241300,241761,241178,241300,FlankerTaskKBowman,115,56629,120,yes,1024
95.8677686,95.8677686,471.9256198,471.9256198,black,no,legacy,legacy,legacy,0,incongruent,uniform,1,undefined,1,h,0,0,0,120,120,0,120,0,120,0,0,0,120,120,120,120,Sat Sep 21 18:22:48 2019,600,The main experiment item,yes,/Users/KrisBow/Desktop/FlankerTaskKBowman.osexp,no,mono,no,18,no,white,no,yes,768,legacy,40,79,/Users/KrisBow/Desktop/KBsubject-0.csv,legacy,Kafkaesque Koffka,3.2.6,0,h,NA,h,h,NA,h,474,NA,1441,33083,NA,474,2,legacy,1024,2,48000,-16,experiment,SSHSS,1,odd,3162,173744,NA,241774,210274,1706,NA,NA,242874,1718,140658,NA,242984,243461,242864,242984,FlankerTaskKBowman,116,57103,121,yes,1024
95.90163934,95.90163934,472.8114754,472.8114754,black,no,legacy,legacy,legacy,0,incongruent,uniform,1,undefined,1,h,0,0,0,121,121,0,121,0,121,0,0,0,121,121,121,121,Sat Sep 21 18:22:48 2019,600,The main experiment item,yes,/Users/KrisBow/Desktop/FlankerTaskKBowman.osexp,no,mono,no,18,no,white,no,yes,768,legacy,41,79,/Users/KrisBow/Desktop/KBsubject-0.csv,legacy,Kafkaesque Koffka,3.2.6,0,h,NA,h,h,NA,h,580,NA,1441,33083,NA,580,2,legacy,1024,2,48000,-16,experiment,SSHSS,1,odd,3162,173744,NA,243474,210274,1706,NA,NA,244576,1718,140658,NA,244686,245270,244566,244686,FlankerTaskKBowman,117,57683,122,yes,1024
95.93495935,95.93495935,472.3252033,472.3252033,black,no,legacy,legacy,legacy,0,congruent,uniform,1,undefined,1,h,0,0,0,122,122,0,122,0,122,0,0,0,122,122,122,122,Sat Sep 21 18:22:48 2019,600,The main experiment item,yes,/Users/KrisBow/Desktop/FlankerTaskKBowman.osexp,no,mono,no,18,no,white,no,yes,768,legacy,42,79,/Users/KrisBow/Desktop/KBsubject-0.csv,legacy,Kafkaesque Koffka,3.2.6,0,h,NA,h,h,NA,h,413,NA,1441,33083,NA,413,2,legacy,1024,2,48000,-16,experiment,HHHHH,1,odd,3162,173744,NA,245282,210274,1706,NA,NA,246384,1718,140658,NA,246494,246910,246373,246494,FlankerTaskKBowman,118,58096,123,yes,1024
95.96774194,95.96774194,471.4516129,471.4516129,black,no,legacy,legacy,legacy,0,congruent,uniform,1,undefined,1,h,0,0,0,123,123,0,123,0,123,0,0,0,123,123,123,123,Sat Sep 21 18:22:48 2019,600,The main experiment item,yes,/Users/KrisBow/Desktop/FlankerTaskKBowman.osexp,no,mono,no,18,no,white,no,yes,768,legacy,43,79,/Users/KrisBow/Desktop/KBsubject-0.csv,legacy,Kafkaesque Koffka,3.2.6,0,h,NA,h,h,NA,h,364,NA,1441,33083,NA,364,2,legacy,1024,2,48000,-16,experiment,HHHHH,1,odd,3162,173744,NA,246923,210274,1706,NA,NA,248023,1718,140658,NA,248134,248501,248012,248133,FlankerTaskKBowman,119,58460,124,yes,1024
96,96,472.344,472.344,black,no,legacy,legacy,legacy,0,incongruent,uniform,1,undefined,1,h,0,0,0,124,124,0,124,0,124,0,0,0,124,124,124,124,Sat Sep 21 18:22:48 2019,600,The main experiment item,yes,/Users/KrisBow/Desktop/FlankerTaskKBowman.osexp,no,mono,no,18,no,white,no,yes,768,legacy,44,79,/Users/KrisBow/Desktop/KBsubject-0.csv,legacy,Kafkaesque Koffka,3.2.6,0,h,NA,h,h,NA,h,583,NA,1441,33083,NA,583,2,legacy,1024,2,48000,-16,experiment,SSHSS,1,odd,3162,173744,NA,248514,210274,1706,NA,NA,249615,1718,140658,NA,249726,250312,249604,249726,FlankerTaskKBowman,120,59043,125,yes,1024
96.03174603,96.03174603,472.0714286,472.0714286,black,no,legacy,legacy,legacy,0,incongruent,uniform,1,undefined,1,s,0,0,0,125,125,0,125,0,125,0,0,0,125,125,125,125,Sat Sep 21 18:22:48 2019,600,The main experiment item,yes,/Users/KrisBow/Desktop/FlankerTaskKBowman.osexp,no,mono,no,18,no,white,no,yes,768,legacy,45,79,/Users/KrisBow/Desktop/KBsubject-0.csv,legacy,Kafkaesque Koffka,3.2.6,0,s,NA,h,h,NA,s,438,NA,1441,33083,NA,438,2,legacy,1024,2,48000,-16,experiment,HHSHH,1,odd,3162,173744,NA,250325,210274,1706,NA,NA,251426,1718,140658,NA,251537,251979,251416,251537,FlankerTaskKBowman,121,59481,126,yes,1024
96.06299213,96.06299213,471.2204724,471.2204724,black,no,legacy,legacy,legacy,0,congruent,uniform,1,undefined,1,s,0,0,0,126,126,0,126,0,126,0,0,0,126,126,126,126,Sat Sep 21 18:22:48 2019,600,The main experiment item,yes,/Users/KrisBow/Desktop/FlankerTaskKBowman.osexp,no,mono,no,18,no,white,no,yes,768,legacy,46,79,/Users/KrisBow/Desktop/KBsubject-0.csv,legacy,Kafkaesque Koffka,3.2.6,0,s,NA,h,h,NA,s,364,NA,1441,33083,NA,364,2,legacy,1024,2,48000,-16,experiment,SSSSS,1,odd,3162,173744,NA,251992,210274,1706,NA,NA,253091,1718,140658,NA,253202,253569,253081,253202,FlankerTaskKBowman,122,59845,127,yes,1024
96.09375,96.09375,471.3359375,471.3359375,black,no,legacy,legacy,legacy,0,congruent,uniform,1,undefined,1,h,0,0,0,127,127,0,127,0,127,0,0,0,127,127,127,127,Sat Sep 21 18:22:48 2019,600,The main experiment item,yes,/Users/KrisBow/Desktop/FlankerTaskKBowman.osexp,no,mono,no,18,no,white,no,yes,768,legacy,47,79,/Users/KrisBow/Desktop/KBsubject-0.csv,legacy,Kafkaesque Koffka,3.2.6,0,h,NA,h,h,NA,h,486,NA,1441,33083,NA,486,2,legacy,1024,2,48000,-16,experiment,HHHHH,1,odd,3162,173744,NA,253582,210274,1706,NA,NA,254682,1718,140658,NA,254793,255282,254672,254793,FlankerTaskKBowman,123,60331,128,yes,1024
96.12403101,96.12403101,471.2945736,471.2945736,black,no,legacy,legacy,legacy,0,congruent,uniform,1,undefined,1,s,0,0,0,128,128,0,128,0,128,0,0,0,128,128,128,128,Sat Sep 21 18:22:48 2019,600,The main experiment item,yes,/Users/KrisBow/Desktop/FlankerTaskKBowman.osexp,no,mono,no,18,no,white,no,yes,768,legacy,48,79,/Users/KrisBow/Desktop/KBsubject-0.csv,legacy,Kafkaesque Koffka,3.2.6,0,s,NA,h,h,NA,s,466,NA,1441,33083,NA,466,2,legacy,1024,2,48000,-16,experiment,SSSSS,1,odd,3162,173744,NA,255298,210274,1706,NA,NA,256398,1718,140658,NA,256508,256977,256388,256508,FlankerTaskKBowman,124,60797,129,yes,1024
96.15384615,96.15384615,470.9923077,470.9923077,black,no,legacy,legacy,legacy,0,incongruent,uniform,1,undefined,1,s,0,0,0,129,129,0,129,0,129,0,0,0,129,129,129,129,Sat Sep 21 18:22:48 2019,600,The main experiment item,yes,/Users/KrisBow/Desktop/FlankerTaskKBowman.osexp,no,mono,no,18,no,white,no,yes,768,legacy,49,79,/Users/KrisBow/Desktop/KBsubject-0.csv,legacy,Kafkaesque Koffka,3.2.6,0,s,NA,h,h,NA,s,432,NA,1441,33083,NA,432,2,legacy,1024,2,48000,-16,experiment,HHSHH,1,odd,3162,173744,NA,256989,210274,1706,NA,NA,258090,1718,140658,NA,258200,258635,258080,258200,FlankerTaskKBowman,125,61229,130,yes,1024
96.18320611,96.18320611,471.221374,471.221374,black,no,legacy,legacy,legacy,0,congruent,uniform,1,undefined,1,h,0,0,0,130,130,0,130,0,130,0,0,0,130,130,130,130,Sat Sep 21 18:22:48 2019,600,The main experiment item,yes,/Users/KrisBow/Desktop/FlankerTaskKBowman.osexp,no,mono,no,18,no,white,no,yes,768,legacy,50,79,/Users/KrisBow/Desktop/KBsubject-0.csv,legacy,Kafkaesque Koffka,3.2.6,0,h,NA,h,h,NA,h,501,NA,1441,33083,NA,501,2,legacy,1024,2,48000,-16,experiment,HHHHH,1,odd,3162,173744,NA,258648,210274,1706,NA,NA,259748,1718,140658,NA,259859,260364,259738,259858,FlankerTaskKBowman,126,61730,131,yes,1024
96.21212121,96.21212121,471.4166667,471.4166667,black,no,legacy,legacy,legacy,0,congruent,uniform,1,undefined,1,h,0,0,0,131,131,0,131,0,131,0,0,0,131,131,131,131,Sat Sep 21 18:22:48 2019,600,The main experiment item,yes,/Users/KrisBow/Desktop/FlankerTaskKBowman.osexp,no,mono,no,18,no,white,no,yes,768,legacy,51,79,/Users/KrisBow/Desktop/KBsubject-0.csv,legacy,Kafkaesque Koffka,3.2.6,0,h,NA,h,h,NA,h,497,NA,1441,33083,NA,497,2,legacy,1024,2,48000,-16,experiment,HHHHH,1,odd,3162,173744,NA,260376,210274,1706,NA,NA,261479,1718,140658,NA,261590,262090,261469,261590,FlankerTaskKBowman,127,62227,132,yes,1024
96.2406015,96.2406015,471.9699248,471.9699248,black,no,legacy,legacy,legacy,0,incongruent,uniform,1,undefined,1,s,0,0,0,132,132,0,132,0,132,0,0,0,132,132,132,132,Sat Sep 21 18:22:48 2019,600,The main experiment item,yes,/Users/KrisBow/Desktop/FlankerTaskKBowman.osexp,no,mono,no,18,no,white,no,yes,768,legacy,52,79,/Users/KrisBow/Desktop/KBsubject-0.csv,legacy,Kafkaesque Koffka,3.2.6,0,s,NA,h,h,NA,s,545,NA,1441,33083,NA,545,2,legacy,1024,2,48000,-16,experiment,HHSHH,1,odd,3162,173744,NA,262103,210274,1706,NA,NA,263206,1718,140658,NA,263316,263865,263196,263316,FlankerTaskKBowman,128,62772,133,yes,1024
96.26865672,96.26865672,472.0373134,472.0373134,black,no,legacy,legacy,legacy,0,congruent,uniform,1,undefined,1,s,0,0,0,133,133,0,133,0,133,0,0,0,133,133,133,133,Sat Sep 21 18:22:48 2019,600,The main experiment item,yes,/Users/KrisBow/Desktop/FlankerTaskKBowman.osexp,no,mono,no,18,no,white,no,yes,768,legacy,53,79,/Users/KrisBow/Desktop/KBsubject-0.csv,legacy,Kafkaesque Koffka,3.2.6,0,s,NA,h,h,NA,s,481,NA,1441,33083,NA,481,2,legacy,1024,2,48000,-16,experiment,SSSSS,1,odd,3162,173744,NA,263877,210274,1706,NA,NA,264978,1718,140658,NA,265089,265573,264968,265088,FlankerTaskKBowman,129,63253,134,yes,1024
96.2962963,96.2962963,471.8,471.8,black,no,legacy,legacy,legacy,0,congruent,uniform,1,undefined,1,s,0,0,0,134,134,0,134,0,134,0,0,0,134,134,134,134,Sat Sep 21 18:22:48 2019,600,The main experiment item,yes,/Users/KrisBow/Desktop/FlankerTaskKBowman.osexp,no,mono,no,18,no,white,no,yes,768,legacy,54,79,/Users/KrisBow/Desktop/KBsubject-0.csv,legacy,Kafkaesque Koffka,3.2.6,0,s,NA,h,h,NA,s,440,NA,1441,33083,NA,440,2,legacy,1024,2,48000,-16,experiment,SSSSS,1,odd,3162,173744,NA,265586,210274,1706,NA,NA,266690,1718,140658,NA,266800,267243,266679,266800,FlankerTaskKBowman,130,63693,135,yes,1024
96.32352941,96.32352941,471.6911765,471.6911765,black,no,legacy,legacy,legacy,0,congruent,uniform,1,undefined,1,s,0,0,0,135,135,0,135,0,135,0,0,0,135,135,135,135,Sat Sep 21 18:22:48 2019,600,The main experiment item,yes,/Users/KrisBow/Desktop/FlankerTaskKBowman.osexp,no,mono,no,18,no,white,no,yes,768,legacy,55,79,/Users/KrisBow/Desktop/KBsubject-0.csv,legacy,Kafkaesque Koffka,3.2.6,0,s,NA,h,h,NA,s,457,NA,1441,33083,NA,457,2,legacy,1024,2,48000,-16,experiment,SSSSS,1,odd,3162,173744,NA,267255,210274,1706,NA,NA,268354,1718,140658,NA,268466,268926,268344,268466,FlankerTaskKBowman,131,64150,136,yes,1024
96.35036496,96.35036496,471.5620438,471.5620438,black,no,legacy,legacy,legacy,0,congruent,uniform,1,undefined,1,h,0,0,0,136,136,0,136,0,136,0,0,0,136,136,136,136,Sat Sep 21 18:22:48 2019,600,The main experiment item,yes,/Users/KrisBow/Desktop/FlankerTaskKBowman.osexp,no,mono,no,18,no,white,no,yes,768,legacy,56,79,/Users/KrisBow/Desktop/KBsubject-0.csv,legacy,Kafkaesque Koffka,3.2.6,0,h,NA,h,h,NA,h,454,NA,1441,33083,NA,454,2,legacy,1024,2,48000,-16,experiment,HHHHH,1,odd,3162,173744,NA,268939,210274,1706,NA,NA,270039,1718,140658,NA,270149,270606,270028,270149,FlankerTaskKBowman,132,64604,137,yes,1024
96.37681159,96.37681159,474.8913043,474.8913043,black,no,legacy,legacy,legacy,0,congruent,uniform,1,undefined,1,h,0,0,0,137,137,0,137,0,137,0,0,0,137,137,137,137,Sat Sep 21 18:22:48 2019,600,The main experiment item,yes,/Users/KrisBow/Desktop/FlankerTaskKBowman.osexp,no,mono,no,18,no,white,no,yes,768,legacy,57,79,/Users/KrisBow/Desktop/KBsubject-0.csv,legacy,Kafkaesque Koffka,3.2.6,0,h,NA,h,h,NA,h,931,NA,1441,33083,NA,931,2,legacy,1024,2,48000,-16,experiment,HHHHH,1,odd,3162,173744,NA,270619,210274,1706,NA,NA,271719,1718,140658,NA,271830,272764,271709,271829,FlankerTaskKBowman,133,65535,138,yes,1024
96.4028777,96.4028777,474.4028777,474.4028777,black,no,legacy,legacy,legacy,0,congruent,uniform,1,undefined,1,s,0,0,0,138,138,0,138,0,138,0,0,0,138,138,138,138,Sat Sep 21 18:22:48 2019,600,The main experiment item,yes,/Users/KrisBow/Desktop/FlankerTaskKBowman.osexp,no,mono,no,18,no,white,no,yes,768,legacy,58,79,/Users/KrisBow/Desktop/KBsubject-0.csv,legacy,Kafkaesque Koffka,3.2.6,0,s,NA,h,h,NA,s,407,NA,1441,33083,NA,407,2,legacy,1024,2,48000,-16,experiment,SSSSS,1,odd,3162,173744,NA,273287,210274,1706,272777,NA,274386,1718,140658,NA,274497,274908,274377,274497,FlankerTaskKBowman,134,65942,139,yes,1024
96.42857143,96.42857143,474.5285714,474.5285714,black,no,legacy,legacy,legacy,0,incongruent,uniform,1,undefined,1,s,0,0,0,139,139,0,139,0,139,0,0,0,139,139,139,139,Sat Sep 21 18:22:48 2019,600,The main experiment item,yes,/Users/KrisBow/Desktop/FlankerTaskKBowman.osexp,no,mono,no,18,no,white,no,yes,768,legacy,59,79,/Users/KrisBow/Desktop/KBsubject-0.csv,legacy,Kafkaesque Koffka,3.2.6,0,s,NA,h,h,NA,s,492,NA,1441,33083,NA,492,2,legacy,1024,2,48000,-16,experiment,HHSHH,1,odd,3162,173744,NA,274921,210274,1706,272777,NA,276020,1718,140658,NA,276131,276626,276010,276130,FlankerTaskKBowman,135,66434,140,yes,1024
96.45390071,96.45390071,473.9858156,473.9858156,black,no,legacy,legacy,legacy,0,congruent,uniform,1,undefined,1,s,0,0,0,140,140,0,140,0,140,0,0,0,140,140,140,140,Sat Sep 21 18:22:48 2019,600,The main experiment item,yes,/Users/KrisBow/Desktop/FlankerTaskKBowman.osexp,no,mono,no,18,no,white,no,yes,768,legacy,60,79,/Users/KrisBow/Desktop/KBsubject-0.csv,legacy,Kafkaesque Koffka,3.2.6,0,s,NA,h,h,NA,s,398,NA,1441,33083,NA,398,2,legacy,1024,2,48000,-16,experiment,SSSSS,1,odd,3162,173744,NA,276638,210274,1706,272777,NA,277738,1718,140658,NA,277848,278250,277727,277848,FlankerTaskKBowman,136,66832,141,yes,1024
95.77464789,95.77464789,473.971831,473.971831,black,no,legacy,legacy,legacy,0,incongruent,uniform,0,undefined,0,s,0,0,0,141,141,0,141,0,141,0,0,0,141,141,141,141,Sat Sep 21 18:22:48 2019,600,The main experiment item,yes,/Users/KrisBow/Desktop/FlankerTaskKBowman.osexp,no,mono,no,18,no,white,no,yes,768,legacy,61,79,/Users/KrisBow/Desktop/KBsubject-0.csv,legacy,Kafkaesque Koffka,3.2.6,0,h,NA,h,h,NA,h,472,NA,1441,33083,NA,472,2,legacy,1024,2,48000,-16,experiment,HHSHH,1,odd,3162,173744,NA,278262,210274,1706,272777,NA,279362,1718,140658,NA,279473,279948,279352,279472,FlankerTaskKBowman,136,67304,142,yes,1024
95.8041958,95.8041958,473.6503497,473.6503497,black,no,legacy,legacy,legacy,0,congruent,uniform,1,undefined,1,s,0,0,0,142,142,0,142,0,142,0,0,0,142,142,142,142,Sat Sep 21 18:22:48 2019,600,The main experiment item,yes,/Users/KrisBow/Desktop/FlankerTaskKBowman.osexp,no,mono,no,18,no,white,no,yes,768,legacy,62,79,/Users/KrisBow/Desktop/KBsubject-0.csv,legacy,Kafkaesque Koffka,3.2.6,0,s,NA,h,h,NA,s,428,NA,1441,33083,NA,428,2,legacy,1024,2,48000,-16,experiment,SSSSS,1,odd,3162,173744,NA,280471,279960,1706,272777,NA,281570,1718,140658,NA,281682,282114,281560,281681,FlankerTaskKBowman,137,67732,143,yes,1024
95.83333333,95.83333333,473.4166667,473.4166667,black,no,legacy,legacy,legacy,0,congruent,uniform,1,undefined,1,h,0,0,0,143,143,0,143,0,143,0,0,0,143,143,143,143,Sat Sep 21 18:22:48 2019,600,The main experiment item,yes,/Users/KrisBow/Desktop/FlankerTaskKBowman.osexp,no,mono,no,18,no,white,no,yes,768,legacy,63,79,/Users/KrisBow/Desktop/KBsubject-0.csv,legacy,Kafkaesque Koffka,3.2.6,0,h,NA,h,h,NA,h,440,NA,1441,33083,NA,440,2,legacy,1024,2,48000,-16,experiment,HHHHH,1,odd,3162,173744,NA,282126,279960,1706,272777,NA,283229,1718,140658,NA,283340,283783,283218,283339,FlankerTaskKBowman,138,68172,144,yes,1024
95.86206897,95.86206897,473.4551724,473.4551724,black,no,legacy,legacy,legacy,0,congruent,uniform,1,undefined,1,h,0,0,0,144,144,0,144,0,144,0,0,0,144,144,144,144,Sat Sep 21 18:22:48 2019,600,The main experiment item,yes,/Users/KrisBow/Desktop/FlankerTaskKBowman.osexp,no,mono,no,18,no,white,no,yes,768,legacy,64,79,/Users/KrisBow/Desktop/KBsubject-0.csv,legacy,Kafkaesque Koffka,3.2.6,0,h,NA,h,h,NA,h,479,NA,1441,33083,NA,479,2,legacy,1024,2,48000,-16,experiment,HHHHH,1,odd,3162,173744,NA,283796,279960,1706,272777,NA,284897,1718,140658,NA,285007,285489,284887,285007,FlankerTaskKBowman,139,68651,145,yes,1024
95.89041096,95.89041096,473.1232877,473.1232877,black,no,legacy,legacy,legacy,0,congruent,uniform,1,undefined,1,s,0,0,0,145,145,0,145,0,145,0,0,0,145,145,145,145,Sat Sep 21 18:22:48 2019,600,The main experiment item,yes,/Users/KrisBow/Desktop/FlankerTaskKBowman.osexp,no,mono,no,18,no,white,no,yes,768,legacy,65,79,/Users/KrisBow/Desktop/KBsubject-0.csv,legacy,Kafkaesque Koffka,3.2.6,0,s,NA,h,h,NA,s,425,NA,1441,33083,NA,425,2,legacy,1024,2,48000,-16,experiment,SSSSS,1,odd,3162,173744,NA,285503,279960,1706,272777,NA,286604,1718,140658,NA,286715,287145,286594,286714,FlankerTaskKBowman,140,69076,146,yes,1024
95.91836735,95.91836735,472.707483,472.707483,black,no,legacy,legacy,legacy,0,incongruent,uniform,1,undefined,1,s,0,0,0,146,146,0,146,0,146,0,0,0,146,146,146,146,Sat Sep 21 18:22:48 2019,600,The main experiment item,yes,/Users/KrisBow/Desktop/FlankerTaskKBowman.osexp,no,mono,no,18,no,white,no,yes,768,legacy,66,79,/Users/KrisBow/Desktop/KBsubject-0.csv,legacy,Kafkaesque Koffka,3.2.6,0,s,NA,h,h,NA,s,412,NA,1441,33083,NA,412,2,legacy,1024,2,48000,-16,experiment,HHSHH,1,odd,3162,173744,NA,287158,279960,1706,272777,NA,288259,1718,140658,NA,288369,288785,288249,288369,FlankerTaskKBowman,141,69488,147,yes,1024
95.94594595,95.94594595,472.6418919,472.6418919,black,no,legacy,legacy,legacy,0,congruent,uniform,1,undefined,1,h,0,0,0,147,147,0,147,0,147,0,0,0,147,147,147,147,Sat Sep 21 18:22:48 2019,600,The main experiment item,yes,/Users/KrisBow/Desktop/FlankerTaskKBowman.osexp,no,mono,no,18,no,white,no,yes,768,legacy,67,79,/Users/KrisBow/Desktop/KBsubject-0.csv,legacy,Kafkaesque Koffka,3.2.6,0,h,NA,h,h,NA,h,463,NA,1441,33083,NA,463,2,legacy,1024,2,48000,-16,experiment,HHHHH,1,odd,3162,173744,NA,288797,279960,1706,272777,NA,289901,1718,140658,NA,290012,290479,289890,290012,FlankerTaskKBowman,142,69951,148,yes,1024
95.97315436,95.97315436,472.1208054,472.1208054,black,no,legacy,legacy,legacy,0,congruent,uniform,1,undefined,1,h,0,0,0,148,148,0,148,0,148,0,0,0,148,148,148,148,Sat Sep 21 18:22:48 2019,600,The main experiment item,yes,/Users/KrisBow/Desktop/FlankerTaskKBowman.osexp,no,mono,no,18,no,white,no,yes,768,legacy,68,79,/Users/KrisBow/Desktop/KBsubject-0.csv,legacy,Kafkaesque Koffka,3.2.6,0,h,NA,h,h,NA,h,395,NA,1441,33083,NA,395,2,legacy,1024,2,48000,-16,experiment,HHHHH,1,odd,3162,173744,NA,290491,279960,1706,272777,NA,291592,1718,140658,NA,291703,292102,291582,291702,FlankerTaskKBowman,143,70346,149,yes,1024
96,96,471.98,471.98,black,no,legacy,legacy,legacy,0,incongruent,uniform,1,undefined,1,s,0,0,0,149,149,0,149,0,149,0,0,0,149,149,149,149,Sat Sep 21 18:22:48 2019,600,The main experiment item,yes,/Users/KrisBow/Desktop/FlankerTaskKBowman.osexp,no,mono,no,18,no,white,no,yes,768,legacy,69,79,/Users/KrisBow/Desktop/KBsubject-0.csv,legacy,Kafkaesque Koffka,3.2.6,0,s,NA,h,h,NA,s,451,NA,1441,33083,NA,451,2,legacy,1024,2,48000,-16,experiment,HHSHH,1,odd,3162,173744,NA,292114,279960,1706,272777,NA,293215,1718,140658,NA,293326,293781,293205,293326,FlankerTaskKBowman,144,70797,150,yes,1024
96.02649007,96.02649007,472.397351,472.397351,black,no,legacy,legacy,legacy,0,congruent,uniform,1,undefined,1,h,0,0,0,150,150,0,150,0,150,0,0,0,150,150,150,150,Sat Sep 21 18:22:48 2019,600,The main experiment item,yes,/Users/KrisBow/Desktop/FlankerTaskKBowman.osexp,no,mono,no,18,no,white,no,yes,768,legacy,70,79,/Users/KrisBow/Desktop/KBsubject-0.csv,legacy,Kafkaesque Koffka,3.2.6,0,h,NA,h,h,NA,h,535,NA,1441,33083,NA,535,2,legacy,1024,2,48000,-16,experiment,HHHHH,1,odd,3162,173744,NA,293793,279960,1706,272777,NA,294895,1718,140658,NA,295004,295543,294885,295004,FlankerTaskKBowman,145,71332,151,yes,1024
96.05263158,96.05263158,472.625,472.625,black,no,legacy,legacy,legacy,0,congruent,uniform,1,undefined,1,h,0,0,0,151,151,0,151,0,151,0,0,0,151,151,151,151,Sat Sep 21 18:22:48 2019,600,The main experiment item,yes,/Users/KrisBow/Desktop/FlankerTaskKBowman.osexp,no,mono,no,18,no,white,no,yes,768,legacy,71,79,/Users/KrisBow/Desktop/KBsubject-0.csv,legacy,Kafkaesque Koffka,3.2.6,0,h,NA,h,h,NA,h,507,NA,1441,33083,NA,507,2,legacy,1024,2,48000,-16,experiment,HHHHH,1,odd,3162,173744,NA,295555,279960,1706,272777,NA,296655,1718,140658,NA,296765,297276,296645,296765,FlankerTaskKBowman,146,71839,152,yes,1024
96.07843137,96.07843137,472.1764706,472.1764706,black,no,legacy,legacy,legacy,0,congruent,uniform,1,undefined,1,s,0,0,0,152,152,0,152,0,152,0,0,0,152,152,152,152,Sat Sep 21 18:22:48 2019,600,The main experiment item,yes,/Users/KrisBow/Desktop/FlankerTaskKBowman.osexp,no,mono,no,18,no,white,no,yes,768,legacy,72,79,/Users/KrisBow/Desktop/KBsubject-0.csv,legacy,Kafkaesque Koffka,3.2.6,0,s,NA,h,h,NA,s,404,NA,1441,33083,NA,404,2,legacy,1024,2,48000,-16,experiment,SSSSS,1,odd,3162,173744,NA,297288,279960,1706,272777,NA,298389,1718,140658,NA,298499,298907,298379,298499,FlankerTaskKBowman,147,72243,153,yes,1024
96.1038961,96.1038961,471.5714286,471.5714286,black,no,legacy,legacy,legacy,0,incongruent,uniform,1,undefined,1,s,0,0,0,153,153,0,153,0,153,0,0,0,153,153,153,153,Sat Sep 21 18:22:48 2019,600,The main experiment item,yes,/Users/KrisBow/Desktop/FlankerTaskKBowman.osexp,no,mono,no,18,no,white,no,yes,768,legacy,73,79,/Users/KrisBow/Desktop/KBsubject-0.csv,legacy,Kafkaesque Koffka,3.2.6,0,s,NA,h,h,NA,s,379,NA,1441,33083,NA,379,2,legacy,1024,2,48000,-16,experiment,HHSHH,1,odd,3162,173744,NA,298920,279960,1706,272777,NA,300021,1718,140658,NA,300132,300514,300010,300131,FlankerTaskKBowman,148,72622,154,yes,1024
96.12903226,96.12903226,471.2645161,471.2645161,black,no,legacy,legacy,legacy,0,congruent,uniform,1,undefined,1,s,0,0,0,154,154,0,154,0,154,0,0,0,154,154,154,154,Sat Sep 21 18:22:48 2019,600,The main experiment item,yes,/Users/KrisBow/Desktop/FlankerTaskKBowman.osexp,no,mono,no,18,no,white,no,yes,768,legacy,74,79,/Users/KrisBow/Desktop/KBsubject-0.csv,legacy,Kafkaesque Koffka,3.2.6,0,s,NA,h,h,NA,s,424,NA,1441,33083,NA,424,2,legacy,1024,2,48000,-16,experiment,SSSSS,1,odd,3162,173744,NA,300527,279960,1706,272777,NA,301627,1718,140658,NA,301737,302164,301617,301736,FlankerTaskKBowman,149,73046,155,yes,1024
96.15384615,96.15384615,471.6217949,471.6217949,black,no,legacy,legacy,legacy,0,incongruent,uniform,1,undefined,1,h,0,0,0,155,155,0,155,0,155,0,0,0,155,155,155,155,Sat Sep 21 18:22:48 2019,600,The main experiment item,yes,/Users/KrisBow/Desktop/FlankerTaskKBowman.osexp,no,mono,no,18,no,white,no,yes,768,legacy,75,79,/Users/KrisBow/Desktop/KBsubject-0.csv,legacy,Kafkaesque Koffka,3.2.6,0,h,NA,h,h,NA,h,527,NA,1441,33083,NA,527,2,legacy,1024,2,48000,-16,experiment,SSHSS,1,odd,3162,173744,NA,302177,279960,1706,272777,NA,303278,1718,140658,NA,303388,303918,303268,303388,FlankerTaskKBowman,150,73573,156,yes,1024
96.17834395,96.17834395,471.3949045,471.3949045,black,no,legacy,legacy,legacy,0,incongruent,uniform,1,undefined,1,h,0,0,0,156,156,0,156,0,156,0,0,0,156,156,156,156,Sat Sep 21 18:22:48 2019,600,The main experiment item,yes,/Users/KrisBow/Desktop/FlankerTaskKBowman.osexp,no,mono,no,18,no,white,no,yes,768,legacy,76,79,/Users/KrisBow/Desktop/KBsubject-0.csv,legacy,Kafkaesque Koffka,3.2.6,0,h,NA,h,h,NA,h,436,NA,1441,33083,NA,436,2,legacy,1024,2,48000,-16,experiment,SSHSS,1,odd,3162,173744,NA,303931,279960,1706,272777,NA,305029,1718,140658,NA,305141,305580,305019,305140,FlankerTaskKBowman,151,74009,157,yes,1024
96.20253165,96.20253165,470.7848101,470.7848101,black,no,legacy,legacy,legacy,0,incongruent,uniform,1,undefined,1,s,0,0,0,157,157,0,157,0,157,0,0,0,157,157,157,157,Sat Sep 21 18:22:48 2019,600,The main experiment item,yes,/Users/KrisBow/Desktop/FlankerTaskKBowman.osexp,no,mono,no,18,no,white,no,yes,768,legacy,77,79,/Users/KrisBow/Desktop/KBsubject-0.csv,legacy,Kafkaesque Koffka,3.2.6,0,s,NA,h,h,NA,s,375,NA,1441,33083,NA,375,2,legacy,1024,2,48000,-16,experiment,HHSHH,1,odd,3162,173744,NA,305593,279960,1706,272777,NA,306693,1718,140658,NA,306804,307182,306683,306804,FlankerTaskKBowman,152,74384,158,yes,1024
96.22641509,96.22641509,470.8930818,470.8930818,black,no,legacy,legacy,legacy,0,incongruent,uniform,1,undefined,1,s,0,0,0,158,158,0,158,0,158,0,0,0,158,158,158,158,Sat Sep 21 18:22:48 2019,600,The main experiment item,yes,/Users/KrisBow/Desktop/FlankerTaskKBowman.osexp,no,mono,no,18,no,white,no,yes,768,legacy,78,79,/Users/KrisBow/Desktop/KBsubject-0.csv,legacy,Kafkaesque Koffka,3.2.6,0,s,NA,h,h,NA,s,488,NA,1441,33083,NA,488,2,legacy,1024,2,48000,-16,experiment,HHSHH,1,odd,3162,173744,NA,307196,279960,1706,272777,NA,308300,1718,140658,NA,308411,308903,308290,308411,FlankerTaskKBowman,153,74872,159,yes,1024
96.25,96.25,472.74375,472.74375,black,no,legacy,legacy,legacy,0,congruent,uniform,1,undefined,1,s,0,0,0,159,159,0,159,0,159,0,0,0,159,159,159,159,Sat Sep 21 18:22:48 2019,600,The main experiment item,yes,/Users/KrisBow/Desktop/FlankerTaskKBowman.osexp,no,mono,no,18,no,white,no,yes,768,legacy,79,79,/Users/KrisBow/Desktop/KBsubject-0.csv,legacy,Kafkaesque Koffka,3.2.6,0,s,NA,h,h,NA,s,767,NA,1441,33083,NA,767,2,legacy,1024,2,48000,-16,experiment,SSSSS,1,odd,3162,173744,NA,308916,279960,1706,272777,NA,310014,1718,140658,NA,310125,310896,310004,310124,FlankerTaskKBowman,154,75639,160,yes,1024
96.27329193,96.27329193,472.5838509,472.5838509,black,no,legacy,legacy,legacy,0,congruent,uniform,1,undefined,1,h,0,0,0,160,160,0,160,0,160,0,0,0,160,160,160,160,Sat Sep 21 18:22:48 2019,300,The main experiment item,yes,/Users/KrisBow/Desktop/FlankerTaskKBowman.osexp,no,mono,no,18,no,white,no,yes,768,legacy,0,79,/Users/KrisBow/Desktop/KBsubject-0.csv,legacy,Kafkaesque Koffka,3.2.6,0,h,NA,h,h,h,h,447,NA,1441,33083,8049,447,2,legacy,1024,2,48000,-16,experiment,HHHHH,1,odd,3162,173744,320512,311420,279960,1706,310909,NA,320595,1718,140658,312459,320705,321155,320585,320705,FlankerTaskKBowman,155,76086,161,yes,1024
95.67901235,95.67901235,472.3024691,472.3024691,black,no,legacy,legacy,legacy,0,incongruent,uniform,0,undefined,0,s,0,0,0,161,161,0,161,0,161,0,0,0,161,161,161,161,Sat Sep 21 18:22:48 2019,300,The main experiment item,yes,/Users/KrisBow/Desktop/FlankerTaskKBowman.osexp,no,mono,no,18,no,white,no,yes,768,legacy,1,79,/Users/KrisBow/Desktop/KBsubject-0.csv,legacy,Kafkaesque Koffka,3.2.6,0,h,NA,h,h,h,h,427,NA,1441,33083,8049,427,2,legacy,1024,2,48000,-16,experiment,HHSHH,1,odd,3162,173744,320512,321678,279960,1706,321168,NA,322778,1718,140658,312459,322889,323319,322768,322889,FlankerTaskKBowman,155,76513,162,yes,1024
95.09202454,95.09202454,470.7423313,470.7423313,black,no,legacy,legacy,legacy,0,congruent,uniform,0,undefined,0,h,0,0,0,162,162,0,162,0,162,0,0,0,162,162,162,162,Sat Sep 21 18:22:48 2019,300,The main experiment item,yes,/Users/KrisBow/Desktop/FlankerTaskKBowman.osexp,no,mono,no,18,no,white,no,yes,768,legacy,2,79,/Users/KrisBow/Desktop/KBsubject-0.csv,legacy,Kafkaesque Koffka,3.2.6,0,s,NA,h,h,h,s,218,NA,1441,33083,8049,218,2,legacy,1024,2,48000,-16,experiment,HHHHH,1,odd,3162,173744,320512,324353,323332,1706,323843,NA,325455,1718,140658,312459,325566,325787,325445,325565,FlankerTaskKBowman,155,76731,163,yes,1024
95.12195122,95.12195122,470.6463415,470.6463415,black,no,legacy,legacy,legacy,0,congruent,uniform,1,undefined,1,s,0,0,0,163,163,0,163,0,163,0,0,0,163,163,163,163,Sat Sep 21 18:22:48 2019,300,The main experiment item,yes,/Users/KrisBow/Desktop/FlankerTaskKBowman.osexp,no,mono,no,18,no,white,no,yes,768,legacy,3,79,/Users/KrisBow/Desktop/KBsubject-0.csv,legacy,Kafkaesque Koffka,3.2.6,0,s,NA,h,h,h,s,455,NA,1441,33083,8049,455,2,legacy,1024,2,48000,-16,experiment,SSSSS,1,odd,3162,173744,320512,326310,325800,1706,323843,NA,327410,1718,140658,312459,327521,327980,327400,327520,FlankerTaskKBowman,156,77186,164,yes,1024
95.15151515,95.15151515,470.5454545,470.5454545,black,no,legacy,legacy,legacy,0,congruent,uniform,1,undefined,1,s,0,0,0,164,164,0,164,0,164,0,0,0,164,164,164,164,Sat Sep 21 18:22:48 2019,300,The main experiment item,yes,/Users/KrisBow/Desktop/FlankerTaskKBowman.osexp,no,mono,no,18,no,white,no,yes,768,legacy,4,79,/Users/KrisBow/Desktop/KBsubject-0.csv,legacy,Kafkaesque Koffka,3.2.6,0,s,NA,h,h,h,s,454,NA,1441,33083,8049,454,2,legacy,1024,2,48000,-16,experiment,SSSSS,1,odd,3162,173744,320512,328503,325800,1706,327992,NA,329606,1718,140658,312459,329716,330174,329595,329716,FlankerTaskKBowman,157,77640,165,yes,1024
95.18072289,95.18072289,470.3072289,470.3072289,black,no,legacy,legacy,legacy,0,incongruent,uniform,1,undefined,1,h,0,0,0,165,165,0,165,0,165,0,0,0,165,165,165,165,Sat Sep 21 18:22:48 2019,300,The main experiment item,yes,/Users/KrisBow/Desktop/FlankerTaskKBowman.osexp,no,mono,no,18,no,white,no,yes,768,legacy,5,79,/Users/KrisBow/Desktop/KBsubject-0.csv,legacy,Kafkaesque Koffka,3.2.6,0,h,NA,h,h,h,h,431,NA,1441,33083,8049,431,2,legacy,1024,2,48000,-16,experiment,SSHSS,1,odd,3162,173744,320512,330697,325800,1706,330187,NA,331798,1718,140658,312459,331910,332345,331787,331909,FlankerTaskKBowman,158,78071,166,yes,1024
