acc,accuracy,average_response_time,avg_rt,background,canvas_backend,clock_backend,color_backend,compensation,condition,coordinates,correct,correct_instructions1,correct_keyboard_response,correct_response,count_ISI,count_block1,count_block2,count_block3,count_errorFeedback,count_experiment,count_faster,count_finish,count_fixation,count_instructions1,count_instructions2,count_instructions3,count_keyboard_response,count_logger,count_sequence,count_stimulus,datetime,deadline,description,disable_garbage_collection,experiment_file,experiment_path,font_bold,font_family,font_italic,font_size,font_underline,foreground,form_clicks,fullscreen,height,keyboard_backend,live_row,live_row_block1,logfile,mouse_backend,opensesame_codename,opensesame_version,repeat_cycle,response,response_finish,response_instructions1,response_instructions2,response_instructions3,response_keyboard_response,response_time,response_time_finish,response_time_instructions1,response_time_instructions2,response_time_instructions3,response_time_keyboard_response,round_decimals,sampler_backend,sound_buf_size,sound_channels,sound_freq,sound_sample_size,start,stimulus,subject_nr,subject_parity,time_ISI,time_block1,time_block2,time_block3,time_errorFeedback,time_experiment,time_faster,time_finish,time_fixation,time_instructions1,time_instructions2,time_instructions3,time_keyboard_response,time_logger,time_sequence,time_stimulus,title,total_correct,total_response_time,total_responses,uniform_coordinates,width
100,100,1106,1106,black,legacy,legacy,legacy,0,incongruent,uniform,1,undefined,1,s,0,0,0,0,0,0,0,0,0,0,0,0,0,0,0,0,9/18/2022 5:29,1500,The main experiment item,yes,FlankerTask.osexp,C:/Users/casme/OneDrive/Desktop/Fall 2022,no,mono,no,18,no,white,no,yes,768,legacy,0,0,C:/Users/casme/OneDrive/Desktop/Fall 2022/IC-subject-1.csv,legacy,Lentiform Loewenfeld,3.3.12,0,s,NA,s,NA,NA,s,1106,NA,60217,NA,NA,1106,2,legacy,1024,2,48000,-16,experiment,HHSHH,1,odd,NA,62436,NA,NA,NA,2215,NA,NA,62500,2218,NA,NA,62603,63710,62498,62602,Flanker Task,1,1106,1,yes,1024
100,100,1075,1075,black,legacy,legacy,legacy,0,congruent,uniform,1,undefined,1,s,1,0,0,0,1,0,1,0,1,0,0,0,1,1,1,1,9/18/2022 5:29,1500,The main experiment item,yes,FlankerTask.osexp,C:/Users/casme/OneDrive/Desktop/Fall 2022,no,mono,no,18,no,white,no,yes,768,legacy,1,1,C:/Users/casme/OneDrive/Desktop/Fall 2022/IC-subject-1.csv,legacy,Lentiform Loewenfeld,3.3.12,0,s,NA,s,NA,NA,s,1044,NA,60217,NA,NA,1044,2,legacy,1024,2,48000,-16,experiment,SSSSS,1,odd,63721,62436,NA,NA,NA,2215,NA,NA,64787,2218,NA,NA,64890,65935,64785,64890,Flanker Task,2,2150,2,yes,1024
100,100,1036.333333,1036.333333,black,legacy,legacy,legacy,0,incongruent,uniform,1,undefined,1,s,2,0,0,0,2,0,2,0,2,0,0,0,2,2,2,2,9/18/2022 5:29,1500,The main experiment item,yes,FlankerTask.osexp,C:/Users/casme/OneDrive/Desktop/Fall 2022,no,mono,no,18,no,white,no,yes,768,legacy,2,2,C:/Users/casme/OneDrive/Desktop/Fall 2022/IC-subject-1.csv,legacy,Lentiform Loewenfeld,3.3.12,0,s,NA,s,NA,NA,s,959,NA,60217,NA,NA,959,2,legacy,1024,2,48000,-16,experiment,HHSHH,1,odd,65941,62436,NA,NA,NA,2215,NA,NA,66993,2218,NA,NA,67094,68054,66991,67094,Flanker Task,3,3109,3,yes,1024
100,100,942,942,black,legacy,legacy,legacy,0,congruent,uniform,1,undefined,1,s,3,0,0,0,3,0,3,0,3,0,0,0,3,3,3,3,9/18/2022 5:29,1500,The main experiment item,yes,FlankerTask.osexp,C:/Users/casme/OneDrive/Desktop/Fall 2022,no,mono,no,18,no,white,no,yes,768,legacy,3,3,C:/Users/casme/OneDrive/Desktop/Fall 2022/IC-subject-1.csv,legacy,Lentiform Loewenfeld,3.3.12,0,s,NA,s,NA,NA,s,659,NA,60217,NA,NA,659,2,legacy,1024,2,48000,-16,experiment,SSSSS,1,odd,68061,62436,NA,NA,NA,2215,NA,NA,69113,2218,NA,NA,69218,69877,69111,69217,Flanker Task,4,3768,4,yes,1024
100,100,849.2,849.2,black,legacy,legacy,legacy,0,congruent,uniform,1,undefined,1,s,4,0,0,0,4,0,4,0,4,0,0,0,4,4,4,4,9/18/2022 5:29,1500,The main experiment item,yes,FlankerTask.osexp,C:/Users/casme/OneDrive/Desktop/Fall 2022,no,mono,no,18,no,white,no,yes,768,legacy,4,4,C:/Users/casme/OneDrive/Desktop/Fall 2022/IC-subject-1.csv,legacy,Lentiform Loewenfeld,3.3.12,0,s,NA,s,NA,NA,s,478,NA,60217,NA,NA,478,2,legacy,1024,2,48000,-16,experiment,SSSSS,1,odd,69883,62436,NA,NA,NA,2215,NA,NA,70948,2218,NA,NA,71050,71528,70946,71050,Flanker Task,5,4246,5,yes,1024
100,100,793.6666667,793.6666667,black,legacy,legacy,legacy,0,congruent,uniform,1,undefined,1,h,5,0,0,0,5,0,5,0,5,0,0,0,5,5,5,5,9/18/2022 5:29,1500,The main experiment item,yes,FlankerTask.osexp,C:/Users/casme/OneDrive/Desktop/Fall 2022,no,mono,no,18,no,white,no,yes,768,legacy,5,5,C:/Users/casme/OneDrive/Desktop/Fall 2022/IC-subject-1.csv,legacy,Lentiform Loewenfeld,3.3.12,0,h,NA,s,NA,NA,h,516,NA,60217,NA,NA,516,2,legacy,1024,2,48000,-16,experiment,HHHHH,1,odd,71534,62436,NA,NA,NA,2215,NA,NA,72600,2218,NA,NA,72702,73219,72598,72702,Flanker Task,6,4762,6,yes,1024
100,100,758.8571429,758.8571429,black,legacy,legacy,legacy,0,congruent,uniform,1,undefined,1,s,6,0,0,0,6,0,6,0,6,0,0,0,6,6,6,6,9/18/2022 5:29,1500,The main experiment item,yes,FlankerTask.osexp,C:/Users/casme/OneDrive/Desktop/Fall 2022,no,mono,no,18,no,white,no,yes,768,legacy,6,6,C:/Users/casme/OneDrive/Desktop/Fall 2022/IC-subject-1.csv,legacy,Lentiform Loewenfeld,3.3.12,0,s,NA,s,NA,NA,s,550,NA,60217,NA,NA,550,2,legacy,1024,2,48000,-16,experiment,SSSSS,1,odd,73225,62436,NA,NA,NA,2215,NA,NA,74278,2218,NA,NA,74382,74933,74277,74382,Flanker Task,7,5312,7,yes,1024
100,100,779.125,779.125,black,legacy,legacy,legacy,0,incongruent,uniform,1,undefined,1,s,7,0,0,0,7,0,7,0,7,0,0,0,7,7,7,7,9/18/2022 5:29,1500,The main experiment item,yes,FlankerTask.osexp,C:/Users/casme/OneDrive/Desktop/Fall 2022,no,mono,no,18,no,white,no,yes,768,legacy,7,7,C:/Users/casme/OneDrive/Desktop/Fall 2022/IC-subject-1.csv,legacy,Lentiform Loewenfeld,3.3.12,0,s,NA,s,NA,NA,s,921,NA,60217,NA,NA,921,2,legacy,1024,2,48000,-16,experiment,HHSHH,1,odd,74939,62436,NA,NA,NA,2215,NA,NA,76006,2218,NA,NA,76108,77029,76004,76108,Flanker Task,8,6233,8,yes,1024
100,100,760.2222222,760.2222222,black,legacy,legacy,legacy,0,incongruent,uniform,1,undefined,1,h,8,0,0,0,8,0,8,0,8,0,0,0,8,8,8,8,9/18/2022 5:29,1500,The main experiment item,yes,FlankerTask.osexp,C:/Users/casme/OneDrive/Desktop/Fall 2022,no,mono,no,18,no,white,no,yes,768,legacy,8,8,C:/Users/casme/OneDrive/Desktop/Fall 2022/IC-subject-1.csv,legacy,Lentiform Loewenfeld,3.3.12,0,h,NA,s,NA,NA,h,609,NA,60217,NA,NA,609,2,legacy,1024,2,48000,-16,experiment,SSHSS,1,odd,77035,62436,NA,NA,NA,2215,NA,NA,78099,2218,NA,NA,78202,78811,78097,78202,Flanker Task,9,6842,9,yes,1024
100,100,742,742,black,legacy,legacy,legacy,0,incongruent,uniform,1,undefined,1,h,9,0,0,0,9,0,9,0,9,0,0,0,9,9,9,9,9/18/2022 5:29,1500,The main experiment item,yes,FlankerTask.osexp,C:/Users/casme/OneDrive/Desktop/Fall 2022,no,mono,no,18,no,white,no,yes,768,legacy,9,9,C:/Users/casme/OneDrive/Desktop/Fall 2022/IC-subject-1.csv,legacy,Lentiform Loewenfeld,3.3.12,0,h,NA,s,NA,NA,h,578,NA,60217,NA,NA,578,2,legacy,1024,2,48000,-16,experiment,SSHSS,1,odd,78818,62436,NA,NA,NA,2215,NA,NA,79877,2218,NA,NA,79979,80558,79875,79979,Flanker Task,10,7420,10,yes,1024
100,100,715.3636364,715.3636364,black,legacy,legacy,legacy,0,incongruent,uniform,1,undefined,1,s,10,0,0,0,10,0,10,0,10,0,0,0,10,10,10,10,9/18/2022 5:29,1500,The main experiment item,yes,FlankerTask.osexp,C:/Users/casme/OneDrive/Desktop/Fall 2022,no,mono,no,18,no,white,no,yes,768,legacy,10,10,C:/Users/casme/OneDrive/Desktop/Fall 2022/IC-subject-1.csv,legacy,Lentiform Loewenfeld,3.3.12,0,s,NA,s,NA,NA,s,449,NA,60217,NA,NA,449,2,legacy,1024,2,48000,-16,experiment,HHSHH,1,odd,80564,62436,NA,NA,NA,2215,NA,NA,81616,2218,NA,NA,81717,82167,81614,81717,Flanker Task,11,7869,11,yes,1024
100,100,703.5833333,703.5833333,black,legacy,legacy,legacy,0,congruent,uniform,1,undefined,1,h,11,0,0,0,11,0,11,0,11,0,0,0,11,11,11,11,9/18/2022 5:29,1500,The main experiment item,yes,FlankerTask.osexp,C:/Users/casme/OneDrive/Desktop/Fall 2022,no,mono,no,18,no,white,no,yes,768,legacy,11,11,C:/Users/casme/OneDrive/Desktop/Fall 2022/IC-subject-1.csv,legacy,Lentiform Loewenfeld,3.3.12,0,h,NA,s,NA,NA,h,574,NA,60217,NA,NA,574,2,legacy,1024,2,48000,-16,experiment,HHHHH,1,odd,82173,62436,NA,NA,NA,2215,NA,NA,83237,2218,NA,NA,83340,83914,83235,83340,Flanker Task,12,8443,12,yes,1024
100,100,697.5384615,697.5384615,black,legacy,legacy,legacy,0,incongruent,uniform,1,undefined,1,s,12,0,0,0,12,0,12,0,12,0,0,0,12,12,12,12,9/18/2022 5:29,1500,The main experiment item,yes,FlankerTask.osexp,C:/Users/casme/OneDrive/Desktop/Fall 2022,no,mono,no,18,no,white,no,yes,768,legacy,12,12,C:/Users/casme/OneDrive/Desktop/Fall 2022/IC-subject-1.csv,legacy,Lentiform Loewenfeld,3.3.12,0,s,NA,s,NA,NA,s,625,NA,60217,NA,NA,625,2,legacy,1024,2,48000,-16,experiment,HHSHH,1,odd,83922,62436,NA,NA,NA,2215,NA,NA,84973,2218,NA,NA,85074,85700,84971,85074,Flanker Task,13,9068,13,yes,1024
92.85714286,92.85714286,681.5,681.5,black,legacy,legacy,legacy,0,incongruent,uniform,0,undefined,0,s,13,0,0,0,13,0,13,0,13,0,0,0,13,13,13,13,9/18/2022 5:29,1500,The main experiment item,yes,FlankerTask.osexp,C:/Users/casme/OneDrive/Desktop/Fall 2022,no,mono,no,18,no,white,no,yes,768,legacy,13,13,C:/Users/casme/OneDrive/Desktop/Fall 2022/IC-subject-1.csv,legacy,Lentiform Loewenfeld,3.3.12,0,h,NA,s,NA,NA,h,473,NA,60217,NA,NA,473,2,legacy,1024,2,48000,-16,experiment,HHSHH,1,odd,85705,62436,NA,NA,NA,2215,NA,NA,86758,2218,NA,NA,86861,87335,86756,86861,Flanker Task,13,9541,14,yes,1024
93.33333333,93.33333333,668,668,black,legacy,legacy,legacy,0,incongruent,uniform,1,undefined,1,s,14,0,0,0,14,0,14,0,14,0,0,0,14,14,14,14,9/18/2022 5:29,1500,The main experiment item,yes,FlankerTask.osexp,C:/Users/casme/OneDrive/Desktop/Fall 2022,no,mono,no,18,no,white,no,yes,768,legacy,14,14,C:/Users/casme/OneDrive/Desktop/Fall 2022/IC-subject-1.csv,legacy,Lentiform Loewenfeld,3.3.12,0,s,NA,s,NA,NA,s,479,NA,60217,NA,NA,479,2,legacy,1024,2,48000,-16,experiment,HHSHH,1,odd,87844,62436,NA,NA,87341,2215,NA,NA,88912,2218,NA,NA,89016,89496,88910,89016,Flanker Task,14,10020,15,yes,1024
93.75,93.75,650.9375,650.9375,black,legacy,legacy,legacy,0,congruent,uniform,1,undefined,1,s,15,0,0,0,15,0,15,0,15,0,0,0,15,15,15,15,9/18/2022 5:29,1500,The main experiment item,yes,FlankerTask.osexp,C:/Users/casme/OneDrive/Desktop/Fall 2022,no,mono,no,18,no,white,no,yes,768,legacy,15,15,C:/Users/casme/OneDrive/Desktop/Fall 2022/IC-subject-1.csv,legacy,Lentiform Loewenfeld,3.3.12,0,s,NA,s,NA,NA,s,395,NA,60217,NA,NA,395,2,legacy,1024,2,48000,-16,experiment,SSSSS,1,odd,89502,62436,NA,NA,87341,2215,NA,NA,90554,2218,NA,NA,90657,91053,90552,90657,Flanker Task,15,10415,16,yes,1024
94.11764706,94.11764706,637.6470588,637.6470588,black,legacy,legacy,legacy,0,congruent,uniform,1,undefined,1,s,16,0,0,0,16,0,16,0,16,0,0,0,16,16,16,16,9/18/2022 5:29,1500,The main experiment item,yes,FlankerTask.osexp,C:/Users/casme/OneDrive/Desktop/Fall 2022,no,mono,no,18,no,white,no,yes,768,legacy,16,16,C:/Users/casme/OneDrive/Desktop/Fall 2022/IC-subject-1.csv,legacy,Lentiform Loewenfeld,3.3.12,0,s,NA,s,NA,NA,s,425,NA,60217,NA,NA,425,2,legacy,1024,2,48000,-16,experiment,SSSSS,1,odd,91059,62436,NA,NA,87341,2215,NA,NA,92110,2218,NA,NA,92213,92639,92108,92213,Flanker Task,16,10840,17,yes,1024
94.44444444,94.44444444,630.2222222,630.2222222,black,legacy,legacy,legacy,0,incongruent,uniform,1,undefined,1,s,17,0,0,0,17,0,17,0,17,0,0,0,17,17,17,17,9/18/2022 5:29,1500,The main experiment item,yes,FlankerTask.osexp,C:/Users/casme/OneDrive/Desktop/Fall 2022,no,mono,no,18,no,white,no,yes,768,legacy,17,17,C:/Users/casme/OneDrive/Desktop/Fall 2022/IC-subject-1.csv,legacy,Lentiform Loewenfeld,3.3.12,0,s,NA,s,NA,NA,s,504,NA,60217,NA,NA,504,2,legacy,1024,2,48000,-16,experiment,HHSHH,1,odd,92645,62436,NA,NA,87341,2215,NA,NA,93696,2218,NA,NA,93801,94306,93695,93800,Flanker Task,17,11344,18,yes,1024
94.73684211,94.73684211,618.5789474,618.5789474,black,legacy,legacy,legacy,0,congruent,uniform,1,undefined,1,s,18,0,0,0,18,0,18,0,18,0,0,0,18,18,18,18,9/18/2022 5:29,1500,The main experiment item,yes,FlankerTask.osexp,C:/Users/casme/OneDrive/Desktop/Fall 2022,no,mono,no,18,no,white,no,yes,768,legacy,18,18,C:/Users/casme/OneDrive/Desktop/Fall 2022/IC-subject-1.csv,legacy,Lentiform Loewenfeld,3.3.12,0,s,NA,s,NA,NA,s,409,NA,60217,NA,NA,409,2,legacy,1024,2,48000,-16,experiment,SSSSS,1,odd,94313,62436,NA,NA,87341,2215,NA,NA,95368,2218,NA,NA,95470,95879,95366,95470,Flanker Task,18,11753,19,yes,1024
95,95,604.35,604.35,black,legacy,legacy,legacy,0,congruent,uniform,1,undefined,1,s,19,0,0,0,19,0,19,0,19,0,0,0,19,19,19,19,9/18/2022 5:29,1500,The main experiment item,yes,FlankerTask.osexp,C:/Users/casme/OneDrive/Desktop/Fall 2022,no,mono,no,18,no,white,no,yes,768,legacy,19,19,C:/Users/casme/OneDrive/Desktop/Fall 2022/IC-subject-1.csv,legacy,Lentiform Loewenfeld,3.3.12,0,s,NA,s,NA,NA,s,334,NA,60217,NA,NA,334,2,legacy,1024,2,48000,-16,experiment,SSSSS,1,odd,95886,62436,NA,NA,87341,2215,NA,NA,96938,2218,NA,NA,97040,97375,96936,97040,Flanker Task,19,12087,20,yes,1024
95.23809524,95.23809524,604.952381,604.952381,black,legacy,legacy,legacy,0,incongruent,uniform,1,undefined,1,h,20,0,0,0,20,0,20,0,20,0,0,0,20,20,20,20,9/18/2022 5:29,1500,The main experiment item,yes,FlankerTask.osexp,C:/Users/casme/OneDrive/Desktop/Fall 2022,no,mono,no,18,no,white,no,yes,768,legacy,20,20,C:/Users/casme/OneDrive/Desktop/Fall 2022/IC-subject-1.csv,legacy,Lentiform Loewenfeld,3.3.12,0,h,NA,s,NA,NA,h,617,NA,60217,NA,NA,617,2,legacy,1024,2,48000,-16,experiment,SSHSS,1,odd,97381,62436,NA,NA,87341,2215,NA,NA,98447,2218,NA,NA,98548,99165,98445,98548,Flanker Task,20,12704,21,yes,1024
95.45454545,95.45454545,598,598,black,legacy,legacy,legacy,0,congruent,uniform,1,undefined,1,s,21,0,0,0,21,0,21,0,21,0,0,0,21,21,21,21,9/18/2022 5:29,1500,The main experiment item,yes,FlankerTask.osexp,C:/Users/casme/OneDrive/Desktop/Fall 2022,no,mono,no,18,no,white,no,yes,768,legacy,21,21,C:/Users/casme/OneDrive/Desktop/Fall 2022/IC-subject-1.csv,legacy,Lentiform Loewenfeld,3.3.12,0,s,NA,s,NA,NA,s,452,NA,60217,NA,NA,452,2,legacy,1024,2,48000,-16,experiment,SSSSS,1,odd,99171,62436,NA,NA,87341,2215,NA,NA,100250,2218,NA,NA,100353,100806,100248,100353,Flanker Task,21,13156,22,yes,1024
95.65217391,95.65217391,597.7391304,597.7391304,black,legacy,legacy,legacy,0,incongruent,uniform,1,undefined,1,s,22,0,0,0,22,0,22,0,22,0,0,0,22,22,22,22,9/18/2022 5:29,1500,The main experiment item,yes,FlankerTask.osexp,C:/Users/casme/OneDrive/Desktop/Fall 2022,no,mono,no,18,no,white,no,yes,768,legacy,22,22,C:/Users/casme/OneDrive/Desktop/Fall 2022/IC-subject-1.csv,legacy,Lentiform Loewenfeld,3.3.12,0,s,NA,s,NA,NA,s,592,NA,60217,NA,NA,592,2,legacy,1024,2,48000,-16,experiment,HHSHH,1,odd,100813,62436,NA,NA,87341,2215,NA,NA,101879,2218,NA,NA,101982,102575,101877,101982,Flanker Task,22,13748,23,yes,1024
95.83333333,95.83333333,599.7083333,599.7083333,black,legacy,legacy,legacy,0,incongruent,uniform,1,undefined,1,h,23,0,0,0,23,0,23,0,23,0,0,0,23,23,23,23,9/18/2022 5:29,1500,The main experiment item,yes,FlankerTask.osexp,C:/Users/casme/OneDrive/Desktop/Fall 2022,no,mono,no,18,no,white,no,yes,768,legacy,23,23,C:/Users/casme/OneDrive/Desktop/Fall 2022/IC-subject-1.csv,legacy,Lentiform Loewenfeld,3.3.12,0,h,NA,s,NA,NA,h,645,NA,60217,NA,NA,645,2,legacy,1024,2,48000,-16,experiment,SSHSS,1,odd,102581,62436,NA,NA,87341,2215,NA,NA,103650,2218,NA,NA,103751,104397,103648,103751,Flanker Task,23,14393,24,yes,1024
92,92,602.48,602.48,black,legacy,legacy,legacy,0,incongruent,uniform,0,undefined,0,h,24,0,0,0,24,0,24,0,24,0,0,0,24,24,24,24,9/18/2022 5:29,1500,The main experiment item,yes,FlankerTask.osexp,C:/Users/casme/OneDrive/Desktop/Fall 2022,no,mono,no,18,no,white,no,yes,768,legacy,24,24,C:/Users/casme/OneDrive/Desktop/Fall 2022/IC-subject-1.csv,legacy,Lentiform Loewenfeld,3.3.12,0,s,NA,s,NA,NA,s,669,NA,60217,NA,NA,669,2,legacy,1024,2,48000,-16,experiment,SSHSS,1,odd,104403,62436,NA,NA,87341,2215,NA,NA,105453,2218,NA,NA,105556,106226,105451,105556,Flanker Task,23,15062,25,yes,1024
92.30769231,92.30769231,602.8461538,602.8461538,black,legacy,legacy,legacy,0,incongruent,uniform,1,undefined,1,s,25,0,0,0,25,0,25,0,25,0,0,0,25,25,25,25,9/18/2022 5:29,1500,The main experiment item,yes,FlankerTask.osexp,C:/Users/casme/OneDrive/Desktop/Fall 2022,no,mono,no,18,no,white,no,yes,768,legacy,25,25,C:/Users/casme/OneDrive/Desktop/Fall 2022/IC-subject-1.csv,legacy,Lentiform Loewenfeld,3.3.12,0,s,NA,s,NA,NA,s,612,NA,60217,NA,NA,612,2,legacy,1024,2,48000,-16,experiment,HHSHH,1,odd,106735,62436,NA,NA,106232,2215,NA,NA,107788,2218,NA,NA,107893,108506,107785,107892,Flanker Task,24,15674,26,yes,1024
92.59259259,92.59259259,599.2592593,599.2592593,black,legacy,legacy,legacy,0,congruent,uniform,1,undefined,1,h,26,0,0,0,26,0,26,0,26,0,0,0,26,26,26,26,9/18/2022 5:29,1500,The main experiment item,yes,FlankerTask.osexp,C:/Users/casme/OneDrive/Desktop/Fall 2022,no,mono,no,18,no,white,no,yes,768,legacy,26,26,C:/Users/casme/OneDrive/Desktop/Fall 2022/IC-subject-1.csv,legacy,Lentiform Loewenfeld,3.3.12,0,h,NA,s,NA,NA,h,506,NA,60217,NA,NA,506,2,legacy,1024,2,48000,-16,experiment,HHHHH,1,odd,108511,62436,NA,NA,106232,2215,NA,NA,109581,2218,NA,NA,109684,110190,109579,109684,Flanker Task,25,16180,27,yes,1024
92.85714286,92.85714286,598.4642857,598.4642857,black,legacy,legacy,legacy,0,incongruent,uniform,1,undefined,1,h,27,0,0,0,27,0,27,0,27,0,0,0,27,27,27,27,9/18/2022 5:29,1500,The main experiment item,yes,FlankerTask.osexp,C:/Users/casme/OneDrive/Desktop/Fall 2022,no,mono,no,18,no,white,no,yes,768,legacy,27,27,C:/Users/casme/OneDrive/Desktop/Fall 2022/IC-subject-1.csv,legacy,Lentiform Loewenfeld,3.3.12,0,h,NA,s,NA,NA,h,577,NA,60217,NA,NA,577,2,legacy,1024,2,48000,-16,experiment,SSHSS,1,odd,110197,62436,NA,NA,106232,2215,NA,NA,111249,2218,NA,NA,111353,111931,111247,111353,Flanker Task,26,16757,28,yes,1024
93.10344828,93.10344828,591.5517241,591.5517241,black,legacy,legacy,legacy,0,incongruent,uniform,1,undefined,1,h,28,0,0,0,28,0,28,0,28,0,0,0,28,28,28,28,9/18/2022 5:29,1500,The main experiment item,yes,FlankerTask.osexp,C:/Users/casme/OneDrive/Desktop/Fall 2022,no,mono,no,18,no,white,no,yes,768,legacy,28,28,C:/Users/casme/OneDrive/Desktop/Fall 2022/IC-subject-1.csv,legacy,Lentiform Loewenfeld,3.3.12,0,h,NA,s,NA,NA,h,398,NA,60217,NA,NA,398,2,legacy,1024,2,48000,-16,experiment,SSHSS,1,odd,111937,62436,NA,NA,106232,2215,NA,NA,112989,2218,NA,NA,113094,113493,112987,113093,Flanker Task,27,17155,29,yes,1024
93.33333333,93.33333333,583.9,583.9,black,legacy,legacy,legacy,0,congruent,uniform,1,undefined,1,h,29,0,0,0,29,0,29,0,29,0,0,0,29,29,29,29,9/18/2022 5:29,1500,The main experiment item,yes,FlankerTask.osexp,C:/Users/casme/OneDrive/Desktop/Fall 2022,no,mono,no,18,no,white,no,yes,768,legacy,29,29,C:/Users/casme/OneDrive/Desktop/Fall 2022/IC-subject-1.csv,legacy,Lentiform Loewenfeld,3.3.12,0,h,NA,s,NA,NA,h,362,NA,60217,NA,NA,362,2,legacy,1024,2,48000,-16,experiment,HHHHH,1,odd,113499,62436,NA,NA,106232,2215,NA,NA,114551,2218,NA,NA,114652,115014,114548,114652,Flanker Task,28,17517,30,yes,1024
93.5483871,93.5483871,580.3870968,580.3870968,black,legacy,legacy,legacy,0,congruent,uniform,1,undefined,1,h,30,0,0,0,30,0,30,0,30,0,0,0,30,30,30,30,9/18/2022 5:29,1500,The main experiment item,yes,FlankerTask.osexp,C:/Users/casme/OneDrive/Desktop/Fall 2022,no,mono,no,18,no,white,no,yes,768,legacy,30,30,C:/Users/casme/OneDrive/Desktop/Fall 2022/IC-subject-1.csv,legacy,Lentiform Loewenfeld,3.3.12,0,h,NA,s,NA,NA,h,475,NA,60217,NA,NA,475,2,legacy,1024,2,48000,-16,experiment,HHHHH,1,odd,115021,62436,NA,NA,106232,2215,NA,NA,116087,2218,NA,NA,116193,116668,116086,116192,Flanker Task,29,17992,31,yes,1024
93.75,93.75,575.3125,575.3125,black,legacy,legacy,legacy,0,congruent,uniform,1,undefined,1,h,31,0,0,0,31,0,31,0,31,0,0,0,31,31,31,31,9/18/2022 5:29,1500,The main experiment item,yes,FlankerTask.osexp,C:/Users/casme/OneDrive/Desktop/Fall 2022,no,mono,no,18,no,white,no,yes,768,legacy,31,31,C:/Users/casme/OneDrive/Desktop/Fall 2022/IC-subject-1.csv,legacy,Lentiform Loewenfeld,3.3.12,0,h,NA,s,NA,NA,h,418,NA,60217,NA,NA,418,2,legacy,1024,2,48000,-16,experiment,HHHHH,1,odd,116675,62436,NA,NA,106232,2215,NA,NA,117727,2218,NA,NA,117832,118251,117725,117830,Flanker Task,30,18410,32,yes,1024
93.93939394,93.93939394,571.2121212,571.2121212,black,legacy,legacy,legacy,0,incongruent,uniform,1,undefined,1,h,32,0,0,0,32,0,32,0,32,0,0,0,32,32,32,32,9/18/2022 5:29,1500,The main experiment item,yes,FlankerTask.osexp,C:/Users/casme/OneDrive/Desktop/Fall 2022,no,mono,no,18,no,white,no,yes,768,legacy,32,32,C:/Users/casme/OneDrive/Desktop/Fall 2022/IC-subject-1.csv,legacy,Lentiform Loewenfeld,3.3.12,0,h,NA,s,NA,NA,h,440,NA,60217,NA,NA,440,2,legacy,1024,2,48000,-16,experiment,SSHSS,1,odd,118258,62436,NA,NA,106232,2215,NA,NA,119319,2218,NA,NA,119422,119863,119317,119422,Flanker Task,31,18850,33,yes,1024
94.11764706,94.11764706,567.5,567.5,black,legacy,legacy,legacy,0,congruent,uniform,1,undefined,1,s,33,0,0,0,33,0,33,0,33,0,0,0,33,33,33,33,9/18/2022 5:29,1500,The main experiment item,yes,FlankerTask.osexp,C:/Users/casme/OneDrive/Desktop/Fall 2022,no,mono,no,18,no,white,no,yes,768,legacy,33,33,C:/Users/casme/OneDrive/Desktop/Fall 2022/IC-subject-1.csv,legacy,Lentiform Loewenfeld,3.3.12,0,s,NA,s,NA,NA,s,445,NA,60217,NA,NA,445,2,legacy,1024,2,48000,-16,experiment,SSSSS,1,odd,119870,62436,NA,NA,106232,2215,NA,NA,120923,2218,NA,NA,121025,121471,120921,121025,Flanker Task,32,19295,34,yes,1024
94.28571429,94.28571429,565.2857143,565.2857143,black,legacy,legacy,legacy,0,congruent,uniform,1,undefined,1,h,34,0,0,0,34,0,34,0,34,0,0,0,34,34,34,34,9/18/2022 5:29,1500,The main experiment item,yes,FlankerTask.osexp,C:/Users/casme/OneDrive/Desktop/Fall 2022,no,mono,no,18,no,white,no,yes,768,legacy,34,34,C:/Users/casme/OneDrive/Desktop/Fall 2022/IC-subject-1.csv,legacy,Lentiform Loewenfeld,3.3.12,0,h,NA,s,NA,NA,h,490,NA,60217,NA,NA,490,2,legacy,1024,2,48000,-16,experiment,HHHHH,1,odd,121476,62436,NA,NA,106232,2215,NA,NA,122529,2218,NA,NA,122632,123123,122527,122632,Flanker Task,33,19785,35,yes,1024
94.44444444,94.44444444,562.5,562.5,black,legacy,legacy,legacy,0,congruent,uniform,1,undefined,1,h,35,0,0,0,35,0,35,0,35,0,0,0,35,35,35,35,9/18/2022 5:29,1500,The main experiment item,yes,FlankerTask.osexp,C:/Users/casme/OneDrive/Desktop/Fall 2022,no,mono,no,18,no,white,no,yes,768,legacy,35,35,C:/Users/casme/OneDrive/Desktop/Fall 2022/IC-subject-1.csv,legacy,Lentiform Loewenfeld,3.3.12,0,h,NA,s,NA,NA,h,465,NA,60217,NA,NA,465,2,legacy,1024,2,48000,-16,experiment,HHHHH,1,odd,123130,62436,NA,NA,106232,2215,NA,NA,124190,2218,NA,NA,124293,124759,124187,124293,Flanker Task,34,20250,36,yes,1024
94.59459459,94.59459459,559.5135135,559.5135135,black,legacy,legacy,legacy,0,congruent,uniform,1,undefined,1,h,36,0,0,0,36,0,36,0,36,0,0,0,36,36,36,36,9/18/2022 5:29,1500,The main experiment item,yes,FlankerTask.osexp,C:/Users/casme/OneDrive/Desktop/Fall 2022,no,mono,no,18,no,white,no,yes,768,legacy,36,36,C:/Users/casme/OneDrive/Desktop/Fall 2022/IC-subject-1.csv,legacy,Lentiform Loewenfeld,3.3.12,0,h,NA,s,NA,NA,h,452,NA,60217,NA,NA,452,2,legacy,1024,2,48000,-16,experiment,HHHHH,1,odd,124766,62436,NA,NA,106232,2215,NA,NA,125818,2218,NA,NA,125920,126373,125816,125920,Flanker Task,35,20702,37,yes,1024
94.73684211,94.73684211,558.4473684,558.4473684,black,legacy,legacy,legacy,0,incongruent,uniform,1,undefined,1,h,37,0,0,0,37,0,37,0,37,0,0,0,37,37,37,37,9/18/2022 5:29,1500,The main experiment item,yes,FlankerTask.osexp,C:/Users/casme/OneDrive/Desktop/Fall 2022,no,mono,no,18,no,white,no,yes,768,legacy,37,37,C:/Users/casme/OneDrive/Desktop/Fall 2022/IC-subject-1.csv,legacy,Lentiform Loewenfeld,3.3.12,0,h,NA,s,NA,NA,h,519,NA,60217,NA,NA,519,2,legacy,1024,2,48000,-16,experiment,SSHSS,1,odd,126380,62436,NA,NA,106232,2215,NA,NA,127444,2218,NA,NA,127548,128068,127442,127547,Flanker Task,36,21221,38,yes,1024
94.87179487,94.87179487,554.7179487,554.7179487,black,legacy,legacy,legacy,0,congruent,uniform,1,undefined,1,h,38,0,0,0,38,0,38,0,38,0,0,0,38,38,38,38,9/18/2022 5:29,1500,The main experiment item,yes,FlankerTask.osexp,C:/Users/casme/OneDrive/Desktop/Fall 2022,no,mono,no,18,no,white,no,yes,768,legacy,38,38,C:/Users/casme/OneDrive/Desktop/Fall 2022/IC-subject-1.csv,legacy,Lentiform Loewenfeld,3.3.12,0,h,NA,s,NA,NA,h,413,NA,60217,NA,NA,413,2,legacy,1024,2,48000,-16,experiment,HHHHH,1,odd,128075,62436,NA,NA,106232,2215,NA,NA,129127,2218,NA,NA,129229,129643,129124,129229,Flanker Task,37,21634,39,yes,1024
95,95,553.1,553.1,black,legacy,legacy,legacy,0,incongruent,uniform,1,undefined,1,s,39,0,0,0,39,0,39,0,39,0,0,0,39,39,39,39,9/18/2022 5:29,1500,The main experiment item,yes,FlankerTask.osexp,C:/Users/casme/OneDrive/Desktop/Fall 2022,no,mono,no,18,no,white,no,yes,768,legacy,39,39,C:/Users/casme/OneDrive/Desktop/Fall 2022/IC-subject-1.csv,legacy,Lentiform Loewenfeld,3.3.12,0,s,NA,s,NA,NA,s,490,NA,60217,NA,NA,490,2,legacy,1024,2,48000,-16,experiment,HHSHH,1,odd,129649,62436,NA,NA,106232,2215,NA,NA,130714,2218,NA,NA,130817,131307,130712,130817,Flanker Task,38,22124,40,yes,1024
95.12195122,95.12195122,549.9756098,549.9756098,black,legacy,legacy,legacy,0,incongruent,uniform,1,undefined,1,s,40,0,0,0,40,0,40,0,40,0,0,0,40,40,40,40,9/18/2022 5:29,1500,The main experiment item,yes,FlankerTask.osexp,C:/Users/casme/OneDrive/Desktop/Fall 2022,no,mono,no,18,no,white,no,yes,768,legacy,40,40,C:/Users/casme/OneDrive/Desktop/Fall 2022/IC-subject-1.csv,legacy,Lentiform Loewenfeld,3.3.12,0,s,NA,s,NA,NA,s,425,NA,60217,NA,NA,425,2,legacy,1024,2,48000,-16,experiment,HHSHH,1,odd,131312,62436,NA,NA,106232,2215,NA,NA,132365,2218,NA,NA,132466,132891,132363,132466,Flanker Task,39,22549,41,yes,1024
95.23809524,95.23809524,548.3809524,548.3809524,black,legacy,legacy,legacy,0,congruent,uniform,1,undefined,1,h,41,0,0,0,41,0,41,0,41,0,0,0,41,41,41,41,9/18/2022 5:29,1500,The main experiment item,yes,FlankerTask.osexp,C:/Users/casme/OneDrive/Desktop/Fall 2022,no,mono,no,18,no,white,no,yes,768,legacy,41,41,C:/Users/casme/OneDrive/Desktop/Fall 2022/IC-subject-1.csv,legacy,Lentiform Loewenfeld,3.3.12,0,h,NA,s,NA,NA,h,483,NA,60217,NA,NA,483,2,legacy,1024,2,48000,-16,experiment,HHHHH,1,odd,132899,62436,NA,NA,106232,2215,NA,NA,133951,2218,NA,NA,134054,134538,133949,134054,Flanker Task,40,23032,42,yes,1024
95.34883721,95.34883721,546.1162791,546.1162791,black,legacy,legacy,legacy,0,congruent,uniform,1,undefined,1,h,42,0,0,0,42,0,42,0,42,0,0,0,42,42,42,42,9/18/2022 5:29,1500,The main experiment item,yes,FlankerTask.osexp,C:/Users/casme/OneDrive/Desktop/Fall 2022,no,mono,no,18,no,white,no,yes,768,legacy,42,42,C:/Users/casme/OneDrive/Desktop/Fall 2022/IC-subject-1.csv,legacy,Lentiform Loewenfeld,3.3.12,0,h,NA,s,NA,NA,h,451,NA,60217,NA,NA,451,2,legacy,1024,2,48000,-16,experiment,HHHHH,1,odd,134544,62436,NA,NA,106232,2215,NA,NA,135595,2218,NA,NA,135696,136148,135593,135696,Flanker Task,41,23483,43,yes,1024
95.45454545,95.45454545,545.0681818,545.0681818,black,legacy,legacy,legacy,0,congruent,uniform,1,undefined,1,h,43,0,0,0,43,0,43,0,43,0,0,0,43,43,43,43,9/18/2022 5:29,1500,The main experiment item,yes,FlankerTask.osexp,C:/Users/casme/OneDrive/Desktop/Fall 2022,no,mono,no,18,no,white,no,yes,768,legacy,43,43,C:/Users/casme/OneDrive/Desktop/Fall 2022/IC-subject-1.csv,legacy,Lentiform Loewenfeld,3.3.12,0,h,NA,s,NA,NA,h,500,NA,60217,NA,NA,500,2,legacy,1024,2,48000,-16,experiment,HHHHH,1,odd,136154,62436,NA,NA,106232,2215,NA,NA,137211,2218,NA,NA,137315,137816,137209,137315,Flanker Task,42,23983,44,yes,1024
95.55555556,95.55555556,541.5555556,541.5555556,black,legacy,legacy,legacy,0,congruent,uniform,1,undefined,1,h,44,0,0,0,44,0,44,0,44,0,0,0,44,44,44,44,9/18/2022 5:29,1500,The main experiment item,yes,FlankerTask.osexp,C:/Users/casme/OneDrive/Desktop/Fall 2022,no,mono,no,18,no,white,no,yes,768,legacy,44,44,C:/Users/casme/OneDrive/Desktop/Fall 2022/IC-subject-1.csv,legacy,Lentiform Loewenfeld,3.3.12,0,h,NA,s,NA,NA,h,387,NA,60217,NA,NA,387,2,legacy,1024,2,48000,-16,experiment,HHHHH,1,odd,137823,62436,NA,NA,106232,2215,NA,NA,138877,2218,NA,NA,138978,139365,138875,138978,Flanker Task,43,24370,45,yes,1024
95.65217391,95.65217391,542.5652174,542.5652174,black,legacy,legacy,legacy,0,incongruent,uniform,1,undefined,1,s,45,0,0,0,45,0,45,0,45,0,0,0,45,45,45,45,9/18/2022 5:29,1500,The main experiment item,yes,FlankerTask.osexp,C:/Users/casme/OneDrive/Desktop/Fall 2022,no,mono,no,18,no,white,no,yes,768,legacy,45,45,C:/Users/casme/OneDrive/Desktop/Fall 2022/IC-subject-1.csv,legacy,Lentiform Loewenfeld,3.3.12,0,s,NA,s,NA,NA,s,588,NA,60217,NA,NA,588,2,legacy,1024,2,48000,-16,experiment,HHSHH,1,odd,139371,62436,NA,NA,106232,2215,NA,NA,140423,2218,NA,NA,140528,141117,140421,140527,Flanker Task,44,24958,46,yes,1024
95.74468085,95.74468085,538.3829787,538.3829787,black,legacy,legacy,legacy,0,congruent,uniform,1,undefined,1,s,46,0,0,0,46,0,46,0,46,0,0,0,46,46,46,46,9/18/2022 5:29,1500,The main experiment item,yes,FlankerTask.osexp,C:/Users/casme/OneDrive/Desktop/Fall 2022,no,mono,no,18,no,white,no,yes,768,legacy,46,46,C:/Users/casme/OneDrive/Desktop/Fall 2022/IC-subject-1.csv,legacy,Lentiform Loewenfeld,3.3.12,0,s,NA,s,NA,NA,s,346,NA,60217,NA,NA,346,2,legacy,1024,2,48000,-16,experiment,SSSSS,1,odd,141124,62436,NA,NA,106232,2215,NA,NA,142175,2218,NA,NA,142280,142627,142173,142279,Flanker Task,45,25304,47,yes,1024
95.83333333,95.83333333,541.9166667,541.9166667,black,legacy,legacy,legacy,0,incongruent,uniform,1,undefined,1,h,47,0,0,0,47,0,47,0,47,0,0,0,47,47,47,47,9/18/2022 5:29,1500,The main experiment item,yes,FlankerTask.osexp,C:/Users/casme/OneDrive/Desktop/Fall 2022,no,mono,no,18,no,white,no,yes,768,legacy,47,47,C:/Users/casme/OneDrive/Desktop/Fall 2022/IC-subject-1.csv,legacy,Lentiform Loewenfeld,3.3.12,0,h,NA,s,NA,NA,h,708,NA,60217,NA,NA,708,2,legacy,1024,2,48000,-16,experiment,SSHSS,1,odd,142633,62436,NA,NA,106232,2215,NA,NA,143690,2218,NA,NA,143793,144502,143688,143793,Flanker Task,46,26012,48,yes,1024
95.91836735,95.91836735,537.2653061,537.2653061,black,legacy,legacy,legacy,0,congruent,uniform,1,undefined,1,s,48,0,0,0,48,0,48,0,48,0,0,0,48,48,48,48,9/18/2022 5:29,1500,The main experiment item,yes,FlankerTask.osexp,C:/Users/casme/OneDrive/Desktop/Fall 2022,no,mono,no,18,no,white,no,yes,768,legacy,48,48,C:/Users/casme/OneDrive/Desktop/Fall 2022/IC-subject-1.csv,legacy,Lentiform Loewenfeld,3.3.12,0,s,NA,s,NA,NA,s,314,NA,60217,NA,NA,314,2,legacy,1024,2,48000,-16,experiment,SSSSS,1,odd,144508,62436,NA,NA,106232,2215,NA,NA,145559,2218,NA,NA,145662,145977,145557,145662,Flanker Task,47,26326,49,yes,1024
96,96,533.5,533.5,black,legacy,legacy,legacy,0,congruent,uniform,1,undefined,1,s,49,0,0,0,49,0,49,0,49,0,0,0,49,49,49,49,9/18/2022 5:29,1500,The main experiment item,yes,FlankerTask.osexp,C:/Users/casme/OneDrive/Desktop/Fall 2022,no,mono,no,18,no,white,no,yes,768,legacy,49,49,C:/Users/casme/OneDrive/Desktop/Fall 2022/IC-subject-1.csv,legacy,Lentiform Loewenfeld,3.3.12,0,s,NA,s,NA,NA,s,349,NA,60217,NA,NA,349,2,legacy,1024,2,48000,-16,experiment,SSSSS,1,odd,145984,62436,NA,NA,106232,2215,NA,NA,147046,2218,NA,NA,147148,147498,147044,147148,Flanker Task,48,26675,50,yes,1024
96.07843137,96.07843137,539.5294118,539.5294118,black,legacy,legacy,legacy,0,incongruent,uniform,1,undefined,1,h,50,0,0,0,50,0,50,0,50,0,0,0,50,50,50,50,9/18/2022 5:29,1500,The main experiment item,yes,FlankerTask.osexp,C:/Users/casme/OneDrive/Desktop/Fall 2022,no,mono,no,18,no,white,no,yes,768,legacy,50,50,C:/Users/casme/OneDrive/Desktop/Fall 2022/IC-subject-1.csv,legacy,Lentiform Loewenfeld,3.3.12,0,h,NA,s,NA,NA,h,841,NA,60217,NA,NA,841,2,legacy,1024,2,48000,-16,experiment,SSHSS,1,odd,147504,62436,NA,NA,106232,2215,NA,NA,148575,2218,NA,NA,148679,149521,148573,148679,Flanker Task,49,27516,51,yes,1024
96.15384615,96.15384615,540.8846154,540.8846154,black,legacy,legacy,legacy,0,incongruent,uniform,1,undefined,1,h,51,0,0,0,51,0,51,0,51,0,0,0,51,51,51,51,9/18/2022 5:29,1500,The main experiment item,yes,FlankerTask.osexp,C:/Users/casme/OneDrive/Desktop/Fall 2022,no,mono,no,18,no,white,no,yes,768,legacy,51,51,C:/Users/casme/OneDrive/Desktop/Fall 2022/IC-subject-1.csv,legacy,Lentiform Loewenfeld,3.3.12,0,h,NA,s,NA,NA,h,610,NA,60217,NA,NA,610,2,legacy,1024,2,48000,-16,experiment,SSHSS,1,odd,149527,62436,NA,NA,106232,2215,NA,NA,150579,2218,NA,NA,150682,151293,150577,150682,Flanker Task,50,28126,52,yes,1024
94.33962264,94.33962264,536.5849057,536.5849057,black,legacy,legacy,legacy,0,incongruent,uniform,0,undefined,0,h,52,0,0,0,52,0,52,0,52,0,0,0,52,52,52,52,9/18/2022 5:29,1500,The main experiment item,yes,FlankerTask.osexp,C:/Users/casme/OneDrive/Desktop/Fall 2022,no,mono,no,18,no,white,no,yes,768,legacy,52,52,C:/Users/casme/OneDrive/Desktop/Fall 2022/IC-subject-1.csv,legacy,Lentiform Loewenfeld,3.3.12,0,s,NA,s,NA,NA,s,313,NA,60217,NA,NA,313,2,legacy,1024,2,48000,-16,experiment,SSHSS,1,odd,151300,62436,NA,NA,106232,2215,NA,NA,152350,2218,NA,NA,152453,152767,152348,152453,Flanker Task,50,28439,53,yes,1024
94.44444444,94.44444444,537.0555556,537.0555556,black,legacy,legacy,legacy,0,incongruent,uniform,1,undefined,1,h,53,0,0,0,53,0,53,0,53,0,0,0,53,53,53,53,9/18/2022 5:29,1500,The main experiment item,yes,FlankerTask.osexp,C:/Users/casme/OneDrive/Desktop/Fall 2022,no,mono,no,18,no,white,no,yes,768,legacy,53,53,C:/Users/casme/OneDrive/Desktop/Fall 2022/IC-subject-1.csv,legacy,Lentiform Loewenfeld,3.3.12,0,h,NA,s,NA,NA,h,562,NA,60217,NA,NA,562,2,legacy,1024,2,48000,-16,experiment,SSHSS,1,odd,153274,62436,NA,NA,152773,2215,NA,NA,154330,2218,NA,NA,154431,154994,154328,154431,Flanker Task,51,29001,54,yes,1024
94.54545455,94.54545455,536.4,536.4,black,legacy,legacy,legacy,0,congruent,uniform,1,undefined,1,s,54,0,0,0,54,0,54,0,54,0,0,0,54,54,54,54,9/18/2022 5:29,1500,The main experiment item,yes,FlankerTask.osexp,C:/Users/casme/OneDrive/Desktop/Fall 2022,no,mono,no,18,no,white,no,yes,768,legacy,54,54,C:/Users/casme/OneDrive/Desktop/Fall 2022/IC-subject-1.csv,legacy,Lentiform Loewenfeld,3.3.12,0,s,NA,s,NA,NA,s,501,NA,60217,NA,NA,501,2,legacy,1024,2,48000,-16,experiment,SSSSS,1,odd,155000,62436,NA,NA,152773,2215,NA,NA,156054,2218,NA,NA,156157,156659,156052,156157,Flanker Task,52,29502,55,yes,1024
94.64285714,94.64285714,538.3035714,538.3035714,black,legacy,legacy,legacy,0,incongruent,uniform,1,undefined,1,s,55,0,0,0,55,0,55,0,55,0,0,0,55,55,55,55,9/18/2022 5:29,1500,The main experiment item,yes,FlankerTask.osexp,C:/Users/casme/OneDrive/Desktop/Fall 2022,no,mono,no,18,no,white,no,yes,768,legacy,55,55,C:/Users/casme/OneDrive/Desktop/Fall 2022/IC-subject-1.csv,legacy,Lentiform Loewenfeld,3.3.12,0,s,NA,s,NA,NA,s,643,NA,60217,NA,NA,643,2,legacy,1024,2,48000,-16,experiment,HHSHH,1,odd,156665,62436,NA,NA,152773,2215,NA,NA,157717,2218,NA,NA,157818,158462,157715,157818,Flanker Task,53,30145,56,yes,1024
94.73684211,94.73684211,538.245614,538.245614,black,legacy,legacy,legacy,0,congruent,uniform,1,undefined,1,s,56,0,0,0,56,0,56,0,56,0,0,0,56,56,56,56,9/18/2022 5:29,1500,The main experiment item,yes,FlankerTask.osexp,C:/Users/casme/OneDrive/Desktop/Fall 2022,no,mono,no,18,no,white,no,yes,768,legacy,56,56,C:/Users/casme/OneDrive/Desktop/Fall 2022/IC-subject-1.csv,legacy,Lentiform Loewenfeld,3.3.12,0,s,NA,s,NA,NA,s,535,NA,60217,NA,NA,535,2,legacy,1024,2,48000,-16,experiment,SSSSS,1,odd,158468,62436,NA,NA,152773,2215,NA,NA,159521,2218,NA,NA,159623,160159,159519,159623,Flanker Task,54,30680,57,yes,1024
94.82758621,94.82758621,535.4137931,535.4137931,black,legacy,legacy,legacy,0,congruent,uniform,1,undefined,1,s,57,0,0,0,57,0,57,0,57,0,0,0,57,57,57,57,9/18/2022 5:29,1500,The main experiment item,yes,FlankerTask.osexp,C:/Users/casme/OneDrive/Desktop/Fall 2022,no,mono,no,18,no,white,no,yes,768,legacy,57,57,C:/Users/casme/OneDrive/Desktop/Fall 2022/IC-subject-1.csv,legacy,Lentiform Loewenfeld,3.3.12,0,s,NA,s,NA,NA,s,374,NA,60217,NA,NA,374,2,legacy,1024,2,48000,-16,experiment,SSSSS,1,odd,160165,62436,NA,NA,152773,2215,NA,NA,161218,2218,NA,NA,161321,161696,161216,161321,Flanker Task,55,31054,58,yes,1024
94.91525424,94.91525424,532.559322,532.559322,black,legacy,legacy,legacy,0,congruent,uniform,1,undefined,1,s,58,0,0,0,58,0,58,0,58,0,0,0,58,58,58,58,9/18/2022 5:29,1500,The main experiment item,yes,FlankerTask.osexp,C:/Users/casme/OneDrive/Desktop/Fall 2022,no,mono,no,18,no,white,no,yes,768,legacy,58,58,C:/Users/casme/OneDrive/Desktop/Fall 2022/IC-subject-1.csv,legacy,Lentiform Loewenfeld,3.3.12,0,s,NA,s,NA,NA,s,367,NA,60217,NA,NA,367,2,legacy,1024,2,48000,-16,experiment,SSSSS,1,odd,161702,62436,NA,NA,152773,2215,NA,NA,162753,2218,NA,NA,162856,163223,162751,162856,Flanker Task,56,31421,59,yes,1024
95,95,529.2833333,529.2833333,black,legacy,legacy,legacy,0,incongruent,uniform,1,undefined,1,s,59,0,0,0,59,0,59,0,59,0,0,0,59,59,59,59,9/18/2022 5:29,1500,The main experiment item,yes,FlankerTask.osexp,C:/Users/casme/OneDrive/Desktop/Fall 2022,no,mono,no,18,no,white,no,yes,768,legacy,59,59,C:/Users/casme/OneDrive/Desktop/Fall 2022/IC-subject-1.csv,legacy,Lentiform Loewenfeld,3.3.12,0,s,NA,s,NA,NA,s,336,NA,60217,NA,NA,336,2,legacy,1024,2,48000,-16,experiment,HHSHH,1,odd,163230,62436,NA,NA,152773,2215,NA,NA,164283,2218,NA,NA,164386,164723,164281,164386,Flanker Task,57,31757,60,yes,1024
95.08196721,95.08196721,525.704918,525.704918,black,legacy,legacy,legacy,0,congruent,uniform,1,undefined,1,h,60,0,0,0,60,0,60,0,60,0,0,0,60,60,60,60,9/18/2022 5:29,1500,The main experiment item,yes,FlankerTask.osexp,C:/Users/casme/OneDrive/Desktop/Fall 2022,no,mono,no,18,no,white,no,yes,768,legacy,60,60,C:/Users/casme/OneDrive/Desktop/Fall 2022/IC-subject-1.csv,legacy,Lentiform Loewenfeld,3.3.12,0,h,NA,s,NA,NA,h,311,NA,60217,NA,NA,311,2,legacy,1024,2,48000,-16,experiment,HHHHH,1,odd,164730,62436,NA,NA,152773,2215,NA,NA,165782,2218,NA,NA,165886,166197,165780,165886,Flanker Task,58,32068,61,yes,1024
95.16129032,95.16129032,524.3225806,524.3225806,black,legacy,legacy,legacy,0,congruent,uniform,1,undefined,1,h,61,0,0,0,61,0,61,0,61,0,0,0,61,61,61,61,9/18/2022 5:29,1500,The main experiment item,yes,FlankerTask.osexp,C:/Users/casme/OneDrive/Desktop/Fall 2022,no,mono,no,18,no,white,no,yes,768,legacy,61,61,C:/Users/casme/OneDrive/Desktop/Fall 2022/IC-subject-1.csv,legacy,Lentiform Loewenfeld,3.3.12,0,h,NA,s,NA,NA,h,440,NA,60217,NA,NA,440,2,legacy,1024,2,48000,-16,experiment,HHHHH,1,odd,166204,62436,NA,NA,152773,2215,NA,NA,167255,2218,NA,NA,167359,167800,167253,167359,Flanker Task,59,32508,62,yes,1024
95.23809524,95.23809524,521.6825397,521.6825397,black,legacy,legacy,legacy,0,congruent,uniform,1,undefined,1,h,62,0,0,0,62,0,62,0,62,0,0,0,62,62,62,62,9/18/2022 5:29,1500,The main experiment item,yes,FlankerTask.osexp,C:/Users/casme/OneDrive/Desktop/Fall 2022,no,mono,no,18,no,white,no,yes,768,legacy,62,62,C:/Users/casme/OneDrive/Desktop/Fall 2022/IC-subject-1.csv,legacy,Lentiform Loewenfeld,3.3.12,0,h,NA,s,NA,NA,h,358,NA,60217,NA,NA,358,2,legacy,1024,2,48000,-16,experiment,HHHHH,1,odd,167807,62436,NA,NA,152773,2215,NA,NA,168864,2218,NA,NA,168966,169324,168862,168966,Flanker Task,60,32866,63,yes,1024
95.3125,95.3125,519.546875,519.546875,black,legacy,legacy,legacy,0,congruent,uniform,1,undefined,1,h,63,0,0,0,63,0,63,0,63,0,0,0,63,63,63,63,9/18/2022 5:29,1500,The main experiment item,yes,FlankerTask.osexp,C:/Users/casme/OneDrive/Desktop/Fall 2022,no,mono,no,18,no,white,no,yes,768,legacy,63,63,C:/Users/casme/OneDrive/Desktop/Fall 2022/IC-subject-1.csv,legacy,Lentiform Loewenfeld,3.3.12,0,h,NA,s,NA,NA,h,385,NA,60217,NA,NA,385,2,legacy,1024,2,48000,-16,experiment,HHHHH,1,odd,169331,62436,NA,NA,152773,2215,NA,NA,170396,2218,NA,NA,170498,170884,170394,170498,Flanker Task,61,33251,64,yes,1024
95.38461538,95.38461538,519.3076923,519.3076923,black,legacy,legacy,legacy,0,incongruent,uniform,1,undefined,1,s,64,0,0,0,64,0,64,0,64,0,0,0,64,64,64,64,9/18/2022 5:29,1500,The main experiment item,yes,FlankerTask.osexp,C:/Users/casme/OneDrive/Desktop/Fall 2022,no,mono,no,18,no,white,no,yes,768,legacy,64,64,C:/Users/casme/OneDrive/Desktop/Fall 2022/IC-subject-1.csv,legacy,Lentiform Loewenfeld,3.3.12,0,s,NA,s,NA,NA,s,504,NA,60217,NA,NA,504,2,legacy,1024,2,48000,-16,experiment,HHSHH,1,odd,170890,62436,NA,NA,152773,2215,NA,NA,171943,2218,NA,NA,172047,172552,171942,172047,Flanker Task,62,33755,65,yes,1024
95.45454545,95.45454545,518.1818182,518.1818182,black,legacy,legacy,legacy,0,congruent,uniform,1,undefined,1,s,65,0,0,0,65,0,65,0,65,0,0,0,65,65,65,65,9/18/2022 5:29,1500,The main experiment item,yes,FlankerTask.osexp,C:/Users/casme/OneDrive/Desktop/Fall 2022,no,mono,no,18,no,white,no,yes,768,legacy,65,65,C:/Users/casme/OneDrive/Desktop/Fall 2022/IC-subject-1.csv,legacy,Lentiform Loewenfeld,3.3.12,0,s,NA,s,NA,NA,s,445,NA,60217,NA,NA,445,2,legacy,1024,2,48000,-16,experiment,SSSSS,1,odd,172558,62436,NA,NA,152773,2215,NA,NA,173610,2218,NA,NA,173711,174156,173608,173711,Flanker Task,63,34200,66,yes,1024
95.52238806,95.52238806,517.9402985,517.9402985,black,legacy,legacy,legacy,0,congruent,uniform,1,undefined,1,h,66,0,0,0,66,0,66,0,66,0,0,0,66,66,66,66,9/18/2022 5:29,1500,The main experiment item,yes,FlankerTask.osexp,C:/Users/casme/OneDrive/Desktop/Fall 2022,no,mono,no,18,no,white,no,yes,768,legacy,66,66,C:/Users/casme/OneDrive/Desktop/Fall 2022/IC-subject-1.csv,legacy,Lentiform Loewenfeld,3.3.12,0,h,NA,s,NA,NA,h,502,NA,60217,NA,NA,502,2,legacy,1024,2,48000,-16,experiment,HHHHH,1,odd,174163,62436,NA,NA,152773,2215,NA,NA,175230,2218,NA,NA,175331,175834,175228,175331,Flanker Task,64,34702,67,yes,1024
95.58823529,95.58823529,518.3088235,518.3088235,black,legacy,legacy,legacy,0,incongruent,uniform,1,undefined,1,s,67,0,0,0,67,0,67,0,67,0,0,0,67,67,67,67,9/18/2022 5:29,1500,The main experiment item,yes,FlankerTask.osexp,C:/Users/casme/OneDrive/Desktop/Fall 2022,no,mono,no,18,no,white,no,yes,768,legacy,67,67,C:/Users/casme/OneDrive/Desktop/Fall 2022/IC-subject-1.csv,legacy,Lentiform Loewenfeld,3.3.12,0,s,NA,s,NA,NA,s,543,NA,60217,NA,NA,543,2,legacy,1024,2,48000,-16,experiment,HHSHH,1,odd,175841,62436,NA,NA,152773,2215,NA,NA,176892,2218,NA,NA,176993,177537,176890,176993,Flanker Task,65,35245,68,yes,1024
95.65217391,95.65217391,516.6521739,516.6521739,black,legacy,legacy,legacy,0,incongruent,uniform,1,undefined,1,s,68,0,0,0,68,0,68,0,68,0,0,0,68,68,68,68,9/18/2022 5:29,1500,The main experiment item,yes,FlankerTask.osexp,C:/Users/casme/OneDrive/Desktop/Fall 2022,no,mono,no,18,no,white,no,yes,768,legacy,68,68,C:/Users/casme/OneDrive/Desktop/Fall 2022/IC-subject-1.csv,legacy,Lentiform Loewenfeld,3.3.12,0,s,NA,s,NA,NA,s,404,NA,60217,NA,NA,404,2,legacy,1024,2,48000,-16,experiment,HHSHH,1,odd,177543,62436,NA,NA,152773,2215,NA,NA,178594,2218,NA,NA,178698,179103,178592,178698,Flanker Task,66,35649,69,yes,1024
95.71428571,95.71428571,515.2571429,515.2571429,black,legacy,legacy,legacy,0,incongruent,uniform,1,undefined,1,s,69,0,0,0,69,0,69,0,69,0,0,0,69,69,69,69,9/18/2022 5:29,1500,The main experiment item,yes,FlankerTask.osexp,C:/Users/casme/OneDrive/Desktop/Fall 2022,no,mono,no,18,no,white,no,yes,768,legacy,69,69,C:/Users/casme/OneDrive/Desktop/Fall 2022/IC-subject-1.csv,legacy,Lentiform Loewenfeld,3.3.12,0,s,NA,s,NA,NA,s,419,NA,60217,NA,NA,419,2,legacy,1024,2,48000,-16,experiment,HHSHH,1,odd,179110,62436,NA,NA,152773,2215,NA,NA,180161,2218,NA,NA,180263,180683,180159,180263,Flanker Task,67,36068,70,yes,1024
95.77464789,95.77464789,514.4366197,514.4366197,black,legacy,legacy,legacy,0,congruent,uniform,1,undefined,1,s,70,0,0,0,70,0,70,0,70,0,0,0,70,70,70,70,9/18/2022 5:29,1500,The main experiment item,yes,FlankerTask.osexp,C:/Users/casme/OneDrive/Desktop/Fall 2022,no,mono,no,18,no,white,no,yes,768,legacy,70,70,C:/Users/casme/OneDrive/Desktop/Fall 2022/IC-subject-1.csv,legacy,Lentiform Loewenfeld,3.3.12,0,s,NA,s,NA,NA,s,457,NA,60217,NA,NA,457,2,legacy,1024,2,48000,-16,experiment,SSSSS,1,odd,180690,62436,NA,NA,152773,2215,NA,NA,181745,2218,NA,NA,181847,182305,181743,181846,Flanker Task,68,36525,71,yes,1024
94.44444444,94.44444444,511.8888889,511.8888889,black,legacy,legacy,legacy,0,incongruent,uniform,0,undefined,0,h,71,0,0,0,71,0,71,0,71,0,0,0,71,71,71,71,9/18/2022 5:29,1500,The main experiment item,yes,FlankerTask.osexp,C:/Users/casme/OneDrive/Desktop/Fall 2022,no,mono,no,18,no,white,no,yes,768,legacy,71,71,C:/Users/casme/OneDrive/Desktop/Fall 2022/IC-subject-1.csv,legacy,Lentiform Loewenfeld,3.3.12,0,s,NA,s,NA,NA,s,331,NA,60217,NA,NA,331,2,legacy,1024,2,48000,-16,experiment,SSHSS,1,odd,182311,62436,NA,NA,152773,2215,NA,NA,183362,2218,NA,NA,183466,183798,183360,183466,Flanker Task,68,36856,72,yes,1024
94.52054795,94.52054795,510.0684932,510.0684932,black,legacy,legacy,legacy,0,incongruent,uniform,1,undefined,1,h,72,0,0,0,72,0,72,0,72,0,0,0,72,72,72,72,9/18/2022 5:29,1500,The main experiment item,yes,FlankerTask.osexp,C:/Users/casme/OneDrive/Desktop/Fall 2022,no,mono,no,18,no,white,no,yes,768,legacy,72,72,C:/Users/casme/OneDrive/Desktop/Fall 2022/IC-subject-1.csv,legacy,Lentiform Loewenfeld,3.3.12,0,h,NA,s,NA,NA,h,379,NA,60217,NA,NA,379,2,legacy,1024,2,48000,-16,experiment,SSHSS,1,odd,184308,62436,NA,NA,183804,2215,NA,NA,185359,2218,NA,NA,185462,185842,185357,185462,Flanker Task,69,37235,73,yes,1024
94.59459459,94.59459459,509.4189189,509.4189189,black,legacy,legacy,legacy,0,congruent,uniform,1,undefined,1,h,73,0,0,0,73,0,73,0,73,0,0,0,73,73,73,73,9/18/2022 5:29,1500,The main experiment item,yes,FlankerTask.osexp,C:/Users/casme/OneDrive/Desktop/Fall 2022,no,mono,no,18,no,white,no,yes,768,legacy,73,73,C:/Users/casme/OneDrive/Desktop/Fall 2022/IC-subject-1.csv,legacy,Lentiform Loewenfeld,3.3.12,0,h,NA,s,NA,NA,h,462,NA,60217,NA,NA,462,2,legacy,1024,2,48000,-16,experiment,HHHHH,1,odd,185847,62436,NA,NA,183804,2215,NA,NA,186901,2218,NA,NA,187004,187467,186899,187004,Flanker Task,70,37697,74,yes,1024
94.66666667,94.66666667,506.92,506.92,black,legacy,legacy,legacy,0,congruent,uniform,1,undefined,1,s,74,0,0,0,74,0,74,0,74,0,0,0,74,74,74,74,9/18/2022 5:29,1500,The main experiment item,yes,FlankerTask.osexp,C:/Users/casme/OneDrive/Desktop/Fall 2022,no,mono,no,18,no,white,no,yes,768,legacy,74,74,C:/Users/casme/OneDrive/Desktop/Fall 2022/IC-subject-1.csv,legacy,Lentiform Loewenfeld,3.3.12,0,s,NA,s,NA,NA,s,322,NA,60217,NA,NA,322,2,legacy,1024,2,48000,-16,experiment,SSSSS,1,odd,187473,62436,NA,NA,183804,2215,NA,NA,188524,2218,NA,NA,188627,188950,188522,188626,Flanker Task,71,38019,75,yes,1024
94.73684211,94.73684211,506.5526316,506.5526316,black,legacy,legacy,legacy,0,incongruent,uniform,1,undefined,1,h,75,0,0,0,75,0,75,0,75,0,0,0,75,75,75,75,9/18/2022 5:29,1500,The main experiment item,yes,FlankerTask.osexp,C:/Users/casme/OneDrive/Desktop/Fall 2022,no,mono,no,18,no,white,no,yes,768,legacy,75,75,C:/Users/casme/OneDrive/Desktop/Fall 2022/IC-subject-1.csv,legacy,Lentiform Loewenfeld,3.3.12,0,h,NA,s,NA,NA,h,479,NA,60217,NA,NA,479,2,legacy,1024,2,48000,-16,experiment,SSHSS,1,odd,188956,62436,NA,NA,183804,2215,NA,NA,190006,2218,NA,NA,190110,190590,190004,190110,Flanker Task,72,38498,76,yes,1024
94.80519481,94.80519481,505.1428571,505.1428571,black,legacy,legacy,legacy,0,incongruent,uniform,1,undefined,1,s,76,0,0,0,76,0,76,0,76,0,0,0,76,76,76,76,9/18/2022 5:29,1500,The main experiment item,yes,FlankerTask.osexp,C:/Users/casme/OneDrive/Desktop/Fall 2022,no,mono,no,18,no,white,no,yes,768,legacy,76,76,C:/Users/casme/OneDrive/Desktop/Fall 2022/IC-subject-1.csv,legacy,Lentiform Loewenfeld,3.3.12,0,s,NA,s,NA,NA,s,398,NA,60217,NA,NA,398,2,legacy,1024,2,48000,-16,experiment,HHSHH,1,odd,190595,62436,NA,NA,183804,2215,NA,NA,191646,2218,NA,NA,191748,192147,191645,191748,Flanker Task,73,38896,77,yes,1024
94.87179487,94.87179487,504.9615385,504.9615385,black,legacy,legacy,legacy,0,incongruent,uniform,1,undefined,1,h,77,0,0,0,77,0,77,0,77,0,0,0,77,77,77,77,9/18/2022 5:29,1500,The main experiment item,yes,FlankerTask.osexp,C:/Users/casme/OneDrive/Desktop/Fall 2022,no,mono,no,18,no,white,no,yes,768,legacy,77,77,C:/Users/casme/OneDrive/Desktop/Fall 2022/IC-subject-1.csv,legacy,Lentiform Loewenfeld,3.3.12,0,h,NA,s,NA,NA,h,491,NA,60217,NA,NA,491,2,legacy,1024,2,48000,-16,experiment,SSHSS,1,odd,192153,62436,NA,NA,183804,2215,NA,NA,193205,2218,NA,NA,193310,193803,193203,193309,Flanker Task,74,39387,78,yes,1024
94.93670886,94.93670886,507.4556962,507.4556962,black,legacy,legacy,legacy,0,incongruent,uniform,1,undefined,1,h,78,0,0,0,78,0,78,0,78,0,0,0,78,78,78,78,9/18/2022 5:29,1500,The main experiment item,yes,FlankerTask.osexp,C:/Users/casme/OneDrive/Desktop/Fall 2022,no,mono,no,18,no,white,no,yes,768,legacy,78,78,C:/Users/casme/OneDrive/Desktop/Fall 2022/IC-subject-1.csv,legacy,Lentiform Loewenfeld,3.3.12,0,h,NA,s,NA,NA,h,702,NA,60217,NA,NA,702,2,legacy,1024,2,48000,-16,experiment,SSHSS,1,odd,193808,62436,NA,NA,183804,2215,NA,NA,194875,2218,NA,NA,194977,195680,194873,194977,Flanker Task,75,40089,79,yes,1024
93.75,93.75,504.7125,504.7125,black,legacy,legacy,legacy,0,incongruent,uniform,0,undefined,0,h,79,0,0,0,79,0,79,0,79,0,0,0,79,79,79,79,9/18/2022 5:29,1500,The main experiment item,yes,FlankerTask.osexp,C:/Users/casme/OneDrive/Desktop/Fall 2022,no,mono,no,18,no,white,no,yes,768,legacy,79,79,C:/Users/casme/OneDrive/Desktop/Fall 2022/IC-subject-1.csv,legacy,Lentiform Loewenfeld,3.3.12,0,s,NA,s,NA,NA,s,288,NA,60217,NA,NA,288,2,legacy,1024,2,48000,-16,experiment,SSHSS,1,odd,195686,62436,NA,NA,183804,2215,NA,NA,196751,2218,NA,NA,196854,197142,196749,196854,Flanker Task,75,40377,80,yes,1024
93.82716049,93.82716049,508.4444444,508.4444444,black,legacy,legacy,legacy,0,incongruent,uniform,1,undefined,1,h,80,0,0,0,80,0,80,0,80,0,0,0,80,80,80,80,9/18/2022 5:29,600,The main experiment item,yes,FlankerTask.osexp,C:/Users/casme/OneDrive/Desktop/Fall 2022,no,mono,no,18,no,white,no,yes,768,legacy,0,79,C:/Users/casme/OneDrive/Desktop/Fall 2022/IC-subject-1.csv,legacy,Lentiform Loewenfeld,3.3.12,0,h,NA,s,h,NA,h,807,NA,60217,13575,NA,807,2,legacy,1024,2,48000,-16,experiment,SSHSS,1,odd,197653,62436,212251,NA,197148,2215,NA,NA,212300,2218,198675,NA,212402,213210,212298,212402,Flanker Task,76,41184,81,yes,1024
93.90243902,93.90243902,507.804878,507.804878,black,legacy,legacy,legacy,0,congruent,uniform,1,undefined,1,s,81,0,0,0,81,0,81,0,81,0,0,0,81,81,81,81,9/18/2022 5:29,600,The main experiment item,yes,FlankerTask.osexp,C:/Users/casme/OneDrive/Desktop/Fall 2022,no,mono,no,18,no,white,no,yes,768,legacy,1,79,C:/Users/casme/OneDrive/Desktop/Fall 2022/IC-subject-1.csv,legacy,Lentiform Loewenfeld,3.3.12,0,s,NA,s,h,NA,s,456,NA,60217,13575,NA,456,2,legacy,1024,2,48000,-16,experiment,SSSSS,1,odd,213720,62436,212251,NA,197148,2215,213216,NA,214787,2218,198675,NA,214889,215346,214785,214889,Flanker Task,77,41640,82,yes,1024
93.97590361,93.97590361,507.1927711,507.1927711,black,legacy,legacy,legacy,0,incongruent,uniform,1,undefined,1,s,82,0,0,0,82,0,82,0,82,0,0,0,82,82,82,82,9/18/2022 5:29,600,The main experiment item,yes,FlankerTask.osexp,C:/Users/casme/OneDrive/Desktop/Fall 2022,no,mono,no,18,no,white,no,yes,768,legacy,2,79,C:/Users/casme/OneDrive/Desktop/Fall 2022/IC-subject-1.csv,legacy,Lentiform Loewenfeld,3.3.12,0,s,NA,s,h,NA,s,457,NA,60217,13575,NA,457,2,legacy,1024,2,48000,-16,experiment,HHSHH,1,odd,215352,62436,212251,NA,197148,2215,213216,NA,216414,2218,198675,NA,216518,216976,216412,216518,Flanker Task,78,42097,83,yes,1024
94.04761905,94.04761905,505.6428571,505.6428571,black,legacy,legacy,legacy,0,congruent,uniform,1,undefined,1,s,83,0,0,0,83,0,83,0,83,0,0,0,83,83,83,83,9/18/2022 5:29,600,The main experiment item,yes,FlankerTask.osexp,C:/Users/casme/OneDrive/Desktop/Fall 2022,no,mono,no,18,no,white,no,yes,768,legacy,3,79,C:/Users/casme/OneDrive/Desktop/Fall 2022/IC-subject-1.csv,legacy,Lentiform Loewenfeld,3.3.12,0,s,NA,s,h,NA,s,377,NA,60217,13575,NA,377,2,legacy,1024,2,48000,-16,experiment,SSSSS,1,odd,216983,62436,212251,NA,197148,2215,213216,NA,218034,2218,198675,NA,218136,218514,218032,218136,Flanker Task,79,42474,84,yes,1024
94.11764706,94.11764706,504.4117647,504.4117647,black,legacy,legacy,legacy,0,congruent,uniform,1,undefined,1,s,84,0,0,0,84,0,84,0,84,0,0,0,84,84,84,84,9/18/2022 5:29,600,The main experiment item,yes,FlankerTask.osexp,C:/Users/casme/OneDrive/Desktop/Fall 2022,no,mono,no,18,no,white,no,yes,768,legacy,4,79,C:/Users/casme/OneDrive/Desktop/Fall 2022/IC-subject-1.csv,legacy,Lentiform Loewenfeld,3.3.12,0,s,NA,s,h,NA,s,401,NA,60217,13575,NA,401,2,legacy,1024,2,48000,-16,experiment,SSSSS,1,odd,218520,62436,212251,NA,197148,2215,213216,NA,219572,2218,198675,NA,219676,220078,219570,219676,Flanker Task,80,42875,85,yes,1024
93.02325581,93.02325581,502.2906977,502.2906977,black,legacy,legacy,legacy,0,incongruent,uniform,0,undefined,0,h,85,0,0,0,85,0,85,0,85,0,0,0,85,85,85,85,9/18/2022 5:29,600,The main experiment item,yes,FlankerTask.osexp,C:/Users/casme/OneDrive/Desktop/Fall 2022,no,mono,no,18,no,white,no,yes,768,legacy,5,79,C:/Users/casme/OneDrive/Desktop/Fall 2022/IC-subject-1.csv,legacy,Lentiform Loewenfeld,3.3.12,0,s,NA,s,h,NA,s,322,NA,60217,13575,NA,322,2,legacy,1024,2,48000,-16,experiment,SSHSS,1,odd,220084,62436,212251,NA,197148,2215,213216,NA,221148,2218,198675,NA,221250,221573,221146,221250,Flanker Task,80,43197,86,yes,1024
93.10344828,93.10344828,501.2068966,501.2068966,black,legacy,legacy,legacy,0,congruent,uniform,1,undefined,1,h,86,0,0,0,86,0,86,0,86,0,0,0,86,86,86,86,9/18/2022 5:29,600,The main experiment item,yes,FlankerTask.osexp,C:/Users/casme/OneDrive/Desktop/Fall 2022,no,mono,no,18,no,white,no,yes,768,legacy,6,79,C:/Users/casme/OneDrive/Desktop/Fall 2022/IC-subject-1.csv,legacy,Lentiform Loewenfeld,3.3.12,0,h,NA,s,h,NA,h,408,NA,60217,13575,NA,408,2,legacy,1024,2,48000,-16,experiment,HHHHH,1,odd,222081,62436,212251,NA,221579,2215,213216,NA,223146,2218,198675,NA,223247,223655,223144,223247,Flanker Task,81,43605,87,yes,1024
92.04545455,92.04545455,500.0909091,500.0909091,black,legacy,legacy,legacy,0,incongruent,uniform,0,undefined,0,h,87,0,0,0,87,0,87,0,87,0,0,0,87,87,87,87,9/18/2022 5:29,600,The main experiment item,yes,FlankerTask.osexp,C:/Users/casme/OneDrive/Desktop/Fall 2022,no,mono,no,18,no,white,no,yes,768,legacy,7,79,C:/Users/casme/OneDrive/Desktop/Fall 2022/IC-subject-1.csv,legacy,Lentiform Loewenfeld,3.3.12,0,s,NA,s,h,NA,s,403,NA,60217,13575,NA,403,2,legacy,1024,2,48000,-16,experiment,SSHSS,1,odd,223661,62436,212251,NA,221579,2215,213216,NA,224713,2218,198675,NA,224818,225223,224711,224817,Flanker Task,81,44008,88,yes,1024
92.13483146,92.13483146,500.3033708,500.3033708,black,legacy,legacy,legacy,0,congruent,uniform,1,undefined,1,s,88,0,0,0,88,0,88,0,88,0,0,0,88,88,88,88,9/18/2022 5:29,600,The main experiment item,yes,FlankerTask.osexp,C:/Users/casme/OneDrive/Desktop/Fall 2022,no,mono,no,18,no,white,no,yes,768,legacy,8,79,C:/Users/casme/OneDrive/Desktop/Fall 2022/IC-subject-1.csv,legacy,Lentiform Loewenfeld,3.3.12,0,s,NA,s,h,NA,s,519,NA,60217,13575,NA,519,2,legacy,1024,2,48000,-16,experiment,SSSSS,1,odd,225731,62436,212251,NA,225229,2215,213216,NA,226783,2218,198675,NA,226886,227406,226781,226886,Flanker Task,82,44527,89,yes,1024
92.22222222,92.22222222,498.9111111,498.9111111,black,legacy,legacy,legacy,0,congruent,uniform,1,undefined,1,h,89,0,0,0,89,0,89,0,89,0,0,0,89,89,89,89,9/18/2022 5:29,600,The main experiment item,yes,FlankerTask.osexp,C:/Users/casme/OneDrive/Desktop/Fall 2022,no,mono,no,18,no,white,no,yes,768,legacy,9,79,C:/Users/casme/OneDrive/Desktop/Fall 2022/IC-subject-1.csv,legacy,Lentiform Loewenfeld,3.3.12,0,h,NA,s,h,NA,h,375,NA,60217,13575,NA,375,2,legacy,1024,2,48000,-16,experiment,HHHHH,1,odd,227413,62436,212251,NA,225229,2215,213216,NA,228470,2218,198675,NA,228573,228949,228468,228573,Flanker Task,83,44902,90,yes,1024
92.30769231,92.30769231,498.2637363,498.2637363,black,legacy,legacy,legacy,0,congruent,uniform,1,undefined,1,s,90,0,0,0,90,0,90,0,90,0,0,0,90,90,90,90,9/18/2022 5:29,600,The main experiment item,yes,FlankerTask.osexp,C:/Users/casme/OneDrive/Desktop/Fall 2022,no,mono,no,18,no,white,no,yes,768,legacy,10,79,C:/Users/casme/OneDrive/Desktop/Fall 2022/IC-subject-1.csv,legacy,Lentiform Loewenfeld,3.3.12,0,s,NA,s,h,NA,s,440,NA,60217,13575,NA,440,2,legacy,1024,2,48000,-16,experiment,SSSSS,1,odd,228956,62436,212251,NA,225229,2215,213216,NA,230008,2218,198675,NA,230110,230551,230006,230110,Flanker Task,84,45342,91,yes,1024
92.39130435,92.39130435,497.4891304,497.4891304,black,legacy,legacy,legacy,0,incongruent,uniform,1,undefined,1,s,91,0,0,0,91,0,91,0,91,0,0,0,91,91,91,91,9/18/2022 5:29,600,The main experiment item,yes,FlankerTask.osexp,C:/Users/casme/OneDrive/Desktop/Fall 2022,no,mono,no,18,no,white,no,yes,768,legacy,11,79,C:/Users/casme/OneDrive/Desktop/Fall 2022/IC-subject-1.csv,legacy,Lentiform Loewenfeld,3.3.12,0,s,NA,s,h,NA,s,427,NA,60217,13575,NA,427,2,legacy,1024,2,48000,-16,experiment,HHSHH,1,odd,230557,62436,212251,NA,225229,2215,213216,NA,231608,2218,198675,NA,231709,232137,231606,231709,Flanker Task,85,45769,92,yes,1024
92.47311828,92.47311828,496.9247312,496.9247312,black,legacy,legacy,legacy,0,incongruent,uniform,1,undefined,1,s,92,0,0,0,92,0,92,0,92,0,0,0,92,92,92,92,9/18/2022 5:29,600,The main experiment item,yes,FlankerTask.osexp,C:/Users/casme/OneDrive/Desktop/Fall 2022,no,mono,no,18,no,white,no,yes,768,legacy,12,79,C:/Users/casme/OneDrive/Desktop/Fall 2022/IC-subject-1.csv,legacy,Lentiform Loewenfeld,3.3.12,0,s,NA,s,h,NA,s,445,NA,60217,13575,NA,445,2,legacy,1024,2,48000,-16,experiment,HHSHH,1,odd,232143,62436,212251,NA,225229,2215,213216,NA,233207,2218,198675,NA,233310,233756,233205,233310,Flanker Task,86,46214,93,yes,1024
92.55319149,92.55319149,497.2234043,497.2234043,black,legacy,legacy,legacy,0,incongruent,uniform,1,undefined,1,s,93,0,0,0,93,0,93,0,93,0,0,0,93,93,93,93,9/18/2022 5:29,600,The main experiment item,yes,FlankerTask.osexp,C:/Users/casme/OneDrive/Desktop/Fall 2022,no,mono,no,18,no,white,no,yes,768,legacy,13,79,C:/Users/casme/OneDrive/Desktop/Fall 2022/IC-subject-1.csv,legacy,Lentiform Loewenfeld,3.3.12,0,s,NA,s,h,NA,s,525,NA,60217,13575,NA,525,2,legacy,1024,2,48000,-16,experiment,HHSHH,1,odd,233762,62436,212251,NA,225229,2215,213216,NA,234813,2218,198675,NA,234916,235442,234810,234916,Flanker Task,87,46739,94,yes,1024
92.63157895,92.63157895,496.1052632,496.1052632,black,legacy,legacy,legacy,0,incongruent,uniform,1,undefined,1,s,94,0,0,0,94,0,94,0,94,0,0,0,94,94,94,94,9/18/2022 5:29,600,The main experiment item,yes,FlankerTask.osexp,C:/Users/casme/OneDrive/Desktop/Fall 2022,no,mono,no,18,no,white,no,yes,768,legacy,14,79,C:/Users/casme/OneDrive/Desktop/Fall 2022/IC-subject-1.csv,legacy,Lentiform Loewenfeld,3.3.12,0,s,NA,s,h,NA,s,391,NA,60217,13575,NA,391,2,legacy,1024,2,48000,-16,experiment,HHSHH,1,odd,235449,62436,212251,NA,225229,2215,213216,NA,236513,2218,198675,NA,236617,237009,236511,236617,Flanker Task,88,47130,95,yes,1024
92.70833333,92.70833333,496.0208333,496.0208333,black,legacy,legacy,legacy,0,congruent,uniform,1,undefined,1,s,95,0,0,0,95,0,95,0,95,0,0,0,95,95,95,95,9/18/2022 5:29,600,The main experiment item,yes,FlankerTask.osexp,C:/Users/casme/OneDrive/Desktop/Fall 2022,no,mono,no,18,no,white,no,yes,768,legacy,15,79,C:/Users/casme/OneDrive/Desktop/Fall 2022/IC-subject-1.csv,legacy,Lentiform Loewenfeld,3.3.12,0,s,NA,s,h,NA,s,488,NA,60217,13575,NA,488,2,legacy,1024,2,48000,-16,experiment,SSSSS,1,odd,237015,62436,212251,NA,225229,2215,213216,NA,238068,2218,198675,NA,238173,238662,238066,238172,Flanker Task,89,47618,96,yes,1024
92.78350515,92.78350515,494.4329897,494.4329897,black,legacy,legacy,legacy,0,congruent,uniform,1,undefined,1,h,96,0,0,0,96,0,96,0,96,0,0,0,96,96,96,96,9/18/2022 5:29,600,The main experiment item,yes,FlankerTask.osexp,C:/Users/casme/OneDrive/Desktop/Fall 2022,no,mono,no,18,no,white,no,yes,768,legacy,16,79,C:/Users/casme/OneDrive/Desktop/Fall 2022/IC-subject-1.csv,legacy,Lentiform Loewenfeld,3.3.12,0,h,NA,s,h,NA,h,342,NA,60217,13575,NA,342,2,legacy,1024,2,48000,-16,experiment,HHHHH,1,odd,238668,62436,212251,NA,225229,2215,213216,NA,239718,2218,198675,NA,239819,240163,239716,239819,Flanker Task,90,47960,97,yes,1024
92.85714286,92.85714286,493.6734694,493.6734694,black,legacy,legacy,legacy,0,congruent,uniform,1,undefined,1,s,97,0,0,0,97,0,97,0,97,0,0,0,97,97,97,97,9/18/2022 5:29,600,The main experiment item,yes,FlankerTask.osexp,C:/Users/casme/OneDrive/Desktop/Fall 2022,no,mono,no,18,no,white,no,yes,768,legacy,17,79,C:/Users/casme/OneDrive/Desktop/Fall 2022/IC-subject-1.csv,legacy,Lentiform Loewenfeld,3.3.12,0,s,NA,s,h,NA,s,420,NA,60217,13575,NA,420,2,legacy,1024,2,48000,-16,experiment,SSSSS,1,odd,240169,62436,212251,NA,225229,2215,213216,NA,241227,2218,198675,NA,241330,241751,241225,241330,Flanker Task,91,48380,98,yes,1024
92.92929293,92.92929293,492.3232323,492.3232323,black,legacy,legacy,legacy,0,congruent,uniform,1,undefined,1,h,98,0,0,0,98,0,98,0,98,0,0,0,98,98,98,98,9/18/2022 5:29,600,The main experiment item,yes,FlankerTask.osexp,C:/Users/casme/OneDrive/Desktop/Fall 2022,no,mono,no,18,no,white,no,yes,768,legacy,18,79,C:/Users/casme/OneDrive/Desktop/Fall 2022/IC-subject-1.csv,legacy,Lentiform Loewenfeld,3.3.12,0,h,NA,s,h,NA,h,360,NA,60217,13575,NA,360,2,legacy,1024,2,48000,-16,experiment,HHHHH,1,odd,241757,62436,212251,NA,225229,2215,213216,NA,242809,2218,198675,NA,242911,243272,242807,242911,Flanker Task,92,48740,99,yes,1024
93,93,492.16,492.16,black,legacy,legacy,legacy,0,incongruent,uniform,1,undefined,1,h,99,0,0,0,99,0,99,0,99,0,0,0,99,99,99,99,9/18/2022 5:29,600,The main experiment item,yes,FlankerTask.osexp,C:/Users/casme/OneDrive/Desktop/Fall 2022,no,mono,no,18,no,white,no,yes,768,legacy,19,79,C:/Users/casme/OneDrive/Desktop/Fall 2022/IC-subject-1.csv,legacy,Lentiform Loewenfeld,3.3.12,0,h,NA,s,h,NA,h,476,NA,60217,13575,NA,476,2,legacy,1024,2,48000,-16,experiment,SSHSS,1,odd,243278,62436,212251,NA,225229,2215,213216,NA,244330,2218,198675,NA,244434,244912,244328,244434,Flanker Task,93,49216,100,yes,1024
93.06930693,93.06930693,490.3762376,490.3762376,black,legacy,legacy,legacy,0,congruent,uniform,1,undefined,1,h,100,0,0,0,100,0,100,0,100,0,0,0,100,100,100,100,9/18/2022 5:29,600,The main experiment item,yes,FlankerTask.osexp,C:/Users/casme/OneDrive/Desktop/Fall 2022,no,mono,no,18,no,white,no,yes,768,legacy,20,79,C:/Users/casme/OneDrive/Desktop/Fall 2022/IC-subject-1.csv,legacy,Lentiform Loewenfeld,3.3.12,0,h,NA,s,h,NA,h,312,NA,60217,13575,NA,312,2,legacy,1024,2,48000,-16,experiment,HHHHH,1,odd,244918,62436,212251,NA,225229,2215,213216,NA,245969,2218,198675,NA,246072,246386,245967,246072,Flanker Task,94,49528,101,yes,1024
93.1372549,93.1372549,491.2647059,491.2647059,black,legacy,legacy,legacy,0,congruent,uniform,1,undefined,1,s,101,0,0,0,101,0,101,0,101,0,0,0,101,101,101,101,9/18/2022 5:29,600,The main experiment item,yes,FlankerTask.osexp,C:/Users/casme/OneDrive/Desktop/Fall 2022,no,mono,no,18,no,white,no,yes,768,legacy,21,79,C:/Users/casme/OneDrive/Desktop/Fall 2022/IC-subject-1.csv,legacy,Lentiform Loewenfeld,3.3.12,0,s,NA,s,h,NA,s,581,NA,60217,13575,NA,581,2,legacy,1024,2,48000,-16,experiment,SSSSS,1,odd,246392,62436,212251,NA,225229,2215,213216,NA,247445,2218,198675,NA,247549,248132,247443,247549,Flanker Task,95,50109,102,yes,1024
92.23300971,92.23300971,491.2135922,491.2135922,black,legacy,legacy,legacy,0,incongruent,uniform,0,undefined,0,s,102,0,0,0,102,0,102,0,102,0,0,0,102,102,102,102,9/18/2022 5:29,600,The main experiment item,yes,FlankerTask.osexp,C:/Users/casme/OneDrive/Desktop/Fall 2022,no,mono,no,18,no,white,no,yes,768,legacy,22,79,C:/Users/casme/OneDrive/Desktop/Fall 2022/IC-subject-1.csv,legacy,Lentiform Loewenfeld,3.3.12,0,h,NA,s,h,NA,h,486,NA,60217,13575,NA,486,2,legacy,1024,2,48000,-16,experiment,HHSHH,1,odd,248137,62436,212251,NA,225229,2215,213216,NA,249197,2218,198675,NA,249298,249785,249195,249298,Flanker Task,95,50595,103,yes,1024
92.30769231,92.30769231,491.0288462,491.0288462,black,legacy,legacy,legacy,0,congruent,uniform,1,undefined,1,h,103,0,0,0,103,0,103,0,103,0,0,0,103,103,103,103,9/18/2022 5:29,600,The main experiment item,yes,FlankerTask.osexp,C:/Users/casme/OneDrive/Desktop/Fall 2022,no,mono,no,18,no,white,no,yes,768,legacy,23,79,C:/Users/casme/OneDrive/Desktop/Fall 2022/IC-subject-1.csv,legacy,Lentiform Loewenfeld,3.3.12,0,h,NA,s,h,NA,h,472,NA,60217,13575,NA,472,2,legacy,1024,2,48000,-16,experiment,HHHHH,1,odd,250295,62436,212251,NA,249791,2215,213216,NA,251358,2218,198675,NA,251462,251936,251357,251462,Flanker Task,96,51067,104,yes,1024
92.38095238,92.38095238,490.1714286,490.1714286,black,legacy,legacy,legacy,0,congruent,uniform,1,undefined,1,h,104,0,0,0,104,0,104,0,104,0,0,0,104,104,104,104,9/18/2022 5:29,600,The main experiment item,yes,FlankerTask.osexp,C:/Users/casme/OneDrive/Desktop/Fall 2022,no,mono,no,18,no,white,no,yes,768,legacy,24,79,C:/Users/casme/OneDrive/Desktop/Fall 2022/IC-subject-1.csv,legacy,Lentiform Loewenfeld,3.3.12,0,h,NA,s,h,NA,h,401,NA,60217,13575,NA,401,2,legacy,1024,2,48000,-16,experiment,HHHHH,1,odd,251941,62436,212251,NA,249791,2215,213216,NA,253003,2218,198675,NA,253104,253506,253001,253104,Flanker Task,97,51468,105,yes,1024
92.45283019,92.45283019,488.8584906,488.8584906,black,legacy,legacy,legacy,0,incongruent,uniform,1,undefined,1,h,105,0,0,0,105,0,105,0,105,0,0,0,105,105,105,105,9/18/2022 5:29,600,The main experiment item,yes,FlankerTask.osexp,C:/Users/casme/OneDrive/Desktop/Fall 2022,no,mono,no,18,no,white,no,yes,768,legacy,25,79,C:/Users/casme/OneDrive/Desktop/Fall 2022/IC-subject-1.csv,legacy,Lentiform Loewenfeld,3.3.12,0,h,NA,s,h,NA,h,351,NA,60217,13575,NA,351,2,legacy,1024,2,48000,-16,experiment,SSHSS,1,odd,253513,62436,212251,NA,249791,2215,213216,NA,254563,2218,198675,NA,254664,255016,254561,254664,Flanker Task,98,51819,106,yes,1024
92.52336449,92.52336449,489.2616822,489.2616822,black,legacy,legacy,legacy,0,incongruent,uniform,1,undefined,1,s,106,0,0,0,106,0,106,0,106,0,0,0,106,106,106,106,9/18/2022 5:29,600,The main experiment item,yes,FlankerTask.osexp,C:/Users/casme/OneDrive/Desktop/Fall 2022,no,mono,no,18,no,white,no,yes,768,legacy,26,79,C:/Users/casme/OneDrive/Desktop/Fall 2022/IC-subject-1.csv,legacy,Lentiform Loewenfeld,3.3.12,0,s,NA,s,h,NA,s,532,NA,60217,13575,NA,532,2,legacy,1024,2,48000,-16,experiment,HHSHH,1,odd,255022,62436,212251,NA,249791,2215,213216,NA,256075,2218,198675,NA,256180,256713,256073,256179,Flanker Task,99,52351,107,yes,1024
92.59259259,92.59259259,489.1296296,489.1296296,black,legacy,legacy,legacy,0,incongruent,uniform,1,undefined,1,h,107,0,0,0,107,0,107,0,107,0,0,0,107,107,107,107,9/18/2022 5:29,600,The main experiment item,yes,FlankerTask.osexp,C:/Users/casme/OneDrive/Desktop/Fall 2022,no,mono,no,18,no,white,no,yes,768,legacy,27,79,C:/Users/casme/OneDrive/Desktop/Fall 2022/IC-subject-1.csv,legacy,Lentiform Loewenfeld,3.3.12,0,h,NA,s,h,NA,h,475,NA,60217,13575,NA,475,2,legacy,1024,2,48000,-16,experiment,SSHSS,1,odd,256719,62436,212251,NA,249791,2215,213216,NA,257773,2218,198675,NA,257877,258354,257771,257876,Flanker Task,100,52826,108,yes,1024
91.74311927,91.74311927,487.1559633,487.1559633,black,legacy,legacy,legacy,0,congruent,uniform,0,undefined,0,h,108,0,0,0,108,0,108,0,108,0,0,0,108,108,108,108,9/18/2022 5:29,600,The main experiment item,yes,FlankerTask.osexp,C:/Users/casme/OneDrive/Desktop/Fall 2022,no,mono,no,18,no,white,no,yes,768,legacy,28,79,C:/Users/casme/OneDrive/Desktop/Fall 2022/IC-subject-1.csv,legacy,Lentiform Loewenfeld,3.3.12,0,s,NA,s,h,NA,s,274,NA,60217,13575,NA,274,2,legacy,1024,2,48000,-16,experiment,HHHHH,1,odd,258359,62436,212251,NA,249791,2215,213216,NA,259417,2218,198675,NA,259523,259798,259415,259523,Flanker Task,100,53100,109,yes,1024
91.81818182,91.81818182,487.4272727,487.4272727,black,legacy,legacy,legacy,0,congruent,uniform,1,undefined,1,s,109,0,0,0,109,0,109,0,109,0,0,0,109,109,109,109,9/18/2022 5:29,600,The main experiment item,yes,FlankerTask.osexp,C:/Users/casme/OneDrive/Desktop/Fall 2022,no,mono,no,18,no,white,no,yes,768,legacy,29,79,C:/Users/casme/OneDrive/Desktop/Fall 2022/IC-subject-1.csv,legacy,Lentiform Loewenfeld,3.3.12,0,s,NA,s,h,NA,s,517,NA,60217,13575,NA,517,2,legacy,1024,2,48000,-16,experiment,SSSSS,1,odd,260308,62436,212251,NA,259804,2215,213216,NA,261360,2218,198675,NA,261463,261981,261357,261463,Flanker Task,101,53617,110,yes,1024
91.89189189,91.89189189,486.7477477,486.7477477,black,legacy,legacy,legacy,0,congruent,uniform,1,undefined,1,h,110,0,0,0,110,0,110,0,110,0,0,0,110,110,110,110,9/18/2022 5:29,600,The main experiment item,yes,FlankerTask.osexp,C:/Users/casme/OneDrive/Desktop/Fall 2022,no,mono,no,18,no,white,no,yes,768,legacy,30,79,C:/Users/casme/OneDrive/Desktop/Fall 2022/IC-subject-1.csv,legacy,Lentiform Loewenfeld,3.3.12,0,h,NA,s,h,NA,h,412,NA,60217,13575,NA,412,2,legacy,1024,2,48000,-16,experiment,HHHHH,1,odd,261986,62436,212251,NA,259804,2215,213216,NA,263038,2218,198675,NA,263139,263552,263036,263139,Flanker Task,102,54029,111,yes,1024
91.07142857,91.07142857,485.1964286,485.1964286,black,legacy,legacy,legacy,0,incongruent,uniform,0,undefined,0,h,111,0,0,0,111,0,111,0,111,0,0,0,111,111,111,111,9/18/2022 5:29,600,The main experiment item,yes,FlankerTask.osexp,C:/Users/casme/OneDrive/Desktop/Fall 2022,no,mono,no,18,no,white,no,yes,768,legacy,31,79,C:/Users/casme/OneDrive/Desktop/Fall 2022/IC-subject-1.csv,legacy,Lentiform Loewenfeld,3.3.12,0,s,NA,s,h,NA,s,313,NA,60217,13575,NA,313,2,legacy,1024,2,48000,-16,experiment,SSHSS,1,odd,263558,62436,212251,NA,259804,2215,213216,NA,264610,2218,198675,NA,264711,265026,264608,264711,Flanker Task,102,54342,112,yes,1024
91.15044248,91.15044248,486.0619469,486.0619469,black,legacy,legacy,legacy,0,incongruent,uniform,1,undefined,1,s,112,0,0,0,112,0,112,0,112,0,0,0,112,112,112,112,9/18/2022 5:29,600,The main experiment item,yes,FlankerTask.osexp,C:/Users/casme/OneDrive/Desktop/Fall 2022,no,mono,no,18,no,white,no,yes,768,legacy,32,79,C:/Users/casme/OneDrive/Desktop/Fall 2022/IC-subject-1.csv,legacy,Lentiform Loewenfeld,3.3.12,0,s,NA,s,h,NA,s,583,NA,60217,13575,NA,583,2,legacy,1024,2,48000,-16,experiment,HHSHH,1,odd,265534,62436,212251,NA,265032,2215,213216,NA,266599,2218,198675,NA,266702,267286,266597,266702,Flanker Task,103,54925,113,yes,1024
91.22807018,91.22807018,484.7280702,484.7280702,black,legacy,legacy,legacy,0,congruent,uniform,1,undefined,1,h,113,0,0,0,113,0,113,0,113,0,0,0,113,113,113,113,9/18/2022 5:29,600,The main experiment item,yes,FlankerTask.osexp,C:/Users/casme/OneDrive/Desktop/Fall 2022,no,mono,no,18,no,white,no,yes,768,legacy,33,79,C:/Users/casme/OneDrive/Desktop/Fall 2022/IC-subject-1.csv,legacy,Lentiform Loewenfeld,3.3.12,0,h,NA,s,h,NA,h,334,NA,60217,13575,NA,334,2,legacy,1024,2,48000,-16,experiment,HHHHH,1,odd,267293,62436,212251,NA,265032,2215,213216,NA,268344,2218,198675,NA,268447,268782,268342,268447,Flanker Task,104,55259,114,yes,1024
91.30434783,91.30434783,484.5826087,484.5826087,black,legacy,legacy,legacy,0,congruent,uniform,1,undefined,1,s,114,0,0,0,114,0,114,0,114,0,0,0,114,114,114,114,9/18/2022 5:29,600,The main experiment item,yes,FlankerTask.osexp,C:/Users/casme/OneDrive/Desktop/Fall 2022,no,mono,no,18,no,white,no,yes,768,legacy,34,79,C:/Users/casme/OneDrive/Desktop/Fall 2022/IC-subject-1.csv,legacy,Lentiform Loewenfeld,3.3.12,0,s,NA,s,h,NA,s,468,NA,60217,13575,NA,468,2,legacy,1024,2,48000,-16,experiment,SSSSS,1,odd,268788,62436,212251,NA,265032,2215,213216,NA,269853,2218,198675,NA,269957,270427,269851,269957,Flanker Task,105,55727,115,yes,1024
91.37931034,91.37931034,485.8275862,485.8275862,black,legacy,legacy,legacy,0,incongruent,uniform,1,undefined,1,s,115,0,0,0,115,0,115,0,115,0,0,0,115,115,115,115,9/18/2022 5:29,600,The main experiment item,yes,FlankerTask.osexp,C:/Users/casme/OneDrive/Desktop/Fall 2022,no,mono,no,18,no,white,no,yes,768,legacy,35,79,C:/Users/casme/OneDrive/Desktop/Fall 2022/IC-subject-1.csv,legacy,Lentiform Loewenfeld,3.3.12,0,s,NA,s,h,NA,s,629,NA,60217,13575,NA,629,2,legacy,1024,2,48000,-16,experiment,HHSHH,1,odd,270433,62436,212251,NA,265032,2215,213216,NA,271485,2218,198675,NA,271587,272218,271483,271587,Flanker Task,106,56356,116,yes,1024
91.45299145,91.45299145,484.6153846,484.6153846,black,legacy,legacy,legacy,0,congruent,uniform,1,undefined,1,s,116,0,0,0,116,0,116,0,116,0,0,0,116,116,116,116,9/18/2022 5:29,600,The main experiment item,yes,FlankerTask.osexp,C:/Users/casme/OneDrive/Desktop/Fall 2022,no,mono,no,18,no,white,no,yes,768,legacy,36,79,C:/Users/casme/OneDrive/Desktop/Fall 2022/IC-subject-1.csv,legacy,Lentiform Loewenfeld,3.3.12,0,s,NA,s,h,NA,s,344,NA,60217,13575,NA,344,2,legacy,1024,2,48000,-16,experiment,SSSSS,1,odd,272727,62436,212251,NA,265032,2215,272223,NA,273793,2218,198675,NA,273898,274243,273792,273898,Flanker Task,107,56700,117,yes,1024
91.52542373,91.52542373,483.9830508,483.9830508,black,legacy,legacy,legacy,0,congruent,uniform,1,undefined,1,h,117,0,0,0,117,0,117,0,117,0,0,0,117,117,117,117,9/18/2022 5:29,600,The main experiment item,yes,FlankerTask.osexp,C:/Users/casme/OneDrive/Desktop/Fall 2022,no,mono,no,18,no,white,no,yes,768,legacy,37,79,C:/Users/casme/OneDrive/Desktop/Fall 2022/IC-subject-1.csv,legacy,Lentiform Loewenfeld,3.3.12,0,h,NA,s,h,NA,h,410,NA,60217,13575,NA,410,2,legacy,1024,2,48000,-16,experiment,HHHHH,1,odd,274250,62436,212251,NA,265032,2215,272223,NA,275314,2218,198675,NA,275416,275827,275312,275416,Flanker Task,108,57110,118,yes,1024
91.59663866,91.59663866,482.9747899,482.9747899,black,legacy,legacy,legacy,0,congruent,uniform,1,undefined,1,s,118,0,0,0,118,0,118,0,118,0,0,0,118,118,118,118,9/18/2022 5:29,600,The main experiment item,yes,FlankerTask.osexp,C:/Users/casme/OneDrive/Desktop/Fall 2022,no,mono,no,18,no,white,no,yes,768,legacy,38,79,C:/Users/casme/OneDrive/Desktop/Fall 2022/IC-subject-1.csv,legacy,Lentiform Loewenfeld,3.3.12,0,s,NA,s,h,NA,s,364,NA,60217,13575,NA,364,2,legacy,1024,2,48000,-16,experiment,SSSSS,1,odd,275833,62436,212251,NA,265032,2215,272223,NA,276887,2218,198675,NA,276989,277353,276885,276989,Flanker Task,109,57474,119,yes,1024
90.83333333,90.83333333,482.0333333,482.0333333,black,legacy,legacy,legacy,0,congruent,uniform,0,undefined,0,s,119,0,0,0,119,0,119,0,119,0,0,0,119,119,119,119,9/18/2022 5:29,600,The main experiment item,yes,FlankerTask.osexp,C:/Users/casme/OneDrive/Desktop/Fall 2022,no,mono,no,18,no,white,no,yes,768,legacy,39,79,C:/Users/casme/OneDrive/Desktop/Fall 2022/IC-subject-1.csv,legacy,Lentiform Loewenfeld,3.3.12,0,h,NA,s,h,NA,h,370,NA,60217,13575,NA,370,2,legacy,1024,2,48000,-16,experiment,SSSSS,1,odd,277361,62436,212251,NA,265032,2215,272223,NA,278411,2218,198675,NA,278512,278884,278409,278512,Flanker Task,109,57844,120,yes,1024
90.08264463,90.08264463,480.8512397,480.8512397,black,legacy,legacy,legacy,0,incongruent,uniform,0,undefined,0,h,120,0,0,0,120,0,120,0,120,0,0,0,120,120,120,120,9/18/2022 5:29,600,The main experiment item,yes,FlankerTask.osexp,C:/Users/casme/OneDrive/Desktop/Fall 2022,no,mono,no,18,no,white,no,yes,768,legacy,40,79,C:/Users/casme/OneDrive/Desktop/Fall 2022/IC-subject-1.csv,legacy,Lentiform Loewenfeld,3.3.12,0,s,NA,s,h,NA,s,339,NA,60217,13575,NA,339,2,legacy,1024,2,48000,-16,experiment,SSHSS,1,odd,279391,62436,212251,NA,278890,2215,272223,NA,280442,2218,198675,NA,280544,280885,280440,280543,Flanker Task,109,58183,121,yes,1024
89.3442623,89.3442623,480.9672131,480.9672131,black,legacy,legacy,legacy,0,incongruent,uniform,0,undefined,0,h,121,0,0,0,121,0,121,0,121,0,0,0,121,121,121,121,9/18/2022 5:29,600,The main experiment item,yes,FlankerTask.osexp,C:/Users/casme/OneDrive/Desktop/Fall 2022,no,mono,no,18,no,white,no,yes,768,legacy,41,79,C:/Users/casme/OneDrive/Desktop/Fall 2022/IC-subject-1.csv,legacy,Lentiform Loewenfeld,3.3.12,0,s,NA,s,h,NA,s,495,NA,60217,13575,NA,495,2,legacy,1024,2,48000,-16,experiment,SSHSS,1,odd,281392,62436,212251,NA,280890,2215,272223,NA,282445,2218,198675,NA,282547,283043,282443,282546,Flanker Task,109,58678,122,yes,1024
89.43089431,89.43089431,480.3495935,480.3495935,black,legacy,legacy,legacy,0,incongruent,uniform,1,undefined,1,h,122,0,0,0,122,0,122,0,122,0,0,0,122,122,122,122,9/18/2022 5:29,600,The main experiment item,yes,FlankerTask.osexp,C:/Users/casme/OneDrive/Desktop/Fall 2022,no,mono,no,18,no,white,no,yes,768,legacy,42,79,C:/Users/casme/OneDrive/Desktop/Fall 2022/IC-subject-1.csv,legacy,Lentiform Loewenfeld,3.3.12,0,h,NA,s,h,NA,h,405,NA,60217,13575,NA,405,2,legacy,1024,2,48000,-16,experiment,SSHSS,1,odd,283553,62436,212251,NA,283050,2215,272223,NA,284619,2218,198675,NA,284720,285126,284617,284720,Flanker Task,110,59083,123,yes,1024
89.51612903,89.51612903,479.9354839,479.9354839,black,legacy,legacy,legacy,0,congruent,uniform,1,undefined,1,h,123,0,0,0,123,0,123,0,123,0,0,0,123,123,123,123,9/18/2022 5:29,600,The main experiment item,yes,FlankerTask.osexp,C:/Users/casme/OneDrive/Desktop/Fall 2022,no,mono,no,18,no,white,no,yes,768,legacy,43,79,C:/Users/casme/OneDrive/Desktop/Fall 2022/IC-subject-1.csv,legacy,Lentiform Loewenfeld,3.3.12,0,h,NA,s,h,NA,h,429,NA,60217,13575,NA,429,2,legacy,1024,2,48000,-16,experiment,HHHHH,1,odd,285132,62436,212251,NA,283050,2215,272223,NA,286199,2218,198675,NA,286302,286733,286197,286302,Flanker Task,111,59512,124,yes,1024
89.6,89.6,481.24,481.24,black,legacy,legacy,legacy,0,incongruent,uniform,1,undefined,1,s,124,0,0,0,124,0,124,0,124,0,0,0,124,124,124,124,9/18/2022 5:29,600,The main experiment item,yes,FlankerTask.osexp,C:/Users/casme/OneDrive/Desktop/Fall 2022,no,mono,no,18,no,white,no,yes,768,legacy,44,79,C:/Users/casme/OneDrive/Desktop/Fall 2022/IC-subject-1.csv,legacy,Lentiform Loewenfeld,3.3.12,0,s,NA,s,h,NA,s,643,NA,60217,13575,NA,643,2,legacy,1024,2,48000,-16,experiment,HHSHH,1,odd,286738,62436,212251,NA,283050,2215,272223,NA,287793,2218,198675,NA,287898,288542,287791,287897,Flanker Task,112,60155,125,yes,1024
89.68253968,89.68253968,480.2539683,480.2539683,black,legacy,legacy,legacy,0,congruent,uniform,1,undefined,1,s,125,0,0,0,125,0,125,0,125,0,0,0,125,125,125,125,9/18/2022 5:29,600,The main experiment item,yes,FlankerTask.osexp,C:/Users/casme/OneDrive/Desktop/Fall 2022,no,mono,no,18,no,white,no,yes,768,legacy,45,79,C:/Users/casme/OneDrive/Desktop/Fall 2022/IC-subject-1.csv,legacy,Lentiform Loewenfeld,3.3.12,0,s,NA,s,h,NA,s,357,NA,60217,13575,NA,357,2,legacy,1024,2,48000,-16,experiment,SSSSS,1,odd,289053,62436,212251,NA,283050,2215,288549,NA,290111,2218,198675,NA,290212,290570,290109,290212,Flanker Task,113,60512,126,yes,1024
89.76377953,89.76377953,479.0472441,479.0472441,black,legacy,legacy,legacy,0,congruent,uniform,1,undefined,1,s,126,0,0,0,126,0,126,0,126,0,0,0,126,126,126,126,9/18/2022 5:29,600,The main experiment item,yes,FlankerTask.osexp,C:/Users/casme/OneDrive/Desktop/Fall 2022,no,mono,no,18,no,white,no,yes,768,legacy,46,79,C:/Users/casme/OneDrive/Desktop/Fall 2022/IC-subject-1.csv,legacy,Lentiform Loewenfeld,3.3.12,0,s,NA,s,h,NA,s,327,NA,60217,13575,NA,327,2,legacy,1024,2,48000,-16,experiment,SSSSS,1,odd,290577,62436,212251,NA,283050,2215,288549,NA,291631,2218,198675,NA,291733,292061,291629,291733,Flanker Task,114,60839,127,yes,1024
89.84375,89.84375,478.03125,478.03125,black,legacy,legacy,legacy,0,congruent,uniform,1,undefined,1,s,127,0,0,0,127,0,127,0,127,0,0,0,127,127,127,127,9/18/2022 5:29,600,The main experiment item,yes,FlankerTask.osexp,C:/Users/casme/OneDrive/Desktop/Fall 2022,no,mono,no,18,no,white,no,yes,768,legacy,47,79,C:/Users/casme/OneDrive/Desktop/Fall 2022/IC-subject-1.csv,legacy,Lentiform Loewenfeld,3.3.12,0,s,NA,s,h,NA,s,349,NA,60217,13575,NA,349,2,legacy,1024,2,48000,-16,experiment,SSSSS,1,odd,292068,62436,212251,NA,283050,2215,288549,NA,293135,2218,198675,NA,293237,293588,293133,293237,Flanker Task,115,61188,128,yes,1024
89.14728682,89.14728682,477.5581395,477.5581395,black,legacy,legacy,legacy,0,incongruent,uniform,0,undefined,0,s,128,0,0,0,128,0,128,0,128,0,0,0,128,128,128,128,9/18/2022 5:29,600,The main experiment item,yes,FlankerTask.osexp,C:/Users/casme/OneDrive/Desktop/Fall 2022,no,mono,no,18,no,white,no,yes,768,legacy,48,79,C:/Users/casme/OneDrive/Desktop/Fall 2022/IC-subject-1.csv,legacy,Lentiform Loewenfeld,3.3.12,0,h,NA,s,h,NA,h,417,NA,60217,13575,NA,417,2,legacy,1024,2,48000,-16,experiment,HHSHH,1,odd,293594,62436,212251,NA,283050,2215,288549,NA,294645,2218,198675,NA,294748,295166,294644,294748,Flanker Task,115,61605,129,yes,1024
89.23076923,89.23076923,477.0076923,477.0076923,black,legacy,legacy,legacy,0,incongruent,uniform,1,undefined,1,h,129,0,0,0,129,0,129,0,129,0,0,0,129,129,129,129,9/18/2022 5:29,600,The main experiment item,yes,FlankerTask.osexp,C:/Users/casme/OneDrive/Desktop/Fall 2022,no,mono,no,18,no,white,no,yes,768,legacy,49,79,C:/Users/casme/OneDrive/Desktop/Fall 2022/IC-subject-1.csv,legacy,Lentiform Loewenfeld,3.3.12,0,h,NA,s,h,NA,h,406,NA,60217,13575,NA,406,2,legacy,1024,2,48000,-16,experiment,SSHSS,1,odd,295674,62436,212251,NA,295172,2215,288549,NA,296727,2218,198675,NA,296832,297239,296725,296831,Flanker Task,116,62011,130,yes,1024
88.54961832,88.54961832,475.7862595,475.7862595,black,legacy,legacy,legacy,0,incongruent,uniform,0,undefined,0,h,130,0,0,0,130,0,130,0,130,0,0,0,130,130,130,130,9/18/2022 5:29,600,The main experiment item,yes,FlankerTask.osexp,C:/Users/casme/OneDrive/Desktop/Fall 2022,no,mono,no,18,no,white,no,yes,768,legacy,50,79,C:/Users/casme/OneDrive/Desktop/Fall 2022/IC-subject-1.csv,legacy,Lentiform Loewenfeld,3.3.12,0,s,NA,s,h,NA,s,317,NA,60217,13575,NA,317,2,legacy,1024,2,48000,-16,experiment,SSHSS,1,odd,297247,62436,212251,NA,295172,2215,288549,NA,298313,2218,198675,NA,298418,298736,298311,298417,Flanker Task,116,62328,131,yes,1024
88.63636364,88.63636364,476.6515152,476.6515152,black,legacy,legacy,legacy,0,incongruent,uniform,1,undefined,1,s,131,0,0,0,131,0,131,0,131,0,0,0,131,131,131,131,9/18/2022 5:29,600,The main experiment item,yes,FlankerTask.osexp,C:/Users/casme/OneDrive/Desktop/Fall 2022,no,mono,no,18,no,white,no,yes,768,legacy,51,79,C:/Users/casme/OneDrive/Desktop/Fall 2022/IC-subject-1.csv,legacy,Lentiform Loewenfeld,3.3.12,0,s,NA,s,h,NA,s,590,NA,60217,13575,NA,590,2,legacy,1024,2,48000,-16,experiment,HHSHH,1,odd,299243,62436,212251,NA,298742,2215,288549,NA,300298,2218,198675,NA,300401,300992,300296,300401,Flanker Task,117,62918,132,yes,1024
88.72180451,88.72180451,476.4736842,476.4736842,black,legacy,legacy,legacy,0,congruent,uniform,1,undefined,1,h,132,0,0,0,132,0,132,0,132,0,0,0,132,132,132,132,9/18/2022 5:29,600,The main experiment item,yes,FlankerTask.osexp,C:/Users/casme/OneDrive/Desktop/Fall 2022,no,mono,no,18,no,white,no,yes,768,legacy,52,79,C:/Users/casme/OneDrive/Desktop/Fall 2022/IC-subject-1.csv,legacy,Lentiform Loewenfeld,3.3.12,0,h,NA,s,h,NA,h,453,NA,60217,13575,NA,453,2,legacy,1024,2,48000,-16,experiment,HHHHH,1,odd,301000,62436,212251,NA,298742,2215,288549,NA,302051,2218,198675,NA,302156,302610,302049,302155,Flanker Task,118,63371,133,yes,1024
88.80597015,88.80597015,475.6268657,475.6268657,black,legacy,legacy,legacy,0,congruent,uniform,1,undefined,1,h,133,0,0,0,133,0,133,0,133,0,0,0,133,133,133,133,9/18/2022 5:29,600,The main experiment item,yes,FlankerTask.osexp,C:/Users/casme/OneDrive/Desktop/Fall 2022,no,mono,no,18,no,white,no,yes,768,legacy,53,79,C:/Users/casme/OneDrive/Desktop/Fall 2022/IC-subject-1.csv,legacy,Lentiform Loewenfeld,3.3.12,0,h,NA,s,h,NA,h,363,NA,60217,13575,NA,363,2,legacy,1024,2,48000,-16,experiment,HHHHH,1,odd,302617,62436,212251,NA,298742,2215,288549,NA,303683,2218,198675,NA,303785,304150,303681,303785,Flanker Task,119,63734,134,yes,1024
88.88888889,88.88888889,475.562963,475.562963,black,legacy,legacy,legacy,0,congruent,uniform,1,undefined,1,s,134,0,0,0,134,0,134,0,134,0,0,0,134,134,134,134,9/18/2022 5:29,600,The main experiment item,yes,FlankerTask.osexp,C:/Users/casme/OneDrive/Desktop/Fall 2022,no,mono,no,18,no,white,no,yes,768,legacy,54,79,C:/Users/casme/OneDrive/Desktop/Fall 2022/IC-subject-1.csv,legacy,Lentiform Loewenfeld,3.3.12,0,s,NA,s,h,NA,s,467,NA,60217,13575,NA,467,2,legacy,1024,2,48000,-16,experiment,SSSSS,1,odd,304155,62436,212251,NA,298742,2215,288549,NA,305208,2218,198675,NA,305310,305778,305206,305310,Flanker Task,120,64201,135,yes,1024
88.23529412,88.23529412,475.1764706,475.1764706,black,legacy,legacy,legacy,0,incongruent,uniform,0,undefined,0,s,135,0,0,0,135,0,135,0,135,0,0,0,135,135,135,135,9/18/2022 5:29,600,The main experiment item,yes,FlankerTask.osexp,C:/Users/casme/OneDrive/Desktop/Fall 2022,no,mono,no,18,no,white,no,yes,768,legacy,55,79,C:/Users/casme/OneDrive/Desktop/Fall 2022/IC-subject-1.csv,legacy,Lentiform Loewenfeld,3.3.12,0,h,NA,s,h,NA,h,423,NA,60217,13575,NA,423,2,legacy,1024,2,48000,-16,experiment,HHSHH,1,odd,305785,62436,212251,NA,298742,2215,288549,NA,306840,2218,198675,NA,306943,307367,306838,306943,Flanker Task,120,64624,136,yes,1024
88.32116788,88.32116788,476.1532847,476.1532847,black,legacy,legacy,legacy,0,incongruent,uniform,1,undefined,1,h,136,0,0,0,136,0,136,0,136,0,0,0,136,136,136,136,9/18/2022 5:29,600,The main experiment item,yes,FlankerTask.osexp,C:/Users/casme/OneDrive/Desktop/Fall 2022,no,mono,no,18,no,white,no,yes,768,legacy,56,79,C:/Users/casme/OneDrive/Desktop/Fall 2022/IC-subject-1.csv,legacy,Lentiform Loewenfeld,3.3.12,0,h,NA,s,h,NA,h,609,NA,60217,13575,NA,609,2,legacy,1024,2,48000,-16,experiment,SSHSS,1,odd,307875,62436,212251,NA,307373,2215,288549,NA,308929,2218,198675,NA,309031,309642,308927,309031,Flanker Task,121,65233,137,yes,1024
88.4057971,88.4057971,476.4782609,476.4782609,black,legacy,legacy,legacy,0,incongruent,uniform,1,undefined,1,s,137,0,0,0,137,0,137,0,137,0,0,0,137,137,137,137,9/18/2022 5:29,600,The main experiment item,yes,FlankerTask.osexp,C:/Users/casme/OneDrive/Desktop/Fall 2022,no,mono,no,18,no,white,no,yes,768,legacy,57,79,C:/Users/casme/OneDrive/Desktop/Fall 2022/IC-subject-1.csv,legacy,Lentiform Loewenfeld,3.3.12,0,s,NA,s,h,NA,s,521,NA,60217,13575,NA,521,2,legacy,1024,2,48000,-16,experiment,HHSHH,1,odd,310152,62436,212251,NA,307373,2215,309648,NA,311204,2218,198675,NA,311305,311828,311202,311305,Flanker Task,122,65754,138,yes,1024
88.48920863,88.48920863,476.1582734,476.1582734,black,legacy,legacy,legacy,0,incongruent,uniform,1,undefined,1,h,138,0,0,0,138,0,138,0,138,0,0,0,138,138,138,138,9/18/2022 5:29,600,The main experiment item,yes,FlankerTask.osexp,C:/Users/casme/OneDrive/Desktop/Fall 2022,no,mono,no,18,no,white,no,yes,768,legacy,58,79,C:/Users/casme/OneDrive/Desktop/Fall 2022/IC-subject-1.csv,legacy,Lentiform Loewenfeld,3.3.12,0,h,NA,s,h,NA,h,432,NA,60217,13575,NA,432,2,legacy,1024,2,48000,-16,experiment,SSHSS,1,odd,311834,62436,212251,NA,307373,2215,309648,NA,312886,2218,198675,NA,312987,313421,312884,312987,Flanker Task,123,66186,139,yes,1024
87.85714286,87.85714286,474.3428571,474.3428571,black,legacy,legacy,legacy,0,congruent,uniform,0,undefined,0,h,139,0,0,0,139,0,139,0,139,0,0,0,139,139,139,139,9/18/2022 5:29,600,The main experiment item,yes,FlankerTask.osexp,C:/Users/casme/OneDrive/Desktop/Fall 2022,no,mono,no,18,no,white,no,yes,768,legacy,59,79,C:/Users/casme/OneDrive/Desktop/Fall 2022/IC-subject-1.csv,legacy,Lentiform Loewenfeld,3.3.12,0,s,NA,s,h,NA,s,222,NA,60217,13575,NA,222,2,legacy,1024,2,48000,-16,experiment,HHHHH,1,odd,313427,62436,212251,NA,307373,2215,309648,NA,314477,2218,198675,NA,314581,314805,314475,314580,Flanker Task,123,66408,140,yes,1024
87.23404255,87.23404255,473.5106383,473.5106383,black,legacy,legacy,legacy,0,congruent,uniform,0,undefined,0,s,140,0,0,0,140,0,140,0,140,0,0,0,140,140,140,140,9/18/2022 5:29,600,The main experiment item,yes,FlankerTask.osexp,C:/Users/casme/OneDrive/Desktop/Fall 2022,no,mono,no,18,no,white,no,yes,768,legacy,60,79,C:/Users/casme/OneDrive/Desktop/Fall 2022/IC-subject-1.csv,legacy,Lentiform Loewenfeld,3.3.12,0,h,NA,s,h,NA,h,357,NA,60217,13575,NA,357,2,legacy,1024,2,48000,-16,experiment,SSSSS,1,odd,315312,62436,212251,NA,314811,2215,309648,NA,316381,2218,198675,NA,316483,316841,316379,316483,Flanker Task,123,66765,141,yes,1024
87.32394366,87.32394366,473.7887324,473.7887324,black,legacy,legacy,legacy,0,incongruent,uniform,1,undefined,1,h,141,0,0,0,141,0,141,0,141,0,0,0,141,141,141,141,9/18/2022 5:29,600,The main experiment item,yes,FlankerTask.osexp,C:/Users/casme/OneDrive/Desktop/Fall 2022,no,mono,no,18,no,white,no,yes,768,legacy,61,79,C:/Users/casme/OneDrive/Desktop/Fall 2022/IC-subject-1.csv,legacy,Lentiform Loewenfeld,3.3.12,0,h,NA,s,h,NA,h,513,NA,60217,13575,NA,513,2,legacy,1024,2,48000,-16,experiment,SSHSS,1,odd,317353,62436,212251,NA,316848,2215,309648,NA,318417,2218,198675,NA,318520,319035,318415,318520,Flanker Task,124,67278,142,yes,1024
87.41258741,87.41258741,473.2447552,473.2447552,black,legacy,legacy,legacy,0,congruent,uniform,1,undefined,1,s,142,0,0,0,142,0,142,0,142,0,0,0,142,142,142,142,9/18/2022 5:29,600,The main experiment item,yes,FlankerTask.osexp,C:/Users/casme/OneDrive/Desktop/Fall 2022,no,mono,no,18,no,white,no,yes,768,legacy,62,79,C:/Users/casme/OneDrive/Desktop/Fall 2022/IC-subject-1.csv,legacy,Lentiform Loewenfeld,3.3.12,0,s,NA,s,h,NA,s,396,NA,60217,13575,NA,396,2,legacy,1024,2,48000,-16,experiment,SSSSS,1,odd,319042,62436,212251,NA,316848,2215,309648,NA,320101,2218,198675,NA,320202,320600,320099,320202,Flanker Task,125,67674,143,yes,1024
86.80555556,86.80555556,472.2847222,472.2847222,black,legacy,legacy,legacy,0,incongruent,uniform,0,undefined,0,s,143,0,0,0,143,0,143,0,143,0,0,0,143,143,143,143,9/18/2022 5:29,600,The main experiment item,yes,FlankerTask.osexp,C:/Users/casme/OneDrive/Desktop/Fall 2022,no,mono,no,18,no,white,no,yes,768,legacy,63,79,C:/Users/casme/OneDrive/Desktop/Fall 2022/IC-subject-1.csv,legacy,Lentiform Loewenfeld,3.3.12,0,h,NA,s,h,NA,h,335,NA,60217,13575,NA,335,2,legacy,1024,2,48000,-16,experiment,HHSHH,1,odd,320606,62436,212251,NA,316848,2215,309648,NA,321659,2218,198675,NA,321764,322101,321657,321763,Flanker Task,125,68009,144,yes,1024
86.20689655,86.20689655,471.6551724,471.6551724,black,legacy,legacy,legacy,0,congruent,uniform,0,undefined,0,h,144,0,0,0,144,0,144,0,144,0,0,0,144,144,144,144,9/18/2022 5:29,600,The main experiment item,yes,FlankerTask.osexp,C:/Users/casme/OneDrive/Desktop/Fall 2022,no,mono,no,18,no,white,no,yes,768,legacy,64,79,C:/Users/casme/OneDrive/Desktop/Fall 2022/IC-subject-1.csv,legacy,Lentiform Loewenfeld,3.3.12,0,s,NA,s,h,NA,s,381,NA,60217,13575,NA,381,2,legacy,1024,2,48000,-16,experiment,HHHHH,1,odd,322609,62436,212251,NA,322107,2215,309648,NA,323676,2218,198675,NA,323779,324161,323674,323779,Flanker Task,125,68390,145,yes,1024
86.30136986,86.30136986,472.2945205,472.2945205,black,legacy,legacy,legacy,0,congruent,uniform,1,undefined,1,h,145,0,0,0,145,0,145,0,145,0,0,0,145,145,145,145,9/18/2022 5:29,600,The main experiment item,yes,FlankerTask.osexp,C:/Users/casme/OneDrive/Desktop/Fall 2022,no,mono,no,18,no,white,no,yes,768,legacy,65,79,C:/Users/casme/OneDrive/Desktop/Fall 2022/IC-subject-1.csv,legacy,Lentiform Loewenfeld,3.3.12,0,h,NA,s,h,NA,h,565,NA,60217,13575,NA,565,2,legacy,1024,2,48000,-16,experiment,HHHHH,1,odd,324672,62436,212251,NA,324168,2215,309648,NA,325726,2218,198675,NA,325827,326393,325724,325827,Flanker Task,126,68955,146,yes,1024
86.39455782,86.39455782,472.1292517,472.1292517,black,legacy,legacy,legacy,0,incongruent,uniform,1,undefined,1,s,146,0,0,0,146,0,146,0,146,0,0,0,146,146,146,146,9/18/2022 5:29,600,The main experiment item,yes,FlankerTask.osexp,C:/Users/casme/OneDrive/Desktop/Fall 2022,no,mono,no,18,no,white,no,yes,768,legacy,66,79,C:/Users/casme/OneDrive/Desktop/Fall 2022/IC-subject-1.csv,legacy,Lentiform Loewenfeld,3.3.12,0,s,NA,s,h,NA,s,448,NA,60217,13575,NA,448,2,legacy,1024,2,48000,-16,experiment,HHSHH,1,odd,326399,62436,212251,NA,324168,2215,309648,NA,327451,2218,198675,NA,327554,328003,327449,327554,Flanker Task,127,69403,147,yes,1024
86.48648649,86.48648649,472.3175676,472.3175676,black,legacy,legacy,legacy,0,congruent,uniform,1,undefined,1,h,147,0,0,0,147,0,147,0,147,0,0,0,147,147,147,147,9/18/2022 5:29,600,The main experiment item,yes,FlankerTask.osexp,C:/Users/casme/OneDrive/Desktop/Fall 2022,no,mono,no,18,no,white,no,yes,768,legacy,67,79,C:/Users/casme/OneDrive/Desktop/Fall 2022/IC-subject-1.csv,legacy,Lentiform Loewenfeld,3.3.12,0,h,NA,s,h,NA,h,500,NA,60217,13575,NA,500,2,legacy,1024,2,48000,-16,experiment,HHHHH,1,odd,328010,62436,212251,NA,324168,2215,309648,NA,329061,2218,198675,NA,329162,329663,329059,329162,Flanker Task,128,69903,148,yes,1024
85.90604027,85.90604027,471.0604027,471.0604027,black,legacy,legacy,legacy,0,incongruent,uniform,0,undefined,0,h,148,0,0,0,148,0,148,0,148,0,0,0,148,148,148,148,9/18/2022 5:29,600,The main experiment item,yes,FlankerTask.osexp,C:/Users/casme/OneDrive/Desktop/Fall 2022,no,mono,no,18,no,white,no,yes,768,legacy,68,79,C:/Users/casme/OneDrive/Desktop/Fall 2022/IC-subject-1.csv,legacy,Lentiform Loewenfeld,3.3.12,0,s,NA,s,h,NA,s,285,NA,60217,13575,NA,285,2,legacy,1024,2,48000,-16,experiment,SSHSS,1,odd,329668,62436,212251,NA,324168,2215,309648,NA,330722,2218,198675,NA,330823,331110,330720,330823,Flanker Task,128,70188,149,yes,1024
86,86,471.4,471.4,black,legacy,legacy,legacy,0,incongruent,uniform,1,undefined,1,s,149,0,0,0,149,0,149,0,149,0,0,0,149,149,149,149,9/18/2022 5:29,600,The main experiment item,yes,FlankerTask.osexp,C:/Users/casme/OneDrive/Desktop/Fall 2022,no,mono,no,18,no,white,no,yes,768,legacy,69,79,C:/Users/casme/OneDrive/Desktop/Fall 2022/IC-subject-1.csv,legacy,Lentiform Loewenfeld,3.3.12,0,s,NA,s,h,NA,s,522,NA,60217,13575,NA,522,2,legacy,1024,2,48000,-16,experiment,HHSHH,1,odd,331620,62436,212251,NA,331116,2215,309648,NA,332684,2218,198675,NA,332788,333311,332682,332787,Flanker Task,129,70710,150,yes,1024
86.09271523,86.09271523,471.5298013,471.5298013,black,legacy,legacy,legacy,0,incongruent,uniform,1,undefined,1,s,150,0,0,0,150,0,150,0,150,0,0,0,150,150,150,150,9/18/2022 5:29,600,The main experiment item,yes,FlankerTask.osexp,C:/Users/casme/OneDrive/Desktop/Fall 2022,no,mono,no,18,no,white,no,yes,768,legacy,70,79,C:/Users/casme/OneDrive/Desktop/Fall 2022/IC-subject-1.csv,legacy,Lentiform Loewenfeld,3.3.12,0,s,NA,s,h,NA,s,491,NA,60217,13575,NA,491,2,legacy,1024,2,48000,-16,experiment,HHSHH,1,odd,333317,62436,212251,NA,331116,2215,309648,NA,334371,2218,198675,NA,334475,334968,334369,334475,Flanker Task,130,71201,151,yes,1024
86.18421053,86.18421053,471.6513158,471.6513158,black,legacy,legacy,legacy,0,incongruent,uniform,1,undefined,1,h,151,0,0,0,151,0,151,0,151,0,0,0,151,151,151,151,9/18/2022 5:29,600,The main experiment item,yes,FlankerTask.osexp,C:/Users/casme/OneDrive/Desktop/Fall 2022,no,mono,no,18,no,white,no,yes,768,legacy,71,79,C:/Users/casme/OneDrive/Desktop/Fall 2022/IC-subject-1.csv,legacy,Lentiform Loewenfeld,3.3.12,0,h,NA,s,h,NA,h,490,NA,60217,13575,NA,490,2,legacy,1024,2,48000,-16,experiment,SSHSS,1,odd,334973,62436,212251,NA,331116,2215,309648,NA,336024,2218,198675,NA,336127,336619,336022,336127,Flanker Task,131,71691,152,yes,1024
86.2745098,86.2745098,471.2679739,471.2679739,black,legacy,legacy,legacy,0,incongruent,uniform,1,undefined,1,h,152,0,0,0,152,0,152,0,152,0,0,0,152,152,152,152,9/18/2022 5:29,600,The main experiment item,yes,FlankerTask.osexp,C:/Users/casme/OneDrive/Desktop/Fall 2022,no,mono,no,18,no,white,no,yes,768,legacy,72,79,C:/Users/casme/OneDrive/Desktop/Fall 2022/IC-subject-1.csv,legacy,Lentiform Loewenfeld,3.3.12,0,h,NA,s,h,NA,h,413,NA,60217,13575,NA,413,2,legacy,1024,2,48000,-16,experiment,SSHSS,1,odd,336625,62436,212251,NA,331116,2215,309648,NA,337676,2218,198675,NA,337780,338195,337674,337780,Flanker Task,132,72104,153,yes,1024
86.36363636,86.36363636,470.474026,470.474026,black,legacy,legacy,legacy,0,congruent,uniform,1,undefined,1,s,153,0,0,0,153,0,153,0,153,0,0,0,153,153,153,153,9/18/2022 5:29,600,The main experiment item,yes,FlankerTask.osexp,C:/Users/casme/OneDrive/Desktop/Fall 2022,no,mono,no,18,no,white,no,yes,768,legacy,73,79,C:/Users/casme/OneDrive/Desktop/Fall 2022/IC-subject-1.csv,legacy,Lentiform Loewenfeld,3.3.12,0,s,NA,s,h,NA,s,349,NA,60217,13575,NA,349,2,legacy,1024,2,48000,-16,experiment,SSSSS,1,odd,338201,62436,212251,NA,331116,2215,309648,NA,339267,2218,198675,NA,339370,339719,339265,339370,Flanker Task,133,72453,154,yes,1024
86.4516129,86.4516129,470.1483871,470.1483871,black,legacy,legacy,legacy,0,congruent,uniform,1,undefined,1,h,154,0,0,0,154,0,154,0,154,0,0,0,154,154,154,154,9/18/2022 5:29,600,The main experiment item,yes,FlankerTask.osexp,C:/Users/casme/OneDrive/Desktop/Fall 2022,no,mono,no,18,no,white,no,yes,768,legacy,74,79,C:/Users/casme/OneDrive/Desktop/Fall 2022/IC-subject-1.csv,legacy,Lentiform Loewenfeld,3.3.12,0,h,NA,s,h,NA,h,420,NA,60217,13575,NA,420,2,legacy,1024,2,48000,-16,experiment,HHHHH,1,odd,339726,62436,212251,NA,331116,2215,309648,NA,340791,2218,198675,NA,340894,341316,340789,340894,Flanker Task,134,72873,155,yes,1024
86.53846154,86.53846154,469.4230769,469.4230769,black,legacy,legacy,legacy,0,incongruent,uniform,1,undefined,1,s,155,0,0,0,155,0,155,0,155,0,0,0,155,155,155,155,9/18/2022 5:29,600,The main experiment item,yes,FlankerTask.osexp,C:/Users/casme/OneDrive/Desktop/Fall 2022,no,mono,no,18,no,white,no,yes,768,legacy,75,79,C:/Users/casme/OneDrive/Desktop/Fall 2022/IC-subject-1.csv,legacy,Lentiform Loewenfeld,3.3.12,0,s,NA,s,h,NA,s,357,NA,60217,13575,NA,357,2,legacy,1024,2,48000,-16,experiment,HHSHH,1,odd,341321,62436,212251,NA,331116,2215,309648,NA,342373,2218,198675,NA,342476,342835,342371,342476,Flanker Task,135,73230,156,yes,1024
86.62420382,86.62420382,469.1974522,469.1974522,black,legacy,legacy,legacy,0,incongruent,uniform,1,undefined,1,s,156,0,0,0,156,0,156,0,156,0,0,0,156,156,156,156,9/18/2022 5:29,600,The main experiment item,yes,FlankerTask.osexp,C:/Users/casme/OneDrive/Desktop/Fall 2022,no,mono,no,18,no,white,no,yes,768,legacy,76,79,C:/Users/casme/OneDrive/Desktop/Fall 2022/IC-subject-1.csv,legacy,Lentiform Loewenfeld,3.3.12,0,s,NA,s,h,NA,s,434,NA,60217,13575,NA,434,2,legacy,1024,2,48000,-16,experiment,HHSHH,1,odd,342841,62436,212251,NA,331116,2215,309648,NA,343908,2218,198675,NA,344011,344447,343906,344011,Flanker Task,136,73664,157,yes,1024
86.70886076,86.70886076,469.6075949,469.6075949,black,legacy,legacy,legacy,0,incongruent,uniform,1,undefined,1,h,157,0,0,0,157,0,157,0,157,0,0,0,157,157,157,157,9/18/2022 5:29,600,The main experiment item,yes,FlankerTask.osexp,C:/Users/casme/OneDrive/Desktop/Fall 2022,no,mono,no,18,no,white,no,yes,768,legacy,77,79,C:/Users/casme/OneDrive/Desktop/Fall 2022/IC-subject-1.csv,legacy,Lentiform Loewenfeld,3.3.12,0,h,NA,s,h,NA,h,534,NA,60217,13575,NA,534,2,legacy,1024,2,48000,-16,experiment,SSHSS,1,odd,344452,62436,212251,NA,331116,2215,309648,NA,345504,2218,198675,NA,345608,346143,345502,345608,Flanker Task,137,74198,158,yes,1024
86.79245283,86.79245283,469.4528302,469.4528302,black,legacy,legacy,legacy,0,congruent,uniform,1,undefined,1,h,158,0,0,0,158,0,158,0,158,0,0,0,158,158,158,158,9/18/2022 5:29,600,The main experiment item,yes,FlankerTask.osexp,C:/Users/casme/OneDrive/Desktop/Fall 2022,no,mono,no,18,no,white,no,yes,768,legacy,78,79,C:/Users/casme/OneDrive/Desktop/Fall 2022/IC-subject-1.csv,legacy,Lentiform Loewenfeld,3.3.12,0,h,NA,s,h,NA,h,445,NA,60217,13575,NA,445,2,legacy,1024,2,48000,-16,experiment,HHHHH,1,odd,346150,62436,212251,NA,331116,2215,309648,NA,347217,2218,198675,NA,347320,347766,347215,347319,Flanker Task,138,74643,159,yes,1024
86.875,86.875,469.9125,469.9125,black,legacy,legacy,legacy,0,incongruent,uniform,1,undefined,1,h,159,0,0,0,159,0,159,0,159,0,0,0,159,159,159,159,9/18/2022 5:29,600,The main experiment item,yes,FlankerTask.osexp,C:/Users/casme/OneDrive/Desktop/Fall 2022,no,mono,no,18,no,white,no,yes,768,legacy,79,79,C:/Users/casme/OneDrive/Desktop/Fall 2022/IC-subject-1.csv,legacy,Lentiform Loewenfeld,3.3.12,0,h,NA,s,h,NA,h,543,NA,60217,13575,NA,543,2,legacy,1024,2,48000,-16,experiment,SSHSS,1,odd,347773,62436,212251,NA,331116,2215,309648,NA,348828,2218,198675,NA,348930,349475,348826,348930,Flanker Task,139,75186,160,yes,1024
