"acc","accuracy","average_response_time","avg_rt","background","canvas_backend","clock_backend","color_backend","condition","correct","correct_Instructions1","correct_Keyboard_response","correct_response","count_Block1","count_Block2","count_Block3","count_ErrorFeedback","count_Faster","count_Finish","count_Fixation","count_ISI","count_Instructions1","count_Instructions2","count_Instructions3","count_Keyboard_response","count_Logger","count_Sequence","count_Stimulus","count_experiment","datetime","deadline","description","disable_garbage_collection","experiment_file","experiment_path","font_bold","font_family","font_italic","font_size","font_underline","foreground","form_clicks","fullscreen","height","keyboard_backend","live_row","live_row_Block1","logfile","mouse_backend","opensesame_codename","opensesame_version","repeat_cycle","response","response_Finish","response_Instructions1","response_Instructions2","response_Instructions3","response_Keyboard_response","response_time","response_time_Finish","response_time_Instructions1","response_time_Instructions2","response_time_Instructions3","response_time_Keyboard_response","round_decimals","sampler_backend","sound_buf_size","sound_channels","sound_freq","sound_sample_size","start","stimulus","subject_nr","subject_parity","time_Block1","time_Block2","time_Block3","time_ErrorFeedback","time_Faster","time_Finish","time_Fixation","time_ISI","time_Instructions1","time_Instructions2","time_Instructions3","time_Keyboard_response","time_Logger","time_Sequence","time_Stimulus","time_experiment","title","total_correct","total_response_time","total_responses","width"
"100","100","593","593","#3d3846","legacy","legacy","legacy","congruent","1","undefined","1","h","0","0","0","0","0","0","0","0","0","0","0","0","0","0","0","0","Sun Sep 24 14:24:56 2023","1500","The main experiment item","False","FlankerEffectTest.osexp","C:\Users\stcka\OneDrive\Sam Docs\Psychology Program\AP Textbooks\Quantitative Methods","False","mono","False","18","no","white","no","yes","768","legacy","0","0","C:/Users/stcka/OneDrive/Sam Docs/Psychology Program/AP Textbooks/Quantitative Methods/SA-subject-4.csv","legacy","Melodramatic Milgram","4.0.5","0","h","NA","s","NA","NA","h","593.0","NA","15575","NA","NA","593","2","legacy","1024","2","48000","-16","experiment","HHHHH","4","even","18718","NA","NA","NA","NA","NA","18779","NA","3141","NA","NA","18880","19474","18778","18880","3137","Flanker Effect Test","1","593.0","1","1024"
"100","100","590","590","#3d3846","legacy","legacy","legacy","incongruent","1","undefined","1","s","0","0","0","1","1","0","1","1","0","0","0","1","1","1","1","0","Sun Sep 24 14:24:56 2023","1500","The main experiment item","False","FlankerEffectTest.osexp","C:\Users\stcka\OneDrive\Sam Docs\Psychology Program\AP Textbooks\Quantitative Methods","False","mono","False","18","no","white","no","yes","768","legacy","1","1","C:/Users/stcka/OneDrive/Sam Docs/Psychology Program/AP Textbooks/Quantitative Methods/SA-subject-4.csv","legacy","Melodramatic Milgram","4.0.5","0","s","NA","s","NA","NA","s","588.0","NA","15575","NA","NA","588","2","legacy","1024","2","48000","-16","experiment","HHSHH","4","even","18718","NA","NA","NA","NA","NA","20508","19483","3141","NA","NA","20609","21198","20507","20609","3137","Flanker Effect Test","2","1181.0","2","1024"
"100","100","583","583","#3d3846","legacy","legacy","legacy","incongruent","1","undefined","1","s","0","0","0","2","2","0","2","2","0","0","0","2","2","2","2","0","Sun Sep 24 14:24:56 2023","1500","The main experiment item","False","FlankerEffectTest.osexp","C:\Users\stcka\OneDrive\Sam Docs\Psychology Program\AP Textbooks\Quantitative Methods","False","mono","False","18","no","white","no","yes","768","legacy","2","2","C:/Users/stcka/OneDrive/Sam Docs/Psychology Program/AP Textbooks/Quantitative Methods/SA-subject-4.csv","legacy","Melodramatic Milgram","4.0.5","0","s","NA","s","NA","NA","s","570.0","NA","15575","NA","NA","570","2","legacy","1024","2","48000","-16","experiment","HHSHH","4","even","18718","NA","NA","NA","NA","NA","22232","21204","3141","NA","NA","22333","22905","22230","22332","3137","Flanker Effect Test","3","1751.0","3","1024"
"100","100","534","534","#3d3846","legacy","legacy","legacy","congruent","1","undefined","1","h","0","0","0","3","3","0","3","3","0","0","0","3","3","3","3","0","Sun Sep 24 14:24:56 2023","1500","The main experiment item","False","FlankerEffectTest.osexp","C:\Users\stcka\OneDrive\Sam Docs\Psychology Program\AP Textbooks\Quantitative Methods","False","mono","False","18","no","white","no","yes","768","legacy","3","3","C:/Users/stcka/OneDrive/Sam Docs/Psychology Program/AP Textbooks/Quantitative Methods/SA-subject-4.csv","legacy","Melodramatic Milgram","4.0.5","0","h","NA","s","NA","NA","h","388.0","NA","15575","NA","NA","388","2","legacy","1024","2","48000","-16","experiment","HHHHH","4","even","18718","NA","NA","NA","NA","NA","23960","22911","3141","NA","NA","24061","24450","23958","24060","3137","Flanker Effect Test","4","2139.0","4","1024"
"100","100","590","590","#3d3846","legacy","legacy","legacy","incongruent","1","undefined","1","h","0","0","0","4","4","0","4","4","0","0","0","4","4","4","4","0","Sun Sep 24 14:24:56 2023","1500","The main experiment item","False","FlankerEffectTest.osexp","C:\Users\stcka\OneDrive\Sam Docs\Psychology Program\AP Textbooks\Quantitative Methods","False","mono","False","18","no","white","no","yes","768","legacy","4","4","C:/Users/stcka/OneDrive/Sam Docs/Psychology Program/AP Textbooks/Quantitative Methods/SA-subject-4.csv","legacy","Melodramatic Milgram","4.0.5","0","h","NA","s","NA","NA","h","815.0","NA","15575","NA","NA","815","2","legacy","1024","2","48000","-16","experiment","SSHSS","4","even","18718","NA","NA","NA","NA","NA","25481","24456","3141","NA","NA","25582","26398","25480","25582","3137","Flanker Effect Test","5","2954.0","5","1024"
"100","100","594","594","#3d3846","legacy","legacy","legacy","incongruent","1","undefined","1","h","0","0","0","5","5","0","5","5","0","0","0","5","5","5","5","0","Sun Sep 24 14:24:56 2023","1500","The main experiment item","False","FlankerEffectTest.osexp","C:\Users\stcka\OneDrive\Sam Docs\Psychology Program\AP Textbooks\Quantitative Methods","False","mono","False","18","no","white","no","yes","768","legacy","5","5","C:/Users/stcka/OneDrive/Sam Docs/Psychology Program/AP Textbooks/Quantitative Methods/SA-subject-4.csv","legacy","Melodramatic Milgram","4.0.5","0","h","NA","s","NA","NA","h","611.0","NA","15575","NA","NA","611","2","legacy","1024","2","48000","-16","experiment","SSHSS","4","even","18718","NA","NA","NA","NA","NA","27440","26404","3141","NA","NA","27540","28152","27439","27540","3137","Flanker Effect Test","6","3565.0","6","1024"
"100","100","576","576","#3d3846","legacy","legacy","legacy","congruent","1","undefined","1","h","0","0","0","6","6","0","6","6","0","0","0","6","6","6","6","0","Sun Sep 24 14:24:56 2023","1500","The main experiment item","False","FlankerEffectTest.osexp","C:\Users\stcka\OneDrive\Sam Docs\Psychology Program\AP Textbooks\Quantitative Methods","False","mono","False","18","no","white","no","yes","768","legacy","6","6","C:/Users/stcka/OneDrive/Sam Docs/Psychology Program/AP Textbooks/Quantitative Methods/SA-subject-4.csv","legacy","Melodramatic Milgram","4.0.5","0","h","NA","s","NA","NA","h","473.0","NA","15575","NA","NA","473","2","legacy","1024","2","48000","-16","experiment","HHHHH","4","even","18718","NA","NA","NA","NA","NA","29184","28157","3141","NA","NA","29285","29759","29181","29285","3137","Flanker Effect Test","7","4038.0","7","1024"
"100","100","563","563","#3d3846","legacy","legacy","legacy","congruent","1","undefined","1","s","0","0","0","7","7","0","7","7","0","0","0","7","7","7","7","0","Sun Sep 24 14:24:56 2023","1500","The main experiment item","False","FlankerEffectTest.osexp","C:\Users\stcka\OneDrive\Sam Docs\Psychology Program\AP Textbooks\Quantitative Methods","False","mono","False","18","no","white","no","yes","768","legacy","7","7","C:/Users/stcka/OneDrive/Sam Docs/Psychology Program/AP Textbooks/Quantitative Methods/SA-subject-4.csv","legacy","Melodramatic Milgram","4.0.5","0","s","NA","s","NA","NA","s","466.0","NA","15575","NA","NA","466","2","legacy","1024","2","48000","-16","experiment","SSSSS","4","even","18718","NA","NA","NA","NA","NA","30791","29764","3141","NA","NA","30891","31358","30789","30891","3137","Flanker Effect Test","8","4504.0","8","1024"
"100","100","555","555","#3d3846","legacy","legacy","legacy","incongruent","1","undefined","1","s","0","0","0","8","8","0","8","8","0","0","0","8","8","8","8","0","Sun Sep 24 14:24:56 2023","1500","The main experiment item","False","FlankerEffectTest.osexp","C:\Users\stcka\OneDrive\Sam Docs\Psychology Program\AP Textbooks\Quantitative Methods","False","mono","False","18","no","white","no","yes","768","legacy","8","8","C:/Users/stcka/OneDrive/Sam Docs/Psychology Program/AP Textbooks/Quantitative Methods/SA-subject-4.csv","legacy","Melodramatic Milgram","4.0.5","0","s","NA","s","NA","NA","s","495.0","NA","15575","NA","NA","495","2","legacy","1024","2","48000","-16","experiment","HHSHH","4","even","18718","NA","NA","NA","NA","NA","32395","31363","3141","NA","NA","32495","32991","32393","32495","3137","Flanker Effect Test","9","4999.0","9","1024"
"100","100","559","559","#3d3846","legacy","legacy","legacy","incongruent","1","undefined","1","s","0","0","0","9","9","0","9","9","0","0","0","9","9","9","9","0","Sun Sep 24 14:24:56 2023","1500","The main experiment item","False","FlankerEffectTest.osexp","C:\Users\stcka\OneDrive\Sam Docs\Psychology Program\AP Textbooks\Quantitative Methods","False","mono","False","18","no","white","no","yes","768","legacy","9","9","C:/Users/stcka/OneDrive/Sam Docs/Psychology Program/AP Textbooks/Quantitative Methods/SA-subject-4.csv","legacy","Melodramatic Milgram","4.0.5","0","s","NA","s","NA","NA","s","599.0","NA","15575","NA","NA","599","2","legacy","1024","2","48000","-16","experiment","HHSHH","4","even","18718","NA","NA","NA","NA","NA","34026","32997","3141","NA","NA","34127","34726","34024","34127","3137","Flanker Effect Test","10","5598.0","10","1024"
"100","100","551","551","#3d3846","legacy","legacy","legacy","congruent","1","undefined","1","s","0","0","0","10","10","0","10","10","0","0","0","10","10","10","10","0","Sun Sep 24 14:24:56 2023","1500","The main experiment item","False","FlankerEffectTest.osexp","C:\Users\stcka\OneDrive\Sam Docs\Psychology Program\AP Textbooks\Quantitative Methods","False","mono","False","18","no","white","no","yes","768","legacy","10","10","C:/Users/stcka/OneDrive/Sam Docs/Psychology Program/AP Textbooks/Quantitative Methods/SA-subject-4.csv","legacy","Melodramatic Milgram","4.0.5","0","s","NA","s","NA","NA","s","463.0","NA","15575","NA","NA","463","2","legacy","1024","2","48000","-16","experiment","SSSSS","4","even","18718","NA","NA","NA","NA","NA","35760","34732","3141","NA","NA","35860","36324","35758","35860","3137","Flanker Effect Test","11","6061.0","11","1024"
"100","100","551","551","#3d3846","legacy","legacy","legacy","congruent","1","undefined","1","h","0","0","0","11","11","0","11","11","0","0","0","11","11","11","11","0","Sun Sep 24 14:24:56 2023","1500","The main experiment item","False","FlankerEffectTest.osexp","C:\Users\stcka\OneDrive\Sam Docs\Psychology Program\AP Textbooks\Quantitative Methods","False","mono","False","18","no","white","no","yes","768","legacy","11","11","C:/Users/stcka/OneDrive/Sam Docs/Psychology Program/AP Textbooks/Quantitative Methods/SA-subject-4.csv","legacy","Melodramatic Milgram","4.0.5","0","h","NA","s","NA","NA","h","558.0","NA","15575","NA","NA","558","2","legacy","1024","2","48000","-16","experiment","HHHHH","4","even","18718","NA","NA","NA","NA","NA","37357","36329","3141","NA","NA","37458","38018","37356","37457","3137","Flanker Effect Test","12","6619.0","12","1024"
"100","100","543","543","#3d3846","legacy","legacy","legacy","congruent","1","undefined","1","s","0","0","0","12","12","0","12","12","0","0","0","12","12","12","12","0","Sun Sep 24 14:24:56 2023","1500","The main experiment item","False","FlankerEffectTest.osexp","C:\Users\stcka\OneDrive\Sam Docs\Psychology Program\AP Textbooks\Quantitative Methods","False","mono","False","18","no","white","no","yes","768","legacy","12","12","C:/Users/stcka/OneDrive/Sam Docs/Psychology Program/AP Textbooks/Quantitative Methods/SA-subject-4.csv","legacy","Melodramatic Milgram","4.0.5","0","s","NA","s","NA","NA","s","447.0","NA","15575","NA","NA","447","2","legacy","1024","2","48000","-16","experiment","SSSSS","4","even","18718","NA","NA","NA","NA","NA","39049","38023","3141","NA","NA","39150","39598","39048","39150","3137","Flanker Effect Test","13","7066.0","13","1024"
"100","100","538","538","#3d3846","legacy","legacy","legacy","congruent","1","undefined","1","h","0","0","0","13","13","0","13","13","0","0","0","13","13","13","13","0","Sun Sep 24 14:24:56 2023","1500","The main experiment item","False","FlankerEffectTest.osexp","C:\Users\stcka\OneDrive\Sam Docs\Psychology Program\AP Textbooks\Quantitative Methods","False","mono","False","18","no","white","no","yes","768","legacy","13","13","C:/Users/stcka/OneDrive/Sam Docs/Psychology Program/AP Textbooks/Quantitative Methods/SA-subject-4.csv","legacy","Melodramatic Milgram","4.0.5","0","h","NA","s","NA","NA","h","467.0","NA","15575","NA","NA","467","2","legacy","1024","2","48000","-16","experiment","HHHHH","4","even","18718","NA","NA","NA","NA","NA","40630","39602","3141","NA","NA","40731","41198","40628","40731","3137","Flanker Effect Test","14","7533.0","14","1024"
"100","100","537","537","#3d3846","legacy","legacy","legacy","incongruent","1","undefined","1","h","0","0","0","14","14","0","14","14","0","0","0","14","14","14","14","0","Sun Sep 24 14:24:56 2023","1500","The main experiment item","False","FlankerEffectTest.osexp","C:\Users\stcka\OneDrive\Sam Docs\Psychology Program\AP Textbooks\Quantitative Methods","False","mono","False","18","no","white","no","yes","768","legacy","14","14","C:/Users/stcka/OneDrive/Sam Docs/Psychology Program/AP Textbooks/Quantitative Methods/SA-subject-4.csv","legacy","Melodramatic Milgram","4.0.5","0","h","NA","s","NA","NA","h","522.0","NA","15575","NA","NA","522","2","legacy","1024","2","48000","-16","experiment","SSHSS","4","even","18718","NA","NA","NA","NA","NA","42231","41204","3141","NA","NA","42331","42854","42228","42331","3137","Flanker Effect Test","15","8055.0","15","1024"
"100","100","533","533","#3d3846","legacy","legacy","legacy","congruent","1","undefined","1","h","0","0","0","15","15","0","15","15","0","0","0","15","15","15","15","0","Sun Sep 24 14:24:56 2023","1500","The main experiment item","False","FlankerEffectTest.osexp","C:\Users\stcka\OneDrive\Sam Docs\Psychology Program\AP Textbooks\Quantitative Methods","False","mono","False","18","no","white","no","yes","768","legacy","15","15","C:/Users/stcka/OneDrive/Sam Docs/Psychology Program/AP Textbooks/Quantitative Methods/SA-subject-4.csv","legacy","Melodramatic Milgram","4.0.5","0","h","NA","s","NA","NA","h","485.0","NA","15575","NA","NA","485","2","legacy","1024","2","48000","-16","experiment","HHHHH","4","even","18718","NA","NA","NA","NA","NA","43884","42860","3141","NA","NA","43984","44470","43883","43984","3137","Flanker Effect Test","16","8540.0","16","1024"
"100","100","553","553","#3d3846","legacy","legacy","legacy","incongruent","1","undefined","1","h","0","0","0","16","16","0","16","16","0","0","0","16","16","16","16","0","Sun Sep 24 14:24:56 2023","1500","The main experiment item","False","FlankerEffectTest.osexp","C:\Users\stcka\OneDrive\Sam Docs\Psychology Program\AP Textbooks\Quantitative Methods","False","mono","False","18","no","white","no","yes","768","legacy","16","16","C:/Users/stcka/OneDrive/Sam Docs/Psychology Program/AP Textbooks/Quantitative Methods/SA-subject-4.csv","legacy","Melodramatic Milgram","4.0.5","0","h","NA","s","NA","NA","h","876.0","NA","15575","NA","NA","876","2","legacy","1024","2","48000","-16","experiment","SSHSS","4","even","18718","NA","NA","NA","NA","NA","45504","44476","3141","NA","NA","45605","46482","45502","45605","3137","Flanker Effect Test","17","9416.0","17","1024"
"100","100","551","551","#3d3846","legacy","legacy","legacy","incongruent","1","undefined","1","h","0","0","0","17","17","0","17","17","0","0","0","17","17","17","17","0","Sun Sep 24 14:24:56 2023","1500","The main experiment item","False","FlankerEffectTest.osexp","C:\Users\stcka\OneDrive\Sam Docs\Psychology Program\AP Textbooks\Quantitative Methods","False","mono","False","18","no","white","no","yes","768","legacy","17","17","C:/Users/stcka/OneDrive/Sam Docs/Psychology Program/AP Textbooks/Quantitative Methods/SA-subject-4.csv","legacy","Melodramatic Milgram","4.0.5","0","h","NA","s","NA","NA","h","518.0","NA","15575","NA","NA","518","2","legacy","1024","2","48000","-16","experiment","SSHSS","4","even","18718","NA","NA","NA","NA","NA","47521","46488","3141","NA","NA","47622","48145","47520","47622","3137","Flanker Effect Test","18","9934.0","18","1024"
"100","100","549","549","#3d3846","legacy","legacy","legacy","incongruent","1","undefined","1","h","0","0","0","18","18","0","18","18","0","0","0","18","18","18","18","0","Sun Sep 24 14:24:56 2023","1500","The main experiment item","False","FlankerEffectTest.osexp","C:\Users\stcka\OneDrive\Sam Docs\Psychology Program\AP Textbooks\Quantitative Methods","False","mono","False","18","no","white","no","yes","768","legacy","18","18","C:/Users/stcka/OneDrive/Sam Docs/Psychology Program/AP Textbooks/Quantitative Methods/SA-subject-4.csv","legacy","Melodramatic Milgram","4.0.5","0","h","NA","s","NA","NA","h","512.0","NA","15575","NA","NA","512","2","legacy","1024","2","48000","-16","experiment","SSHSS","4","even","18718","NA","NA","NA","NA","NA","49176","48149","3141","NA","NA","49276","49789","49175","49276","3137","Flanker Effect Test","19","10446.0","19","1024"
"100","100","552","552","#3d3846","legacy","legacy","legacy","incongruent","1","undefined","1","h","0","0","0","19","19","0","19","19","0","0","0","19","19","19","19","0","Sun Sep 24 14:24:56 2023","1500","The main experiment item","False","FlankerEffectTest.osexp","C:\Users\stcka\OneDrive\Sam Docs\Psychology Program\AP Textbooks\Quantitative Methods","False","mono","False","18","no","white","no","yes","768","legacy","19","19","C:/Users/stcka/OneDrive/Sam Docs/Psychology Program/AP Textbooks/Quantitative Methods/SA-subject-4.csv","legacy","Melodramatic Milgram","4.0.5","0","h","NA","s","NA","NA","h","609.0","NA","15575","NA","NA","609","2","legacy","1024","2","48000","-16","experiment","SSHSS","4","even","18718","NA","NA","NA","NA","NA","50821","49795","3141","NA","NA","50922","51533","50820","50922","3137","Flanker Effect Test","20","11055.0","20","1024"
"100","100","560","560","#3d3846","legacy","legacy","legacy","incongruent","1","undefined","1","s","0","0","0","20","20","0","20","20","0","0","0","20","20","20","20","0","Sun Sep 24 14:24:56 2023","1500","The main experiment item","False","FlankerEffectTest.osexp","C:\Users\stcka\OneDrive\Sam Docs\Psychology Program\AP Textbooks\Quantitative Methods","False","mono","False","18","no","white","no","yes","768","legacy","20","20","C:/Users/stcka/OneDrive/Sam Docs/Psychology Program/AP Textbooks/Quantitative Methods/SA-subject-4.csv","legacy","Melodramatic Milgram","4.0.5","0","s","NA","s","NA","NA","s","721.0","NA","15575","NA","NA","721","2","legacy","1024","2","48000","-16","experiment","HHSHH","4","even","18718","NA","NA","NA","NA","NA","52563","51539","3141","NA","NA","52663","53386","52562","52663","3137","Flanker Effect Test","21","11776.0","21","1024"
"100","100","558","558","#3d3846","legacy","legacy","legacy","incongruent","1","undefined","1","s","0","0","0","21","21","0","21","21","0","0","0","21","21","21","21","0","Sun Sep 24 14:24:56 2023","1500","The main experiment item","False","FlankerEffectTest.osexp","C:\Users\stcka\OneDrive\Sam Docs\Psychology Program\AP Textbooks\Quantitative Methods","False","mono","False","18","no","white","no","yes","768","legacy","21","21","C:/Users/stcka/OneDrive/Sam Docs/Psychology Program/AP Textbooks/Quantitative Methods/SA-subject-4.csv","legacy","Melodramatic Milgram","4.0.5","0","s","NA","s","NA","NA","s","505.0","NA","15575","NA","NA","505","2","legacy","1024","2","48000","-16","experiment","HHSHH","4","even","18718","NA","NA","NA","NA","NA","54419","53392","3141","NA","NA","54521","55027","54418","54521","3137","Flanker Effect Test","22","12281.0","22","1024"
"100","100","559","559","#3d3846","legacy","legacy","legacy","incongruent","1","undefined","1","h","0","0","0","22","22","0","22","22","0","0","0","22","22","22","22","0","Sun Sep 24 14:24:56 2023","1500","The main experiment item","False","FlankerEffectTest.osexp","C:\Users\stcka\OneDrive\Sam Docs\Psychology Program\AP Textbooks\Quantitative Methods","False","mono","False","18","no","white","no","yes","768","legacy","22","22","C:/Users/stcka/OneDrive/Sam Docs/Psychology Program/AP Textbooks/Quantitative Methods/SA-subject-4.csv","legacy","Melodramatic Milgram","4.0.5","0","h","NA","s","NA","NA","h","585.0","NA","15575","NA","NA","585","2","legacy","1024","2","48000","-16","experiment","SSHSS","4","even","18718","NA","NA","NA","NA","NA","56058","55032","3141","NA","NA","56159","56745","56056","56159","3137","Flanker Effect Test","23","12866.0","23","1024"
"100","100","558","558","#3d3846","legacy","legacy","legacy","incongruent","1","undefined","1","h","0","0","0","23","23","0","23","23","0","0","0","23","23","23","23","0","Sun Sep 24 14:24:56 2023","1500","The main experiment item","False","FlankerEffectTest.osexp","C:\Users\stcka\OneDrive\Sam Docs\Psychology Program\AP Textbooks\Quantitative Methods","False","mono","False","18","no","white","no","yes","768","legacy","23","23","C:/Users/stcka/OneDrive/Sam Docs/Psychology Program/AP Textbooks/Quantitative Methods/SA-subject-4.csv","legacy","Melodramatic Milgram","4.0.5","0","h","NA","s","NA","NA","h","530.0","NA","15575","NA","NA","530","2","legacy","1024","2","48000","-16","experiment","SSHSS","4","even","18718","NA","NA","NA","NA","NA","57777","56750","3141","NA","NA","57877","58408","57774","57877","3137","Flanker Effect Test","24","13396.0","24","1024"
"100","100","564","564","#3d3846","legacy","legacy","legacy","incongruent","1","undefined","1","s","0","0","0","24","24","0","24","24","0","0","0","24","24","24","24","0","Sun Sep 24 14:24:56 2023","1500","The main experiment item","False","FlankerEffectTest.osexp","C:\Users\stcka\OneDrive\Sam Docs\Psychology Program\AP Textbooks\Quantitative Methods","False","mono","False","18","no","white","no","yes","768","legacy","24","24","C:/Users/stcka/OneDrive/Sam Docs/Psychology Program/AP Textbooks/Quantitative Methods/SA-subject-4.csv","legacy","Melodramatic Milgram","4.0.5","0","s","NA","s","NA","NA","s","716.0","NA","15575","NA","NA","716","2","legacy","1024","2","48000","-16","experiment","HHSHH","4","even","18718","NA","NA","NA","NA","NA","59441","58413","3141","NA","NA","59542","60260","59438","59542","3137","Flanker Effect Test","25","14112.0","25","1024"
"100","100","566","566","#3d3846","legacy","legacy","legacy","congruent","1","undefined","1","s","0","0","0","25","25","0","25","25","0","0","0","25","25","25","25","0","Sun Sep 24 14:24:56 2023","1500","The main experiment item","False","FlankerEffectTest.osexp","C:\Users\stcka\OneDrive\Sam Docs\Psychology Program\AP Textbooks\Quantitative Methods","False","mono","False","18","no","white","no","yes","768","legacy","25","25","C:/Users/stcka/OneDrive/Sam Docs/Psychology Program/AP Textbooks/Quantitative Methods/SA-subject-4.csv","legacy","Melodramatic Milgram","4.0.5","0","s","NA","s","NA","NA","s","617.0","NA","15575","NA","NA","617","2","legacy","1024","2","48000","-16","experiment","SSSSS","4","even","18718","NA","NA","NA","NA","NA","61298","60264","3141","NA","NA","61399","62016","61295","61399","3137","Flanker Effect Test","26","14729.0","26","1024"
"100","100","563","563","#3d3846","legacy","legacy","legacy","congruent","1","undefined","1","h","0","0","0","26","26","0","26","26","0","0","0","26","26","26","26","0","Sun Sep 24 14:24:56 2023","1500","The main experiment item","False","FlankerEffectTest.osexp","C:\Users\stcka\OneDrive\Sam Docs\Psychology Program\AP Textbooks\Quantitative Methods","False","mono","False","18","no","white","no","yes","768","legacy","26","26","C:/Users/stcka/OneDrive/Sam Docs/Psychology Program/AP Textbooks/Quantitative Methods/SA-subject-4.csv","legacy","Melodramatic Milgram","4.0.5","0","h","NA","s","NA","NA","h","476.0","NA","15575","NA","NA","476","2","legacy","1024","2","48000","-16","experiment","HHHHH","4","even","18718","NA","NA","NA","NA","NA","63062","62022","3141","NA","NA","63163","63640","63061","63163","3137","Flanker Effect Test","27","15205.0","27","1024"
"96","96","560","560","#3d3846","legacy","legacy","legacy","incongruent","0","undefined","0","h","0","0","0","27","27","0","27","27","0","0","0","27","27","27","27","0","Sun Sep 24 14:24:56 2023","1500","The main experiment item","False","FlankerEffectTest.osexp","C:\Users\stcka\OneDrive\Sam Docs\Psychology Program\AP Textbooks\Quantitative Methods","False","mono","False","18","no","white","no","yes","768","legacy","27","27","C:/Users/stcka/OneDrive/Sam Docs/Psychology Program/AP Textbooks/Quantitative Methods/SA-subject-4.csv","legacy","Melodramatic Milgram","4.0.5","0","s","NA","s","NA","NA","s","490.0","NA","15575","NA","NA","490","2","legacy","1024","2","48000","-16","experiment","SSHSS","4","even","18718","NA","NA","NA","NA","NA","64675","63646","3141","NA","NA","64776","65267","64673","64776","3137","Flanker Effect Test","27","15695.0","28","1024"
"96","96","561","561","#3d3846","legacy","legacy","legacy","congruent","1","undefined","1","s","0","0","0","28","28","0","28","28","0","0","0","28","28","28","28","0","Sun Sep 24 14:24:56 2023","1500","The main experiment item","False","FlankerEffectTest.osexp","C:\Users\stcka\OneDrive\Sam Docs\Psychology Program\AP Textbooks\Quantitative Methods","False","mono","False","18","no","white","no","yes","768","legacy","28","28","C:/Users/stcka/OneDrive/Sam Docs/Psychology Program/AP Textbooks/Quantitative Methods/SA-subject-4.csv","legacy","Melodramatic Milgram","4.0.5","0","s","NA","s","NA","NA","s","601.0","NA","15575","NA","NA","601","2","legacy","1024","2","48000","-16","experiment","SSSSS","4","even","18718","NA","NA","65270","NA","NA","66795","65771","3141","NA","NA","66896","67498","66794","66896","3137","Flanker Effect Test","28","16296.0","29","1024"
"96","96","586","586","#3d3846","legacy","legacy","legacy","congruent","1","undefined","1","h","0","0","0","29","29","0","29","29","0","0","0","29","29","29","29","0","Sun Sep 24 14:24:56 2023","1500","The main experiment item","False","FlankerEffectTest.osexp","C:\Users\stcka\OneDrive\Sam Docs\Psychology Program\AP Textbooks\Quantitative Methods","False","mono","False","18","no","white","no","yes","768","legacy","29","29","C:/Users/stcka/OneDrive/Sam Docs/Psychology Program/AP Textbooks/Quantitative Methods/SA-subject-4.csv","legacy","Melodramatic Milgram","4.0.5","0","h","NA","s","NA","NA","h","1313.0","NA","15575","NA","NA","1313","2","legacy","1024","2","48000","-16","experiment","HHHHH","4","even","18718","NA","NA","65270","NA","NA","68528","67502","3141","NA","NA","68629","69944","68527","68628","3137","Flanker Effect Test","29","17609.0","30","1024"
"96","96","583","583","#3d3846","legacy","legacy","legacy","incongruent","1","undefined","1","s","0","0","0","30","30","0","30","30","0","0","0","30","30","30","30","0","Sun Sep 24 14:24:56 2023","1500","The main experiment item","False","FlankerEffectTest.osexp","C:\Users\stcka\OneDrive\Sam Docs\Psychology Program\AP Textbooks\Quantitative Methods","False","mono","False","18","no","white","no","yes","768","legacy","30","30","C:/Users/stcka/OneDrive/Sam Docs/Psychology Program/AP Textbooks/Quantitative Methods/SA-subject-4.csv","legacy","Melodramatic Milgram","4.0.5","0","s","NA","s","NA","NA","s","486.0","NA","15575","NA","NA","486","2","legacy","1024","2","48000","-16","experiment","HHSHH","4","even","18718","NA","NA","65270","NA","NA","70975","69950","3141","NA","NA","71076","71565","70974","71076","3137","Flanker Effect Test","30","18095.0","31","1024"
"96","96","582","582","#3d3846","legacy","legacy","legacy","incongruent","1","undefined","1","s","0","0","0","31","31","0","31","31","0","0","0","31","31","31","31","0","Sun Sep 24 14:24:56 2023","1500","The main experiment item","False","FlankerEffectTest.osexp","C:\Users\stcka\OneDrive\Sam Docs\Psychology Program\AP Textbooks\Quantitative Methods","False","mono","False","18","no","white","no","yes","768","legacy","31","31","C:/Users/stcka/OneDrive/Sam Docs/Psychology Program/AP Textbooks/Quantitative Methods/SA-subject-4.csv","legacy","Melodramatic Milgram","4.0.5","0","s","NA","s","NA","NA","s","530.0","NA","15575","NA","NA","530","2","legacy","1024","2","48000","-16","experiment","HHSHH","4","even","18718","NA","NA","65270","NA","NA","72607","71574","3141","NA","NA","72707","73238","72605","72707","3137","Flanker Effect Test","31","18625.0","32","1024"
"96","96","580","580","#3d3846","legacy","legacy","legacy","incongruent","1","undefined","1","s","0","0","0","32","32","0","32","32","0","0","0","32","32","32","32","0","Sun Sep 24 14:24:56 2023","1500","The main experiment item","False","FlankerEffectTest.osexp","C:\Users\stcka\OneDrive\Sam Docs\Psychology Program\AP Textbooks\Quantitative Methods","False","mono","False","18","no","white","no","yes","768","legacy","32","32","C:/Users/stcka/OneDrive/Sam Docs/Psychology Program/AP Textbooks/Quantitative Methods/SA-subject-4.csv","legacy","Melodramatic Milgram","4.0.5","0","s","NA","s","NA","NA","s","516.0","NA","15575","NA","NA","516","2","legacy","1024","2","48000","-16","experiment","HHSHH","4","even","18718","NA","NA","65270","NA","NA","74269","73244","3141","NA","NA","74370","74887","74267","74370","3137","Flanker Effect Test","32","19141.0","33","1024"
"97","97","580","580","#3d3846","legacy","legacy","legacy","congruent","1","undefined","1","s","0","0","0","33","33","0","33","33","0","0","0","33","33","33","33","0","Sun Sep 24 14:24:56 2023","1500","The main experiment item","False","FlankerEffectTest.osexp","C:\Users\stcka\OneDrive\Sam Docs\Psychology Program\AP Textbooks\Quantitative Methods","False","mono","False","18","no","white","no","yes","768","legacy","33","33","C:/Users/stcka/OneDrive/Sam Docs/Psychology Program/AP Textbooks/Quantitative Methods/SA-subject-4.csv","legacy","Melodramatic Milgram","4.0.5","0","s","NA","s","NA","NA","s","603.0","NA","15575","NA","NA","603","2","legacy","1024","2","48000","-16","experiment","SSSSS","4","even","18718","NA","NA","65270","NA","NA","75932","74893","3141","NA","NA","76033","76636","75931","76033","3137","Flanker Effect Test","33","19744.0","34","1024"
"97","97","582","582","#3d3846","legacy","legacy","legacy","congruent","1","undefined","1","s","0","0","0","34","34","0","34","34","0","0","0","34","34","34","34","0","Sun Sep 24 14:24:56 2023","1500","The main experiment item","False","FlankerEffectTest.osexp","C:\Users\stcka\OneDrive\Sam Docs\Psychology Program\AP Textbooks\Quantitative Methods","False","mono","False","18","no","white","no","yes","768","legacy","34","34","C:/Users/stcka/OneDrive/Sam Docs/Psychology Program/AP Textbooks/Quantitative Methods/SA-subject-4.csv","legacy","Melodramatic Milgram","4.0.5","0","s","NA","s","NA","NA","s","628.0","NA","15575","NA","NA","628","2","legacy","1024","2","48000","-16","experiment","SSSSS","4","even","18718","NA","NA","65270","NA","NA","77682","76642","3141","NA","NA","77783","78412","77679","77783","3137","Flanker Effect Test","34","20372.0","35","1024"
"97","97","590","590","#3d3846","legacy","legacy","legacy","incongruent","1","undefined","1","h","0","0","0","35","35","0","35","35","0","0","0","35","35","35","35","0","Sun Sep 24 14:24:56 2023","1500","The main experiment item","False","FlankerEffectTest.osexp","C:\Users\stcka\OneDrive\Sam Docs\Psychology Program\AP Textbooks\Quantitative Methods","False","mono","False","18","no","white","no","yes","768","legacy","35","35","C:/Users/stcka/OneDrive/Sam Docs/Psychology Program/AP Textbooks/Quantitative Methods/SA-subject-4.csv","legacy","Melodramatic Milgram","4.0.5","0","h","NA","s","NA","NA","h","900.0","NA","15575","NA","NA","900","2","legacy","1024","2","48000","-16","experiment","SSHSS","4","even","18718","NA","NA","65270","NA","NA","79467","78418","3141","NA","NA","79567","80469","79465","79567","3137","Flanker Effect Test","35","21272.0","36","1024"
"97","97","593","593","#3d3846","legacy","legacy","legacy","congruent","1","undefined","1","h","0","0","0","36","36","0","36","36","0","0","0","36","36","36","36","0","Sun Sep 24 14:24:56 2023","1500","The main experiment item","False","FlankerEffectTest.osexp","C:\Users\stcka\OneDrive\Sam Docs\Psychology Program\AP Textbooks\Quantitative Methods","False","mono","False","18","no","white","no","yes","768","legacy","36","36","C:/Users/stcka/OneDrive/Sam Docs/Psychology Program/AP Textbooks/Quantitative Methods/SA-subject-4.csv","legacy","Melodramatic Milgram","4.0.5","0","h","NA","s","NA","NA","h","689.0","NA","15575","NA","NA","689","2","legacy","1024","2","48000","-16","experiment","HHHHH","4","even","18718","NA","NA","65270","NA","NA","81504","80475","3141","NA","NA","81605","82296","81501","81605","3137","Flanker Effect Test","36","21961.0","37","1024"
"97","97","598","598","#3d3846","legacy","legacy","legacy","congruent","1","undefined","1","s","0","0","0","37","37","0","37","37","0","0","0","37","37","37","37","0","Sun Sep 24 14:24:56 2023","1500","The main experiment item","False","FlankerEffectTest.osexp","C:\Users\stcka\OneDrive\Sam Docs\Psychology Program\AP Textbooks\Quantitative Methods","False","mono","False","18","no","white","no","yes","768","legacy","37","37","C:/Users/stcka/OneDrive/Sam Docs/Psychology Program/AP Textbooks/Quantitative Methods/SA-subject-4.csv","legacy","Melodramatic Milgram","4.0.5","0","s","NA","s","NA","NA","s","764.0","NA","15575","NA","NA","764","2","legacy","1024","2","48000","-16","experiment","SSSSS","4","even","18718","NA","NA","65270","NA","NA","83326","82302","3141","NA","NA","83427","84192","83325","83427","3137","Flanker Effect Test","37","22725.0","38","1024"
"97","97","596","596","#3d3846","legacy","legacy","legacy","incongruent","1","undefined","1","s","0","0","0","38","38","0","38","38","0","0","0","38","38","38","38","0","Sun Sep 24 14:24:56 2023","1500","The main experiment item","False","FlankerEffectTest.osexp","C:\Users\stcka\OneDrive\Sam Docs\Psychology Program\AP Textbooks\Quantitative Methods","False","mono","False","18","no","white","no","yes","768","legacy","38","38","C:/Users/stcka/OneDrive/Sam Docs/Psychology Program/AP Textbooks/Quantitative Methods/SA-subject-4.csv","legacy","Melodramatic Milgram","4.0.5","0","s","NA","s","NA","NA","s","531.0","NA","15575","NA","NA","531","2","legacy","1024","2","48000","-16","experiment","HHSHH","4","even","18718","NA","NA","65270","NA","NA","85224","84196","3141","NA","NA","85326","85858","85223","85326","3137","Flanker Effect Test","38","23256.0","39","1024"
"97","97","595","595","#3d3846","legacy","legacy","legacy","incongruent","1","undefined","1","s","0","0","0","39","39","0","39","39","0","0","0","39","39","39","39","0","Sun Sep 24 14:24:56 2023","1500","The main experiment item","False","FlankerEffectTest.osexp","C:\Users\stcka\OneDrive\Sam Docs\Psychology Program\AP Textbooks\Quantitative Methods","False","mono","False","18","no","white","no","yes","768","legacy","39","39","C:/Users/stcka/OneDrive/Sam Docs/Psychology Program/AP Textbooks/Quantitative Methods/SA-subject-4.csv","legacy","Melodramatic Milgram","4.0.5","0","s","NA","s","NA","NA","s","562.0","NA","15575","NA","NA","562","2","legacy","1024","2","48000","-16","experiment","HHSHH","4","even","18718","NA","NA","65270","NA","NA","86889","85864","3141","NA","NA","86990","87554","86888","86990","3137","Flanker Effect Test","39","23818.0","40","1024"
"97","97","597","597","#3d3846","legacy","legacy","legacy","incongruent","1","undefined","1","s","0","0","0","40","40","0","40","40","0","0","0","40","40","40","40","0","Sun Sep 24 14:24:56 2023","1500","The main experiment item","False","FlankerEffectTest.osexp","C:\Users\stcka\OneDrive\Sam Docs\Psychology Program\AP Textbooks\Quantitative Methods","False","mono","False","18","no","white","no","yes","768","legacy","40","40","C:/Users/stcka/OneDrive/Sam Docs/Psychology Program/AP Textbooks/Quantitative Methods/SA-subject-4.csv","legacy","Melodramatic Milgram","4.0.5","0","s","NA","s","NA","NA","s","669.0","NA","15575","NA","NA","669","2","legacy","1024","2","48000","-16","experiment","HHSHH","4","even","18718","NA","NA","65270","NA","NA","88586","87559","3141","NA","NA","88687","89357","88583","88686","3137","Flanker Effect Test","40","24487.0","41","1024"
"97","97","598","598","#3d3846","legacy","legacy","legacy","congruent","1","undefined","1","s","0","0","0","41","41","0","41","41","0","0","0","41","41","41","41","0","Sun Sep 24 14:24:56 2023","1500","The main experiment item","False","FlankerEffectTest.osexp","C:\Users\stcka\OneDrive\Sam Docs\Psychology Program\AP Textbooks\Quantitative Methods","False","mono","False","18","no","white","no","yes","768","legacy","41","41","C:/Users/stcka/OneDrive/Sam Docs/Psychology Program/AP Textbooks/Quantitative Methods/SA-subject-4.csv","legacy","Melodramatic Milgram","4.0.5","0","s","NA","s","NA","NA","s","663.0","NA","15575","NA","NA","663","2","legacy","1024","2","48000","-16","experiment","SSSSS","4","even","18718","NA","NA","65270","NA","NA","90389","89364","3141","NA","NA","90489","91154","90387","90489","3137","Flanker Effect Test","41","25150.0","42","1024"
"97","97","598","598","#3d3846","legacy","legacy","legacy","incongruent","1","undefined","1","s","0","0","0","42","42","0","42","42","0","0","0","42","42","42","42","0","Sun Sep 24 14:24:56 2023","1500","The main experiment item","False","FlankerEffectTest.osexp","C:\Users\stcka\OneDrive\Sam Docs\Psychology Program\AP Textbooks\Quantitative Methods","False","mono","False","18","no","white","no","yes","768","legacy","42","42","C:/Users/stcka/OneDrive/Sam Docs/Psychology Program/AP Textbooks/Quantitative Methods/SA-subject-4.csv","legacy","Melodramatic Milgram","4.0.5","0","s","NA","s","NA","NA","s","605.0","NA","15575","NA","NA","605","2","legacy","1024","2","48000","-16","experiment","HHSHH","4","even","18718","NA","NA","65270","NA","NA","92187","91159","3141","NA","NA","92288","92894","92183","92288","3137","Flanker Effect Test","42","25755.0","43","1024"
"97","97","597","597","#3d3846","legacy","legacy","legacy","incongruent","1","undefined","1","h","0","0","0","43","43","0","43","43","0","0","0","43","43","43","43","0","Sun Sep 24 14:24:56 2023","1500","The main experiment item","False","FlankerEffectTest.osexp","C:\Users\stcka\OneDrive\Sam Docs\Psychology Program\AP Textbooks\Quantitative Methods","False","mono","False","18","no","white","no","yes","768","legacy","43","43","C:/Users/stcka/OneDrive/Sam Docs/Psychology Program/AP Textbooks/Quantitative Methods/SA-subject-4.csv","legacy","Melodramatic Milgram","4.0.5","0","h","NA","s","NA","NA","h","549.0","NA","15575","NA","NA","549","2","legacy","1024","2","48000","-16","experiment","SSHSS","4","even","18718","NA","NA","65270","NA","NA","93927","92901","3141","NA","NA","94028","94579","93926","94027","3137","Flanker Effect Test","43","26304.0","44","1024"
"97","97","597","597","#3d3846","legacy","legacy","legacy","congruent","1","undefined","1","s","0","0","0","44","44","0","44","44","0","0","0","44","44","44","44","0","Sun Sep 24 14:24:56 2023","1500","The main experiment item","False","FlankerEffectTest.osexp","C:\Users\stcka\OneDrive\Sam Docs\Psychology Program\AP Textbooks\Quantitative Methods","False","mono","False","18","no","white","no","yes","768","legacy","44","44","C:/Users/stcka/OneDrive/Sam Docs/Psychology Program/AP Textbooks/Quantitative Methods/SA-subject-4.csv","legacy","Melodramatic Milgram","4.0.5","0","s","NA","s","NA","NA","s","589.0","NA","15575","NA","NA","589","2","legacy","1024","2","48000","-16","experiment","SSSSS","4","even","18718","NA","NA","65270","NA","NA","95618","94585","3141","NA","NA","95719","96309","95617","95719","3137","Flanker Effect Test","44","26893.0","45","1024"
"97","97","595","595","#3d3846","legacy","legacy","legacy","congruent","1","undefined","1","h","0","0","0","45","45","0","45","45","0","0","0","45","45","45","45","0","Sun Sep 24 14:24:56 2023","1500","The main experiment item","False","FlankerEffectTest.osexp","C:\Users\stcka\OneDrive\Sam Docs\Psychology Program\AP Textbooks\Quantitative Methods","False","mono","False","18","no","white","no","yes","768","legacy","45","45","C:/Users/stcka/OneDrive/Sam Docs/Psychology Program/AP Textbooks/Quantitative Methods/SA-subject-4.csv","legacy","Melodramatic Milgram","4.0.5","0","h","NA","s","NA","NA","h","490.0","NA","15575","NA","NA","490","2","legacy","1024","2","48000","-16","experiment","HHHHH","4","even","18718","NA","NA","65270","NA","NA","97339","96313","3141","NA","NA","97440","97930","97336","97440","3137","Flanker Effect Test","45","27383.0","46","1024"
"97","97","593","593","#3d3846","legacy","legacy","legacy","congruent","1","undefined","1","s","0","0","0","46","46","0","46","46","0","0","0","46","46","46","46","0","Sun Sep 24 14:24:56 2023","1500","The main experiment item","False","FlankerEffectTest.osexp","C:\Users\stcka\OneDrive\Sam Docs\Psychology Program\AP Textbooks\Quantitative Methods","False","mono","False","18","no","white","no","yes","768","legacy","46","46","C:/Users/stcka/OneDrive/Sam Docs/Psychology Program/AP Textbooks/Quantitative Methods/SA-subject-4.csv","legacy","Melodramatic Milgram","4.0.5","0","s","NA","s","NA","NA","s","500.0","NA","15575","NA","NA","500","2","legacy","1024","2","48000","-16","experiment","SSSSS","4","even","18718","NA","NA","65270","NA","NA","98962","97936","3141","NA","NA","99062","99563","98960","99062","3137","Flanker Effect Test","46","27883.0","47","1024"
"97","97","593","593","#3d3846","legacy","legacy","legacy","congruent","1","undefined","1","h","0","0","0","47","47","0","47","47","0","0","0","47","47","47","47","0","Sun Sep 24 14:24:56 2023","1500","The main experiment item","False","FlankerEffectTest.osexp","C:\Users\stcka\OneDrive\Sam Docs\Psychology Program\AP Textbooks\Quantitative Methods","False","mono","False","18","no","white","no","yes","768","legacy","47","47","C:/Users/stcka/OneDrive/Sam Docs/Psychology Program/AP Textbooks/Quantitative Methods/SA-subject-4.csv","legacy","Melodramatic Milgram","4.0.5","0","h","NA","s","NA","NA","h","582.0","NA","15575","NA","NA","582","2","legacy","1024","2","48000","-16","experiment","HHHHH","4","even","18718","NA","NA","65270","NA","NA","100597","99568","3141","NA","NA","100698","101281","100595","100698","3137","Flanker Effect Test","47","28465.0","48","1024"
"97","97","591","591","#3d3846","legacy","legacy","legacy","incongruent","1","undefined","1","h","0","0","0","48","48","0","48","48","0","0","0","48","48","48","48","0","Sun Sep 24 14:24:56 2023","1500","The main experiment item","False","FlankerEffectTest.osexp","C:\Users\stcka\OneDrive\Sam Docs\Psychology Program\AP Textbooks\Quantitative Methods","False","mono","False","18","no","white","no","yes","768","legacy","48","48","C:/Users/stcka/OneDrive/Sam Docs/Psychology Program/AP Textbooks/Quantitative Methods/SA-subject-4.csv","legacy","Melodramatic Milgram","4.0.5","0","h","NA","s","NA","NA","h","502.0","NA","15575","NA","NA","502","2","legacy","1024","2","48000","-16","experiment","SSHSS","4","even","18718","NA","NA","65270","NA","NA","102312","101287","3141","NA","NA","102413","102916","102310","102413","3137","Flanker Effect Test","48","28967.0","49","1024"
"98","98","588","588","#3d3846","legacy","legacy","legacy","congruent","1","undefined","1","s","0","0","0","49","49","0","49","49","0","0","0","49","49","49","49","0","Sun Sep 24 14:24:56 2023","1500","The main experiment item","False","FlankerEffectTest.osexp","C:\Users\stcka\OneDrive\Sam Docs\Psychology Program\AP Textbooks\Quantitative Methods","False","mono","False","18","no","white","no","yes","768","legacy","49","49","C:/Users/stcka/OneDrive/Sam Docs/Psychology Program/AP Textbooks/Quantitative Methods/SA-subject-4.csv","legacy","Melodramatic Milgram","4.0.5","0","s","NA","s","NA","NA","s","443.0","NA","15575","NA","NA","443","2","legacy","1024","2","48000","-16","experiment","SSSSS","4","even","18718","NA","NA","65270","NA","NA","103947","102920","3141","NA","NA","104048","104493","103946","104048","3137","Flanker Effect Test","49","29410.0","50","1024"
"98","98","585","585","#3d3846","legacy","legacy","legacy","congruent","1","undefined","1","h","0","0","0","50","50","0","50","50","0","0","0","50","50","50","50","0","Sun Sep 24 14:24:56 2023","1500","The main experiment item","False","FlankerEffectTest.osexp","C:\Users\stcka\OneDrive\Sam Docs\Psychology Program\AP Textbooks\Quantitative Methods","False","mono","False","18","no","white","no","yes","768","legacy","50","50","C:/Users/stcka/OneDrive/Sam Docs/Psychology Program/AP Textbooks/Quantitative Methods/SA-subject-4.csv","legacy","Melodramatic Milgram","4.0.5","0","h","NA","s","NA","NA","h","475.0","NA","15575","NA","NA","475","2","legacy","1024","2","48000","-16","experiment","HHHHH","4","even","18718","NA","NA","65270","NA","NA","105526","104499","3141","NA","NA","105626","106102","105523","105626","3137","Flanker Effect Test","50","29885.0","51","1024"
"98","98","582","582","#3d3846","legacy","legacy","legacy","congruent","1","undefined","1","s","0","0","0","51","51","0","51","51","0","0","0","51","51","51","51","0","Sun Sep 24 14:24:56 2023","1500","The main experiment item","False","FlankerEffectTest.osexp","C:\Users\stcka\OneDrive\Sam Docs\Psychology Program\AP Textbooks\Quantitative Methods","False","mono","False","18","no","white","no","yes","768","legacy","51","51","C:/Users/stcka/OneDrive/Sam Docs/Psychology Program/AP Textbooks/Quantitative Methods/SA-subject-4.csv","legacy","Melodramatic Milgram","4.0.5","0","s","NA","s","NA","NA","s","428.0","NA","15575","NA","NA","428","2","legacy","1024","2","48000","-16","experiment","SSSSS","4","even","18718","NA","NA","65270","NA","NA","107136","106108","3141","NA","NA","107237","107666","107132","107236","3137","Flanker Effect Test","51","30313.0","52","1024"
"98","98","579","579","#3d3846","legacy","legacy","legacy","congruent","1","undefined","1","s","0","0","0","52","52","0","52","52","0","0","0","52","52","52","52","0","Sun Sep 24 14:24:56 2023","1500","The main experiment item","False","FlankerEffectTest.osexp","C:\Users\stcka\OneDrive\Sam Docs\Psychology Program\AP Textbooks\Quantitative Methods","False","mono","False","18","no","white","no","yes","768","legacy","52","52","C:/Users/stcka/OneDrive/Sam Docs/Psychology Program/AP Textbooks/Quantitative Methods/SA-subject-4.csv","legacy","Melodramatic Milgram","4.0.5","0","s","NA","s","NA","NA","s","390.0","NA","15575","NA","NA","390","2","legacy","1024","2","48000","-16","experiment","SSSSS","4","even","18718","NA","NA","65270","NA","NA","108695","107670","3141","NA","NA","108796","109187","108693","108796","3137","Flanker Effect Test","52","30703.0","53","1024"
"98","98","577","577","#3d3846","legacy","legacy","legacy","incongruent","1","undefined","1","h","0","0","0","53","53","0","53","53","0","0","0","53","53","53","53","0","Sun Sep 24 14:24:56 2023","1500","The main experiment item","False","FlankerEffectTest.osexp","C:\Users\stcka\OneDrive\Sam Docs\Psychology Program\AP Textbooks\Quantitative Methods","False","mono","False","18","no","white","no","yes","768","legacy","53","53","C:/Users/stcka/OneDrive/Sam Docs/Psychology Program/AP Textbooks/Quantitative Methods/SA-subject-4.csv","legacy","Melodramatic Milgram","4.0.5","0","h","NA","s","NA","NA","h","486.0","NA","15575","NA","NA","486","2","legacy","1024","2","48000","-16","experiment","SSHSS","4","even","18718","NA","NA","65270","NA","NA","110227","109193","3141","NA","NA","110328","110815","110224","110328","3137","Flanker Effect Test","53","31189.0","54","1024"
"98","98","576","576","#3d3846","legacy","legacy","legacy","incongruent","1","undefined","1","h","0","0","0","54","54","0","54","54","0","0","0","54","54","54","54","0","Sun Sep 24 14:24:56 2023","1500","The main experiment item","False","FlankerEffectTest.osexp","C:\Users\stcka\OneDrive\Sam Docs\Psychology Program\AP Textbooks\Quantitative Methods","False","mono","False","18","no","white","no","yes","768","legacy","54","54","C:/Users/stcka/OneDrive/Sam Docs/Psychology Program/AP Textbooks/Quantitative Methods/SA-subject-4.csv","legacy","Melodramatic Milgram","4.0.5","0","h","NA","s","NA","NA","h","509.0","NA","15575","NA","NA","509","2","legacy","1024","2","48000","-16","experiment","SSHSS","4","even","18718","NA","NA","65270","NA","NA","111850","110820","3141","NA","NA","111951","112462","111848","111951","3137","Flanker Effect Test","54","31698.0","55","1024"
"98","98","575","575","#3d3846","legacy","legacy","legacy","congruent","1","undefined","1","h","0","0","0","55","55","0","55","55","0","0","0","55","55","55","55","0","Sun Sep 24 14:24:56 2023","1500","The main experiment item","False","FlankerEffectTest.osexp","C:\Users\stcka\OneDrive\Sam Docs\Psychology Program\AP Textbooks\Quantitative Methods","False","mono","False","18","no","white","no","yes","768","legacy","55","55","C:/Users/stcka/OneDrive/Sam Docs/Psychology Program/AP Textbooks/Quantitative Methods/SA-subject-4.csv","legacy","Melodramatic Milgram","4.0.5","0","h","NA","s","NA","NA","h","524.0","NA","15575","NA","NA","524","2","legacy","1024","2","48000","-16","experiment","HHHHH","4","even","18718","NA","NA","65270","NA","NA","113492","112467","3141","NA","NA","113593","114120","113490","113593","3137","Flanker Effect Test","55","32222.0","56","1024"
"98","98","573","573","#3d3846","legacy","legacy","legacy","incongruent","1","undefined","1","h","0","0","0","56","56","0","56","56","0","0","0","56","56","56","56","0","Sun Sep 24 14:24:56 2023","1500","The main experiment item","False","FlankerEffectTest.osexp","C:\Users\stcka\OneDrive\Sam Docs\Psychology Program\AP Textbooks\Quantitative Methods","False","mono","False","18","no","white","no","yes","768","legacy","56","56","C:/Users/stcka/OneDrive/Sam Docs/Psychology Program/AP Textbooks/Quantitative Methods/SA-subject-4.csv","legacy","Melodramatic Milgram","4.0.5","0","h","NA","s","NA","NA","h","489.0","NA","15575","NA","NA","489","2","legacy","1024","2","48000","-16","experiment","SSHSS","4","even","18718","NA","NA","65270","NA","NA","115150","114125","3141","NA","NA","115250","115740","115148","115250","3137","Flanker Effect Test","56","32711.0","57","1024"
"98","98","574","574","#3d3846","legacy","legacy","legacy","congruent","1","undefined","1","s","0","0","0","57","57","0","57","57","0","0","0","57","57","57","57","0","Sun Sep 24 14:24:56 2023","1500","The main experiment item","False","FlankerEffectTest.osexp","C:\Users\stcka\OneDrive\Sam Docs\Psychology Program\AP Textbooks\Quantitative Methods","False","mono","False","18","no","white","no","yes","768","legacy","57","57","C:/Users/stcka/OneDrive/Sam Docs/Psychology Program/AP Textbooks/Quantitative Methods/SA-subject-4.csv","legacy","Melodramatic Milgram","4.0.5","0","s","NA","s","NA","NA","s","627.0","NA","15575","NA","NA","627","2","legacy","1024","2","48000","-16","experiment","SSSSS","4","even","18718","NA","NA","65270","NA","NA","116771","115744","3141","NA","NA","116872","117500","116770","116872","3137","Flanker Effect Test","57","33338.0","58","1024"
"98","98","572","572","#3d3846","legacy","legacy","legacy","congruent","1","undefined","1","h","0","0","0","58","58","0","58","58","0","0","0","58","58","58","58","0","Sun Sep 24 14:24:56 2023","1500","The main experiment item","False","FlankerEffectTest.osexp","C:\Users\stcka\OneDrive\Sam Docs\Psychology Program\AP Textbooks\Quantitative Methods","False","mono","False","18","no","white","no","yes","768","legacy","58","58","C:/Users/stcka/OneDrive/Sam Docs/Psychology Program/AP Textbooks/Quantitative Methods/SA-subject-4.csv","legacy","Melodramatic Milgram","4.0.5","0","h","NA","s","NA","NA","h","449.0","NA","15575","NA","NA","449","2","legacy","1024","2","48000","-16","experiment","HHHHH","4","even","18718","NA","NA","65270","NA","NA","118535","117504","3141","NA","NA","118636","119087","118533","118635","3137","Flanker Effect Test","58","33787.0","59","1024"
"98","98","570","570","#3d3846","legacy","legacy","legacy","congruent","1","undefined","1","s","0","0","0","59","59","0","59","59","0","0","0","59","59","59","59","0","Sun Sep 24 14:24:56 2023","1500","The main experiment item","False","FlankerEffectTest.osexp","C:\Users\stcka\OneDrive\Sam Docs\Psychology Program\AP Textbooks\Quantitative Methods","False","mono","False","18","no","white","no","yes","768","legacy","59","59","C:/Users/stcka/OneDrive/Sam Docs/Psychology Program/AP Textbooks/Quantitative Methods/SA-subject-4.csv","legacy","Melodramatic Milgram","4.0.5","0","s","NA","s","NA","NA","s","417.0","NA","15575","NA","NA","417","2","legacy","1024","2","48000","-16","experiment","SSSSS","4","even","18718","NA","NA","65270","NA","NA","120118","119092","3141","NA","NA","120220","120639","120115","120219","3137","Flanker Effect Test","59","34204.0","60","1024"
"98","98","572","572","#3d3846","legacy","legacy","legacy","incongruent","1","undefined","1","h","0","0","0","60","60","0","60","60","0","0","0","60","60","60","60","0","Sun Sep 24 14:24:56 2023","1500","The main experiment item","False","FlankerEffectTest.osexp","C:\Users\stcka\OneDrive\Sam Docs\Psychology Program\AP Textbooks\Quantitative Methods","False","mono","False","18","no","white","no","yes","768","legacy","60","60","C:/Users/stcka/OneDrive/Sam Docs/Psychology Program/AP Textbooks/Quantitative Methods/SA-subject-4.csv","legacy","Melodramatic Milgram","4.0.5","0","h","NA","s","NA","NA","h","703.0","NA","15575","NA","NA","703","2","legacy","1024","2","48000","-16","experiment","SSHSS","4","even","18718","NA","NA","65270","NA","NA","121669","120644","3141","NA","NA","121770","122474","121668","121770","3137","Flanker Effect Test","60","34907.0","61","1024"
"98","98","575","575","#3d3846","legacy","legacy","legacy","congruent","1","undefined","1","h","0","0","0","61","61","0","61","61","0","0","0","61","61","61","61","0","Sun Sep 24 14:24:56 2023","1500","The main experiment item","False","FlankerEffectTest.osexp","C:\Users\stcka\OneDrive\Sam Docs\Psychology Program\AP Textbooks\Quantitative Methods","False","mono","False","18","no","white","no","yes","768","legacy","61","61","C:/Users/stcka/OneDrive/Sam Docs/Psychology Program/AP Textbooks/Quantitative Methods/SA-subject-4.csv","legacy","Melodramatic Milgram","4.0.5","0","h","NA","s","NA","NA","h","755.0","NA","15575","NA","NA","755","2","legacy","1024","2","48000","-16","experiment","HHHHH","4","even","18718","NA","NA","65270","NA","NA","123504","122479","3141","NA","NA","123605","124360","123503","123605","3137","Flanker Effect Test","61","35662.0","62","1024"
"98","98","573","573","#3d3846","legacy","legacy","legacy","congruent","1","undefined","1","h","0","0","0","62","62","0","62","62","0","0","0","62","62","62","62","0","Sun Sep 24 14:24:56 2023","1500","The main experiment item","False","FlankerEffectTest.osexp","C:\Users\stcka\OneDrive\Sam Docs\Psychology Program\AP Textbooks\Quantitative Methods","False","mono","False","18","no","white","no","yes","768","legacy","62","62","C:/Users/stcka/OneDrive/Sam Docs/Psychology Program/AP Textbooks/Quantitative Methods/SA-subject-4.csv","legacy","Melodramatic Milgram","4.0.5","0","h","NA","s","NA","NA","h","483.0","NA","15575","NA","NA","483","2","legacy","1024","2","48000","-16","experiment","HHHHH","4","even","18718","NA","NA","65270","NA","NA","125409","124367","3141","NA","NA","125510","125994","125407","125510","3137","Flanker Effect Test","62","36145.0","63","1024"
"98","98","576","576","#3d3846","legacy","legacy","legacy","congruent","1","undefined","1","s","0","0","0","63","63","0","63","63","0","0","0","63","63","63","63","0","Sun Sep 24 14:24:56 2023","1500","The main experiment item","False","FlankerEffectTest.osexp","C:\Users\stcka\OneDrive\Sam Docs\Psychology Program\AP Textbooks\Quantitative Methods","False","mono","False","18","no","white","no","yes","768","legacy","63","63","C:/Users/stcka/OneDrive/Sam Docs/Psychology Program/AP Textbooks/Quantitative Methods/SA-subject-4.csv","legacy","Melodramatic Milgram","4.0.5","0","s","NA","s","NA","NA","s","735.0","NA","15575","NA","NA","735","2","legacy","1024","2","48000","-16","experiment","SSSSS","4","even","18718","NA","NA","65270","NA","NA","127025","125999","3141","NA","NA","127126","127862","127023","127126","3137","Flanker Effect Test","63","36880.0","64","1024"
"98","98","574","574","#3d3846","legacy","legacy","legacy","congruent","1","undefined","1","s","0","0","0","64","64","0","64","64","0","0","0","64","64","64","64","0","Sun Sep 24 14:24:56 2023","1500","The main experiment item","False","FlankerEffectTest.osexp","C:\Users\stcka\OneDrive\Sam Docs\Psychology Program\AP Textbooks\Quantitative Methods","False","mono","False","18","no","white","no","yes","768","legacy","64","64","C:/Users/stcka/OneDrive/Sam Docs/Psychology Program/AP Textbooks/Quantitative Methods/SA-subject-4.csv","legacy","Melodramatic Milgram","4.0.5","0","s","NA","s","NA","NA","s","470.0","NA","15575","NA","NA","470","2","legacy","1024","2","48000","-16","experiment","SSSSS","4","even","18718","NA","NA","65270","NA","NA","128893","127866","3141","NA","NA","128994","129465","128891","128994","3137","Flanker Effect Test","64","37350.0","65","1024"
"98","98","578","578","#3d3846","legacy","legacy","legacy","congruent","1","undefined","1","h","0","0","0","65","65","0","65","65","0","0","0","65","65","65","65","0","Sun Sep 24 14:24:56 2023","1500","The main experiment item","False","FlankerEffectTest.osexp","C:\Users\stcka\OneDrive\Sam Docs\Psychology Program\AP Textbooks\Quantitative Methods","False","mono","False","18","no","white","no","yes","768","legacy","65","65","C:/Users/stcka/OneDrive/Sam Docs/Psychology Program/AP Textbooks/Quantitative Methods/SA-subject-4.csv","legacy","Melodramatic Milgram","4.0.5","0","h","NA","s","NA","NA","h","831.0","NA","15575","NA","NA","831","2","legacy","1024","2","48000","-16","experiment","HHHHH","4","even","18718","NA","NA","65270","NA","NA","130498","129471","3141","NA","NA","130600","131432","130496","130600","3137","Flanker Effect Test","65","38181.0","66","1024"
"98","98","587","587","#3d3846","legacy","legacy","legacy","congruent","1","undefined","1","s","0","0","0","66","66","0","66","66","0","0","0","66","66","66","66","0","Sun Sep 24 14:24:56 2023","1500","The main experiment item","False","FlankerEffectTest.osexp","C:\Users\stcka\OneDrive\Sam Docs\Psychology Program\AP Textbooks\Quantitative Methods","False","mono","False","18","no","white","no","yes","768","legacy","66","66","C:/Users/stcka/OneDrive/Sam Docs/Psychology Program/AP Textbooks/Quantitative Methods/SA-subject-4.csv","legacy","Melodramatic Milgram","4.0.5","0","s","NA","s","NA","NA","s","1206.0","NA","15575","NA","NA","1206","2","legacy","1024","2","48000","-16","experiment","SSSSS","4","even","18718","NA","NA","65270","NA","NA","132463","131438","3141","NA","NA","132563","133770","132461","132563","3137","Flanker Effect Test","66","39387.0","67","1024"
"98","98","588","588","#3d3846","legacy","legacy","legacy","incongruent","1","undefined","1","s","0","0","0","67","67","0","67","67","0","0","0","67","67","67","67","0","Sun Sep 24 14:24:56 2023","1500","The main experiment item","False","FlankerEffectTest.osexp","C:\Users\stcka\OneDrive\Sam Docs\Psychology Program\AP Textbooks\Quantitative Methods","False","mono","False","18","no","white","no","yes","768","legacy","67","67","C:/Users/stcka/OneDrive/Sam Docs/Psychology Program/AP Textbooks/Quantitative Methods/SA-subject-4.csv","legacy","Melodramatic Milgram","4.0.5","0","s","NA","s","NA","NA","s","624.0","NA","15575","NA","NA","624","2","legacy","1024","2","48000","-16","experiment","HHSHH","4","even","18718","NA","NA","65270","NA","NA","134814","133776","3141","NA","NA","134915","135540","134813","134915","3137","Flanker Effect Test","67","40011.0","68","1024"
"98","98","588","588","#3d3846","legacy","legacy","legacy","incongruent","1","undefined","1","s","0","0","0","68","68","0","68","68","0","0","0","68","68","68","68","0","Sun Sep 24 14:24:56 2023","1500","The main experiment item","False","FlankerEffectTest.osexp","C:\Users\stcka\OneDrive\Sam Docs\Psychology Program\AP Textbooks\Quantitative Methods","False","mono","False","18","no","white","no","yes","768","legacy","68","68","C:/Users/stcka/OneDrive/Sam Docs/Psychology Program/AP Textbooks/Quantitative Methods/SA-subject-4.csv","legacy","Melodramatic Milgram","4.0.5","0","s","NA","s","NA","NA","s","589.0","NA","15575","NA","NA","589","2","legacy","1024","2","48000","-16","experiment","HHSHH","4","even","18718","NA","NA","65270","NA","NA","136576","135546","3141","NA","NA","136678","137268","136574","136677","3137","Flanker Effect Test","68","40600.0","69","1024"
"98","98","587","587","#3d3846","legacy","legacy","legacy","incongruent","1","undefined","1","s","0","0","0","69","69","0","69","69","0","0","0","69","69","69","69","0","Sun Sep 24 14:24:56 2023","1500","The main experiment item","False","FlankerEffectTest.osexp","C:\Users\stcka\OneDrive\Sam Docs\Psychology Program\AP Textbooks\Quantitative Methods","False","mono","False","18","no","white","no","yes","768","legacy","69","69","C:/Users/stcka/OneDrive/Sam Docs/Psychology Program/AP Textbooks/Quantitative Methods/SA-subject-4.csv","legacy","Melodramatic Milgram","4.0.5","0","s","NA","s","NA","NA","s","526.0","NA","15575","NA","NA","526","2","legacy","1024","2","48000","-16","experiment","HHSHH","4","even","18718","NA","NA","65270","NA","NA","138303","137271","3141","NA","NA","138404","138931","138301","138404","3137","Flanker Effect Test","69","41126.0","70","1024"
"98","98","586","586","#3d3846","legacy","legacy","legacy","congruent","1","undefined","1","h","0","0","0","70","70","0","70","70","0","0","0","70","70","70","70","0","Sun Sep 24 14:24:56 2023","1500","The main experiment item","False","FlankerEffectTest.osexp","C:\Users\stcka\OneDrive\Sam Docs\Psychology Program\AP Textbooks\Quantitative Methods","False","mono","False","18","no","white","no","yes","768","legacy","70","70","C:/Users/stcka/OneDrive/Sam Docs/Psychology Program/AP Textbooks/Quantitative Methods/SA-subject-4.csv","legacy","Melodramatic Milgram","4.0.5","0","h","NA","s","NA","NA","h","519.0","NA","15575","NA","NA","519","2","legacy","1024","2","48000","-16","experiment","HHHHH","4","even","18718","NA","NA","65270","NA","NA","139966","138937","3141","NA","NA","140067","140587","139964","140067","3137","Flanker Effect Test","70","41645.0","71","1024"
"98","98","586","586","#3d3846","legacy","legacy","legacy","incongruent","1","undefined","1","h","0","0","0","71","71","0","71","71","0","0","0","71","71","71","71","0","Sun Sep 24 14:24:56 2023","1500","The main experiment item","False","FlankerEffectTest.osexp","C:\Users\stcka\OneDrive\Sam Docs\Psychology Program\AP Textbooks\Quantitative Methods","False","mono","False","18","no","white","no","yes","768","legacy","71","71","C:/Users/stcka/OneDrive/Sam Docs/Psychology Program/AP Textbooks/Quantitative Methods/SA-subject-4.csv","legacy","Melodramatic Milgram","4.0.5","0","h","NA","s","NA","NA","h","576.0","NA","15575","NA","NA","576","2","legacy","1024","2","48000","-16","experiment","SSHSS","4","even","18718","NA","NA","65270","NA","NA","141628","140592","3141","NA","NA","141728","142306","141627","141728","3137","Flanker Effect Test","71","42221.0","72","1024"
"98","98","586","586","#3d3846","legacy","legacy","legacy","incongruent","1","undefined","1","h","0","0","0","72","72","0","72","72","0","0","0","72","72","72","72","0","Sun Sep 24 14:24:56 2023","1500","The main experiment item","False","FlankerEffectTest.osexp","C:\Users\stcka\OneDrive\Sam Docs\Psychology Program\AP Textbooks\Quantitative Methods","False","mono","False","18","no","white","no","yes","768","legacy","72","72","C:/Users/stcka/OneDrive/Sam Docs/Psychology Program/AP Textbooks/Quantitative Methods/SA-subject-4.csv","legacy","Melodramatic Milgram","4.0.5","0","h","NA","s","NA","NA","h","604.0","NA","15575","NA","NA","604","2","legacy","1024","2","48000","-16","experiment","SSHSS","4","even","18718","NA","NA","65270","NA","NA","143335","142310","3141","NA","NA","143435","144041","143333","143435","3137","Flanker Effect Test","72","42825.0","73","1024"
"98","98","585","585","#3d3846","legacy","legacy","legacy","congruent","1","undefined","1","s","0","0","0","73","73","0","73","73","0","0","0","73","73","73","73","0","Sun Sep 24 14:24:56 2023","1500","The main experiment item","False","FlankerEffectTest.osexp","C:\Users\stcka\OneDrive\Sam Docs\Psychology Program\AP Textbooks\Quantitative Methods","False","mono","False","18","no","white","no","yes","768","legacy","73","73","C:/Users/stcka/OneDrive/Sam Docs/Psychology Program/AP Textbooks/Quantitative Methods/SA-subject-4.csv","legacy","Melodramatic Milgram","4.0.5","0","s","NA","s","NA","NA","s","476.0","NA","15575","NA","NA","476","2","legacy","1024","2","48000","-16","experiment","SSSSS","4","even","18718","NA","NA","65270","NA","NA","145072","144046","3141","NA","NA","145172","145649","145071","145172","3137","Flanker Effect Test","73","43301.0","74","1024"
"98","98","583","583","#3d3846","legacy","legacy","legacy","congruent","1","undefined","1","h","0","0","0","74","74","0","74","74","0","0","0","74","74","74","74","0","Sun Sep 24 14:24:56 2023","1500","The main experiment item","False","FlankerEffectTest.osexp","C:\Users\stcka\OneDrive\Sam Docs\Psychology Program\AP Textbooks\Quantitative Methods","False","mono","False","18","no","white","no","yes","768","legacy","74","74","C:/Users/stcka/OneDrive/Sam Docs/Psychology Program/AP Textbooks/Quantitative Methods/SA-subject-4.csv","legacy","Melodramatic Milgram","4.0.5","0","h","NA","s","NA","NA","h","498.0","NA","15575","NA","NA","498","2","legacy","1024","2","48000","-16","experiment","HHHHH","4","even","18718","NA","NA","65270","NA","NA","146679","145654","3141","NA","NA","146780","147280","146677","146780","3137","Flanker Effect Test","74","43799.0","75","1024"
"98","98","583","583","#3d3846","legacy","legacy","legacy","incongruent","1","undefined","1","s","0","0","0","75","75","0","75","75","0","0","0","75","75","75","75","0","Sun Sep 24 14:24:56 2023","1500","The main experiment item","False","FlankerEffectTest.osexp","C:\Users\stcka\OneDrive\Sam Docs\Psychology Program\AP Textbooks\Quantitative Methods","False","mono","False","18","no","white","no","yes","768","legacy","75","75","C:/Users/stcka/OneDrive/Sam Docs/Psychology Program/AP Textbooks/Quantitative Methods/SA-subject-4.csv","legacy","Melodramatic Milgram","4.0.5","0","s","NA","s","NA","NA","s","511.0","NA","15575","NA","NA","511","2","legacy","1024","2","48000","-16","experiment","HHSHH","4","even","18718","NA","NA","65270","NA","NA","148314","147285","3141","NA","NA","148415","148927","148312","148415","3137","Flanker Effect Test","75","44310.0","76","1024"
"98","98","581","581","#3d3846","legacy","legacy","legacy","congruent","1","undefined","1","h","0","0","0","76","76","0","76","76","0","0","0","76","76","76","76","0","Sun Sep 24 14:24:56 2023","1500","The main experiment item","False","FlankerEffectTest.osexp","C:\Users\stcka\OneDrive\Sam Docs\Psychology Program\AP Textbooks\Quantitative Methods","False","mono","False","18","no","white","no","yes","768","legacy","76","76","C:/Users/stcka/OneDrive/Sam Docs/Psychology Program/AP Textbooks/Quantitative Methods/SA-subject-4.csv","legacy","Melodramatic Milgram","4.0.5","0","h","NA","s","NA","NA","h","481.0","NA","15575","NA","NA","481","2","legacy","1024","2","48000","-16","experiment","HHHHH","4","even","18718","NA","NA","65270","NA","NA","149959","148932","3141","NA","NA","150060","150542","149958","150059","3137","Flanker Effect Test","76","44791.0","77","1024"
"98","98","583","583","#3d3846","legacy","legacy","legacy","incongruent","1","undefined","1","h","0","0","0","77","77","0","77","77","0","0","0","77","77","77","77","0","Sun Sep 24 14:24:56 2023","1500","The main experiment item","False","FlankerEffectTest.osexp","C:\Users\stcka\OneDrive\Sam Docs\Psychology Program\AP Textbooks\Quantitative Methods","False","mono","False","18","no","white","no","yes","768","legacy","77","77","C:/Users/stcka/OneDrive/Sam Docs/Psychology Program/AP Textbooks/Quantitative Methods/SA-subject-4.csv","legacy","Melodramatic Milgram","4.0.5","0","h","NA","s","NA","NA","h","695.0","NA","15575","NA","NA","695","2","legacy","1024","2","48000","-16","experiment","SSHSS","4","even","18718","NA","NA","65270","NA","NA","151576","150548","3141","NA","NA","151677","152374","151574","151677","3137","Flanker Effect Test","77","45486.0","78","1024"
"98","98","582","582","#3d3846","legacy","legacy","legacy","incongruent","1","undefined","1","s","0","0","0","78","78","0","78","78","0","0","0","78","78","78","78","0","Sun Sep 24 14:24:56 2023","1500","The main experiment item","False","FlankerEffectTest.osexp","C:\Users\stcka\OneDrive\Sam Docs\Psychology Program\AP Textbooks\Quantitative Methods","False","mono","False","18","no","white","no","yes","768","legacy","78","78","C:/Users/stcka/OneDrive/Sam Docs/Psychology Program/AP Textbooks/Quantitative Methods/SA-subject-4.csv","legacy","Melodramatic Milgram","4.0.5","0","s","NA","s","NA","NA","s","534.0","NA","15575","NA","NA","534","2","legacy","1024","2","48000","-16","experiment","HHSHH","4","even","18718","NA","NA","65270","NA","NA","153406","152379","3141","NA","NA","153507","154042","153405","153507","3137","Flanker Effect Test","78","46020.0","79","1024"
"98","98","583","583","#3d3846","legacy","legacy","legacy","incongruent","1","undefined","1","s","0","0","0","79","79","0","79","79","0","0","0","79","79","79","79","0","Sun Sep 24 14:24:56 2023","1500","The main experiment item","False","FlankerEffectTest.osexp","C:\Users\stcka\OneDrive\Sam Docs\Psychology Program\AP Textbooks\Quantitative Methods","False","mono","False","18","no","white","no","yes","768","legacy","79","79","C:/Users/stcka/OneDrive/Sam Docs/Psychology Program/AP Textbooks/Quantitative Methods/SA-subject-4.csv","legacy","Melodramatic Milgram","4.0.5","0","s","NA","s","NA","NA","s","665.0","NA","15575","NA","NA","665","2","legacy","1024","2","48000","-16","experiment","HHSHH","4","even","18718","NA","NA","65270","NA","NA","155080","154047","3141","NA","NA","155182","155848","155079","155182","3137","Flanker Effect Test","79","46685.0","80","1024"
"98","98","584","584","#3d3846","legacy","legacy","legacy","incongruent","1","undefined","1","h","0","0","0","80","80","0","80","80","0","0","0","80","80","80","80","0","Sun Sep 24 14:24:56 2023","600","The main experiment item","False","FlankerEffectTest.osexp","C:\Users\stcka\OneDrive\Sam Docs\Psychology Program\AP Textbooks\Quantitative Methods","False","mono","False","18","no","white","no","yes","768","legacy","0","79","C:/Users/stcka/OneDrive/Sam Docs/Psychology Program/AP Textbooks/Quantitative Methods/SA-subject-4.csv","legacy","Melodramatic Milgram","4.0.5","0","h","NA","s","s","NA","h","669.0","NA","15575","140720","NA","669","2","legacy","1024","2","48000","-16","experiment","SSHSS","4","even","18718","297576","NA","65270","NA","NA","297614","155853","3141","156854","NA","297715","298385","297613","297715","3137","Flanker Effect Test","80","47354.0","81","1024"
"98","98","583","583","#3d3846","legacy","legacy","legacy","congruent","1","undefined","1","s","0","0","0","81","81","0","81","81","0","0","0","81","81","81","81","0","Sun Sep 24 14:24:56 2023","600","The main experiment item","False","FlankerEffectTest.osexp","C:\Users\stcka\OneDrive\Sam Docs\Psychology Program\AP Textbooks\Quantitative Methods","False","mono","False","18","no","white","no","yes","768","legacy","1","79","C:/Users/stcka/OneDrive/Sam Docs/Psychology Program/AP Textbooks/Quantitative Methods/SA-subject-4.csv","legacy","Melodramatic Milgram","4.0.5","0","s","NA","s","s","NA","s","456.0","NA","15575","140720","NA","456","2","legacy","1024","2","48000","-16","experiment","SSSSS","4","even","18718","297576","NA","65270","298391","NA","299917","298891","3141","156854","NA","300018","300475","299916","300017","3137","Flanker Effect Test","81","47810.0","82","1024"
"98","98","583","583","#3d3846","legacy","legacy","legacy","incongruent","1","undefined","1","s","0","0","0","82","82","0","82","82","0","0","0","82","82","82","82","0","Sun Sep 24 14:24:56 2023","600","The main experiment item","False","FlankerEffectTest.osexp","C:\Users\stcka\OneDrive\Sam Docs\Psychology Program\AP Textbooks\Quantitative Methods","False","mono","False","18","no","white","no","yes","768","legacy","2","79","C:/Users/stcka/OneDrive/Sam Docs/Psychology Program/AP Textbooks/Quantitative Methods/SA-subject-4.csv","legacy","Melodramatic Milgram","4.0.5","0","s","NA","s","s","NA","s","646.0","NA","15575","140720","NA","646","2","legacy","1024","2","48000","-16","experiment","HHSHH","4","even","18718","297576","NA","65270","298391","NA","301509","300481","3141","156854","NA","301610","302258","301505","301610","3137","Flanker Effect Test","82","48456.0","83","1024"
"98","98","581","581","#3d3846","legacy","legacy","legacy","congruent","1","undefined","1","h","0","0","0","83","83","0","83","83","0","0","0","83","83","83","83","0","Sun Sep 24 14:24:56 2023","600","The main experiment item","False","FlankerEffectTest.osexp","C:\Users\stcka\OneDrive\Sam Docs\Psychology Program\AP Textbooks\Quantitative Methods","False","mono","False","18","no","white","no","yes","768","legacy","3","79","C:/Users/stcka/OneDrive/Sam Docs/Psychology Program/AP Textbooks/Quantitative Methods/SA-subject-4.csv","legacy","Melodramatic Milgram","4.0.5","0","h","NA","s","s","NA","h","380.0","NA","15575","140720","NA","380","2","legacy","1024","2","48000","-16","experiment","HHHHH","4","even","18718","297576","NA","65270","302264","NA","303789","302764","3141","156854","NA","303889","304271","303788","303889","3137","Flanker Effect Test","83","48836.0","84","1024"
"98","98","580","580","#3d3846","legacy","legacy","legacy","congruent","1","undefined","1","h","0","0","0","84","84","0","84","84","0","0","0","84","84","84","84","0","Sun Sep 24 14:24:56 2023","600","The main experiment item","False","FlankerEffectTest.osexp","C:\Users\stcka\OneDrive\Sam Docs\Psychology Program\AP Textbooks\Quantitative Methods","False","mono","False","18","no","white","no","yes","768","legacy","4","79","C:/Users/stcka/OneDrive/Sam Docs/Psychology Program/AP Textbooks/Quantitative Methods/SA-subject-4.csv","legacy","Melodramatic Milgram","4.0.5","0","h","NA","s","s","NA","h","487.0","NA","15575","140720","NA","487","2","legacy","1024","2","48000","-16","experiment","HHHHH","4","even","18718","297576","NA","65270","302264","NA","305302","304276","3141","156854","NA","305403","305892","305301","305403","3137","Flanker Effect Test","84","49323.0","85","1024"
"98","98","578","578","#3d3846","legacy","legacy","legacy","congruent","1","undefined","1","h","0","0","0","85","85","0","85","85","0","0","0","85","85","85","85","0","Sun Sep 24 14:24:56 2023","600","The main experiment item","False","FlankerEffectTest.osexp","C:\Users\stcka\OneDrive\Sam Docs\Psychology Program\AP Textbooks\Quantitative Methods","False","mono","False","18","no","white","no","yes","768","legacy","5","79","C:/Users/stcka/OneDrive/Sam Docs/Psychology Program/AP Textbooks/Quantitative Methods/SA-subject-4.csv","legacy","Melodramatic Milgram","4.0.5","0","h","NA","s","s","NA","h","455.0","NA","15575","140720","NA","455","2","legacy","1024","2","48000","-16","experiment","HHHHH","4","even","18718","297576","NA","65270","302264","NA","306925","305898","3141","156854","NA","307026","307483","306922","307025","3137","Flanker Effect Test","85","49778.0","86","1024"
"98","98","578","578","#3d3846","legacy","legacy","legacy","incongruent","1","undefined","1","h","0","0","0","86","86","0","86","86","0","0","0","86","86","86","86","0","Sun Sep 24 14:24:56 2023","600","The main experiment item","False","FlankerEffectTest.osexp","C:\Users\stcka\OneDrive\Sam Docs\Psychology Program\AP Textbooks\Quantitative Methods","False","mono","False","18","no","white","no","yes","768","legacy","6","79","C:/Users/stcka/OneDrive/Sam Docs/Psychology Program/AP Textbooks/Quantitative Methods/SA-subject-4.csv","legacy","Melodramatic Milgram","4.0.5","0","h","NA","s","s","NA","h","518.0","NA","15575","140720","NA","518","2","legacy","1024","2","48000","-16","experiment","SSHSS","4","even","18718","297576","NA","65270","302264","NA","308520","307488","3141","156854","NA","308621","309141","308518","308621","3137","Flanker Effect Test","86","50296.0","87","1024"
"98","98","577","577","#3d3846","legacy","legacy","legacy","incongruent","1","undefined","1","s","0","0","0","87","87","0","87","87","0","0","0","87","87","87","87","0","Sun Sep 24 14:24:56 2023","600","The main experiment item","False","FlankerEffectTest.osexp","C:\Users\stcka\OneDrive\Sam Docs\Psychology Program\AP Textbooks\Quantitative Methods","False","mono","False","18","no","white","no","yes","768","legacy","7","79","C:/Users/stcka/OneDrive/Sam Docs/Psychology Program/AP Textbooks/Quantitative Methods/SA-subject-4.csv","legacy","Melodramatic Milgram","4.0.5","0","s","NA","s","s","NA","s","530.0","NA","15575","140720","NA","530","2","legacy","1024","2","48000","-16","experiment","HHSHH","4","even","18718","297576","NA","65270","302264","NA","310173","309147","3141","156854","NA","310274","310806","310170","310273","3137","Flanker Effect Test","87","50826.0","88","1024"
"98","98","575","575","#3d3846","legacy","legacy","legacy","incongruent","1","undefined","1","s","0","0","0","88","88","0","88","88","0","0","0","88","88","88","88","0","Sun Sep 24 14:24:56 2023","600","The main experiment item","False","FlankerEffectTest.osexp","C:\Users\stcka\OneDrive\Sam Docs\Psychology Program\AP Textbooks\Quantitative Methods","False","mono","False","18","no","white","no","yes","768","legacy","8","79","C:/Users/stcka/OneDrive/Sam Docs/Psychology Program/AP Textbooks/Quantitative Methods/SA-subject-4.csv","legacy","Melodramatic Milgram","4.0.5","0","s","NA","s","s","NA","s","369.0","NA","15575","140720","NA","369","2","legacy","1024","2","48000","-16","experiment","HHSHH","4","even","18718","297576","NA","65270","302264","NA","311841","310812","3141","156854","NA","311941","312311","311840","311941","3137","Flanker Effect Test","88","51195.0","89","1024"
"98","98","574","574","#3d3846","legacy","legacy","legacy","incongruent","1","undefined","1","h","0","0","0","89","89","0","89","89","0","0","0","89","89","89","89","0","Sun Sep 24 14:24:56 2023","600","The main experiment item","False","FlankerEffectTest.osexp","C:\Users\stcka\OneDrive\Sam Docs\Psychology Program\AP Textbooks\Quantitative Methods","False","mono","False","18","no","white","no","yes","768","legacy","9","79","C:/Users/stcka/OneDrive/Sam Docs/Psychology Program/AP Textbooks/Quantitative Methods/SA-subject-4.csv","legacy","Melodramatic Milgram","4.0.5","0","h","NA","s","s","NA","h","519.0","NA","15575","140720","NA","519","2","legacy","1024","2","48000","-16","experiment","SSHSS","4","even","18718","297576","NA","65270","302264","NA","313344","312317","3141","156854","NA","313445","313965","313343","313445","3137","Flanker Effect Test","89","51714.0","90","1024"
"98","98","572","572","#3d3846","legacy","legacy","legacy","incongruent","1","undefined","1","s","0","0","0","90","90","0","90","90","0","0","0","90","90","90","90","0","Sun Sep 24 14:24:56 2023","600","The main experiment item","False","FlankerEffectTest.osexp","C:\Users\stcka\OneDrive\Sam Docs\Psychology Program\AP Textbooks\Quantitative Methods","False","mono","False","18","no","white","no","yes","768","legacy","10","79","C:/Users/stcka/OneDrive/Sam Docs/Psychology Program/AP Textbooks/Quantitative Methods/SA-subject-4.csv","legacy","Melodramatic Milgram","4.0.5","0","s","NA","s","s","NA","s","383.0","NA","15575","140720","NA","383","2","legacy","1024","2","48000","-16","experiment","HHSHH","4","even","18718","297576","NA","65270","302264","NA","314996","313969","3141","156854","NA","315096","315481","314994","315096","3137","Flanker Effect Test","90","52097.0","91","1024"
"98","98","570","570","#3d3846","legacy","legacy","legacy","congruent","1","undefined","1","s","0","0","0","91","91","0","91","91","0","0","0","91","91","91","91","0","Sun Sep 24 14:24:56 2023","600","The main experiment item","False","FlankerEffectTest.osexp","C:\Users\stcka\OneDrive\Sam Docs\Psychology Program\AP Textbooks\Quantitative Methods","False","mono","False","18","no","white","no","yes","768","legacy","11","79","C:/Users/stcka/OneDrive/Sam Docs/Psychology Program/AP Textbooks/Quantitative Methods/SA-subject-4.csv","legacy","Melodramatic Milgram","4.0.5","0","s","NA","s","s","NA","s","351.0","NA","15575","140720","NA","351","2","legacy","1024","2","48000","-16","experiment","SSSSS","4","even","18718","297576","NA","65270","302264","NA","316517","315487","3141","156854","NA","316618","316971","316515","316617","3137","Flanker Effect Test","91","52448.0","92","1024"
"98","98","568","568","#3d3846","legacy","legacy","legacy","congruent","1","undefined","1","h","0","0","0","92","92","0","92","92","0","0","0","92","92","92","92","0","Sun Sep 24 14:24:56 2023","600","The main experiment item","False","FlankerEffectTest.osexp","C:\Users\stcka\OneDrive\Sam Docs\Psychology Program\AP Textbooks\Quantitative Methods","False","mono","False","18","no","white","no","yes","768","legacy","12","79","C:/Users/stcka/OneDrive/Sam Docs/Psychology Program/AP Textbooks/Quantitative Methods/SA-subject-4.csv","legacy","Melodramatic Milgram","4.0.5","0","h","NA","s","s","NA","h","447.0","NA","15575","140720","NA","447","2","legacy","1024","2","48000","-16","experiment","HHHHH","4","even","18718","297576","NA","65270","302264","NA","318006","316977","3141","156854","NA","318107","318555","318004","318106","3137","Flanker Effect Test","92","52895.0","93","1024"
"98","98","569","569","#3d3846","legacy","legacy","legacy","congruent","1","undefined","1","s","0","0","0","93","93","0","93","93","0","0","0","93","93","93","93","0","Sun Sep 24 14:24:56 2023","600","The main experiment item","False","FlankerEffectTest.osexp","C:\Users\stcka\OneDrive\Sam Docs\Psychology Program\AP Textbooks\Quantitative Methods","False","mono","False","18","no","white","no","yes","768","legacy","13","79","C:/Users/stcka/OneDrive/Sam Docs/Psychology Program/AP Textbooks/Quantitative Methods/SA-subject-4.csv","legacy","Melodramatic Milgram","4.0.5","0","s","NA","s","s","NA","s","646.0","NA","15575","140720","NA","646","2","legacy","1024","2","48000","-16","experiment","SSSSS","4","even","18718","297576","NA","65270","302264","NA","319591","318559","3141","156854","NA","319692","320340","319590","319692","3137","Flanker Effect Test","93","53541.0","94","1024"
"98","98","569","569","#3d3846","legacy","legacy","legacy","incongruent","1","undefined","1","h","0","0","0","94","94","0","94","94","0","0","0","94","94","94","94","0","Sun Sep 24 14:24:56 2023","600","The main experiment item","False","FlankerEffectTest.osexp","C:\Users\stcka\OneDrive\Sam Docs\Psychology Program\AP Textbooks\Quantitative Methods","False","mono","False","18","no","white","no","yes","768","legacy","14","79","C:/Users/stcka/OneDrive/Sam Docs/Psychology Program/AP Textbooks/Quantitative Methods/SA-subject-4.csv","legacy","Melodramatic Milgram","4.0.5","0","h","NA","s","s","NA","h","539.0","NA","15575","140720","NA","539","2","legacy","1024","2","48000","-16","experiment","SSHSS","4","even","18718","297576","NA","65270","320345","NA","321873","320846","3141","156854","NA","321974","322516","321871","321974","3137","Flanker Effect Test","94","54080.0","95","1024"
"98","98","567","567","#3d3846","legacy","legacy","legacy","congruent","1","undefined","1","h","0","0","0","95","95","0","95","95","0","0","0","95","95","95","95","0","Sun Sep 24 14:24:56 2023","600","The main experiment item","False","FlankerEffectTest.osexp","C:\Users\stcka\OneDrive\Sam Docs\Psychology Program\AP Textbooks\Quantitative Methods","False","mono","False","18","no","white","no","yes","768","legacy","15","79","C:/Users/stcka/OneDrive/Sam Docs/Psychology Program/AP Textbooks/Quantitative Methods/SA-subject-4.csv","legacy","Melodramatic Milgram","4.0.5","0","h","NA","s","s","NA","h","388.0","NA","15575","140720","NA","388","2","legacy","1024","2","48000","-16","experiment","HHHHH","4","even","18718","297576","NA","65270","320345","NA","323558","322521","3141","156854","NA","323659","324049","323557","323659","3137","Flanker Effect Test","95","54468.0","96","1024"
"98","98","566","566","#3d3846","legacy","legacy","legacy","incongruent","1","undefined","1","s","0","0","0","96","96","0","96","96","0","0","0","96","96","96","96","0","Sun Sep 24 14:24:56 2023","600","The main experiment item","False","FlankerEffectTest.osexp","C:\Users\stcka\OneDrive\Sam Docs\Psychology Program\AP Textbooks\Quantitative Methods","False","mono","False","18","no","white","no","yes","768","legacy","16","79","C:/Users/stcka/OneDrive/Sam Docs/Psychology Program/AP Textbooks/Quantitative Methods/SA-subject-4.csv","legacy","Melodramatic Milgram","4.0.5","0","s","NA","s","s","NA","s","529.0","NA","15575","140720","NA","529","2","legacy","1024","2","48000","-16","experiment","HHSHH","4","even","18718","297576","NA","65270","320345","NA","325081","324055","3141","156854","NA","325182","325713","325080","325182","3137","Flanker Effect Test","96","54997.0","97","1024"
"97","97","567","567","#3d3846","legacy","legacy","legacy","congruent","0","undefined","0","h","0","0","0","97","97","0","97","97","0","0","0","97","97","97","97","0","Sun Sep 24 14:24:56 2023","600","The main experiment item","False","FlankerEffectTest.osexp","C:\Users\stcka\OneDrive\Sam Docs\Psychology Program\AP Textbooks\Quantitative Methods","False","mono","False","18","no","white","no","yes","768","legacy","17","79","C:/Users/stcka/OneDrive/Sam Docs/Psychology Program/AP Textbooks/Quantitative Methods/SA-subject-4.csv","legacy","Melodramatic Milgram","4.0.5","0","s","NA","s","s","NA","s","618.0","NA","15575","140720","NA","618","2","legacy","1024","2","48000","-16","experiment","HHHHH","4","even","18718","297576","NA","65270","320345","NA","326744","325718","3141","156854","NA","326845","327465","326742","326845","3137","Flanker Effect Test","96","55615.0","98","1024"
"97","97","568","568","#3d3846","legacy","legacy","legacy","incongruent","1","undefined","1","s","0","0","0","98","98","0","98","98","0","0","0","98","98","98","98","0","Sun Sep 24 14:24:56 2023","600","The main experiment item","False","FlankerEffectTest.osexp","C:\Users\stcka\OneDrive\Sam Docs\Psychology Program\AP Textbooks\Quantitative Methods","False","mono","False","18","no","white","no","yes","768","legacy","18","79","C:/Users/stcka/OneDrive/Sam Docs/Psychology Program/AP Textbooks/Quantitative Methods/SA-subject-4.csv","legacy","Melodramatic Milgram","4.0.5","0","s","NA","s","s","NA","s","641.0","NA","15575","140720","NA","641","2","legacy","1024","2","48000","-16","experiment","HHSHH","4","even","18718","297576","NA","327470","327970","NA","329499","328470","3141","156854","NA","329599","330242","329497","329599","3137","Flanker Effect Test","97","56256.0","99","1024"
"98","98","568","568","#3d3846","legacy","legacy","legacy","incongruent","1","undefined","1","s","0","0","0","99","99","0","99","99","0","0","0","99","99","99","99","0","Sun Sep 24 14:24:56 2023","600","The main experiment item","False","FlankerEffectTest.osexp","C:\Users\stcka\OneDrive\Sam Docs\Psychology Program\AP Textbooks\Quantitative Methods","False","mono","False","18","no","white","no","yes","768","legacy","19","79","C:/Users/stcka/OneDrive/Sam Docs/Psychology Program/AP Textbooks/Quantitative Methods/SA-subject-4.csv","legacy","Melodramatic Milgram","4.0.5","0","s","NA","s","s","NA","s","545.0","NA","15575","140720","NA","545","2","legacy","1024","2","48000","-16","experiment","HHSHH","4","even","18718","297576","NA","327470","330248","NA","331775","330748","3141","156854","NA","331876","332423","331773","331876","3137","Flanker Effect Test","98","56801.0","100","1024"
"98","98","567","567","#3d3846","legacy","legacy","legacy","incongruent","1","undefined","1","s","0","0","0","100","100","0","100","100","0","0","0","100","100","100","100","0","Sun Sep 24 14:24:56 2023","600","The main experiment item","False","FlankerEffectTest.osexp","C:\Users\stcka\OneDrive\Sam Docs\Psychology Program\AP Textbooks\Quantitative Methods","False","mono","False","18","no","white","no","yes","768","legacy","20","79","C:/Users/stcka/OneDrive/Sam Docs/Psychology Program/AP Textbooks/Quantitative Methods/SA-subject-4.csv","legacy","Melodramatic Milgram","4.0.5","0","s","NA","s","s","NA","s","480.0","NA","15575","140720","NA","480","2","legacy","1024","2","48000","-16","experiment","HHSHH","4","even","18718","297576","NA","327470","330248","NA","333453","332428","3141","156854","NA","333555","334037","333452","333555","3137","Flanker Effect Test","99","57281.0","101","1024"
"98","98","566","566","#3d3846","legacy","legacy","legacy","incongruent","1","undefined","1","h","0","0","0","101","101","0","101","101","0","0","0","101","101","101","101","0","Sun Sep 24 14:24:56 2023","600","The main experiment item","False","FlankerEffectTest.osexp","C:\Users\stcka\OneDrive\Sam Docs\Psychology Program\AP Textbooks\Quantitative Methods","False","mono","False","18","no","white","no","yes","768","legacy","21","79","C:/Users/stcka/OneDrive/Sam Docs/Psychology Program/AP Textbooks/Quantitative Methods/SA-subject-4.csv","legacy","Melodramatic Milgram","4.0.5","0","h","NA","s","s","NA","h","451.0","NA","15575","140720","NA","451","2","legacy","1024","2","48000","-16","experiment","SSHSS","4","even","18718","297576","NA","327470","330248","NA","335085","334042","3141","156854","NA","335187","335640","335083","335187","3137","Flanker Effect Test","100","57732.0","102","1024"
"98","98","564","564","#3d3846","legacy","legacy","legacy","congruent","1","undefined","1","h","0","0","0","102","102","0","102","102","0","0","0","102","102","102","102","0","Sun Sep 24 14:24:56 2023","600","The main experiment item","False","FlankerEffectTest.osexp","C:\Users\stcka\OneDrive\Sam Docs\Psychology Program\AP Textbooks\Quantitative Methods","False","mono","False","18","no","white","no","yes","768","legacy","22","79","C:/Users/stcka/OneDrive/Sam Docs/Psychology Program/AP Textbooks/Quantitative Methods/SA-subject-4.csv","legacy","Melodramatic Milgram","4.0.5","0","h","NA","s","s","NA","h","437.0","NA","15575","140720","NA","437","2","legacy","1024","2","48000","-16","experiment","HHHHH","4","even","18718","297576","NA","327470","330248","NA","336671","335646","3141","156854","NA","336772","337210","336670","336772","3137","Flanker Effect Test","101","58169.0","103","1024"
"98","98","563","563","#3d3846","legacy","legacy","legacy","congruent","1","undefined","1","h","0","0","0","103","103","0","103","103","0","0","0","103","103","103","103","0","Sun Sep 24 14:24:56 2023","600","The main experiment item","False","FlankerEffectTest.osexp","C:\Users\stcka\OneDrive\Sam Docs\Psychology Program\AP Textbooks\Quantitative Methods","False","mono","False","18","no","white","no","yes","768","legacy","23","79","C:/Users/stcka/OneDrive/Sam Docs/Psychology Program/AP Textbooks/Quantitative Methods/SA-subject-4.csv","legacy","Melodramatic Milgram","4.0.5","0","h","NA","s","s","NA","h","479.0","NA","15575","140720","NA","479","2","legacy","1024","2","48000","-16","experiment","HHHHH","4","even","18718","297576","NA","327470","330248","NA","338241","337216","3141","156854","NA","338342","338823","338240","338341","3137","Flanker Effect Test","102","58648.0","104","1024"
"98","98","563","563","#3d3846","legacy","legacy","legacy","congruent","1","undefined","1","h","0","0","0","104","104","0","104","104","0","0","0","104","104","104","104","0","Sun Sep 24 14:24:56 2023","600","The main experiment item","False","FlankerEffectTest.osexp","C:\Users\stcka\OneDrive\Sam Docs\Psychology Program\AP Textbooks\Quantitative Methods","False","mono","False","18","no","white","no","yes","768","legacy","24","79","C:/Users/stcka/OneDrive/Sam Docs/Psychology Program/AP Textbooks/Quantitative Methods/SA-subject-4.csv","legacy","Melodramatic Milgram","4.0.5","0","h","NA","s","s","NA","h","484.0","NA","15575","140720","NA","484","2","legacy","1024","2","48000","-16","experiment","HHHHH","4","even","18718","297576","NA","327470","330248","NA","339870","338829","3141","156854","NA","339971","340457","339867","339971","3137","Flanker Effect Test","103","59132.0","105","1024"
"98","98","562","562","#3d3846","legacy","legacy","legacy","incongruent","1","undefined","1","s","0","0","0","105","105","0","105","105","0","0","0","105","105","105","105","0","Sun Sep 24 14:24:56 2023","600","The main experiment item","False","FlankerEffectTest.osexp","C:\Users\stcka\OneDrive\Sam Docs\Psychology Program\AP Textbooks\Quantitative Methods","False","mono","False","18","no","white","no","yes","768","legacy","25","79","C:/Users/stcka/OneDrive/Sam Docs/Psychology Program/AP Textbooks/Quantitative Methods/SA-subject-4.csv","legacy","Melodramatic Milgram","4.0.5","0","s","NA","s","s","NA","s","483.0","NA","15575","140720","NA","483","2","legacy","1024","2","48000","-16","experiment","HHSHH","4","even","18718","297576","NA","327470","330248","NA","341489","340463","3141","156854","NA","341590","342075","341487","341590","3137","Flanker Effect Test","104","59615.0","106","1024"
"98","98","561","561","#3d3846","legacy","legacy","legacy","congruent","1","undefined","1","h","0","0","0","106","106","0","106","106","0","0","0","106","106","106","106","0","Sun Sep 24 14:24:56 2023","600","The main experiment item","False","FlankerEffectTest.osexp","C:\Users\stcka\OneDrive\Sam Docs\Psychology Program\AP Textbooks\Quantitative Methods","False","mono","False","18","no","white","no","yes","768","legacy","26","79","C:/Users/stcka/OneDrive/Sam Docs/Psychology Program/AP Textbooks/Quantitative Methods/SA-subject-4.csv","legacy","Melodramatic Milgram","4.0.5","0","h","NA","s","s","NA","h","478.0","NA","15575","140720","NA","478","2","legacy","1024","2","48000","-16","experiment","HHHHH","4","even","18718","297576","NA","327470","330248","NA","343108","342081","3141","156854","NA","343208","343688","343107","343208","3137","Flanker Effect Test","105","60093.0","107","1024"
"98","98","562","562","#3d3846","legacy","legacy","legacy","incongruent","1","undefined","1","s","0","0","0","107","107","0","107","107","0","0","0","107","107","107","107","0","Sun Sep 24 14:24:56 2023","600","The main experiment item","False","FlankerEffectTest.osexp","C:\Users\stcka\OneDrive\Sam Docs\Psychology Program\AP Textbooks\Quantitative Methods","False","mono","False","18","no","white","no","yes","768","legacy","27","79","C:/Users/stcka/OneDrive/Sam Docs/Psychology Program/AP Textbooks/Quantitative Methods/SA-subject-4.csv","legacy","Melodramatic Milgram","4.0.5","0","s","NA","s","s","NA","s","615.0","NA","15575","140720","NA","615","2","legacy","1024","2","48000","-16","experiment","HHSHH","4","even","18718","297576","NA","327470","330248","NA","344728","343694","3141","156854","NA","344829","345445","344727","344829","3137","Flanker Effect Test","106","60708.0","108","1024"
"98","98","560","560","#3d3846","legacy","legacy","legacy","incongruent","1","undefined","1","s","0","0","0","108","108","0","108","108","0","0","0","108","108","108","108","0","Sun Sep 24 14:24:56 2023","600","The main experiment item","False","FlankerEffectTest.osexp","C:\Users\stcka\OneDrive\Sam Docs\Psychology Program\AP Textbooks\Quantitative Methods","False","mono","False","18","no","white","no","yes","768","legacy","28","79","C:/Users/stcka/OneDrive/Sam Docs/Psychology Program/AP Textbooks/Quantitative Methods/SA-subject-4.csv","legacy","Melodramatic Milgram","4.0.5","0","s","NA","s","s","NA","s","337.0","NA","15575","140720","NA","337","2","legacy","1024","2","48000","-16","experiment","HHSHH","4","even","18718","297576","NA","327470","345451","NA","346982","345952","3141","156854","NA","347083","347423","346980","347083","3137","Flanker Effect Test","107","61045.0","109","1024"
"98","98","559","559","#3d3846","legacy","legacy","legacy","congruent","1","undefined","1","h","0","0","0","109","109","0","109","109","0","0","0","109","109","109","109","0","Sun Sep 24 14:24:56 2023","600","The main experiment item","False","FlankerEffectTest.osexp","C:\Users\stcka\OneDrive\Sam Docs\Psychology Program\AP Textbooks\Quantitative Methods","False","mono","False","18","no","white","no","yes","768","legacy","29","79","C:/Users/stcka/OneDrive/Sam Docs/Psychology Program/AP Textbooks/Quantitative Methods/SA-subject-4.csv","legacy","Melodramatic Milgram","4.0.5","0","h","NA","s","s","NA","h","524.0","NA","15575","140720","NA","524","2","legacy","1024","2","48000","-16","experiment","HHHHH","4","even","18718","297576","NA","327470","345451","NA","348457","347429","3141","156854","NA","348558","349083","348455","348557","3137","Flanker Effect Test","108","61569.0","110","1024"
"98","98","558","558","#3d3846","legacy","legacy","legacy","congruent","1","undefined","1","h","0","0","0","110","110","0","110","110","0","0","0","110","110","110","110","0","Sun Sep 24 14:24:56 2023","600","The main experiment item","False","FlankerEffectTest.osexp","C:\Users\stcka\OneDrive\Sam Docs\Psychology Program\AP Textbooks\Quantitative Methods","False","mono","False","18","no","white","no","yes","768","legacy","30","79","C:/Users/stcka/OneDrive/Sam Docs/Psychology Program/AP Textbooks/Quantitative Methods/SA-subject-4.csv","legacy","Melodramatic Milgram","4.0.5","0","h","NA","s","s","NA","h","432.0","NA","15575","140720","NA","432","2","legacy","1024","2","48000","-16","experiment","HHHHH","4","even","18718","297576","NA","327470","345451","NA","350117","349089","3141","156854","NA","350218","350652","350115","350218","3137","Flanker Effect Test","109","62001.0","111","1024"
"98","98","558","558","#3d3846","legacy","legacy","legacy","incongruent","1","undefined","1","s","0","0","0","111","111","0","111","111","0","0","0","111","111","111","111","0","Sun Sep 24 14:24:56 2023","600","The main experiment item","False","FlankerEffectTest.osexp","C:\Users\stcka\OneDrive\Sam Docs\Psychology Program\AP Textbooks\Quantitative Methods","False","mono","False","18","no","white","no","yes","768","legacy","31","79","C:/Users/stcka/OneDrive/Sam Docs/Psychology Program/AP Textbooks/Quantitative Methods/SA-subject-4.csv","legacy","Melodramatic Milgram","4.0.5","0","s","NA","s","s","NA","s","499.0","NA","15575","140720","NA","499","2","legacy","1024","2","48000","-16","experiment","HHSHH","4","even","18718","297576","NA","327470","345451","NA","351685","350660","3141","156854","NA","351785","352286","351684","351785","3137","Flanker Effect Test","110","62500.0","112","1024"
