acc,accuracy,average_response_time,avg_rt,background,canvas_backend,clock_backend,color_backend,compensation,condition,coordinates,correct,correct_Instructions1,correct_keyboard_response,correct_response,count_Block1,count_Block2,count_Block3,count_Finish,count_ISI,count_Instructions1,count_Instructions2,count_Instructions3,count_errorFeedback,count_experiment,count_faster,count_fixation,count_keyboard_response,count_logger,count_sequence,count_stimulus,datetime,deadline,description,disable_garbage_collection,experiment_file,experiment_path,font_bold,font_family,font_italic,font_size,font_underline,foreground,form_clicks,fullscreen,height,keyboard_backend,live_row,live_row_Block1,logfile,mouse_backend,opensesame_codename,opensesame_version,repeat_cycle,response,response_Finish,response_Instructions1,response_Instructions2,response_Instructions3,response_keyboard_response,response_time,response_time_Finish,response_time_Instructions1,response_time_Instructions2,response_time_Instructions3,response_time_keyboard_response,round_decimals,sampler_backend,sound_buf_size,sound_channels,sound_freq,sound_sample_size,start,stimulus,subject_nr,subject_parity,time_Block1,time_Block2,time_Block3,time_Finish,time_ISI,time_Instructions1,time_Instructions2,time_Instructions3,time_errorFeedback,time_experiment,time_faster,time_fixation,time_keyboard_response,time_logger,time_sequence,time_stimulus,title,total_correct,total_response_time,total_responses,uniform_coordinates,width
100,100,678,678,black,legacy,legacy,legacy,0,incongruent,uniform,1,undefined,1,h,0,0,0,0,0,0,0,0,0,0,0,0,0,0,0,0,Wed Sep 25 23:00:05 2019,1500,The main experiment item,yes,fp-subject-1.osexp,/Users/freyaportales/Desktop/OpenSesame Assignments,no,mono,no,18,no,white,no,no,768,legacy,0,0,/Users/freyaportales/Desktop/OpenSesame Assignments/quickrun.csv,legacy,Kafkaesque Koffka,3.2.8,0,h,NA,h,NA,NA,h,678,NA,109515,NA,NA,678,2,legacy,1024,2,48000,-16,experiment,SSHSS,999,odd,112181,NA,NA,NA,NA,2655,NA,NA,NA,2572,NA,112327,112460,113141,112280,112460,Flanker task,1,678,1,yes,1024
100,100,589.5,589.5,black,legacy,legacy,legacy,0,incongruent,uniform,1,undefined,1,h,0,0,0,0,1,0,0,0,1,0,1,1,1,1,1,1,Wed Sep 25 23:00:05 2019,1500,The main experiment item,yes,fp-subject-1.osexp,/Users/freyaportales/Desktop/OpenSesame Assignments,no,mono,no,18,no,white,no,no,768,legacy,1,1,/Users/freyaportales/Desktop/OpenSesame Assignments/quickrun.csv,legacy,Kafkaesque Koffka,3.2.8,0,h,NA,h,NA,NA,h,501,NA,109515,NA,NA,501,2,legacy,1024,2,48000,-16,experiment,SSHSS,999,odd,112181,NA,NA,NA,113185,2655,NA,NA,NA,2572,NA,114316,114449,114951,114282,114449,Flanker task,2,1179,2,yes,1024
100,100,587.3333333,587.3333333,black,legacy,legacy,legacy,0,congruent,uniform,1,undefined,1,s,0,0,0,0,2,0,0,0,2,0,2,2,2,2,2,2,Wed Sep 25 23:00:05 2019,1500,The main experiment item,yes,fp-subject-1.osexp,/Users/freyaportales/Desktop/OpenSesame Assignments,no,mono,no,18,no,white,no,no,768,legacy,2,2,/Users/freyaportales/Desktop/OpenSesame Assignments/quickrun.csv,legacy,Kafkaesque Koffka,3.2.8,0,s,NA,h,NA,NA,s,583,NA,109515,NA,NA,583,2,legacy,1024,2,48000,-16,experiment,SSSSS,999,odd,112181,NA,NA,NA,114986,2655,NA,NA,NA,2572,NA,116101,116233,116817,116068,116233,Flanker task,3,1762,3,yes,1024
100,100,554.75,554.75,black,legacy,legacy,legacy,0,congruent,uniform,1,undefined,1,s,0,0,0,0,3,0,0,0,3,0,3,3,3,3,3,3,Wed Sep 25 23:00:05 2019,1500,The main experiment item,yes,fp-subject-1.osexp,/Users/freyaportales/Desktop/OpenSesame Assignments,no,mono,no,18,no,white,no,no,768,legacy,3,3,/Users/freyaportales/Desktop/OpenSesame Assignments/quickrun.csv,legacy,Kafkaesque Koffka,3.2.8,0,s,NA,h,NA,NA,s,457,NA,109515,NA,NA,457,2,legacy,1024,2,48000,-16,experiment,SSSSS,999,odd,112181,NA,NA,NA,116853,2655,NA,NA,NA,2572,NA,117973,118106,118564,117940,118106,Flanker task,4,2219,4,yes,1024
100,100,541.6,541.6,black,legacy,legacy,legacy,0,incongruent,uniform,1,undefined,1,h,0,0,0,0,4,0,0,0,4,0,4,4,4,4,4,4,Wed Sep 25 23:00:05 2019,1500,The main experiment item,yes,fp-subject-1.osexp,/Users/freyaportales/Desktop/OpenSesame Assignments,no,mono,no,18,no,white,no,no,768,legacy,4,4,/Users/freyaportales/Desktop/OpenSesame Assignments/quickrun.csv,legacy,Kafkaesque Koffka,3.2.8,0,h,NA,h,NA,NA,h,489,NA,109515,NA,NA,489,2,legacy,1024,2,48000,-16,experiment,SSHSS,999,odd,112181,NA,NA,NA,118600,2655,NA,NA,NA,2572,NA,119714,119846,120336,119681,119846,Flanker task,5,2708,5,yes,1024
100,100,549.3333333,549.3333333,black,legacy,legacy,legacy,0,incongruent,uniform,1,undefined,1,h,0,0,0,0,5,0,0,0,5,0,5,5,5,5,5,5,Wed Sep 25 23:00:05 2019,1500,The main experiment item,yes,fp-subject-1.osexp,/Users/freyaportales/Desktop/OpenSesame Assignments,no,mono,no,18,no,white,no,no,768,legacy,5,5,/Users/freyaportales/Desktop/OpenSesame Assignments/quickrun.csv,legacy,Kafkaesque Koffka,3.2.8,0,h,NA,h,NA,NA,h,588,NA,109515,NA,NA,588,2,legacy,1024,2,48000,-16,experiment,SSHSS,999,odd,112181,NA,NA,NA,120374,2655,NA,NA,NA,2572,NA,121491,121624,122213,121458,121624,Flanker task,6,3296,6,yes,1024
100,100,554.5714286,554.5714286,black,legacy,legacy,legacy,0,incongruent,uniform,1,undefined,1,s,0,0,0,0,6,0,0,0,6,0,6,6,6,6,6,6,Wed Sep 25 23:00:05 2019,1500,The main experiment item,yes,fp-subject-1.osexp,/Users/freyaportales/Desktop/OpenSesame Assignments,no,mono,no,18,no,white,no,no,768,legacy,6,6,/Users/freyaportales/Desktop/OpenSesame Assignments/quickrun.csv,legacy,Kafkaesque Koffka,3.2.8,0,s,NA,h,NA,NA,s,586,NA,109515,NA,NA,586,2,legacy,1024,2,48000,-16,experiment,HHSHH,999,odd,112181,NA,NA,NA,122247,2655,NA,NA,NA,2572,NA,123362,123496,124083,123330,123496,Flanker task,7,3882,7,yes,1024
100,100,554.75,554.75,black,legacy,legacy,legacy,0,incongruent,uniform,1,undefined,1,h,0,0,0,0,7,0,0,0,7,0,7,7,7,7,7,7,Wed Sep 25 23:00:05 2019,1500,The main experiment item,yes,fp-subject-1.osexp,/Users/freyaportales/Desktop/OpenSesame Assignments,no,mono,no,18,no,white,no,no,768,legacy,7,7,/Users/freyaportales/Desktop/OpenSesame Assignments/quickrun.csv,legacy,Kafkaesque Koffka,3.2.8,0,h,NA,h,NA,NA,h,556,NA,109515,NA,NA,556,2,legacy,1024,2,48000,-16,experiment,SSHSS,999,odd,112181,NA,NA,NA,124118,2655,NA,NA,NA,2572,NA,125232,125364,125921,125200,125364,Flanker task,8,4438,8,yes,1024
100,100,555.1111111,555.1111111,black,legacy,legacy,legacy,0,incongruent,uniform,1,undefined,1,s,0,0,0,0,8,0,0,0,8,0,8,8,8,8,8,8,Wed Sep 25 23:00:05 2019,1500,The main experiment item,yes,fp-subject-1.osexp,/Users/freyaportales/Desktop/OpenSesame Assignments,no,mono,no,18,no,white,no,no,768,legacy,8,8,/Users/freyaportales/Desktop/OpenSesame Assignments/quickrun.csv,legacy,Kafkaesque Koffka,3.2.8,0,s,NA,h,NA,NA,s,558,NA,109515,NA,NA,558,2,legacy,1024,2,48000,-16,experiment,HHSHH,999,odd,112181,NA,NA,NA,125960,2655,NA,NA,NA,2572,NA,127088,127220,127779,127055,127220,Flanker task,9,4996,9,yes,1024
100,100,564.4,564.4,black,legacy,legacy,legacy,0,congruent,uniform,1,undefined,1,s,0,0,0,0,9,0,0,0,9,0,9,9,9,9,9,9,Wed Sep 25 23:00:05 2019,1500,The main experiment item,yes,fp-subject-1.osexp,/Users/freyaportales/Desktop/OpenSesame Assignments,no,mono,no,18,no,white,no,no,768,legacy,9,9,/Users/freyaportales/Desktop/OpenSesame Assignments/quickrun.csv,legacy,Kafkaesque Koffka,3.2.8,0,s,NA,h,NA,NA,s,648,NA,109515,NA,NA,648,2,legacy,1024,2,48000,-16,experiment,SSSSS,999,odd,112181,NA,NA,NA,127814,2655,NA,NA,NA,2572,NA,128929,129062,129712,128896,129062,Flanker task,10,5644,10,yes,1024
100,100,564.2727273,564.2727273,black,legacy,legacy,legacy,0,congruent,uniform,1,undefined,1,h,0,0,0,0,10,0,0,0,10,0,10,10,10,10,10,10,Wed Sep 25 23:00:05 2019,1500,The main experiment item,yes,fp-subject-1.osexp,/Users/freyaportales/Desktop/OpenSesame Assignments,no,mono,no,18,no,white,no,no,768,legacy,10,10,/Users/freyaportales/Desktop/OpenSesame Assignments/quickrun.csv,legacy,Kafkaesque Koffka,3.2.8,0,h,NA,h,NA,NA,h,563,NA,109515,NA,NA,563,2,legacy,1024,2,48000,-16,experiment,HHHHH,999,odd,112181,NA,NA,NA,129748,2655,NA,NA,NA,2572,NA,130861,130994,131559,130829,130994,Flanker task,11,6207,11,yes,1024
100,100,575.25,575.25,black,legacy,legacy,legacy,0,congruent,uniform,1,undefined,1,h,0,0,0,0,11,0,0,0,11,0,11,11,11,11,11,11,Wed Sep 25 23:00:05 2019,1500,The main experiment item,yes,fp-subject-1.osexp,/Users/freyaportales/Desktop/OpenSesame Assignments,no,mono,no,18,no,white,no,no,768,legacy,11,11,/Users/freyaportales/Desktop/OpenSesame Assignments/quickrun.csv,legacy,Kafkaesque Koffka,3.2.8,0,h,NA,h,NA,NA,h,696,NA,109515,NA,NA,696,2,legacy,1024,2,48000,-16,experiment,HHHHH,999,odd,112181,NA,NA,NA,131599,2655,NA,NA,NA,2572,NA,132717,132850,133547,132684,132849,Flanker task,12,6903,12,yes,1024
100,100,576,576,black,legacy,legacy,legacy,0,incongruent,uniform,1,undefined,1,s,0,0,0,0,12,0,0,0,12,0,12,12,12,12,12,12,Wed Sep 25 23:00:05 2019,1500,The main experiment item,yes,fp-subject-1.osexp,/Users/freyaportales/Desktop/OpenSesame Assignments,no,mono,no,18,no,white,no,no,768,legacy,12,12,/Users/freyaportales/Desktop/OpenSesame Assignments/quickrun.csv,legacy,Kafkaesque Koffka,3.2.8,0,s,NA,h,NA,NA,s,585,NA,109515,NA,NA,585,2,legacy,1024,2,48000,-16,experiment,HHSHH,999,odd,112181,NA,NA,NA,133583,2655,NA,NA,NA,2572,NA,134704,134837,135424,134672,134837,Flanker task,13,7488,13,yes,1024
100,100,576.5,576.5,black,legacy,legacy,legacy,0,incongruent,uniform,1,undefined,1,s,0,0,0,0,13,0,0,0,13,0,13,13,13,13,13,13,Wed Sep 25 23:00:05 2019,1500,The main experiment item,yes,fp-subject-1.osexp,/Users/freyaportales/Desktop/OpenSesame Assignments,no,mono,no,18,no,white,no,no,768,legacy,13,13,/Users/freyaportales/Desktop/OpenSesame Assignments/quickrun.csv,legacy,Kafkaesque Koffka,3.2.8,0,s,NA,h,NA,NA,s,583,NA,109515,NA,NA,583,2,legacy,1024,2,48000,-16,experiment,HHSHH,999,odd,112181,NA,NA,NA,135458,2655,NA,NA,NA,2572,NA,136572,136708,137293,136540,136708,Flanker task,14,8071,14,yes,1024
100,100,581.6,581.6,black,legacy,legacy,legacy,0,incongruent,uniform,1,undefined,1,h,0,0,0,0,14,0,0,0,14,0,14,14,14,14,14,14,Wed Sep 25 23:00:05 2019,1500,The main experiment item,yes,fp-subject-1.osexp,/Users/freyaportales/Desktop/OpenSesame Assignments,no,mono,no,18,no,white,no,no,768,legacy,14,14,/Users/freyaportales/Desktop/OpenSesame Assignments/quickrun.csv,legacy,Kafkaesque Koffka,3.2.8,0,h,NA,h,NA,NA,h,653,NA,109515,NA,NA,653,2,legacy,1024,2,48000,-16,experiment,SSHSS,999,odd,112181,NA,NA,NA,137330,2655,NA,NA,NA,2572,NA,138445,138577,139232,138412,138577,Flanker task,15,8724,15,yes,1024
100,100,583.25,583.25,black,legacy,legacy,legacy,0,incongruent,uniform,1,undefined,1,s,0,0,0,0,15,0,0,0,15,0,15,15,15,15,15,15,Wed Sep 25 23:00:05 2019,1500,The main experiment item,yes,fp-subject-1.osexp,/Users/freyaportales/Desktop/OpenSesame Assignments,no,mono,no,18,no,white,no,no,768,legacy,15,15,/Users/freyaportales/Desktop/OpenSesame Assignments/quickrun.csv,legacy,Kafkaesque Koffka,3.2.8,0,s,NA,h,NA,NA,s,608,NA,109515,NA,NA,608,2,legacy,1024,2,48000,-16,experiment,HHSHH,999,odd,112181,NA,NA,NA,139267,2655,NA,NA,NA,2572,NA,140390,140522,141132,140356,140522,Flanker task,16,9332,16,yes,1024
100,100,588.1176471,588.1176471,black,legacy,legacy,legacy,0,incongruent,uniform,1,undefined,1,h,0,0,0,0,16,0,0,0,16,0,16,16,16,16,16,16,Wed Sep 25 23:00:05 2019,1500,The main experiment item,yes,fp-subject-1.osexp,/Users/freyaportales/Desktop/OpenSesame Assignments,no,mono,no,18,no,white,no,no,768,legacy,16,16,/Users/freyaportales/Desktop/OpenSesame Assignments/quickrun.csv,legacy,Kafkaesque Koffka,3.2.8,0,h,NA,h,NA,NA,h,666,NA,109515,NA,NA,666,2,legacy,1024,2,48000,-16,experiment,SSHSS,999,odd,112181,NA,NA,NA,141167,2655,NA,NA,NA,2572,NA,142280,142413,143081,142248,142413,Flanker task,17,9998,17,yes,1024
100,100,607.6111111,607.6111111,black,legacy,legacy,legacy,0,congruent,uniform,1,undefined,1,s,0,0,0,0,17,0,0,0,17,0,17,17,17,17,17,17,Wed Sep 25 23:00:05 2019,1500,The main experiment item,yes,fp-subject-1.osexp,/Users/freyaportales/Desktop/OpenSesame Assignments,no,mono,no,18,no,white,no,no,768,legacy,17,17,/Users/freyaportales/Desktop/OpenSesame Assignments/quickrun.csv,legacy,Kafkaesque Koffka,3.2.8,0,s,NA,h,NA,NA,s,939,NA,109515,NA,NA,939,2,legacy,1024,2,48000,-16,experiment,SSSSS,999,odd,112181,NA,NA,NA,143115,2655,NA,NA,NA,2572,NA,144228,144360,145301,144196,144360,Flanker task,18,10937,18,yes,1024
100,100,610.3157895,610.3157895,black,legacy,legacy,legacy,0,incongruent,uniform,1,undefined,1,s,0,0,0,0,18,0,0,0,18,0,18,18,18,18,18,18,Wed Sep 25 23:00:05 2019,1500,The main experiment item,yes,fp-subject-1.osexp,/Users/freyaportales/Desktop/OpenSesame Assignments,no,mono,no,18,no,white,no,no,768,legacy,18,18,/Users/freyaportales/Desktop/OpenSesame Assignments/quickrun.csv,legacy,Kafkaesque Koffka,3.2.8,0,s,NA,h,NA,NA,s,659,NA,109515,NA,NA,659,2,legacy,1024,2,48000,-16,experiment,HHSHH,999,odd,112181,NA,NA,NA,145349,2655,NA,NA,NA,2572,NA,146470,146603,147264,146438,146603,Flanker task,19,11596,19,yes,1024
100,100,609.25,609.25,black,legacy,legacy,legacy,0,congruent,uniform,1,undefined,1,s,0,0,0,0,19,0,0,0,19,0,19,19,19,19,19,19,Wed Sep 25 23:00:05 2019,1500,The main experiment item,yes,fp-subject-1.osexp,/Users/freyaportales/Desktop/OpenSesame Assignments,no,mono,no,18,no,white,no,no,768,legacy,19,19,/Users/freyaportales/Desktop/OpenSesame Assignments/quickrun.csv,legacy,Kafkaesque Koffka,3.2.8,0,s,NA,h,NA,NA,s,589,NA,109515,NA,NA,589,2,legacy,1024,2,48000,-16,experiment,SSSSS,999,odd,112181,NA,NA,NA,147299,2655,NA,NA,NA,2572,NA,148415,148548,149139,148381,148547,Flanker task,20,12185,20,yes,1024
100,100,603.6190476,603.6190476,black,legacy,legacy,legacy,0,congruent,uniform,1,undefined,1,h,0,0,0,0,20,0,0,0,20,0,20,20,20,20,20,20,Wed Sep 25 23:00:05 2019,1500,The main experiment item,yes,fp-subject-1.osexp,/Users/freyaportales/Desktop/OpenSesame Assignments,no,mono,no,18,no,white,no,no,768,legacy,20,20,/Users/freyaportales/Desktop/OpenSesame Assignments/quickrun.csv,legacy,Kafkaesque Koffka,3.2.8,0,h,NA,h,NA,NA,h,491,NA,109515,NA,NA,491,2,legacy,1024,2,48000,-16,experiment,HHHHH,999,odd,112181,NA,NA,NA,149174,2655,NA,NA,NA,2572,NA,150287,150419,150912,150255,150419,Flanker task,21,12676,21,yes,1024
100,100,603,603,black,legacy,legacy,legacy,0,incongruent,uniform,1,undefined,1,h,0,0,0,0,21,0,0,0,21,0,21,21,21,21,21,21,Wed Sep 25 23:00:05 2019,1500,The main experiment item,yes,fp-subject-1.osexp,/Users/freyaportales/Desktop/OpenSesame Assignments,no,mono,no,18,no,white,no,no,768,legacy,21,21,/Users/freyaportales/Desktop/OpenSesame Assignments/quickrun.csv,legacy,Kafkaesque Koffka,3.2.8,0,h,NA,h,NA,NA,h,590,NA,109515,NA,NA,590,2,legacy,1024,2,48000,-16,experiment,SSHSS,999,odd,112181,NA,NA,NA,150953,2655,NA,NA,NA,2572,NA,152072,152205,152797,152040,152205,Flanker task,22,13266,22,yes,1024
100,100,601.4347826,601.4347826,black,legacy,legacy,legacy,0,incongruent,uniform,1,undefined,1,s,0,0,0,0,22,0,0,0,22,0,22,22,22,22,22,22,Wed Sep 25 23:00:05 2019,1500,The main experiment item,yes,fp-subject-1.osexp,/Users/freyaportales/Desktop/OpenSesame Assignments,no,mono,no,18,no,white,no,no,768,legacy,22,22,/Users/freyaportales/Desktop/OpenSesame Assignments/quickrun.csv,legacy,Kafkaesque Koffka,3.2.8,0,s,NA,h,NA,NA,s,567,NA,109515,NA,NA,567,2,legacy,1024,2,48000,-16,experiment,HHSHH,999,odd,112181,NA,NA,NA,152832,2655,NA,NA,NA,2572,NA,153945,154078,154647,153913,154078,Flanker task,23,13833,23,yes,1024
100,100,603.2916667,603.2916667,black,legacy,legacy,legacy,0,congruent,uniform,1,undefined,1,h,0,0,0,0,23,0,0,0,23,0,23,23,23,23,23,23,Wed Sep 25 23:00:05 2019,1500,The main experiment item,yes,fp-subject-1.osexp,/Users/freyaportales/Desktop/OpenSesame Assignments,no,mono,no,18,no,white,no,no,768,legacy,23,23,/Users/freyaportales/Desktop/OpenSesame Assignments/quickrun.csv,legacy,Kafkaesque Koffka,3.2.8,0,h,NA,h,NA,NA,h,646,NA,109515,NA,NA,646,2,legacy,1024,2,48000,-16,experiment,HHHHH,999,odd,112181,NA,NA,NA,154681,2655,NA,NA,NA,2572,NA,155795,155928,156576,155762,155927,Flanker task,24,14479,24,yes,1024
100,100,625.96,625.96,black,legacy,legacy,legacy,0,congruent,uniform,1,undefined,1,h,0,0,0,0,24,0,0,0,24,0,24,24,24,24,24,24,Wed Sep 25 23:00:05 2019,1500,The main experiment item,yes,fp-subject-1.osexp,/Users/freyaportales/Desktop/OpenSesame Assignments,no,mono,no,18,no,white,no,no,768,legacy,24,24,/Users/freyaportales/Desktop/OpenSesame Assignments/quickrun.csv,legacy,Kafkaesque Koffka,3.2.8,0,h,NA,h,NA,NA,h,1170,NA,109515,NA,NA,1170,2,legacy,1024,2,48000,-16,experiment,HHHHH,999,odd,112181,NA,NA,NA,156624,2655,NA,NA,NA,2572,NA,157738,157870,159042,157706,157870,Flanker task,25,15649,25,yes,1024
100,100,624.1538462,624.1538462,black,legacy,legacy,legacy,0,incongruent,uniform,1,undefined,1,s,0,0,0,0,25,0,0,0,25,0,25,25,25,25,25,25,Wed Sep 25 23:00:05 2019,1500,The main experiment item,yes,fp-subject-1.osexp,/Users/freyaportales/Desktop/OpenSesame Assignments,no,mono,no,18,no,white,no,no,768,legacy,25,25,/Users/freyaportales/Desktop/OpenSesame Assignments/quickrun.csv,legacy,Kafkaesque Koffka,3.2.8,0,s,NA,h,NA,NA,s,579,NA,109515,NA,NA,579,2,legacy,1024,2,48000,-16,experiment,HHSHH,999,odd,112181,NA,NA,NA,159078,2655,NA,NA,NA,2572,NA,160201,160333,160914,160168,160333,Flanker task,26,16228,26,yes,1024
100,100,634.4814815,634.4814815,black,legacy,legacy,legacy,0,congruent,uniform,1,undefined,1,h,0,0,0,0,26,0,0,0,26,0,26,26,26,26,26,26,Wed Sep 25 23:00:05 2019,1500,The main experiment item,yes,fp-subject-1.osexp,/Users/freyaportales/Desktop/OpenSesame Assignments,no,mono,no,18,no,white,no,no,768,legacy,26,26,/Users/freyaportales/Desktop/OpenSesame Assignments/quickrun.csv,legacy,Kafkaesque Koffka,3.2.8,0,h,NA,h,NA,NA,h,903,NA,109515,NA,NA,903,2,legacy,1024,2,48000,-16,experiment,HHHHH,999,odd,112181,NA,NA,NA,160948,2655,NA,NA,NA,2572,NA,162069,162202,163107,162029,162201,Flanker task,27,17131,27,yes,1024
100,100,647.8571429,647.8571429,black,legacy,legacy,legacy,0,congruent,uniform,1,undefined,1,s,0,0,0,0,27,0,0,0,27,0,27,27,27,27,27,27,Wed Sep 25 23:00:05 2019,1500,The main experiment item,yes,fp-subject-1.osexp,/Users/freyaportales/Desktop/OpenSesame Assignments,no,mono,no,18,no,white,no,no,768,legacy,27,27,/Users/freyaportales/Desktop/OpenSesame Assignments/quickrun.csv,legacy,Kafkaesque Koffka,3.2.8,0,s,NA,h,NA,NA,s,1009,NA,109515,NA,NA,1009,2,legacy,1024,2,48000,-16,experiment,SSSSS,999,odd,112181,NA,NA,NA,163144,2655,NA,NA,NA,2572,NA,164269,164404,165415,164236,164403,Flanker task,28,18140,28,yes,1024
100,100,646.5172414,646.5172414,black,legacy,legacy,legacy,0,congruent,uniform,1,undefined,1,s,0,0,0,0,28,0,0,0,28,0,28,28,28,28,28,28,Wed Sep 25 23:00:05 2019,1500,The main experiment item,yes,fp-subject-1.osexp,/Users/freyaportales/Desktop/OpenSesame Assignments,no,mono,no,18,no,white,no,no,768,legacy,28,28,/Users/freyaportales/Desktop/OpenSesame Assignments/quickrun.csv,legacy,Kafkaesque Koffka,3.2.8,0,s,NA,h,NA,NA,s,609,NA,109515,NA,NA,609,2,legacy,1024,2,48000,-16,experiment,SSSSS,999,odd,112181,NA,NA,NA,165451,2655,NA,NA,NA,2572,NA,166571,166704,167315,166539,166703,Flanker task,29,18749,29,yes,1024
100,100,682.1,682.1,black,legacy,legacy,legacy,0,congruent,uniform,1,undefined,1,h,0,0,0,0,29,0,0,0,29,0,29,29,29,29,29,29,Wed Sep 25 23:00:05 2019,1500,The main experiment item,yes,fp-subject-1.osexp,/Users/freyaportales/Desktop/OpenSesame Assignments,no,mono,no,18,no,white,no,no,768,legacy,29,29,/Users/freyaportales/Desktop/OpenSesame Assignments/quickrun.csv,legacy,Kafkaesque Koffka,3.2.8,0,h,NA,h,NA,NA,h,1714,NA,109515,NA,NA,1714,2,legacy,1024,2,48000,-16,experiment,HHHHH,999,odd,112181,NA,NA,NA,167349,2655,NA,NA,NA,2572,NA,168464,168597,170313,168431,168597,Flanker task,30,20463,30,yes,1024
100,100,677.9354839,677.9354839,black,legacy,legacy,legacy,0,congruent,uniform,1,undefined,1,h,0,0,0,0,30,0,0,0,30,0,30,30,30,30,30,30,Wed Sep 25 23:00:05 2019,1500,The main experiment item,yes,fp-subject-1.osexp,/Users/freyaportales/Desktop/OpenSesame Assignments,no,mono,no,18,no,white,no,no,768,legacy,30,30,/Users/freyaportales/Desktop/OpenSesame Assignments/quickrun.csv,legacy,Kafkaesque Koffka,3.2.8,0,h,NA,h,NA,NA,h,553,NA,109515,NA,NA,553,2,legacy,1024,2,48000,-16,experiment,HHHHH,999,odd,112181,NA,NA,NA,170881,2655,NA,NA,NA,2572,170349,171996,172129,172684,171963,172129,Flanker task,31,21016,31,yes,1024
100,100,675.34375,675.34375,black,legacy,legacy,legacy,0,incongruent,uniform,1,undefined,1,h,0,0,0,0,31,0,0,0,31,0,31,31,31,31,31,31,Wed Sep 25 23:00:05 2019,1500,The main experiment item,yes,fp-subject-1.osexp,/Users/freyaportales/Desktop/OpenSesame Assignments,no,mono,no,18,no,white,no,no,768,legacy,31,31,/Users/freyaportales/Desktop/OpenSesame Assignments/quickrun.csv,legacy,Kafkaesque Koffka,3.2.8,0,h,NA,h,NA,NA,h,595,NA,109515,NA,NA,595,2,legacy,1024,2,48000,-16,experiment,SSHSS,999,odd,112181,NA,NA,NA,172719,2655,NA,NA,NA,2572,170349,173846,173979,174575,173813,173979,Flanker task,32,21611,32,yes,1024
100,100,670.1515152,670.1515152,black,legacy,legacy,legacy,0,congruent,uniform,1,undefined,1,s,0,0,0,0,32,0,0,0,32,0,32,32,32,32,32,32,Wed Sep 25 23:00:05 2019,1500,The main experiment item,yes,fp-subject-1.osexp,/Users/freyaportales/Desktop/OpenSesame Assignments,no,mono,no,18,no,white,no,no,768,legacy,32,32,/Users/freyaportales/Desktop/OpenSesame Assignments/quickrun.csv,legacy,Kafkaesque Koffka,3.2.8,0,s,NA,h,NA,NA,s,504,NA,109515,NA,NA,504,2,legacy,1024,2,48000,-16,experiment,SSSSS,999,odd,112181,NA,NA,NA,174610,2655,NA,NA,NA,2572,170349,175723,175855,176361,175691,175855,Flanker task,33,22115,33,yes,1024
100,100,665.7352941,665.7352941,black,legacy,legacy,legacy,0,congruent,uniform,1,undefined,1,h,0,0,0,0,33,0,0,0,33,0,33,33,33,33,33,33,Wed Sep 25 23:00:05 2019,1500,The main experiment item,yes,fp-subject-1.osexp,/Users/freyaportales/Desktop/OpenSesame Assignments,no,mono,no,18,no,white,no,no,768,legacy,33,33,/Users/freyaportales/Desktop/OpenSesame Assignments/quickrun.csv,legacy,Kafkaesque Koffka,3.2.8,0,h,NA,h,NA,NA,h,520,NA,109515,NA,NA,520,2,legacy,1024,2,48000,-16,experiment,HHHHH,999,odd,112181,NA,NA,NA,176396,2655,NA,NA,NA,2572,170349,177513,177645,178167,177480,177645,Flanker task,34,22635,34,yes,1024
100,100,660.1142857,660.1142857,black,legacy,legacy,legacy,0,congruent,uniform,1,undefined,1,s,0,0,0,0,34,0,0,0,34,0,34,34,34,34,34,34,Wed Sep 25 23:00:05 2019,1500,The main experiment item,yes,fp-subject-1.osexp,/Users/freyaportales/Desktop/OpenSesame Assignments,no,mono,no,18,no,white,no,no,768,legacy,34,34,/Users/freyaportales/Desktop/OpenSesame Assignments/quickrun.csv,legacy,Kafkaesque Koffka,3.2.8,0,s,NA,h,NA,NA,s,469,NA,109515,NA,NA,469,2,legacy,1024,2,48000,-16,experiment,SSSSS,999,odd,112181,NA,NA,NA,178204,2655,NA,NA,NA,2572,170349,179323,179456,179927,179291,179456,Flanker task,35,23104,35,yes,1024
100,100,656.8333333,656.8333333,black,legacy,legacy,legacy,0,incongruent,uniform,1,undefined,1,s,0,0,0,0,35,0,0,0,35,0,35,35,35,35,35,35,Wed Sep 25 23:00:05 2019,1500,The main experiment item,yes,fp-subject-1.osexp,/Users/freyaportales/Desktop/OpenSesame Assignments,no,mono,no,18,no,white,no,no,768,legacy,35,35,/Users/freyaportales/Desktop/OpenSesame Assignments/quickrun.csv,legacy,Kafkaesque Koffka,3.2.8,0,s,NA,h,NA,NA,s,542,NA,109515,NA,NA,542,2,legacy,1024,2,48000,-16,experiment,HHSHH,999,odd,112181,NA,NA,NA,179962,2655,NA,NA,NA,2572,170349,181074,181208,181752,181042,181207,Flanker task,36,23646,36,yes,1024
100,100,652.7567568,652.7567568,black,legacy,legacy,legacy,0,congruent,uniform,1,undefined,1,h,0,0,0,0,36,0,0,0,36,0,36,36,36,36,36,36,Wed Sep 25 23:00:05 2019,1500,The main experiment item,yes,fp-subject-1.osexp,/Users/freyaportales/Desktop/OpenSesame Assignments,no,mono,no,18,no,white,no,no,768,legacy,36,36,/Users/freyaportales/Desktop/OpenSesame Assignments/quickrun.csv,legacy,Kafkaesque Koffka,3.2.8,0,h,NA,h,NA,NA,h,506,NA,109515,NA,NA,506,2,legacy,1024,2,48000,-16,experiment,HHHHH,999,odd,112181,NA,NA,NA,181790,2655,NA,NA,NA,2572,170349,182911,183043,183551,182878,183043,Flanker task,37,24152,37,yes,1024
100,100,649.8947368,649.8947368,black,legacy,legacy,legacy,0,congruent,uniform,1,undefined,1,s,0,0,0,0,37,0,0,0,37,0,37,37,37,37,37,37,Wed Sep 25 23:00:05 2019,1500,The main experiment item,yes,fp-subject-1.osexp,/Users/freyaportales/Desktop/OpenSesame Assignments,no,mono,no,18,no,white,no,no,768,legacy,37,37,/Users/freyaportales/Desktop/OpenSesame Assignments/quickrun.csv,legacy,Kafkaesque Koffka,3.2.8,0,s,NA,h,NA,NA,s,544,NA,109515,NA,NA,544,2,legacy,1024,2,48000,-16,experiment,SSSSS,999,odd,112181,NA,NA,NA,183585,2655,NA,NA,NA,2572,170349,184698,184831,185377,184666,184831,Flanker task,38,24696,38,yes,1024
100,100,644.4871795,644.4871795,black,legacy,legacy,legacy,0,congruent,uniform,1,undefined,1,s,0,0,0,0,38,0,0,0,38,0,38,38,38,38,38,38,Wed Sep 25 23:00:05 2019,1500,The main experiment item,yes,fp-subject-1.osexp,/Users/freyaportales/Desktop/OpenSesame Assignments,no,mono,no,18,no,white,no,no,768,legacy,38,38,/Users/freyaportales/Desktop/OpenSesame Assignments/quickrun.csv,legacy,Kafkaesque Koffka,3.2.8,0,s,NA,h,NA,NA,s,439,NA,109515,NA,NA,439,2,legacy,1024,2,48000,-16,experiment,SSSSS,999,odd,112181,NA,NA,NA,185413,2655,NA,NA,NA,2572,170349,186531,186664,187105,186498,186664,Flanker task,39,25135,39,yes,1024
100,100,640.525,640.525,black,legacy,legacy,legacy,0,incongruent,uniform,1,undefined,1,h,0,0,0,0,39,0,0,0,39,0,39,39,39,39,39,39,Wed Sep 25 23:00:05 2019,1500,The main experiment item,yes,fp-subject-1.osexp,/Users/freyaportales/Desktop/OpenSesame Assignments,no,mono,no,18,no,white,no,no,768,legacy,39,39,/Users/freyaportales/Desktop/OpenSesame Assignments/quickrun.csv,legacy,Kafkaesque Koffka,3.2.8,0,h,NA,h,NA,NA,h,486,NA,109515,NA,NA,486,2,legacy,1024,2,48000,-16,experiment,SSHSS,999,odd,112181,NA,NA,NA,187139,2655,NA,NA,NA,2572,170349,188253,188386,188874,188220,188386,Flanker task,40,25621,40,yes,1024
100,100,637.5121951,637.5121951,black,legacy,legacy,legacy,0,congruent,uniform,1,undefined,1,h,0,0,0,0,40,0,0,0,40,0,40,40,40,40,40,40,Wed Sep 25 23:00:05 2019,1500,The main experiment item,yes,fp-subject-1.osexp,/Users/freyaportales/Desktop/OpenSesame Assignments,no,mono,no,18,no,white,no,no,768,legacy,40,40,/Users/freyaportales/Desktop/OpenSesame Assignments/quickrun.csv,legacy,Kafkaesque Koffka,3.2.8,0,h,NA,h,NA,NA,h,517,NA,109515,NA,NA,517,2,legacy,1024,2,48000,-16,experiment,HHHHH,999,odd,112181,NA,NA,NA,188917,2655,NA,NA,NA,2572,170349,190030,190163,190682,189999,190163,Flanker task,41,26138,41,yes,1024
100,100,633.6904762,633.6904762,black,legacy,legacy,legacy,0,congruent,uniform,1,undefined,1,s,0,0,0,0,41,0,0,0,41,0,41,41,41,41,41,41,Wed Sep 25 23:00:05 2019,1500,The main experiment item,yes,fp-subject-1.osexp,/Users/freyaportales/Desktop/OpenSesame Assignments,no,mono,no,18,no,white,no,no,768,legacy,41,41,/Users/freyaportales/Desktop/OpenSesame Assignments/quickrun.csv,legacy,Kafkaesque Koffka,3.2.8,0,s,NA,h,NA,NA,s,477,NA,109515,NA,NA,477,2,legacy,1024,2,48000,-16,experiment,SSSSS,999,odd,112181,NA,NA,NA,190716,2655,NA,NA,NA,2572,170349,191831,191976,192455,191799,191975,Flanker task,42,26615,42,yes,1024
100,100,629.4186047,629.4186047,black,legacy,legacy,legacy,0,congruent,uniform,1,undefined,1,s,0,0,0,0,42,0,0,0,42,0,42,42,42,42,42,42,Wed Sep 25 23:00:05 2019,1500,The main experiment item,yes,fp-subject-1.osexp,/Users/freyaportales/Desktop/OpenSesame Assignments,no,mono,no,18,no,white,no,no,768,legacy,42,42,/Users/freyaportales/Desktop/OpenSesame Assignments/quickrun.csv,legacy,Kafkaesque Koffka,3.2.8,0,s,NA,h,NA,NA,s,450,NA,109515,NA,NA,450,2,legacy,1024,2,48000,-16,experiment,SSSSS,999,odd,112181,NA,NA,NA,192491,2655,NA,NA,NA,2572,170349,193605,193737,194189,193572,193737,Flanker task,43,27065,43,yes,1024
100,100,624.5227273,624.5227273,black,legacy,legacy,legacy,0,congruent,uniform,1,undefined,1,s,0,0,0,0,43,0,0,0,43,0,43,43,43,43,43,43,Wed Sep 25 23:00:05 2019,1500,The main experiment item,yes,fp-subject-1.osexp,/Users/freyaportales/Desktop/OpenSesame Assignments,no,mono,no,18,no,white,no,no,768,legacy,43,43,/Users/freyaportales/Desktop/OpenSesame Assignments/quickrun.csv,legacy,Kafkaesque Koffka,3.2.8,0,s,NA,h,NA,NA,s,414,NA,109515,NA,NA,414,2,legacy,1024,2,48000,-16,experiment,SSSSS,999,odd,112181,NA,NA,NA,194235,2655,NA,NA,NA,2572,170349,195354,195488,195904,195321,195487,Flanker task,44,27479,44,yes,1024
100,100,620.8444444,620.8444444,black,legacy,legacy,legacy,0,congruent,uniform,1,undefined,1,h,0,0,0,0,44,0,0,0,44,0,44,44,44,44,44,44,Wed Sep 25 23:00:05 2019,1500,The main experiment item,yes,fp-subject-1.osexp,/Users/freyaportales/Desktop/OpenSesame Assignments,no,mono,no,18,no,white,no,no,768,legacy,44,44,/Users/freyaportales/Desktop/OpenSesame Assignments/quickrun.csv,legacy,Kafkaesque Koffka,3.2.8,0,h,NA,h,NA,NA,h,459,NA,109515,NA,NA,459,2,legacy,1024,2,48000,-16,experiment,HHHHH,999,odd,112181,NA,NA,NA,195938,2655,NA,NA,NA,2572,170349,197051,197184,197645,197019,197183,Flanker task,45,27938,45,yes,1024
100,100,618.5217391,618.5217391,black,legacy,legacy,legacy,0,incongruent,uniform,1,undefined,1,s,0,0,0,0,45,0,0,0,45,0,45,45,45,45,45,45,Wed Sep 25 23:00:05 2019,1500,The main experiment item,yes,fp-subject-1.osexp,/Users/freyaportales/Desktop/OpenSesame Assignments,no,mono,no,18,no,white,no,no,768,legacy,45,45,/Users/freyaportales/Desktop/OpenSesame Assignments/quickrun.csv,legacy,Kafkaesque Koffka,3.2.8,0,s,NA,h,NA,NA,s,514,NA,109515,NA,NA,514,2,legacy,1024,2,48000,-16,experiment,HHSHH,999,odd,112181,NA,NA,NA,197699,2655,NA,NA,NA,2572,170349,198813,198945,199461,198780,198945,Flanker task,46,28452,46,yes,1024
100,100,615.6170213,615.6170213,black,legacy,legacy,legacy,0,congruent,uniform,1,undefined,1,h,0,0,0,0,46,0,0,0,46,0,46,46,46,46,46,46,Wed Sep 25 23:00:05 2019,1500,The main experiment item,yes,fp-subject-1.osexp,/Users/freyaportales/Desktop/OpenSesame Assignments,no,mono,no,18,no,white,no,no,768,legacy,46,46,/Users/freyaportales/Desktop/OpenSesame Assignments/quickrun.csv,legacy,Kafkaesque Koffka,3.2.8,0,h,NA,h,NA,NA,h,482,NA,109515,NA,NA,482,2,legacy,1024,2,48000,-16,experiment,HHHHH,999,odd,112181,NA,NA,NA,199495,2655,NA,NA,NA,2572,170349,200609,200742,201226,200577,200742,Flanker task,47,28934,47,yes,1024
100,100,613.7708333,613.7708333,black,legacy,legacy,legacy,0,congruent,uniform,1,undefined,1,h,0,0,0,0,47,0,0,0,47,0,47,47,47,47,47,47,Wed Sep 25 23:00:05 2019,1500,The main experiment item,yes,fp-subject-1.osexp,/Users/freyaportales/Desktop/OpenSesame Assignments,no,mono,no,18,no,white,no,no,768,legacy,47,47,/Users/freyaportales/Desktop/OpenSesame Assignments/quickrun.csv,legacy,Kafkaesque Koffka,3.2.8,0,h,NA,h,NA,NA,h,527,NA,109515,NA,NA,527,2,legacy,1024,2,48000,-16,experiment,HHHHH,999,odd,112181,NA,NA,NA,201261,2655,NA,NA,NA,2572,170349,202376,202508,203037,202343,202508,Flanker task,48,29461,48,yes,1024
100,100,611.6326531,611.6326531,black,legacy,legacy,legacy,0,congruent,uniform,1,undefined,1,h,0,0,0,0,48,0,0,0,48,0,48,48,48,48,48,48,Wed Sep 25 23:00:05 2019,1500,The main experiment item,yes,fp-subject-1.osexp,/Users/freyaportales/Desktop/OpenSesame Assignments,no,mono,no,18,no,white,no,no,768,legacy,48,48,/Users/freyaportales/Desktop/OpenSesame Assignments/quickrun.csv,legacy,Kafkaesque Koffka,3.2.8,0,h,NA,h,NA,NA,h,509,NA,109515,NA,NA,509,2,legacy,1024,2,48000,-16,experiment,HHHHH,999,odd,112181,NA,NA,NA,203076,2655,NA,NA,NA,2572,170349,204190,204322,204833,204157,204322,Flanker task,49,29970,49,yes,1024
100,100,609.08,609.08,black,legacy,legacy,legacy,0,incongruent,uniform,1,undefined,1,s,0,0,0,0,49,0,0,0,49,0,49,49,49,49,49,49,Wed Sep 25 23:00:05 2019,1500,The main experiment item,yes,fp-subject-1.osexp,/Users/freyaportales/Desktop/OpenSesame Assignments,no,mono,no,18,no,white,no,no,768,legacy,49,49,/Users/freyaportales/Desktop/OpenSesame Assignments/quickrun.csv,legacy,Kafkaesque Koffka,3.2.8,0,s,NA,h,NA,NA,s,484,NA,109515,NA,NA,484,2,legacy,1024,2,48000,-16,experiment,HHSHH,999,odd,112181,NA,NA,NA,204867,2655,NA,NA,NA,2572,170349,205982,206115,206601,205949,206114,Flanker task,50,30454,50,yes,1024
100,100,606.9019608,606.9019608,black,legacy,legacy,legacy,0,congruent,uniform,1,undefined,1,s,0,0,0,0,50,0,0,0,50,0,50,50,50,50,50,50,Wed Sep 25 23:00:05 2019,1500,The main experiment item,yes,fp-subject-1.osexp,/Users/freyaportales/Desktop/OpenSesame Assignments,no,mono,no,18,no,white,no,no,768,legacy,50,50,/Users/freyaportales/Desktop/OpenSesame Assignments/quickrun.csv,legacy,Kafkaesque Koffka,3.2.8,0,s,NA,h,NA,NA,s,498,NA,109515,NA,NA,498,2,legacy,1024,2,48000,-16,experiment,SSSSS,999,odd,112181,NA,NA,NA,206635,2655,NA,NA,NA,2572,170349,207749,207882,208382,207716,207882,Flanker task,51,30952,51,yes,1024
100,100,606.75,606.75,black,legacy,legacy,legacy,0,incongruent,uniform,1,undefined,1,h,0,0,0,0,51,0,0,0,51,0,51,51,51,51,51,51,Wed Sep 25 23:00:05 2019,1500,The main experiment item,yes,fp-subject-1.osexp,/Users/freyaportales/Desktop/OpenSesame Assignments,no,mono,no,18,no,white,no,no,768,legacy,51,51,/Users/freyaportales/Desktop/OpenSesame Assignments/quickrun.csv,legacy,Kafkaesque Koffka,3.2.8,0,h,NA,h,NA,NA,h,599,NA,109515,NA,NA,599,2,legacy,1024,2,48000,-16,experiment,SSHSS,999,odd,112181,NA,NA,NA,208425,2655,NA,NA,NA,2572,170349,209546,209681,210282,209513,209681,Flanker task,52,31551,52,yes,1024
100,100,606.0188679,606.0188679,black,legacy,legacy,legacy,0,incongruent,uniform,1,undefined,1,h,0,0,0,0,52,0,0,0,52,0,52,52,52,52,52,52,Wed Sep 25 23:00:05 2019,1500,The main experiment item,yes,fp-subject-1.osexp,/Users/freyaportales/Desktop/OpenSesame Assignments,no,mono,no,18,no,white,no,no,768,legacy,52,52,/Users/freyaportales/Desktop/OpenSesame Assignments/quickrun.csv,legacy,Kafkaesque Koffka,3.2.8,0,h,NA,h,NA,NA,h,568,NA,109515,NA,NA,568,2,legacy,1024,2,48000,-16,experiment,SSHSS,999,odd,112181,NA,NA,NA,210317,2655,NA,NA,NA,2572,170349,211432,211564,212134,211399,211564,Flanker task,53,32119,53,yes,1024
100,100,604.8703704,604.8703704,black,legacy,legacy,legacy,0,incongruent,uniform,1,undefined,1,s,0,0,0,0,53,0,0,0,53,0,53,53,53,53,53,53,Wed Sep 25 23:00:05 2019,1500,The main experiment item,yes,fp-subject-1.osexp,/Users/freyaportales/Desktop/OpenSesame Assignments,no,mono,no,18,no,white,no,no,768,legacy,53,53,/Users/freyaportales/Desktop/OpenSesame Assignments/quickrun.csv,legacy,Kafkaesque Koffka,3.2.8,0,s,NA,h,NA,NA,s,544,NA,109515,NA,NA,544,2,legacy,1024,2,48000,-16,experiment,HHSHH,999,odd,112181,NA,NA,NA,212168,2655,NA,NA,NA,2572,170349,213283,213416,213962,213250,213416,Flanker task,54,32663,54,yes,1024
100,100,603.9454545,603.9454545,black,legacy,legacy,legacy,0,incongruent,uniform,1,undefined,1,h,0,0,0,0,54,0,0,0,54,0,54,54,54,54,54,54,Wed Sep 25 23:00:05 2019,1500,The main experiment item,yes,fp-subject-1.osexp,/Users/freyaportales/Desktop/OpenSesame Assignments,no,mono,no,18,no,white,no,no,768,legacy,54,54,/Users/freyaportales/Desktop/OpenSesame Assignments/quickrun.csv,legacy,Kafkaesque Koffka,3.2.8,0,h,NA,h,NA,NA,h,554,NA,109515,NA,NA,554,2,legacy,1024,2,48000,-16,experiment,SSHSS,999,odd,112181,NA,NA,NA,213997,2655,NA,NA,NA,2572,170349,215120,215253,215808,215087,215253,Flanker task,55,33217,55,yes,1024
100,100,604.4464286,604.4464286,black,legacy,legacy,legacy,0,congruent,uniform,1,undefined,1,s,0,0,0,0,55,0,0,0,55,0,55,55,55,55,55,55,Wed Sep 25 23:00:05 2019,1500,The main experiment item,yes,fp-subject-1.osexp,/Users/freyaportales/Desktop/OpenSesame Assignments,no,mono,no,18,no,white,no,no,768,legacy,55,55,/Users/freyaportales/Desktop/OpenSesame Assignments/quickrun.csv,legacy,Kafkaesque Koffka,3.2.8,0,s,NA,h,NA,NA,s,632,NA,109515,NA,NA,632,2,legacy,1024,2,48000,-16,experiment,SSSSS,999,odd,112181,NA,NA,NA,215842,2655,NA,NA,NA,2572,170349,216957,217090,217724,216924,217090,Flanker task,56,33849,56,yes,1024
100,100,602.9473684,602.9473684,black,legacy,legacy,legacy,0,incongruent,uniform,1,undefined,1,s,0,0,0,0,56,0,0,0,56,0,56,56,56,56,56,56,Wed Sep 25 23:00:05 2019,1500,The main experiment item,yes,fp-subject-1.osexp,/Users/freyaportales/Desktop/OpenSesame Assignments,no,mono,no,18,no,white,no,no,768,legacy,56,56,/Users/freyaportales/Desktop/OpenSesame Assignments/quickrun.csv,legacy,Kafkaesque Koffka,3.2.8,0,s,NA,h,NA,NA,s,519,NA,109515,NA,NA,519,2,legacy,1024,2,48000,-16,experiment,HHSHH,999,odd,112181,NA,NA,NA,217758,2655,NA,NA,NA,2572,170349,218872,219003,219524,218840,219003,Flanker task,57,34368,57,yes,1024
100,100,600.9827586,600.9827586,black,legacy,legacy,legacy,0,congruent,uniform,1,undefined,1,s,0,0,0,0,57,0,0,0,57,0,57,57,57,57,57,57,Wed Sep 25 23:00:05 2019,1500,The main experiment item,yes,fp-subject-1.osexp,/Users/freyaportales/Desktop/OpenSesame Assignments,no,mono,no,18,no,white,no,no,768,legacy,57,57,/Users/freyaportales/Desktop/OpenSesame Assignments/quickrun.csv,legacy,Kafkaesque Koffka,3.2.8,0,s,NA,h,NA,NA,s,489,NA,109515,NA,NA,489,2,legacy,1024,2,48000,-16,experiment,SSSSS,999,odd,112181,NA,NA,NA,219564,2655,NA,NA,NA,2572,170349,220682,220815,221305,220650,220815,Flanker task,58,34857,58,yes,1024
100,100,599.4237288,599.4237288,black,legacy,legacy,legacy,0,incongruent,uniform,1,undefined,1,h,0,0,0,0,58,0,0,0,58,0,58,58,58,58,58,58,Wed Sep 25 23:00:05 2019,1500,The main experiment item,yes,fp-subject-1.osexp,/Users/freyaportales/Desktop/OpenSesame Assignments,no,mono,no,18,no,white,no,no,768,legacy,58,58,/Users/freyaportales/Desktop/OpenSesame Assignments/quickrun.csv,legacy,Kafkaesque Koffka,3.2.8,0,h,NA,h,NA,NA,h,509,NA,109515,NA,NA,509,2,legacy,1024,2,48000,-16,experiment,SSHSS,999,odd,112181,NA,NA,NA,221340,2655,NA,NA,NA,2572,170349,222454,222593,223104,222422,222593,Flanker task,59,35366,59,yes,1024
100,100,600.2666667,600.2666667,black,legacy,legacy,legacy,0,congruent,uniform,1,undefined,1,h,0,0,0,0,59,0,0,0,59,0,59,59,59,59,59,59,Wed Sep 25 23:00:05 2019,1500,The main experiment item,yes,fp-subject-1.osexp,/Users/freyaportales/Desktop/OpenSesame Assignments,no,mono,no,18,no,white,no,no,768,legacy,59,59,/Users/freyaportales/Desktop/OpenSesame Assignments/quickrun.csv,legacy,Kafkaesque Koffka,3.2.8,0,h,NA,h,NA,NA,h,650,NA,109515,NA,NA,650,2,legacy,1024,2,48000,-16,experiment,HHHHH,999,odd,112181,NA,NA,NA,223143,2655,NA,NA,NA,2572,170349,224256,224391,225043,224224,224390,Flanker task,60,36016,60,yes,1024
100,100,601.442623,601.442623,black,legacy,legacy,legacy,0,incongruent,uniform,1,undefined,1,s,0,0,0,0,60,0,0,0,60,0,60,60,60,60,60,60,Wed Sep 25 23:00:05 2019,1500,The main experiment item,yes,fp-subject-1.osexp,/Users/freyaportales/Desktop/OpenSesame Assignments,no,mono,no,18,no,white,no,no,768,legacy,60,60,/Users/freyaportales/Desktop/OpenSesame Assignments/quickrun.csv,legacy,Kafkaesque Koffka,3.2.8,0,s,NA,h,NA,NA,s,672,NA,109515,NA,NA,672,2,legacy,1024,2,48000,-16,experiment,HHSHH,999,odd,112181,NA,NA,NA,225078,2655,NA,NA,NA,2572,170349,226192,226325,226999,226160,226325,Flanker task,61,36688,61,yes,1024
100,100,599.9354839,599.9354839,black,legacy,legacy,legacy,0,congruent,uniform,1,undefined,1,s,0,0,0,0,61,0,0,0,61,0,61,61,61,61,61,61,Wed Sep 25 23:00:05 2019,1500,The main experiment item,yes,fp-subject-1.osexp,/Users/freyaportales/Desktop/OpenSesame Assignments,no,mono,no,18,no,white,no,no,768,legacy,61,61,/Users/freyaportales/Desktop/OpenSesame Assignments/quickrun.csv,legacy,Kafkaesque Koffka,3.2.8,0,s,NA,h,NA,NA,s,508,NA,109515,NA,NA,508,2,legacy,1024,2,48000,-16,experiment,SSSSS,999,odd,112181,NA,NA,NA,227032,2655,NA,NA,NA,2572,170349,228146,228278,228788,228114,228278,Flanker task,62,37196,62,yes,1024
100,100,598.7460317,598.7460317,black,legacy,legacy,legacy,0,congruent,uniform,1,undefined,1,s,0,0,0,0,62,0,0,0,62,0,62,62,62,62,62,62,Wed Sep 25 23:00:05 2019,1500,The main experiment item,yes,fp-subject-1.osexp,/Users/freyaportales/Desktop/OpenSesame Assignments,no,mono,no,18,no,white,no,no,768,legacy,62,62,/Users/freyaportales/Desktop/OpenSesame Assignments/quickrun.csv,legacy,Kafkaesque Koffka,3.2.8,0,s,NA,h,NA,NA,s,525,NA,109515,NA,NA,525,2,legacy,1024,2,48000,-16,experiment,SSSSS,999,odd,112181,NA,NA,NA,228822,2655,NA,NA,NA,2572,170349,229935,230068,230596,229904,230068,Flanker task,63,37721,63,yes,1024
100,100,597.5625,597.5625,black,legacy,legacy,legacy,0,congruent,uniform,1,undefined,1,h,0,0,0,0,63,0,0,0,63,0,63,63,63,63,63,63,Wed Sep 25 23:00:05 2019,1500,The main experiment item,yes,fp-subject-1.osexp,/Users/freyaportales/Desktop/OpenSesame Assignments,no,mono,no,18,no,white,no,no,768,legacy,63,63,/Users/freyaportales/Desktop/OpenSesame Assignments/quickrun.csv,legacy,Kafkaesque Koffka,3.2.8,0,h,NA,h,NA,NA,h,523,NA,109515,NA,NA,523,2,legacy,1024,2,48000,-16,experiment,HHHHH,999,odd,112181,NA,NA,NA,230634,2655,NA,NA,NA,2572,170349,231753,231886,232412,231721,231886,Flanker task,64,38244,64,yes,1024
100,100,596.7384615,596.7384615,black,legacy,legacy,legacy,0,incongruent,uniform,1,undefined,1,h,0,0,0,0,64,0,0,0,64,0,64,64,64,64,64,64,Wed Sep 25 23:00:05 2019,1500,The main experiment item,yes,fp-subject-1.osexp,/Users/freyaportales/Desktop/OpenSesame Assignments,no,mono,no,18,no,white,no,no,768,legacy,64,64,/Users/freyaportales/Desktop/OpenSesame Assignments/quickrun.csv,legacy,Kafkaesque Koffka,3.2.8,0,h,NA,h,NA,NA,h,544,NA,109515,NA,NA,544,2,legacy,1024,2,48000,-16,experiment,SSHSS,999,odd,112181,NA,NA,NA,232446,2655,NA,NA,NA,2572,170349,233561,233695,234242,233528,233695,Flanker task,65,38788,65,yes,1024
100,100,594.6060606,594.6060606,black,legacy,legacy,legacy,0,incongruent,uniform,1,undefined,1,s,0,0,0,0,65,0,0,0,65,0,65,65,65,65,65,65,Wed Sep 25 23:00:05 2019,1500,The main experiment item,yes,fp-subject-1.osexp,/Users/freyaportales/Desktop/OpenSesame Assignments,no,mono,no,18,no,white,no,no,768,legacy,65,65,/Users/freyaportales/Desktop/OpenSesame Assignments/quickrun.csv,legacy,Kafkaesque Koffka,3.2.8,0,s,NA,h,NA,NA,s,456,NA,109515,NA,NA,456,2,legacy,1024,2,48000,-16,experiment,HHSHH,999,odd,112181,NA,NA,NA,234282,2655,NA,NA,NA,2572,170349,235398,235530,235988,235364,235530,Flanker task,66,39244,66,yes,1024
100,100,594.0447761,594.0447761,black,legacy,legacy,legacy,0,congruent,uniform,1,undefined,1,h,0,0,0,0,66,0,0,0,66,0,66,66,66,66,66,66,Wed Sep 25 23:00:05 2019,1500,The main experiment item,yes,fp-subject-1.osexp,/Users/freyaportales/Desktop/OpenSesame Assignments,no,mono,no,18,no,white,no,no,768,legacy,66,66,/Users/freyaportales/Desktop/OpenSesame Assignments/quickrun.csv,legacy,Kafkaesque Koffka,3.2.8,0,h,NA,h,NA,NA,h,557,NA,109515,NA,NA,557,2,legacy,1024,2,48000,-16,experiment,HHHHH,999,odd,112181,NA,NA,NA,236022,2655,NA,NA,NA,2572,170349,237136,237268,237828,237103,237268,Flanker task,67,39801,67,yes,1024
100,100,592.3823529,592.3823529,black,legacy,legacy,legacy,0,incongruent,uniform,1,undefined,1,s,0,0,0,0,67,0,0,0,67,0,67,67,67,67,67,67,Wed Sep 25 23:00:05 2019,1500,The main experiment item,yes,fp-subject-1.osexp,/Users/freyaportales/Desktop/OpenSesame Assignments,no,mono,no,18,no,white,no,no,768,legacy,67,67,/Users/freyaportales/Desktop/OpenSesame Assignments/quickrun.csv,legacy,Kafkaesque Koffka,3.2.8,0,s,NA,h,NA,NA,s,481,NA,109515,NA,NA,481,2,legacy,1024,2,48000,-16,experiment,HHSHH,999,odd,112181,NA,NA,NA,237865,2655,NA,NA,NA,2572,170349,238985,239117,239601,238952,239117,Flanker task,68,40282,68,yes,1024
100,100,591.1014493,591.1014493,black,legacy,legacy,legacy,0,incongruent,uniform,1,undefined,1,h,0,0,0,0,68,0,0,0,68,0,68,68,68,68,68,68,Wed Sep 25 23:00:05 2019,1500,The main experiment item,yes,fp-subject-1.osexp,/Users/freyaportales/Desktop/OpenSesame Assignments,no,mono,no,18,no,white,no,no,768,legacy,68,68,/Users/freyaportales/Desktop/OpenSesame Assignments/quickrun.csv,legacy,Kafkaesque Koffka,3.2.8,0,h,NA,h,NA,NA,h,504,NA,109515,NA,NA,504,2,legacy,1024,2,48000,-16,experiment,SSHSS,999,odd,112181,NA,NA,NA,239636,2655,NA,NA,NA,2572,170349,240750,240884,241390,240717,240884,Flanker task,69,40786,69,yes,1024
100,100,590.2571429,590.2571429,black,legacy,legacy,legacy,0,incongruent,uniform,1,undefined,1,h,0,0,0,0,69,0,0,0,69,0,69,69,69,69,69,69,Wed Sep 25 23:00:05 2019,1500,The main experiment item,yes,fp-subject-1.osexp,/Users/freyaportales/Desktop/OpenSesame Assignments,no,mono,no,18,no,white,no,no,768,legacy,69,69,/Users/freyaportales/Desktop/OpenSesame Assignments/quickrun.csv,legacy,Kafkaesque Koffka,3.2.8,0,h,NA,h,NA,NA,h,532,NA,109515,NA,NA,532,2,legacy,1024,2,48000,-16,experiment,SSHSS,999,odd,112181,NA,NA,NA,241433,2655,NA,NA,NA,2572,170349,242555,242688,243223,242522,242688,Flanker task,70,41318,70,yes,1024
100,100,590.3239437,590.3239437,black,legacy,legacy,legacy,0,incongruent,uniform,1,undefined,1,s,0,0,0,0,70,0,0,0,70,0,70,70,70,70,70,70,Wed Sep 25 23:00:05 2019,1500,The main experiment item,yes,fp-subject-1.osexp,/Users/freyaportales/Desktop/OpenSesame Assignments,no,mono,no,18,no,white,no,no,768,legacy,70,70,/Users/freyaportales/Desktop/OpenSesame Assignments/quickrun.csv,legacy,Kafkaesque Koffka,3.2.8,0,s,NA,h,NA,NA,s,595,NA,109515,NA,NA,595,2,legacy,1024,2,48000,-16,experiment,HHSHH,999,odd,112181,NA,NA,NA,243258,2655,NA,NA,NA,2572,170349,244372,244506,245104,244339,244505,Flanker task,71,41913,71,yes,1024
100,100,589.7361111,589.7361111,black,legacy,legacy,legacy,0,incongruent,uniform,1,undefined,1,s,0,0,0,0,71,0,0,0,71,0,71,71,71,71,71,71,Wed Sep 25 23:00:05 2019,1500,The main experiment item,yes,fp-subject-1.osexp,/Users/freyaportales/Desktop/OpenSesame Assignments,no,mono,no,18,no,white,no,no,768,legacy,71,71,/Users/freyaportales/Desktop/OpenSesame Assignments/quickrun.csv,legacy,Kafkaesque Koffka,3.2.8,0,s,NA,h,NA,NA,s,548,NA,109515,NA,NA,548,2,legacy,1024,2,48000,-16,experiment,HHSHH,999,odd,112181,NA,NA,NA,245141,2655,NA,NA,NA,2572,170349,246254,246388,246939,246222,246387,Flanker task,72,42461,72,yes,1024
100,100,588.3150685,588.3150685,black,legacy,legacy,legacy,0,incongruent,uniform,1,undefined,1,s,0,0,0,0,72,0,0,0,72,0,72,72,72,72,72,72,Wed Sep 25 23:00:05 2019,1500,The main experiment item,yes,fp-subject-1.osexp,/Users/freyaportales/Desktop/OpenSesame Assignments,no,mono,no,18,no,white,no,no,768,legacy,72,72,/Users/freyaportales/Desktop/OpenSesame Assignments/quickrun.csv,legacy,Kafkaesque Koffka,3.2.8,0,s,NA,h,NA,NA,s,486,NA,109515,NA,NA,486,2,legacy,1024,2,48000,-16,experiment,HHSHH,999,odd,112181,NA,NA,NA,246976,2655,NA,NA,NA,2572,170349,248100,248232,248720,248068,248232,Flanker task,73,42947,73,yes,1024
100,100,587.7702703,587.7702703,black,legacy,legacy,legacy,0,incongruent,uniform,1,undefined,1,h,0,0,0,0,73,0,0,0,73,0,73,73,73,73,73,73,Wed Sep 25 23:00:05 2019,1500,The main experiment item,yes,fp-subject-1.osexp,/Users/freyaportales/Desktop/OpenSesame Assignments,no,mono,no,18,no,white,no,no,768,legacy,73,73,/Users/freyaportales/Desktop/OpenSesame Assignments/quickrun.csv,legacy,Kafkaesque Koffka,3.2.8,0,h,NA,h,NA,NA,h,548,NA,109515,NA,NA,548,2,legacy,1024,2,48000,-16,experiment,SSHSS,999,odd,112181,NA,NA,NA,248755,2655,NA,NA,NA,2572,170349,249868,250000,250551,249836,250000,Flanker task,74,43495,74,yes,1024
100,100,585.9733333,585.9733333,black,legacy,legacy,legacy,0,congruent,uniform,1,undefined,1,h,0,0,0,0,74,0,0,0,74,0,74,74,74,74,74,74,Wed Sep 25 23:00:05 2019,1500,The main experiment item,yes,fp-subject-1.osexp,/Users/freyaportales/Desktop/OpenSesame Assignments,no,mono,no,18,no,white,no,no,768,legacy,74,74,/Users/freyaportales/Desktop/OpenSesame Assignments/quickrun.csv,legacy,Kafkaesque Koffka,3.2.8,0,h,NA,h,NA,NA,h,453,NA,109515,NA,NA,453,2,legacy,1024,2,48000,-16,experiment,HHHHH,999,odd,112181,NA,NA,NA,250586,2655,NA,NA,NA,2572,170349,251710,251842,252297,251677,251842,Flanker task,75,43948,75,yes,1024
100,100,584.9736842,584.9736842,black,legacy,legacy,legacy,0,incongruent,uniform,1,undefined,1,h,0,0,0,0,75,0,0,0,75,0,75,75,75,75,75,75,Wed Sep 25 23:00:05 2019,1500,The main experiment item,yes,fp-subject-1.osexp,/Users/freyaportales/Desktop/OpenSesame Assignments,no,mono,no,18,no,white,no,no,768,legacy,75,75,/Users/freyaportales/Desktop/OpenSesame Assignments/quickrun.csv,legacy,Kafkaesque Koffka,3.2.8,0,h,NA,h,NA,NA,h,510,NA,109515,NA,NA,510,2,legacy,1024,2,48000,-16,experiment,SSHSS,999,odd,112181,NA,NA,NA,252334,2655,NA,NA,NA,2572,170349,253450,253585,254097,253418,253585,Flanker task,76,44458,76,yes,1024
100,100,583.974026,583.974026,black,legacy,legacy,legacy,0,incongruent,uniform,1,undefined,1,s,0,0,0,0,76,0,0,0,76,0,76,76,76,76,76,76,Wed Sep 25 23:00:05 2019,1500,The main experiment item,yes,fp-subject-1.osexp,/Users/freyaportales/Desktop/OpenSesame Assignments,no,mono,no,18,no,white,no,no,768,legacy,76,76,/Users/freyaportales/Desktop/OpenSesame Assignments/quickrun.csv,legacy,Kafkaesque Koffka,3.2.8,0,s,NA,h,NA,NA,s,508,NA,109515,NA,NA,508,2,legacy,1024,2,48000,-16,experiment,HHSHH,999,odd,112181,NA,NA,NA,254133,2655,NA,NA,NA,2572,170349,255254,255389,255899,255222,255389,Flanker task,77,44966,77,yes,1024
100,100,582.0384615,582.0384615,black,legacy,legacy,legacy,0,congruent,uniform,1,undefined,1,s,0,0,0,0,77,0,0,0,77,0,77,77,77,77,77,77,Wed Sep 25 23:00:05 2019,1500,The main experiment item,yes,fp-subject-1.osexp,/Users/freyaportales/Desktop/OpenSesame Assignments,no,mono,no,18,no,white,no,no,768,legacy,77,77,/Users/freyaportales/Desktop/OpenSesame Assignments/quickrun.csv,legacy,Kafkaesque Koffka,3.2.8,0,s,NA,h,NA,NA,s,433,NA,109515,NA,NA,433,2,legacy,1024,2,48000,-16,experiment,SSSSS,999,odd,112181,NA,NA,NA,255934,2655,NA,NA,NA,2572,170349,257047,257191,257627,257015,257190,Flanker task,78,45399,78,yes,1024
100,100,579.6075949,579.6075949,black,legacy,legacy,legacy,0,incongruent,uniform,1,undefined,1,h,0,0,0,0,78,0,0,0,78,0,78,78,78,78,78,78,Wed Sep 25 23:00:05 2019,1500,The main experiment item,yes,fp-subject-1.osexp,/Users/freyaportales/Desktop/OpenSesame Assignments,no,mono,no,18,no,white,no,no,768,legacy,78,78,/Users/freyaportales/Desktop/OpenSesame Assignments/quickrun.csv,legacy,Kafkaesque Koffka,3.2.8,0,h,NA,h,NA,NA,h,390,NA,109515,NA,NA,390,2,legacy,1024,2,48000,-16,experiment,SSHSS,999,odd,112181,NA,NA,NA,257663,2655,NA,NA,NA,2572,170349,258780,258913,259305,258748,258913,Flanker task,79,45789,79,yes,1024
100,100,578.1875,578.1875,black,legacy,legacy,legacy,0,congruent,uniform,1,undefined,1,h,0,0,0,0,79,0,0,0,79,0,79,79,79,79,79,79,Wed Sep 25 23:00:05 2019,1500,The main experiment item,yes,fp-subject-1.osexp,/Users/freyaportales/Desktop/OpenSesame Assignments,no,mono,no,18,no,white,no,no,768,legacy,79,79,/Users/freyaportales/Desktop/OpenSesame Assignments/quickrun.csv,legacy,Kafkaesque Koffka,3.2.8,0,h,NA,h,NA,NA,h,466,NA,109515,NA,NA,466,2,legacy,1024,2,48000,-16,experiment,HHHHH,999,odd,112181,NA,NA,NA,259340,2655,NA,NA,NA,2572,170349,260459,260592,261060,260424,260592,Flanker task,80,46255,80,yes,1024
100,100,576.2716049,576.2716049,black,legacy,legacy,legacy,0,congruent,uniform,1,undefined,1,s,0,0,0,0,80,0,0,0,80,0,80,80,80,80,80,80,Wed Sep 25 23:00:05 2019,600,The main experiment item,yes,fp-subject-1.osexp,/Users/freyaportales/Desktop/OpenSesame Assignments,no,mono,no,18,no,white,no,no,768,legacy,0,79,/Users/freyaportales/Desktop/OpenSesame Assignments/quickrun.csv,legacy,Kafkaesque Koffka,3.2.8,0,s,NA,h,h,NA,s,423,NA,109515,36063,NA,423,2,legacy,1024,2,48000,-16,experiment,SSSSS,999,odd,112181,298217,NA,NA,261099,2655,262152,NA,NA,2572,170349,298338,298471,298896,298306,298471,Flanker task,81,46678,81,yes,1024
100,100,574.0487805,574.0487805,black,legacy,legacy,legacy,0,congruent,uniform,1,undefined,1,s,0,0,0,0,81,0,0,0,81,0,81,81,81,81,81,81,Wed Sep 25 23:00:05 2019,600,The main experiment item,yes,fp-subject-1.osexp,/Users/freyaportales/Desktop/OpenSesame Assignments,no,mono,no,18,no,white,no,no,768,legacy,1,79,/Users/freyaportales/Desktop/OpenSesame Assignments/quickrun.csv,legacy,Kafkaesque Koffka,3.2.8,0,s,NA,h,h,NA,s,394,NA,109515,36063,NA,394,2,legacy,1024,2,48000,-16,experiment,SSSSS,999,odd,112181,298217,NA,NA,298931,2655,262152,NA,NA,2572,170349,300045,300178,300575,300012,300178,Flanker task,82,47072,82,yes,1024
100,100,571.7590361,571.7590361,black,legacy,legacy,legacy,0,congruent,uniform,1,undefined,1,s,0,0,0,0,82,0,0,0,82,0,82,82,82,82,82,82,Wed Sep 25 23:00:05 2019,600,The main experiment item,yes,fp-subject-1.osexp,/Users/freyaportales/Desktop/OpenSesame Assignments,no,mono,no,18,no,white,no,no,768,legacy,2,79,/Users/freyaportales/Desktop/OpenSesame Assignments/quickrun.csv,legacy,Kafkaesque Koffka,3.2.8,0,s,NA,h,h,NA,s,384,NA,109515,36063,NA,384,2,legacy,1024,2,48000,-16,experiment,SSSSS,999,odd,112181,298217,NA,NA,300611,2655,262152,NA,NA,2572,170349,301736,301868,302254,301704,301868,Flanker task,83,47456,83,yes,1024
100,100,569.75,569.75,black,legacy,legacy,legacy,0,congruent,uniform,1,undefined,1,s,0,0,0,0,83,0,0,0,83,0,83,83,83,83,83,83,Wed Sep 25 23:00:05 2019,600,The main experiment item,yes,fp-subject-1.osexp,/Users/freyaportales/Desktop/OpenSesame Assignments,no,mono,no,18,no,white,no,no,768,legacy,3,79,/Users/freyaportales/Desktop/OpenSesame Assignments/quickrun.csv,legacy,Kafkaesque Koffka,3.2.8,0,s,NA,h,h,NA,s,403,NA,109515,36063,NA,403,2,legacy,1024,2,48000,-16,experiment,SSSSS,999,odd,112181,298217,NA,NA,302289,2655,262152,NA,NA,2572,170349,303405,303537,303943,303371,303537,Flanker task,84,47859,84,yes,1024
100,100,567.2470588,567.2470588,black,legacy,legacy,legacy,0,incongruent,uniform,1,undefined,1,h,0,0,0,0,84,0,0,0,84,0,84,84,84,84,84,84,Wed Sep 25 23:00:05 2019,600,The main experiment item,yes,fp-subject-1.osexp,/Users/freyaportales/Desktop/OpenSesame Assignments,no,mono,no,18,no,white,no,no,768,legacy,4,79,/Users/freyaportales/Desktop/OpenSesame Assignments/quickrun.csv,legacy,Kafkaesque Koffka,3.2.8,0,h,NA,h,h,NA,h,357,NA,109515,36063,NA,357,2,legacy,1024,2,48000,-16,experiment,SSHSS,999,odd,112181,298217,NA,NA,303986,2655,262152,NA,NA,2572,170349,305105,305251,305611,305071,305251,Flanker task,85,48216,85,yes,1024
100,100,564.627907,564.627907,black,legacy,legacy,legacy,0,congruent,uniform,1,undefined,1,h,0,0,0,0,85,0,0,0,85,0,85,85,85,85,85,85,Wed Sep 25 23:00:05 2019,600,The main experiment item,yes,fp-subject-1.osexp,/Users/freyaportales/Desktop/OpenSesame Assignments,no,mono,no,18,no,white,no,no,768,legacy,5,79,/Users/freyaportales/Desktop/OpenSesame Assignments/quickrun.csv,legacy,Kafkaesque Koffka,3.2.8,0,h,NA,h,h,NA,h,342,NA,109515,36063,NA,342,2,legacy,1024,2,48000,-16,experiment,HHHHH,999,odd,112181,298217,NA,NA,305644,2655,262152,NA,NA,2572,170349,306760,306893,307237,306728,306892,Flanker task,86,48558,86,yes,1024
100,100,565.8045977,565.8045977,black,legacy,legacy,legacy,0,congruent,uniform,1,undefined,1,h,0,0,0,0,86,0,0,0,86,0,86,86,86,86,86,86,Wed Sep 25 23:00:05 2019,600,The main experiment item,yes,fp-subject-1.osexp,/Users/freyaportales/Desktop/OpenSesame Assignments,no,mono,no,18,no,white,no,no,768,legacy,6,79,/Users/freyaportales/Desktop/OpenSesame Assignments/quickrun.csv,legacy,Kafkaesque Koffka,3.2.8,0,h,NA,h,h,NA,h,667,NA,109515,36063,NA,667,2,legacy,1024,2,48000,-16,experiment,HHHHH,999,odd,112181,298217,NA,NA,307273,2655,262152,NA,NA,2572,170349,308399,308532,309201,308365,308532,Flanker task,87,49225,87,yes,1024
98.86363636,98.86363636,563.9886364,563.9886364,black,legacy,legacy,legacy,0,congruent,uniform,0,undefined,0,h,0,0,0,0,87,0,0,0,87,0,87,87,87,87,87,87,Wed Sep 25 23:00:05 2019,600,The main experiment item,yes,fp-subject-1.osexp,/Users/freyaportales/Desktop/OpenSesame Assignments,no,mono,no,18,no,white,no,no,768,legacy,7,79,/Users/freyaportales/Desktop/OpenSesame Assignments/quickrun.csv,legacy,Kafkaesque Koffka,3.2.8,0,s,NA,h,h,NA,s,406,NA,109515,36063,NA,406,2,legacy,1024,2,48000,-16,experiment,HHHHH,999,odd,112181,298217,NA,NA,309768,2655,262152,NA,NA,2572,309236,310881,311013,311421,310849,311012,Flanker task,87,49631,88,yes,1024
97.75280899,97.75280899,562.7752809,562.7752809,black,legacy,legacy,legacy,0,congruent,uniform,0,undefined,0,s,0,0,0,0,88,0,0,0,88,0,88,88,88,88,88,88,Wed Sep 25 23:00:05 2019,600,The main experiment item,yes,fp-subject-1.osexp,/Users/freyaportales/Desktop/OpenSesame Assignments,no,mono,no,18,no,white,no,no,768,legacy,8,79,/Users/freyaportales/Desktop/OpenSesame Assignments/quickrun.csv,legacy,Kafkaesque Koffka,3.2.8,0,h,NA,h,h,NA,h,456,NA,109515,36063,NA,456,2,legacy,1024,2,48000,-16,experiment,SSSSS,999,odd,112181,298217,NA,NA,312000,2655,262152,NA,311466,2572,309236,313112,313244,313703,313080,313244,Flanker task,87,50087,89,yes,1024
96.66666667,96.66666667,560.0777778,560.0777778,black,legacy,legacy,legacy,0,incongruent,uniform,0,undefined,0,s,0,0,0,0,89,0,0,0,89,0,89,89,89,89,89,89,Wed Sep 25 23:00:05 2019,600,The main experiment item,yes,fp-subject-1.osexp,/Users/freyaportales/Desktop/OpenSesame Assignments,no,mono,no,18,no,white,no,no,768,legacy,9,79,/Users/freyaportales/Desktop/OpenSesame Assignments/quickrun.csv,legacy,Kafkaesque Koffka,3.2.8,0,h,NA,h,h,NA,h,320,NA,109515,36063,NA,320,2,legacy,1024,2,48000,-16,experiment,HHSHH,999,odd,112181,298217,NA,NA,314274,2655,262152,NA,313741,2572,309236,315390,315522,315844,315356,315522,Flanker task,87,50407,90,yes,1024
96.7032967,96.7032967,559.4615385,559.4615385,black,legacy,legacy,legacy,0,incongruent,uniform,1,undefined,1,s,0,0,0,0,90,0,0,0,90,0,90,90,90,90,90,90,Wed Sep 25 23:00:05 2019,600,The main experiment item,yes,fp-subject-1.osexp,/Users/freyaportales/Desktop/OpenSesame Assignments,no,mono,no,18,no,white,no,no,768,legacy,10,79,/Users/freyaportales/Desktop/OpenSesame Assignments/quickrun.csv,legacy,Kafkaesque Koffka,3.2.8,0,s,NA,h,h,NA,s,504,NA,109515,36063,NA,504,2,legacy,1024,2,48000,-16,experiment,HHSHH,999,odd,112181,298217,NA,NA,316412,2655,262152,NA,315880,2572,309236,317526,317659,318165,317495,317658,Flanker task,88,50911,91,yes,1024
96.73913043,96.73913043,557.9130435,557.9130435,black,legacy,legacy,legacy,0,congruent,uniform,1,undefined,1,s,0,0,0,0,91,0,0,0,91,0,91,91,91,91,91,91,Wed Sep 25 23:00:05 2019,600,The main experiment item,yes,fp-subject-1.osexp,/Users/freyaportales/Desktop/OpenSesame Assignments,no,mono,no,18,no,white,no,no,768,legacy,11,79,/Users/freyaportales/Desktop/OpenSesame Assignments/quickrun.csv,legacy,Kafkaesque Koffka,3.2.8,0,s,NA,h,h,NA,s,417,NA,109515,36063,NA,417,2,legacy,1024,2,48000,-16,experiment,SSSSS,999,odd,112181,298217,NA,NA,318204,2655,262152,NA,315880,2572,309236,319324,319457,319876,319291,319457,Flanker task,89,51328,92,yes,1024
96.77419355,96.77419355,556.0645161,556.0645161,black,legacy,legacy,legacy,0,incongruent,uniform,1,undefined,1,s,0,0,0,0,92,0,0,0,92,0,92,92,92,92,92,92,Wed Sep 25 23:00:05 2019,600,The main experiment item,yes,fp-subject-1.osexp,/Users/freyaportales/Desktop/OpenSesame Assignments,no,mono,no,18,no,white,no,no,768,legacy,12,79,/Users/freyaportales/Desktop/OpenSesame Assignments/quickrun.csv,legacy,Kafkaesque Koffka,3.2.8,0,s,NA,h,h,NA,s,386,NA,109515,36063,NA,386,2,legacy,1024,2,48000,-16,experiment,HHSHH,999,odd,112181,298217,NA,NA,319911,2655,262152,NA,315880,2572,309236,321024,321168,321556,320993,321167,Flanker task,90,51714,93,yes,1024
96.80851064,96.80851064,555.3723404,555.3723404,black,legacy,legacy,legacy,0,incongruent,uniform,1,undefined,1,h,0,0,0,0,93,0,0,0,93,0,93,93,93,93,93,93,Wed Sep 25 23:00:05 2019,600,The main experiment item,yes,fp-subject-1.osexp,/Users/freyaportales/Desktop/OpenSesame Assignments,no,mono,no,18,no,white,no,no,768,legacy,13,79,/Users/freyaportales/Desktop/OpenSesame Assignments/quickrun.csv,legacy,Kafkaesque Koffka,3.2.8,0,h,NA,h,h,NA,h,491,NA,109515,36063,NA,491,2,legacy,1024,2,48000,-16,experiment,SSHSS,999,odd,112181,298217,NA,NA,321594,2655,262152,NA,315880,2572,309236,322721,322853,323346,322689,322853,Flanker task,91,52205,94,yes,1024
96.84210526,96.84210526,554.0736842,554.0736842,black,legacy,legacy,legacy,0,congruent,uniform,1,undefined,1,h,0,0,0,0,94,0,0,0,94,0,94,94,94,94,94,94,Wed Sep 25 23:00:05 2019,600,The main experiment item,yes,fp-subject-1.osexp,/Users/freyaportales/Desktop/OpenSesame Assignments,no,mono,no,18,no,white,no,no,768,legacy,14,79,/Users/freyaportales/Desktop/OpenSesame Assignments/quickrun.csv,legacy,Kafkaesque Koffka,3.2.8,0,h,NA,h,h,NA,h,432,NA,109515,36063,NA,432,2,legacy,1024,2,48000,-16,experiment,HHHHH,999,odd,112181,298217,NA,NA,323382,2655,262152,NA,315880,2572,309236,324496,324629,325066,324464,324629,Flanker task,92,52637,95,yes,1024
96.875,96.875,552.5416667,552.5416667,black,legacy,legacy,legacy,0,congruent,uniform,1,undefined,1,h,0,0,0,0,95,0,0,0,95,0,95,95,95,95,95,95,Wed Sep 25 23:00:05 2019,600,The main experiment item,yes,fp-subject-1.osexp,/Users/freyaportales/Desktop/OpenSesame Assignments,no,mono,no,18,no,white,no,no,768,legacy,15,79,/Users/freyaportales/Desktop/OpenSesame Assignments/quickrun.csv,legacy,Kafkaesque Koffka,3.2.8,0,h,NA,h,h,NA,h,407,NA,109515,36063,NA,407,2,legacy,1024,2,48000,-16,experiment,HHHHH,999,odd,112181,298217,NA,NA,325102,2655,262152,NA,315880,2572,309236,326221,326353,326762,326188,326353,Flanker task,93,53044,96,yes,1024
95.87628866,95.87628866,550.185567,550.185567,black,legacy,legacy,legacy,0,incongruent,uniform,0,undefined,0,h,0,0,0,0,96,0,0,0,96,0,96,96,96,96,96,96,Wed Sep 25 23:00:05 2019,600,The main experiment item,yes,fp-subject-1.osexp,/Users/freyaportales/Desktop/OpenSesame Assignments,no,mono,no,18,no,white,no,no,768,legacy,16,79,/Users/freyaportales/Desktop/OpenSesame Assignments/quickrun.csv,legacy,Kafkaesque Koffka,3.2.8,0,s,NA,h,h,NA,s,324,NA,109515,36063,NA,324,2,legacy,1024,2,48000,-16,experiment,SSHSS,999,odd,112181,298217,NA,NA,326797,2655,262152,NA,315880,2572,309236,327910,328042,328368,327878,328042,Flanker task,93,53368,97,yes,1024
94.89795918,94.89795918,548.4183673,548.4183673,black,legacy,legacy,legacy,0,incongruent,uniform,0,undefined,0,h,0,0,0,0,97,0,0,0,97,0,97,97,97,97,97,97,Wed Sep 25 23:00:05 2019,600,The main experiment item,yes,fp-subject-1.osexp,/Users/freyaportales/Desktop/OpenSesame Assignments,no,mono,no,18,no,white,no,no,768,legacy,17,79,/Users/freyaportales/Desktop/OpenSesame Assignments/quickrun.csv,legacy,Kafkaesque Koffka,3.2.8,0,s,NA,h,h,NA,s,377,NA,109515,36063,NA,377,2,legacy,1024,2,48000,-16,experiment,SSHSS,999,odd,112181,298217,NA,NA,328939,2655,262152,NA,328407,2572,309236,330054,330187,330566,330020,330187,Flanker task,93,53745,98,yes,1024
94.94949495,94.94949495,547.6868687,547.6868687,black,legacy,legacy,legacy,0,congruent,uniform,1,undefined,1,h,0,0,0,0,98,0,0,0,98,0,98,98,98,98,98,98,Wed Sep 25 23:00:05 2019,600,The main experiment item,yes,fp-subject-1.osexp,/Users/freyaportales/Desktop/OpenSesame Assignments,no,mono,no,18,no,white,no,no,768,legacy,18,79,/Users/freyaportales/Desktop/OpenSesame Assignments/quickrun.csv,legacy,Kafkaesque Koffka,3.2.8,0,h,NA,h,h,NA,h,476,NA,109515,36063,NA,476,2,legacy,1024,2,48000,-16,experiment,HHHHH,999,odd,112181,298217,NA,NA,331144,2655,262152,NA,330611,2572,309236,332258,332392,332870,332226,332392,Flanker task,94,54221,99,yes,1024
95,95,545.9,545.9,black,legacy,legacy,legacy,0,congruent,uniform,1,undefined,1,s,0,0,0,0,99,0,0,0,99,0,99,99,99,99,99,99,Wed Sep 25 23:00:05 2019,600,The main experiment item,yes,fp-subject-1.osexp,/Users/freyaportales/Desktop/OpenSesame Assignments,no,mono,no,18,no,white,no,no,768,legacy,19,79,/Users/freyaportales/Desktop/OpenSesame Assignments/quickrun.csv,legacy,Kafkaesque Koffka,3.2.8,0,s,NA,h,h,NA,s,369,NA,109515,36063,NA,369,2,legacy,1024,2,48000,-16,experiment,SSSSS,999,odd,112181,298217,NA,NA,332906,2655,262152,NA,330611,2572,309236,334028,334161,334532,333997,334161,Flanker task,95,54590,100,yes,1024
95.04950495,95.04950495,544.8415842,544.8415842,black,legacy,legacy,legacy,0,congruent,uniform,1,undefined,1,h,0,0,0,0,100,0,0,0,100,0,100,100,100,100,100,100,Wed Sep 25 23:00:05 2019,600,The main experiment item,yes,fp-subject-1.osexp,/Users/freyaportales/Desktop/OpenSesame Assignments,no,mono,no,18,no,white,no,no,768,legacy,20,79,/Users/freyaportales/Desktop/OpenSesame Assignments/quickrun.csv,legacy,Kafkaesque Koffka,3.2.8,0,h,NA,h,h,NA,h,439,NA,109515,36063,NA,439,2,legacy,1024,2,48000,-16,experiment,HHHHH,999,odd,112181,298217,NA,NA,334566,2655,262152,NA,330611,2572,309236,335679,335812,336254,335647,335811,Flanker task,96,55029,101,yes,1024
95.09803922,95.09803922,544.245098,544.245098,black,legacy,legacy,legacy,0,incongruent,uniform,1,undefined,1,s,0,0,0,0,101,0,0,0,101,0,101,101,101,101,101,101,Wed Sep 25 23:00:05 2019,600,The main experiment item,yes,fp-subject-1.osexp,/Users/freyaportales/Desktop/OpenSesame Assignments,no,mono,no,18,no,white,no,no,768,legacy,21,79,/Users/freyaportales/Desktop/OpenSesame Assignments/quickrun.csv,legacy,Kafkaesque Koffka,3.2.8,0,s,NA,h,h,NA,s,484,NA,109515,36063,NA,484,2,legacy,1024,2,48000,-16,experiment,HHSHH,999,odd,112181,298217,NA,NA,336292,2655,262152,NA,330611,2572,309236,337432,337564,338050,337398,337564,Flanker task,97,55513,102,yes,1024
95.14563107,95.14563107,543.0291262,543.0291262,black,legacy,legacy,legacy,0,congruent,uniform,1,undefined,1,h,0,0,0,0,102,0,0,0,102,0,102,102,102,102,102,102,Wed Sep 25 23:00:05 2019,600,The main experiment item,yes,fp-subject-1.osexp,/Users/freyaportales/Desktop/OpenSesame Assignments,no,mono,no,18,no,white,no,no,768,legacy,22,79,/Users/freyaportales/Desktop/OpenSesame Assignments/quickrun.csv,legacy,Kafkaesque Koffka,3.2.8,0,h,NA,h,h,NA,h,419,NA,109515,36063,NA,419,2,legacy,1024,2,48000,-16,experiment,HHHHH,999,odd,112181,298217,NA,NA,338085,2655,262152,NA,330611,2572,309236,339199,339331,339753,339167,339331,Flanker task,98,55932,103,yes,1024
95.19230769,95.19230769,541.8365385,541.8365385,black,legacy,legacy,legacy,0,congruent,uniform,1,undefined,1,h,0,0,0,0,103,0,0,0,103,0,103,103,103,103,103,103,Wed Sep 25 23:00:05 2019,600,The main experiment item,yes,fp-subject-1.osexp,/Users/freyaportales/Desktop/OpenSesame Assignments,no,mono,no,18,no,white,no,no,768,legacy,23,79,/Users/freyaportales/Desktop/OpenSesame Assignments/quickrun.csv,legacy,Kafkaesque Koffka,3.2.8,0,h,NA,h,h,NA,h,419,NA,109515,36063,NA,419,2,legacy,1024,2,48000,-16,experiment,HHHHH,999,odd,112181,298217,NA,NA,339796,2655,262152,NA,330611,2572,309236,340919,341051,341472,340886,341051,Flanker task,99,56351,104,yes,1024
94.28571429,94.28571429,540.7333333,540.7333333,black,legacy,legacy,legacy,0,incongruent,uniform,0,undefined,0,s,0,0,0,0,104,0,0,0,104,0,104,104,104,104,104,104,Wed Sep 25 23:00:05 2019,600,The main experiment item,yes,fp-subject-1.osexp,/Users/freyaportales/Desktop/OpenSesame Assignments,no,mono,no,18,no,white,no,no,768,legacy,24,79,/Users/freyaportales/Desktop/OpenSesame Assignments/quickrun.csv,legacy,Kafkaesque Koffka,3.2.8,0,h,NA,h,h,NA,h,426,NA,109515,36063,NA,426,2,legacy,1024,2,48000,-16,experiment,HHSHH,999,odd,112181,298217,NA,NA,341507,2655,262152,NA,330611,2572,309236,342623,342755,343186,342589,342755,Flanker task,99,56777,105,yes,1024
94.33962264,94.33962264,539.2641509,539.2641509,black,legacy,legacy,legacy,0,congruent,uniform,1,undefined,1,s,0,0,0,0,105,0,0,0,105,0,105,105,105,105,105,105,Wed Sep 25 23:00:05 2019,600,The main experiment item,yes,fp-subject-1.osexp,/Users/freyaportales/Desktop/OpenSesame Assignments,no,mono,no,18,no,white,no,no,768,legacy,25,79,/Users/freyaportales/Desktop/OpenSesame Assignments/quickrun.csv,legacy,Kafkaesque Koffka,3.2.8,0,s,NA,h,h,NA,s,385,NA,109515,36063,NA,385,2,legacy,1024,2,48000,-16,experiment,SSSSS,999,odd,112181,298217,NA,NA,343760,2655,262152,NA,343228,2572,309236,344873,345005,345393,344841,345005,Flanker task,100,57162,106,yes,1024
94.39252336,94.39252336,538.5140187,538.5140187,black,legacy,legacy,legacy,0,incongruent,uniform,1,undefined,1,h,0,0,0,0,106,0,0,0,106,0,106,106,106,106,106,106,Wed Sep 25 23:00:05 2019,600,The main experiment item,yes,fp-subject-1.osexp,/Users/freyaportales/Desktop/OpenSesame Assignments,no,mono,no,18,no,white,no,no,768,legacy,26,79,/Users/freyaportales/Desktop/OpenSesame Assignments/quickrun.csv,legacy,Kafkaesque Koffka,3.2.8,0,h,NA,h,h,NA,h,459,NA,109515,36063,NA,459,2,legacy,1024,2,48000,-16,experiment,SSHSS,999,odd,112181,298217,NA,NA,345429,2655,262152,NA,343228,2572,309236,346546,346678,347140,346513,346678,Flanker task,101,57621,107,yes,1024
94.44444444,94.44444444,538.537037,538.537037,black,legacy,legacy,legacy,0,incongruent,uniform,1,undefined,1,s,0,0,0,0,107,0,0,0,107,0,107,107,107,107,107,107,Wed Sep 25 23:00:05 2019,600,The main experiment item,yes,fp-subject-1.osexp,/Users/freyaportales/Desktop/OpenSesame Assignments,no,mono,no,18,no,white,no,no,768,legacy,27,79,/Users/freyaportales/Desktop/OpenSesame Assignments/quickrun.csv,legacy,Kafkaesque Koffka,3.2.8,0,s,NA,h,h,NA,s,541,NA,109515,36063,NA,541,2,legacy,1024,2,48000,-16,experiment,HHSHH,999,odd,112181,298217,NA,NA,347174,2655,262152,NA,343228,2572,309236,348289,348422,348966,348255,348422,Flanker task,102,58162,108,yes,1024
94.49541284,94.49541284,537.2477064,537.2477064,black,legacy,legacy,legacy,0,incongruent,uniform,1,undefined,1,s,0,0,0,0,108,0,0,0,108,0,108,108,108,108,108,108,Wed Sep 25 23:00:05 2019,600,The main experiment item,yes,fp-subject-1.osexp,/Users/freyaportales/Desktop/OpenSesame Assignments,no,mono,no,18,no,white,no,no,768,legacy,28,79,/Users/freyaportales/Desktop/OpenSesame Assignments/quickrun.csv,legacy,Kafkaesque Koffka,3.2.8,0,s,NA,h,h,NA,s,398,NA,109515,36063,NA,398,2,legacy,1024,2,48000,-16,experiment,HHSHH,999,odd,112181,298217,NA,NA,349002,2655,262152,NA,343228,2572,309236,350126,350258,350659,350094,350258,Flanker task,103,58560,109,yes,1024
94.54545455,94.54545455,535.5818182,535.5818182,black,legacy,legacy,legacy,0,congruent,uniform,1,undefined,1,s,0,0,0,0,109,0,0,0,109,0,109,109,109,109,109,109,Wed Sep 25 23:00:05 2019,600,The main experiment item,yes,fp-subject-1.osexp,/Users/freyaportales/Desktop/OpenSesame Assignments,no,mono,no,18,no,white,no,no,768,legacy,29,79,/Users/freyaportales/Desktop/OpenSesame Assignments/quickrun.csv,legacy,Kafkaesque Koffka,3.2.8,0,s,NA,h,h,NA,s,354,NA,109515,36063,NA,354,2,legacy,1024,2,48000,-16,experiment,SSSSS,999,odd,112181,298217,NA,NA,350694,2655,262152,NA,343228,2572,309236,351807,351939,352296,351774,351939,Flanker task,104,58914,110,yes,1024
94.59459459,94.59459459,535.0630631,535.0630631,black,legacy,legacy,legacy,0,incongruent,uniform,1,undefined,1,s,0,0,0,0,110,0,0,0,110,0,110,110,110,110,110,110,Wed Sep 25 23:00:05 2019,600,The main experiment item,yes,fp-subject-1.osexp,/Users/freyaportales/Desktop/OpenSesame Assignments,no,mono,no,18,no,white,no,no,768,legacy,30,79,/Users/freyaportales/Desktop/OpenSesame Assignments/quickrun.csv,legacy,Kafkaesque Koffka,3.2.8,0,s,NA,h,h,NA,s,478,NA,109515,36063,NA,478,2,legacy,1024,2,48000,-16,experiment,HHSHH,999,odd,112181,298217,NA,NA,352334,2655,262152,NA,343228,2572,309236,353455,353587,354068,353421,353587,Flanker task,105,59392,111,yes,1024
94.64285714,94.64285714,535.3482143,535.3482143,black,legacy,legacy,legacy,0,incongruent,uniform,1,undefined,1,h,0,0,0,0,111,0,0,0,111,0,111,111,111,111,111,111,Wed Sep 25 23:00:05 2019,600,The main experiment item,yes,fp-subject-1.osexp,/Users/freyaportales/Desktop/OpenSesame Assignments,no,mono,no,18,no,white,no,no,768,legacy,31,79,/Users/freyaportales/Desktop/OpenSesame Assignments/quickrun.csv,legacy,Kafkaesque Koffka,3.2.8,0,h,NA,h,h,NA,h,567,NA,109515,36063,NA,567,2,legacy,1024,2,48000,-16,experiment,SSHSS,999,odd,112181,298217,NA,NA,354102,2655,262152,NA,343228,2572,309236,355216,355355,355925,355183,355354,Flanker task,106,59959,112,yes,1024
94.69026549,94.69026549,533.7964602,533.7964602,black,legacy,legacy,legacy,0,incongruent,uniform,1,undefined,1,s,0,0,0,0,112,0,0,0,112,0,112,112,112,112,112,112,Wed Sep 25 23:00:05 2019,600,The main experiment item,yes,fp-subject-1.osexp,/Users/freyaportales/Desktop/OpenSesame Assignments,no,mono,no,18,no,white,no,no,768,legacy,32,79,/Users/freyaportales/Desktop/OpenSesame Assignments/quickrun.csv,legacy,Kafkaesque Koffka,3.2.8,0,s,NA,h,h,NA,s,360,NA,109515,36063,NA,360,2,legacy,1024,2,48000,-16,experiment,HHSHH,999,odd,112181,298217,NA,NA,355965,2655,262152,NA,343228,2572,309236,357077,357210,357573,357045,357210,Flanker task,107,60319,113,yes,1024
93.85964912,93.85964912,532.1052632,532.1052632,black,legacy,legacy,legacy,0,congruent,uniform,0,undefined,0,h,0,0,0,0,113,0,0,0,113,0,113,113,113,113,113,113,Wed Sep 25 23:00:05 2019,600,The main experiment item,yes,fp-subject-1.osexp,/Users/freyaportales/Desktop/OpenSesame Assignments,no,mono,no,18,no,white,no,no,768,legacy,33,79,/Users/freyaportales/Desktop/OpenSesame Assignments/quickrun.csv,legacy,Kafkaesque Koffka,3.2.8,0,s,NA,h,h,NA,s,341,NA,109515,36063,NA,341,2,legacy,1024,2,48000,-16,experiment,HHHHH,999,odd,112181,298217,NA,NA,357607,2655,262152,NA,343228,2572,309236,358722,358854,359198,358690,358854,Flanker task,107,60660,114,yes,1024
93.91304348,93.91304348,531.5652174,531.5652174,black,legacy,legacy,legacy,0,incongruent,uniform,1,undefined,1,s,0,0,0,0,114,0,0,0,114,0,114,114,114,114,114,114,Wed Sep 25 23:00:05 2019,600,The main experiment item,yes,fp-subject-1.osexp,/Users/freyaportales/Desktop/OpenSesame Assignments,no,mono,no,18,no,white,no,no,768,legacy,34,79,/Users/freyaportales/Desktop/OpenSesame Assignments/quickrun.csv,legacy,Kafkaesque Koffka,3.2.8,0,s,NA,h,h,NA,s,470,NA,109515,36063,NA,470,2,legacy,1024,2,48000,-16,experiment,HHSHH,999,odd,112181,298217,NA,NA,359772,2655,262152,NA,359240,2572,309236,360888,361019,361492,360855,361019,Flanker task,108,61130,115,yes,1024
93.96551724,93.96551724,530.5517241,530.5517241,black,legacy,legacy,legacy,0,congruent,uniform,1,undefined,1,h,0,0,0,0,115,0,0,0,115,0,115,115,115,115,115,115,Wed Sep 25 23:00:05 2019,600,The main experiment item,yes,fp-subject-1.osexp,/Users/freyaportales/Desktop/OpenSesame Assignments,no,mono,no,18,no,white,no,no,768,legacy,35,79,/Users/freyaportales/Desktop/OpenSesame Assignments/quickrun.csv,legacy,Kafkaesque Koffka,3.2.8,0,h,NA,h,h,NA,h,414,NA,109515,36063,NA,414,2,legacy,1024,2,48000,-16,experiment,HHHHH,999,odd,112181,298217,NA,NA,361528,2655,262152,NA,359240,2572,309236,362654,362786,363203,362621,362786,Flanker task,109,61544,116,yes,1024
94.01709402,94.01709402,529.9401709,529.9401709,black,legacy,legacy,legacy,0,incongruent,uniform,1,undefined,1,s,0,0,0,0,116,0,0,0,116,0,116,116,116,116,116,116,Wed Sep 25 23:00:05 2019,600,The main experiment item,yes,fp-subject-1.osexp,/Users/freyaportales/Desktop/OpenSesame Assignments,no,mono,no,18,no,white,no,no,768,legacy,36,79,/Users/freyaportales/Desktop/OpenSesame Assignments/quickrun.csv,legacy,Kafkaesque Koffka,3.2.8,0,s,NA,h,h,NA,s,459,NA,109515,36063,NA,459,2,legacy,1024,2,48000,-16,experiment,HHSHH,999,odd,112181,298217,NA,NA,363237,2655,262152,NA,359240,2572,309236,364353,364486,364948,364320,364485,Flanker task,110,62003,117,yes,1024
94.06779661,94.06779661,528.7627119,528.7627119,black,legacy,legacy,legacy,0,congruent,uniform,1,undefined,1,s,0,0,0,0,117,0,0,0,117,0,117,117,117,117,117,117,Wed Sep 25 23:00:05 2019,600,The main experiment item,yes,fp-subject-1.osexp,/Users/freyaportales/Desktop/OpenSesame Assignments,no,mono,no,18,no,white,no,no,768,legacy,37,79,/Users/freyaportales/Desktop/OpenSesame Assignments/quickrun.csv,legacy,Kafkaesque Koffka,3.2.8,0,s,NA,h,h,NA,s,391,NA,109515,36063,NA,391,2,legacy,1024,2,48000,-16,experiment,SSSSS,999,odd,112181,298217,NA,NA,364984,2655,262152,NA,359240,2572,309236,366106,366238,366632,366073,366238,Flanker task,111,62394,118,yes,1024
94.11764706,94.11764706,528.0840336,528.0840336,black,legacy,legacy,legacy,0,incongruent,uniform,1,undefined,1,s,0,0,0,0,118,0,0,0,118,0,118,118,118,118,118,118,Wed Sep 25 23:00:05 2019,600,The main experiment item,yes,fp-subject-1.osexp,/Users/freyaportales/Desktop/OpenSesame Assignments,no,mono,no,18,no,white,no,no,768,legacy,38,79,/Users/freyaportales/Desktop/OpenSesame Assignments/quickrun.csv,legacy,Kafkaesque Koffka,3.2.8,0,s,NA,h,h,NA,s,448,NA,109515,36063,NA,448,2,legacy,1024,2,48000,-16,experiment,HHSHH,999,odd,112181,298217,NA,NA,366667,2655,262152,NA,359240,2572,309236,367782,367914,368365,367750,367914,Flanker task,112,62842,119,yes,1024
94.16666667,94.16666667,527.4083333,527.4083333,black,legacy,legacy,legacy,0,congruent,uniform,1,undefined,1,h,0,0,0,0,119,0,0,0,119,0,119,119,119,119,119,119,Wed Sep 25 23:00:05 2019,600,The main experiment item,yes,fp-subject-1.osexp,/Users/freyaportales/Desktop/OpenSesame Assignments,no,mono,no,18,no,white,no,no,768,legacy,39,79,/Users/freyaportales/Desktop/OpenSesame Assignments/quickrun.csv,legacy,Kafkaesque Koffka,3.2.8,0,h,NA,h,h,NA,h,447,NA,109515,36063,NA,447,2,legacy,1024,2,48000,-16,experiment,HHHHH,999,odd,112181,298217,NA,NA,368405,2655,262152,NA,359240,2572,309236,369527,369659,370109,369495,369659,Flanker task,113,63289,120,yes,1024
93.38842975,93.38842975,527.1487603,527.1487603,black,legacy,legacy,legacy,0,congruent,uniform,0,undefined,0,h,0,0,0,0,120,0,0,0,120,0,120,120,120,120,120,120,Wed Sep 25 23:00:05 2019,600,The main experiment item,yes,fp-subject-1.osexp,/Users/freyaportales/Desktop/OpenSesame Assignments,no,mono,no,18,no,white,no,no,768,legacy,40,79,/Users/freyaportales/Desktop/OpenSesame Assignments/quickrun.csv,legacy,Kafkaesque Koffka,3.2.8,0,s,NA,h,h,NA,s,496,NA,109515,36063,NA,496,2,legacy,1024,2,48000,-16,experiment,HHHHH,999,odd,112181,298217,NA,NA,370143,2655,262152,NA,359240,2572,309236,371257,371390,371890,371224,371390,Flanker task,113,63785,121,yes,1024
93.44262295,93.44262295,526.7622951,526.7622951,black,legacy,legacy,legacy,0,incongruent,uniform,1,undefined,1,h,0,0,0,0,121,0,0,0,121,0,121,121,121,121,121,121,Wed Sep 25 23:00:05 2019,600,The main experiment item,yes,fp-subject-1.osexp,/Users/freyaportales/Desktop/OpenSesame Assignments,no,mono,no,18,no,white,no,no,768,legacy,41,79,/Users/freyaportales/Desktop/OpenSesame Assignments/quickrun.csv,legacy,Kafkaesque Koffka,3.2.8,0,h,NA,h,h,NA,h,480,NA,109515,36063,NA,480,2,legacy,1024,2,48000,-16,experiment,SSHSS,999,odd,112181,298217,NA,NA,372459,2655,262152,NA,371926,2572,309236,373574,373707,374190,373540,373707,Flanker task,114,64265,122,yes,1024
93.49593496,93.49593496,525.6341463,525.6341463,black,legacy,legacy,legacy,0,congruent,uniform,1,undefined,1,s,0,0,0,0,122,0,0,0,122,0,122,122,122,122,122,122,Wed Sep 25 23:00:05 2019,600,The main experiment item,yes,fp-subject-1.osexp,/Users/freyaportales/Desktop/OpenSesame Assignments,no,mono,no,18,no,white,no,no,768,legacy,42,79,/Users/freyaportales/Desktop/OpenSesame Assignments/quickrun.csv,legacy,Kafkaesque Koffka,3.2.8,0,s,NA,h,h,NA,s,388,NA,109515,36063,NA,388,2,legacy,1024,2,48000,-16,experiment,SSSSS,999,odd,112181,298217,NA,NA,374236,2655,262152,NA,371926,2572,309236,375354,375496,375886,375322,375496,Flanker task,115,64653,123,yes,1024
93.5483871,93.5483871,524.7419355,524.7419355,black,legacy,legacy,legacy,0,congruent,uniform,1,undefined,1,s,0,0,0,0,123,0,0,0,123,0,123,123,123,123,123,123,Wed Sep 25 23:00:05 2019,600,The main experiment item,yes,fp-subject-1.osexp,/Users/freyaportales/Desktop/OpenSesame Assignments,no,mono,no,18,no,white,no,no,768,legacy,43,79,/Users/freyaportales/Desktop/OpenSesame Assignments/quickrun.csv,legacy,Kafkaesque Koffka,3.2.8,0,s,NA,h,h,NA,s,415,NA,109515,36063,NA,415,2,legacy,1024,2,48000,-16,experiment,SSSSS,999,odd,112181,298217,NA,NA,375921,2655,262152,NA,371926,2572,309236,377033,377165,377583,377001,377165,Flanker task,116,65068,124,yes,1024
93.6,93.6,523.984,523.984,black,legacy,legacy,legacy,0,incongruent,uniform,1,undefined,1,s,0,0,0,0,124,0,0,0,124,0,124,124,124,124,124,124,Wed Sep 25 23:00:05 2019,600,The main experiment item,yes,fp-subject-1.osexp,/Users/freyaportales/Desktop/OpenSesame Assignments,no,mono,no,18,no,white,no,no,768,legacy,44,79,/Users/freyaportales/Desktop/OpenSesame Assignments/quickrun.csv,legacy,Kafkaesque Koffka,3.2.8,0,s,NA,h,h,NA,s,430,NA,109515,36063,NA,430,2,legacy,1024,2,48000,-16,experiment,HHSHH,999,odd,112181,298217,NA,NA,377619,2655,262152,NA,371926,2572,309236,378743,378875,379308,378711,378875,Flanker task,117,65498,125,yes,1024
93.65079365,93.65079365,522.9920635,522.9920635,black,legacy,legacy,legacy,0,congruent,uniform,1,undefined,1,s,0,0,0,0,125,0,0,0,125,0,125,125,125,125,125,125,Wed Sep 25 23:00:05 2019,600,The main experiment item,yes,fp-subject-1.osexp,/Users/freyaportales/Desktop/OpenSesame Assignments,no,mono,no,18,no,white,no,no,768,legacy,45,79,/Users/freyaportales/Desktop/OpenSesame Assignments/quickrun.csv,legacy,Kafkaesque Koffka,3.2.8,0,s,NA,h,h,NA,s,399,NA,109515,36063,NA,399,2,legacy,1024,2,48000,-16,experiment,SSSSS,999,odd,112181,298217,NA,NA,379342,2655,262152,NA,371926,2572,309236,380457,380590,380993,380425,380589,Flanker task,118,65897,126,yes,1024
93.7007874,93.7007874,522.0393701,522.0393701,black,legacy,legacy,legacy,0,congruent,uniform,1,undefined,1,h,0,0,0,0,126,0,0,0,126,0,126,126,126,126,126,126,Wed Sep 25 23:00:05 2019,600,The main experiment item,yes,fp-subject-1.osexp,/Users/freyaportales/Desktop/OpenSesame Assignments,no,mono,no,18,no,white,no,no,768,legacy,46,79,/Users/freyaportales/Desktop/OpenSesame Assignments/quickrun.csv,legacy,Kafkaesque Koffka,3.2.8,0,h,NA,h,h,NA,h,402,NA,109515,36063,NA,402,2,legacy,1024,2,48000,-16,experiment,HHHHH,999,odd,112181,298217,NA,NA,381033,2655,262152,NA,371926,2572,309236,382151,382284,382689,382119,382284,Flanker task,119,66299,127,yes,1024
93.75,93.75,521.078125,521.078125,black,legacy,legacy,legacy,0,congruent,uniform,1,undefined,1,h,0,0,0,0,127,0,0,0,127,0,127,127,127,127,127,127,Wed Sep 25 23:00:05 2019,600,The main experiment item,yes,fp-subject-1.osexp,/Users/freyaportales/Desktop/OpenSesame Assignments,no,mono,no,18,no,white,no,no,768,legacy,47,79,/Users/freyaportales/Desktop/OpenSesame Assignments/quickrun.csv,legacy,Kafkaesque Koffka,3.2.8,0,h,NA,h,h,NA,h,399,NA,109515,36063,NA,399,2,legacy,1024,2,48000,-16,experiment,HHHHH,999,odd,112181,298217,NA,NA,382723,2655,262152,NA,371926,2572,309236,383837,383969,384373,383804,383969,Flanker task,120,66698,128,yes,1024
93.02325581,93.02325581,519.9612403,519.9612403,black,legacy,legacy,legacy,0,incongruent,uniform,0,undefined,0,h,0,0,0,0,128,0,0,0,128,0,128,128,128,128,128,128,Wed Sep 25 23:00:05 2019,600,The main experiment item,yes,fp-subject-1.osexp,/Users/freyaportales/Desktop/OpenSesame Assignments,no,mono,no,18,no,white,no,no,768,legacy,48,79,/Users/freyaportales/Desktop/OpenSesame Assignments/quickrun.csv,legacy,Kafkaesque Koffka,3.2.8,0,s,NA,h,h,NA,s,377,NA,109515,36063,NA,377,2,legacy,1024,2,48000,-16,experiment,SSHSS,999,odd,112181,298217,NA,NA,384415,2655,262152,NA,371926,2572,309236,385534,385666,386046,385502,385665,Flanker task,120,67075,129,yes,1024
93.07692308,93.07692308,518.8615385,518.8615385,black,legacy,legacy,legacy,0,congruent,uniform,1,undefined,1,h,0,0,0,0,129,0,0,0,129,0,129,129,129,129,129,129,Wed Sep 25 23:00:05 2019,600,The main experiment item,yes,fp-subject-1.osexp,/Users/freyaportales/Desktop/OpenSesame Assignments,no,mono,no,18,no,white,no,no,768,legacy,49,79,/Users/freyaportales/Desktop/OpenSesame Assignments/quickrun.csv,legacy,Kafkaesque Koffka,3.2.8,0,h,NA,h,h,NA,h,377,NA,109515,36063,NA,377,2,legacy,1024,2,48000,-16,experiment,HHHHH,999,odd,112181,298217,NA,NA,386613,2655,262152,NA,386081,2572,309236,387727,387859,388239,387694,387859,Flanker task,121,67452,130,yes,1024
93.12977099,93.12977099,517.9770992,517.9770992,black,legacy,legacy,legacy,0,congruent,uniform,1,undefined,1,s,0,0,0,0,130,0,0,0,130,0,130,130,130,130,130,130,Wed Sep 25 23:00:05 2019,600,The main experiment item,yes,fp-subject-1.osexp,/Users/freyaportales/Desktop/OpenSesame Assignments,no,mono,no,18,no,white,no,no,768,legacy,50,79,/Users/freyaportales/Desktop/OpenSesame Assignments/quickrun.csv,legacy,Kafkaesque Koffka,3.2.8,0,s,NA,h,h,NA,s,403,NA,109515,36063,NA,403,2,legacy,1024,2,48000,-16,experiment,SSSSS,999,odd,112181,298217,NA,NA,388273,2655,262152,NA,386081,2572,309236,389388,389520,389926,389354,389520,Flanker task,122,67855,131,yes,1024
93.18181818,93.18181818,518.469697,518.469697,black,legacy,legacy,legacy,0,incongruent,uniform,1,undefined,1,s,0,0,0,0,131,0,0,0,131,0,131,131,131,131,131,131,Wed Sep 25 23:00:05 2019,600,The main experiment item,yes,fp-subject-1.osexp,/Users/freyaportales/Desktop/OpenSesame Assignments,no,mono,no,18,no,white,no,no,768,legacy,51,79,/Users/freyaportales/Desktop/OpenSesame Assignments/quickrun.csv,legacy,Kafkaesque Koffka,3.2.8,0,s,NA,h,h,NA,s,583,NA,109515,36063,NA,583,2,legacy,1024,2,48000,-16,experiment,HHSHH,999,odd,112181,298217,NA,NA,389960,2655,262152,NA,386081,2572,309236,391073,391206,391792,391041,391206,Flanker task,123,68438,132,yes,1024
93.23308271,93.23308271,517.5338346,517.5338346,black,legacy,legacy,legacy,0,congruent,uniform,1,undefined,1,h,0,0,0,0,132,0,0,0,132,0,132,132,132,132,132,132,Wed Sep 25 23:00:05 2019,600,The main experiment item,yes,fp-subject-1.osexp,/Users/freyaportales/Desktop/OpenSesame Assignments,no,mono,no,18,no,white,no,no,768,legacy,52,79,/Users/freyaportales/Desktop/OpenSesame Assignments/quickrun.csv,legacy,Kafkaesque Koffka,3.2.8,0,h,NA,h,h,NA,h,394,NA,109515,36063,NA,394,2,legacy,1024,2,48000,-16,experiment,HHHHH,999,odd,112181,298217,NA,NA,391828,2655,262152,NA,386081,2572,309236,392948,393081,393478,392916,393081,Flanker task,124,68832,133,yes,1024
93.28358209,93.28358209,517.4925373,517.4925373,black,legacy,legacy,legacy,0,incongruent,uniform,1,undefined,1,s,0,0,0,0,133,0,0,0,133,0,133,133,133,133,133,133,Wed Sep 25 23:00:05 2019,600,The main experiment item,yes,fp-subject-1.osexp,/Users/freyaportales/Desktop/OpenSesame Assignments,no,mono,no,18,no,white,no,no,768,legacy,53,79,/Users/freyaportales/Desktop/OpenSesame Assignments/quickrun.csv,legacy,Kafkaesque Koffka,3.2.8,0,s,NA,h,h,NA,s,512,NA,109515,36063,NA,512,2,legacy,1024,2,48000,-16,experiment,HHSHH,999,odd,112181,298217,NA,NA,393512,2655,262152,NA,386081,2572,309236,394628,394761,395276,394595,394760,Flanker task,125,69344,134,yes,1024
93.33333333,93.33333333,516.9259259,516.9259259,black,legacy,legacy,legacy,0,incongruent,uniform,1,undefined,1,h,0,0,0,0,134,0,0,0,134,0,134,134,134,134,134,134,Wed Sep 25 23:00:05 2019,600,The main experiment item,yes,fp-subject-1.osexp,/Users/freyaportales/Desktop/OpenSesame Assignments,no,mono,no,18,no,white,no,no,768,legacy,54,79,/Users/freyaportales/Desktop/OpenSesame Assignments/quickrun.csv,legacy,Kafkaesque Koffka,3.2.8,0,h,NA,h,h,NA,h,441,NA,109515,36063,NA,441,2,legacy,1024,2,48000,-16,experiment,SSHSS,999,odd,112181,298217,NA,NA,395313,2655,262152,NA,386081,2572,309236,396433,396565,397009,396401,396565,Flanker task,126,69785,135,yes,1024
93.38235294,93.38235294,516.1764706,516.1764706,black,legacy,legacy,legacy,0,incongruent,uniform,1,undefined,1,s,0,0,0,0,135,0,0,0,135,0,135,135,135,135,135,135,Wed Sep 25 23:00:05 2019,600,The main experiment item,yes,fp-subject-1.osexp,/Users/freyaportales/Desktop/OpenSesame Assignments,no,mono,no,18,no,white,no,no,768,legacy,55,79,/Users/freyaportales/Desktop/OpenSesame Assignments/quickrun.csv,legacy,Kafkaesque Koffka,3.2.8,0,s,NA,h,h,NA,s,415,NA,109515,36063,NA,415,2,legacy,1024,2,48000,-16,experiment,HHSHH,999,odd,112181,298217,NA,NA,397043,2655,262152,NA,386081,2572,309236,398156,398288,398706,398124,398288,Flanker task,127,70200,136,yes,1024
93.43065693,93.43065693,515.7080292,515.7080292,black,legacy,legacy,legacy,0,incongruent,uniform,1,undefined,1,s,0,0,0,0,136,0,0,0,136,0,136,136,136,136,136,136,Wed Sep 25 23:00:05 2019,600,The main experiment item,yes,fp-subject-1.osexp,/Users/freyaportales/Desktop/OpenSesame Assignments,no,mono,no,18,no,white,no,no,768,legacy,56,79,/Users/freyaportales/Desktop/OpenSesame Assignments/quickrun.csv,legacy,Kafkaesque Koffka,3.2.8,0,s,NA,h,h,NA,s,452,NA,109515,36063,NA,452,2,legacy,1024,2,48000,-16,experiment,HHSHH,999,odd,112181,298217,NA,NA,398744,2655,262152,NA,386081,2572,309236,399866,399999,400454,399834,399999,Flanker task,128,70652,137,yes,1024
93.47826087,93.47826087,514.7608696,514.7608696,black,legacy,legacy,legacy,0,incongruent,uniform,1,undefined,1,s,0,0,0,0,137,0,0,0,137,0,137,137,137,137,137,137,Wed Sep 25 23:00:05 2019,600,The main experiment item,yes,fp-subject-1.osexp,/Users/freyaportales/Desktop/OpenSesame Assignments,no,mono,no,18,no,white,no,no,768,legacy,57,79,/Users/freyaportales/Desktop/OpenSesame Assignments/quickrun.csv,legacy,Kafkaesque Koffka,3.2.8,0,s,NA,h,h,NA,s,385,NA,109515,36063,NA,385,2,legacy,1024,2,48000,-16,experiment,HHSHH,999,odd,112181,298217,NA,NA,400488,2655,262152,NA,386081,2572,309236,401616,401748,402136,401582,401748,Flanker task,129,71037,138,yes,1024
93.52517986,93.52517986,513.7697842,513.7697842,black,legacy,legacy,legacy,0,congruent,uniform,1,undefined,1,h,0,0,0,0,138,0,0,0,138,0,138,138,138,138,138,138,Wed Sep 25 23:00:05 2019,600,The main experiment item,yes,fp-subject-1.osexp,/Users/freyaportales/Desktop/OpenSesame Assignments,no,mono,no,18,no,white,no,no,768,legacy,58,79,/Users/freyaportales/Desktop/OpenSesame Assignments/quickrun.csv,legacy,Kafkaesque Koffka,3.2.8,0,h,NA,h,h,NA,h,377,NA,109515,36063,NA,377,2,legacy,1024,2,48000,-16,experiment,HHHHH,999,odd,112181,298217,NA,NA,402176,2655,262152,NA,386081,2572,309236,403296,403428,403808,403264,403428,Flanker task,130,71414,139,yes,1024
93.57142857,93.57142857,512.4142857,512.4142857,black,legacy,legacy,legacy,0,congruent,uniform,1,undefined,1,s,0,0,0,0,139,0,0,0,139,0,139,139,139,139,139,139,Wed Sep 25 23:00:05 2019,600,The main experiment item,yes,fp-subject-1.osexp,/Users/freyaportales/Desktop/OpenSesame Assignments,no,mono,no,18,no,white,no,no,768,legacy,59,79,/Users/freyaportales/Desktop/OpenSesame Assignments/quickrun.csv,legacy,Kafkaesque Koffka,3.2.8,0,s,NA,h,h,NA,s,324,NA,109515,36063,NA,324,2,legacy,1024,2,48000,-16,experiment,SSSSS,999,odd,112181,298217,NA,NA,403842,2655,262152,NA,386081,2572,309236,404958,405090,405417,404925,405090,Flanker task,131,71738,140,yes,1024
93.61702128,93.61702128,511.7304965,511.7304965,black,legacy,legacy,legacy,0,congruent,uniform,1,undefined,1,s,0,0,0,0,140,0,0,0,140,0,140,140,140,140,140,140,Wed Sep 25 23:00:05 2019,600,The main experiment item,yes,fp-subject-1.osexp,/Users/freyaportales/Desktop/OpenSesame Assignments,no,mono,no,18,no,white,no,no,768,legacy,60,79,/Users/freyaportales/Desktop/OpenSesame Assignments/quickrun.csv,legacy,Kafkaesque Koffka,3.2.8,0,s,NA,h,h,NA,s,416,NA,109515,36063,NA,416,2,legacy,1024,2,48000,-16,experiment,SSSSS,999,odd,112181,298217,NA,NA,405457,2655,262152,NA,386081,2572,309236,406574,406707,407126,406542,406707,Flanker task,132,72154,141,yes,1024
93.66197183,93.66197183,511.915493,511.915493,black,legacy,legacy,legacy,0,incongruent,uniform,1,undefined,1,h,0,0,0,0,141,0,0,0,141,0,141,141,141,141,141,141,Wed Sep 25 23:00:05 2019,600,The main experiment item,yes,fp-subject-1.osexp,/Users/freyaportales/Desktop/OpenSesame Assignments,no,mono,no,18,no,white,no,no,768,legacy,61,79,/Users/freyaportales/Desktop/OpenSesame Assignments/quickrun.csv,legacy,Kafkaesque Koffka,3.2.8,0,h,NA,h,h,NA,h,538,NA,109515,36063,NA,538,2,legacy,1024,2,48000,-16,experiment,SSHSS,999,odd,112181,298217,NA,NA,407161,2655,262152,NA,386081,2572,309236,408275,408409,408950,408242,408408,Flanker task,133,72692,142,yes,1024
93.00699301,93.00699301,511.1818182,511.1818182,black,legacy,legacy,legacy,0,incongruent,uniform,0,undefined,0,h,0,0,0,0,142,0,0,0,142,0,142,142,142,142,142,142,Wed Sep 25 23:00:05 2019,600,The main experiment item,yes,fp-subject-1.osexp,/Users/freyaportales/Desktop/OpenSesame Assignments,no,mono,no,18,no,white,no,no,768,legacy,62,79,/Users/freyaportales/Desktop/OpenSesame Assignments/quickrun.csv,legacy,Kafkaesque Koffka,3.2.8,0,s,NA,h,h,NA,s,407,NA,109515,36063,NA,407,2,legacy,1024,2,48000,-16,experiment,SSHSS,999,odd,112181,298217,NA,NA,408994,2655,262152,NA,386081,2572,309236,410107,410239,410649,410075,410239,Flanker task,133,73099,143,yes,1024
93.05555556,93.05555556,510.2986111,510.2986111,black,legacy,legacy,legacy,0,congruent,uniform,1,undefined,1,s,0,0,0,0,143,0,0,0,143,0,143,143,143,143,143,143,Wed Sep 25 23:00:05 2019,600,The main experiment item,yes,fp-subject-1.osexp,/Users/freyaportales/Desktop/OpenSesame Assignments,no,mono,no,18,no,white,no,no,768,legacy,63,79,/Users/freyaportales/Desktop/OpenSesame Assignments/quickrun.csv,legacy,Kafkaesque Koffka,3.2.8,0,s,NA,h,h,NA,s,384,NA,109515,36063,NA,384,2,legacy,1024,2,48000,-16,experiment,SSSSS,999,odd,112181,298217,NA,NA,411216,2655,262152,NA,410683,2572,309236,412330,412463,412850,412298,412463,Flanker task,134,73483,144,yes,1024
93.10344828,93.10344828,509.8689655,509.8689655,black,legacy,legacy,legacy,0,incongruent,uniform,1,undefined,1,h,0,0,0,0,144,0,0,0,144,0,144,144,144,144,144,144,Wed Sep 25 23:00:05 2019,600,The main experiment item,yes,fp-subject-1.osexp,/Users/freyaportales/Desktop/OpenSesame Assignments,no,mono,no,18,no,white,no,no,768,legacy,64,79,/Users/freyaportales/Desktop/OpenSesame Assignments/quickrun.csv,legacy,Kafkaesque Koffka,3.2.8,0,h,NA,h,h,NA,h,448,NA,109515,36063,NA,448,2,legacy,1024,2,48000,-16,experiment,SSHSS,999,odd,112181,298217,NA,NA,412885,2655,262152,NA,410683,2572,309236,413998,414131,414582,413966,414130,Flanker task,135,73931,145,yes,1024
92.46575342,92.46575342,509.4109589,509.4109589,black,legacy,legacy,legacy,0,incongruent,uniform,0,undefined,0,h,0,0,0,0,145,0,0,0,145,0,145,145,145,145,145,145,Wed Sep 25 23:00:05 2019,600,The main experiment item,yes,fp-subject-1.osexp,/Users/freyaportales/Desktop/OpenSesame Assignments,no,mono,no,18,no,white,no,no,768,legacy,65,79,/Users/freyaportales/Desktop/OpenSesame Assignments/quickrun.csv,legacy,Kafkaesque Koffka,3.2.8,0,s,NA,h,h,NA,s,443,NA,109515,36063,NA,443,2,legacy,1024,2,48000,-16,experiment,SSHSS,999,odd,112181,298217,NA,NA,414617,2655,262152,NA,410683,2572,309236,415731,415863,416312,415698,415863,Flanker task,135,74374,146,yes,1024
92.5170068,92.5170068,509.3469388,509.3469388,black,legacy,legacy,legacy,0,incongruent,uniform,1,undefined,1,h,0,0,0,0,146,0,0,0,146,0,146,146,146,146,146,146,Wed Sep 25 23:00:05 2019,600,The main experiment item,yes,fp-subject-1.osexp,/Users/freyaportales/Desktop/OpenSesame Assignments,no,mono,no,18,no,white,no,no,768,legacy,66,79,/Users/freyaportales/Desktop/OpenSesame Assignments/quickrun.csv,legacy,Kafkaesque Koffka,3.2.8,0,h,NA,h,h,NA,h,500,NA,109515,36063,NA,500,2,legacy,1024,2,48000,-16,experiment,SSHSS,999,odd,112181,298217,NA,NA,416881,2655,262152,NA,416349,2572,309236,417995,418127,418630,417963,418127,Flanker task,136,74874,147,yes,1024
92.56756757,92.56756757,509.0405405,509.0405405,black,legacy,legacy,legacy,0,congruent,uniform,1,undefined,1,h,0,0,0,0,147,0,0,0,147,0,147,147,147,147,147,147,Wed Sep 25 23:00:05 2019,600,The main experiment item,yes,fp-subject-1.osexp,/Users/freyaportales/Desktop/OpenSesame Assignments,no,mono,no,18,no,white,no,no,768,legacy,67,79,/Users/freyaportales/Desktop/OpenSesame Assignments/quickrun.csv,legacy,Kafkaesque Koffka,3.2.8,0,h,NA,h,h,NA,h,464,NA,109515,36063,NA,464,2,legacy,1024,2,48000,-16,experiment,HHHHH,999,odd,112181,298217,NA,NA,418670,2655,262152,NA,416349,2572,309236,419792,419925,420392,419759,419925,Flanker task,137,75338,148,yes,1024
92.61744966,92.61744966,508.3154362,508.3154362,black,legacy,legacy,legacy,0,incongruent,uniform,1,undefined,1,h,0,0,0,0,148,0,0,0,148,0,148,148,148,148,148,148,Wed Sep 25 23:00:05 2019,600,The main experiment item,yes,fp-subject-1.osexp,/Users/freyaportales/Desktop/OpenSesame Assignments,no,mono,no,18,no,white,no,no,768,legacy,68,79,/Users/freyaportales/Desktop/OpenSesame Assignments/quickrun.csv,legacy,Kafkaesque Koffka,3.2.8,0,h,NA,h,h,NA,h,401,NA,109515,36063,NA,401,2,legacy,1024,2,48000,-16,experiment,SSHSS,999,odd,112181,298217,NA,NA,420426,2655,262152,NA,416349,2572,309236,421540,421672,422077,421507,421672,Flanker task,138,75739,149,yes,1024
92.66666667,92.66666667,508.0133333,508.0133333,black,legacy,legacy,legacy,0,incongruent,uniform,1,undefined,1,h,0,0,0,0,149,0,0,0,149,0,149,149,149,149,149,149,Wed Sep 25 23:00:05 2019,600,The main experiment item,yes,fp-subject-1.osexp,/Users/freyaportales/Desktop/OpenSesame Assignments,no,mono,no,18,no,white,no,no,768,legacy,69,79,/Users/freyaportales/Desktop/OpenSesame Assignments/quickrun.csv,legacy,Kafkaesque Koffka,3.2.8,0,h,NA,h,h,NA,h,463,NA,109515,36063,NA,463,2,legacy,1024,2,48000,-16,experiment,SSHSS,999,odd,112181,298217,NA,NA,422114,2655,262152,NA,416349,2572,309236,423236,423368,423834,423203,423368,Flanker task,139,76202,150,yes,1024
92.71523179,92.71523179,507.2847682,507.2847682,black,legacy,legacy,legacy,0,incongruent,uniform,1,undefined,1,h,0,0,0,0,150,0,0,0,150,0,150,150,150,150,150,150,Wed Sep 25 23:00:05 2019,600,The main experiment item,yes,fp-subject-1.osexp,/Users/freyaportales/Desktop/OpenSesame Assignments,no,mono,no,18,no,white,no,no,768,legacy,70,79,/Users/freyaportales/Desktop/OpenSesame Assignments/quickrun.csv,legacy,Kafkaesque Koffka,3.2.8,0,h,NA,h,h,NA,h,398,NA,109515,36063,NA,398,2,legacy,1024,2,48000,-16,experiment,SSHSS,999,odd,112181,298217,NA,NA,423868,2655,262152,NA,416349,2572,309236,424981,425114,425515,424950,425114,Flanker task,140,76600,151,yes,1024
92.76315789,92.76315789,506.9407895,506.9407895,black,legacy,legacy,legacy,0,incongruent,uniform,1,undefined,1,s,0,0,0,0,151,0,0,0,151,0,151,151,151,151,151,151,Wed Sep 25 23:00:05 2019,600,The main experiment item,yes,fp-subject-1.osexp,/Users/freyaportales/Desktop/OpenSesame Assignments,no,mono,no,18,no,white,no,no,768,legacy,71,79,/Users/freyaportales/Desktop/OpenSesame Assignments/quickrun.csv,legacy,Kafkaesque Koffka,3.2.8,0,s,NA,h,h,NA,s,455,NA,109515,36063,NA,455,2,legacy,1024,2,48000,-16,experiment,HHSHH,999,odd,112181,298217,NA,NA,425562,2655,262152,NA,416349,2572,309236,426675,426809,427267,426643,426809,Flanker task,141,77055,152,yes,1024
92.81045752,92.81045752,506.7058824,506.7058824,black,legacy,legacy,legacy,0,incongruent,uniform,1,undefined,1,h,0,0,0,0,152,0,0,0,152,0,152,152,152,152,152,152,Wed Sep 25 23:00:05 2019,600,The main experiment item,yes,fp-subject-1.osexp,/Users/freyaportales/Desktop/OpenSesame Assignments,no,mono,no,18,no,white,no,no,768,legacy,72,79,/Users/freyaportales/Desktop/OpenSesame Assignments/quickrun.csv,legacy,Kafkaesque Koffka,3.2.8,0,h,NA,h,h,NA,h,471,NA,109515,36063,NA,471,2,legacy,1024,2,48000,-16,experiment,SSHSS,999,odd,112181,298217,NA,NA,427301,2655,262152,NA,416349,2572,309236,428415,428547,429021,428383,428547,Flanker task,142,77526,153,yes,1024
92.85714286,92.85714286,506.487013,506.487013,black,legacy,legacy,legacy,0,congruent,uniform,1,undefined,1,s,0,0,0,0,153,0,0,0,153,0,153,153,153,153,153,153,Wed Sep 25 23:00:05 2019,600,The main experiment item,yes,fp-subject-1.osexp,/Users/freyaportales/Desktop/OpenSesame Assignments,no,mono,no,18,no,white,no,no,768,legacy,73,79,/Users/freyaportales/Desktop/OpenSesame Assignments/quickrun.csv,legacy,Kafkaesque Koffka,3.2.8,0,s,NA,h,h,NA,s,473,NA,109515,36063,NA,473,2,legacy,1024,2,48000,-16,experiment,SSSSS,999,odd,112181,298217,NA,NA,429058,2655,262152,NA,416349,2572,309236,430185,430317,430793,430152,430317,Flanker task,143,77999,154,yes,1024
92.90322581,92.90322581,506.5870968,506.5870968,black,legacy,legacy,legacy,0,incongruent,uniform,1,undefined,1,h,0,0,0,0,154,0,0,0,154,0,154,154,154,154,154,154,Wed Sep 25 23:00:05 2019,600,The main experiment item,yes,fp-subject-1.osexp,/Users/freyaportales/Desktop/OpenSesame Assignments,no,mono,no,18,no,white,no,no,768,legacy,74,79,/Users/freyaportales/Desktop/OpenSesame Assignments/quickrun.csv,legacy,Kafkaesque Koffka,3.2.8,0,h,NA,h,h,NA,h,522,NA,109515,36063,NA,522,2,legacy,1024,2,48000,-16,experiment,SSHSS,999,odd,112181,298217,NA,NA,430827,2655,262152,NA,416349,2572,309236,431942,432074,432599,431909,432073,Flanker task,144,78521,155,yes,1024
