acc,accuracy,average_response_time,avg_rt,background,canvas_backend,clock_backend,color_backend,compensation,condition,coordinates,correct,correct_instructions1,correct_keyboard_response,correct_response,count_Block1,count_Block2,count_Block3,count_errorFeedback,count_experiment,count_faster,count_finish,count_fixation,count_instructions1,count_instructions2,count_instructions3,count_isi,count_keyboard_response,count_logger,count_sequence,count_sketchpad,count_sketchpad_1,count_stimulus,datetime,deadline,description,disable_garbage_collection,experiment_file,experiment_path,font_bold,font_family,font_italic,font_size,font_underline,foreground,form_clicks,fullscreen,height,keyboard_backend,live_row,live_row_Block1,logfile,mouse_backend,opensesame_codename,opensesame_version,repeat_cycle,response,response_finish,response_instructions1,response_instructions2,response_instructions3,response_keyboard_response,response_sketchpad,response_sketchpad_1,response_time,response_time_finish,response_time_instructions1,response_time_instructions2,response_time_instructions3,response_time_keyboard_response,response_time_sketchpad,response_time_sketchpad_1,round_decimals,sampler_backend,sound_buf_size,sound_channels,sound_freq,sound_sample_size,start,stimulus,subject_nr,subject_parity,time_Block1,time_Block2,time_Block3,time_errorFeedback,time_experiment,time_faster,time_finish,time_fixation,time_instructions1,time_instructions2,time_instructions3,time_isi,time_keyboard_response,time_logger,time_sequence,time_sketchpad,time_sketchpad_1,time_stimulus,title,total_correct,total_response_time,total_responses,uniform_coordinates,width
100,100,1276,1276,black,legacy,legacy,legacy,0,incongruent,uniform,1,undefined,1,s,0,0,0,0,0,0,0,0,0,0,0,0,0,0,0,NA,NA,0,9/19/19 15:51,1500,The main experiment item,yes,Week4submit.osexp,C:/Users/DLGoupil/Desktop,no,mono,no,18,no,white,no,yes,768,legacy,0,0,C:/Users/DLGoupil/Desktop/subject-2.csv,legacy,Kafkaesque Koffka,3.2.8,0,s,NA,s,NA,NA,s,NA,NA,1276,NA,53618,NA,NA,1276,NA,NA,2,legacy,1024,2,48000,-16,experiment,HHSHH,2,even,55629,NA,NA,NA,2005,NA,NA,55745,2010,NA,NA,NA,55848,57124,55742,NA,NA,55848,Week4submit,1,1276,1,yes,1024
100,100,1010.5,1010.5,black,legacy,legacy,legacy,0,incongruent,uniform,1,undefined,1,s,0,0,0,1,0,1,0,1,0,0,0,1,1,1,1,NA,NA,1,9/19/19 15:51,1500,The main experiment item,yes,Week4submit.osexp,C:/Users/DLGoupil/Desktop,no,mono,no,18,no,white,no,yes,768,legacy,1,1,C:/Users/DLGoupil/Desktop/subject-2.csv,legacy,Kafkaesque Koffka,3.2.8,0,s,NA,s,NA,NA,s,NA,NA,745,NA,53618,NA,NA,745,NA,NA,2,legacy,1024,2,48000,-16,experiment,HHSHH,2,even,55629,NA,NA,NA,2005,NA,NA,58244,2010,NA,NA,57135,58347,59092,58241,NA,NA,58347,Week4submit,2,2021,2,yes,1024
100,100,902,902,black,legacy,legacy,legacy,0,incongruent,uniform,1,undefined,1,h,0,0,0,2,0,2,0,2,0,0,0,2,2,2,2,NA,NA,2,9/19/19 15:51,1500,The main experiment item,yes,Week4submit.osexp,C:/Users/DLGoupil/Desktop,no,mono,no,18,no,white,no,yes,768,legacy,2,2,C:/Users/DLGoupil/Desktop/subject-2.csv,legacy,Kafkaesque Koffka,3.2.8,0,h,NA,s,NA,NA,h,NA,NA,685,NA,53618,NA,NA,685,NA,NA,2,legacy,1024,2,48000,-16,experiment,SSHSS,2,even,55629,NA,NA,NA,2005,NA,NA,60200,2010,NA,NA,59097,60303,60988,60197,NA,NA,60303,Week4submit,3,2706,3,yes,1024
100,100,819.75,819.75,black,legacy,legacy,legacy,0,incongruent,uniform,1,undefined,1,h,0,0,0,3,0,3,0,3,0,0,0,3,3,3,3,NA,NA,3,9/19/19 15:51,1500,The main experiment item,yes,Week4submit.osexp,C:/Users/DLGoupil/Desktop,no,mono,no,18,no,white,no,yes,768,legacy,3,3,C:/Users/DLGoupil/Desktop/subject-2.csv,legacy,Kafkaesque Koffka,3.2.8,0,h,NA,s,NA,NA,h,NA,NA,573,NA,53618,NA,NA,573,NA,NA,2,legacy,1024,2,48000,-16,experiment,SSHSS,2,even,55629,NA,NA,NA,2005,NA,NA,62096,2010,NA,NA,60993,62199,62772,62093,NA,NA,62199,Week4submit,4,3279,4,yes,1024
100,100,780.8,780.8,black,legacy,legacy,legacy,0,incongruent,uniform,1,undefined,1,s,0,0,0,4,0,4,0,4,0,0,0,4,4,4,4,NA,NA,4,9/19/19 15:51,1500,The main experiment item,yes,Week4submit.osexp,C:/Users/DLGoupil/Desktop,no,mono,no,18,no,white,no,yes,768,legacy,4,4,C:/Users/DLGoupil/Desktop/subject-2.csv,legacy,Kafkaesque Koffka,3.2.8,0,s,NA,s,NA,NA,s,NA,NA,625,NA,53618,NA,NA,625,NA,NA,2,legacy,1024,2,48000,-16,experiment,HHSHH,2,even,55629,NA,NA,NA,2005,NA,NA,63884,2010,NA,NA,62777,63987,64612,63881,NA,NA,63987,Week4submit,5,3904,5,yes,1024
100,100,766.5,766.5,black,legacy,legacy,legacy,0,congruent,uniform,1,undefined,1,s,0,0,0,5,0,5,0,5,0,0,0,5,5,5,5,NA,NA,5,9/19/19 15:51,1500,The main experiment item,yes,Week4submit.osexp,C:/Users/DLGoupil/Desktop,no,mono,no,18,no,white,no,yes,768,legacy,5,5,C:/Users/DLGoupil/Desktop/subject-2.csv,legacy,Kafkaesque Koffka,3.2.8,0,s,NA,s,NA,NA,s,NA,NA,695,NA,53618,NA,NA,695,NA,NA,2,legacy,1024,2,48000,-16,experiment,SSSSS,2,even,55629,NA,NA,NA,2005,NA,NA,65719,2010,NA,NA,64617,65821,66516,65717,NA,NA,65821,Week4submit,6,4599,6,yes,1024
100,100,745.8571429,745.8571429,black,legacy,legacy,legacy,0,congruent,uniform,1,undefined,1,s,0,0,0,6,0,6,0,6,0,0,0,6,6,6,6,NA,NA,6,9/19/19 15:51,1500,The main experiment item,yes,Week4submit.osexp,C:/Users/DLGoupil/Desktop,no,mono,no,18,no,white,no,yes,768,legacy,6,6,C:/Users/DLGoupil/Desktop/subject-2.csv,legacy,Kafkaesque Koffka,3.2.8,0,s,NA,s,NA,NA,s,NA,NA,622,NA,53618,NA,NA,622,NA,NA,2,legacy,1024,2,48000,-16,experiment,SSSSS,2,even,55629,NA,NA,NA,2005,NA,NA,67631,2010,NA,NA,66521,67734,68356,67628,NA,NA,67734,Week4submit,7,5221,7,yes,1024
100,100,726,726,black,legacy,legacy,legacy,0,congruent,uniform,1,undefined,1,s,0,0,0,7,0,7,0,7,0,0,0,7,7,7,7,NA,NA,7,9/19/19 15:51,1500,The main experiment item,yes,Week4submit.osexp,C:/Users/DLGoupil/Desktop,no,mono,no,18,no,white,no,yes,768,legacy,7,7,C:/Users/DLGoupil/Desktop/subject-2.csv,legacy,Kafkaesque Koffka,3.2.8,0,s,NA,s,NA,NA,s,NA,NA,587,NA,53618,NA,NA,587,NA,NA,2,legacy,1024,2,48000,-16,experiment,SSSSS,2,even,55629,NA,NA,NA,2005,NA,NA,69466,2010,NA,NA,68361,69569,70156,69463,NA,NA,69569,Week4submit,8,5808,8,yes,1024
100,100,716.6666667,716.6666667,black,legacy,legacy,legacy,0,incongruent,uniform,1,undefined,1,s,0,0,0,8,0,8,0,8,0,0,0,8,8,8,8,NA,NA,8,9/19/19 15:51,1500,The main experiment item,yes,Week4submit.osexp,C:/Users/DLGoupil/Desktop,no,mono,no,18,no,white,no,yes,768,legacy,8,8,C:/Users/DLGoupil/Desktop/subject-2.csv,legacy,Kafkaesque Koffka,3.2.8,0,s,NA,s,NA,NA,s,NA,NA,642,NA,53618,NA,NA,642,NA,NA,2,legacy,1024,2,48000,-16,experiment,HHSHH,2,even,55629,NA,NA,NA,2005,NA,NA,71267,2010,NA,NA,70162,71370,72012,71264,NA,NA,71370,Week4submit,9,6450,9,yes,1024
100,100,706.6,706.6,black,legacy,legacy,legacy,0,incongruent,uniform,1,undefined,1,h,0,0,0,9,0,9,0,9,0,0,0,9,9,9,9,NA,NA,9,9/19/19 15:51,1500,The main experiment item,yes,Week4submit.osexp,C:/Users/DLGoupil/Desktop,no,mono,no,18,no,white,no,yes,768,legacy,9,9,C:/Users/DLGoupil/Desktop/subject-2.csv,legacy,Kafkaesque Koffka,3.2.8,0,h,NA,s,NA,NA,h,NA,NA,616,NA,53618,NA,NA,616,NA,NA,2,legacy,1024,2,48000,-16,experiment,SSHSS,2,even,55629,NA,NA,NA,2005,NA,NA,73125,2010,NA,NA,72018,73228,73844,73123,NA,NA,73228,Week4submit,10,7066,10,yes,1024
100,100,706.4545455,706.4545455,black,legacy,legacy,legacy,0,incongruent,uniform,1,undefined,1,h,0,0,0,10,0,10,0,10,0,0,0,10,10,10,10,NA,NA,10,9/19/19 15:51,1500,The main experiment item,yes,Week4submit.osexp,C:/Users/DLGoupil/Desktop,no,mono,no,18,no,white,no,yes,768,legacy,10,10,C:/Users/DLGoupil/Desktop/subject-2.csv,legacy,Kafkaesque Koffka,3.2.8,0,h,NA,s,NA,NA,h,NA,NA,705,NA,53618,NA,NA,705,NA,NA,2,legacy,1024,2,48000,-16,experiment,SSHSS,2,even,55629,NA,NA,NA,2005,NA,NA,74955,2010,NA,NA,73849,75059,75764,74953,NA,NA,75059,Week4submit,11,7771,11,yes,1024
100,100,691.5833333,691.5833333,black,legacy,legacy,legacy,0,congruent,uniform,1,undefined,1,h,0,0,0,11,0,11,0,11,0,0,0,11,11,11,11,NA,NA,11,9/19/19 15:51,1500,The main experiment item,yes,Week4submit.osexp,C:/Users/DLGoupil/Desktop,no,mono,no,18,no,white,no,yes,768,legacy,11,11,C:/Users/DLGoupil/Desktop/subject-2.csv,legacy,Kafkaesque Koffka,3.2.8,0,h,NA,s,NA,NA,h,NA,NA,528,NA,53618,NA,NA,528,NA,NA,2,legacy,1024,2,48000,-16,experiment,HHHHH,2,even,55629,NA,NA,NA,2005,NA,NA,76877,2010,NA,NA,75770,76980,77508,76874,NA,NA,76980,Week4submit,12,8299,12,yes,1024
100,100,681.5384615,681.5384615,black,legacy,legacy,legacy,0,incongruent,uniform,1,undefined,1,h,0,0,0,12,0,12,0,12,0,0,0,12,12,12,12,NA,NA,12,9/19/19 15:51,1500,The main experiment item,yes,Week4submit.osexp,C:/Users/DLGoupil/Desktop,no,mono,no,18,no,white,no,yes,768,legacy,12,12,C:/Users/DLGoupil/Desktop/subject-2.csv,legacy,Kafkaesque Koffka,3.2.8,0,h,NA,s,NA,NA,h,NA,NA,561,NA,53618,NA,NA,561,NA,NA,2,legacy,1024,2,48000,-16,experiment,SSHSS,2,even,55629,NA,NA,NA,2005,NA,NA,78619,2010,NA,NA,77513,78722,79284,78616,NA,NA,78722,Week4submit,13,8860,13,yes,1024
100,100,666.2857143,666.2857143,black,legacy,legacy,legacy,0,incongruent,uniform,1,undefined,1,h,0,0,0,13,0,13,0,13,0,0,0,13,13,13,13,NA,NA,13,9/19/19 15:51,1500,The main experiment item,yes,Week4submit.osexp,C:/Users/DLGoupil/Desktop,no,mono,no,18,no,white,no,yes,768,legacy,13,13,C:/Users/DLGoupil/Desktop/subject-2.csv,legacy,Kafkaesque Koffka,3.2.8,0,h,NA,s,NA,NA,h,NA,NA,468,NA,53618,NA,NA,468,NA,NA,2,legacy,1024,2,48000,-16,experiment,SSHSS,2,even,55629,NA,NA,NA,2005,NA,NA,80393,2010,NA,NA,79289,80496,80964,80390,NA,NA,80496,Week4submit,14,9328,14,yes,1024
100,100,655.7333333,655.7333333,black,legacy,legacy,legacy,0,incongruent,uniform,1,undefined,1,h,0,0,0,14,0,14,0,14,0,0,0,14,14,14,14,NA,NA,14,9/19/19 15:51,1500,The main experiment item,yes,Week4submit.osexp,C:/Users/DLGoupil/Desktop,no,mono,no,18,no,white,no,yes,768,legacy,14,14,C:/Users/DLGoupil/Desktop/subject-2.csv,legacy,Kafkaesque Koffka,3.2.8,0,h,NA,s,NA,NA,h,NA,NA,508,NA,53618,NA,NA,508,NA,NA,2,legacy,1024,2,48000,-16,experiment,SSHSS,2,even,55629,NA,NA,NA,2005,NA,NA,82072,2010,NA,NA,80969,82175,82684,82069,NA,NA,82175,Week4submit,15,9836,15,yes,1024
100,100,651,651,black,legacy,legacy,legacy,0,congruent,uniform,1,undefined,1,h,0,0,0,15,0,15,0,15,0,0,0,15,15,15,15,NA,NA,15,9/19/19 15:51,1500,The main experiment item,yes,Week4submit.osexp,C:/Users/DLGoupil/Desktop,no,mono,no,18,no,white,no,yes,768,legacy,15,15,C:/Users/DLGoupil/Desktop/subject-2.csv,legacy,Kafkaesque Koffka,3.2.8,0,h,NA,s,NA,NA,h,NA,NA,580,NA,53618,NA,NA,580,NA,NA,2,legacy,1024,2,48000,-16,experiment,HHHHH,2,even,55629,NA,NA,NA,2005,NA,NA,83801,2010,NA,NA,82689,83904,84485,83798,NA,NA,83904,Week4submit,16,10416,16,yes,1024
100,100,645.5294118,645.5294118,black,legacy,legacy,legacy,0,incongruent,uniform,1,undefined,1,s,0,0,0,16,0,16,0,16,0,0,0,16,16,16,16,NA,NA,16,9/19/19 15:51,1500,The main experiment item,yes,Week4submit.osexp,C:/Users/DLGoupil/Desktop,no,mono,no,18,no,white,no,yes,768,legacy,16,16,C:/Users/DLGoupil/Desktop/subject-2.csv,legacy,Kafkaesque Koffka,3.2.8,0,s,NA,s,NA,NA,s,NA,NA,558,NA,53618,NA,NA,558,NA,NA,2,legacy,1024,2,48000,-16,experiment,HHSHH,2,even,55629,NA,NA,NA,2005,NA,NA,85591,2010,NA,NA,84490,85694,86252,85588,NA,NA,85694,Week4submit,17,10974,17,yes,1024
100,100,641.7777778,641.7777778,black,legacy,legacy,legacy,0,incongruent,uniform,1,undefined,1,s,0,0,0,17,0,17,0,17,0,0,0,17,17,17,17,NA,NA,17,9/19/19 15:51,1500,The main experiment item,yes,Week4submit.osexp,C:/Users/DLGoupil/Desktop,no,mono,no,18,no,white,no,yes,768,legacy,17,17,C:/Users/DLGoupil/Desktop/subject-2.csv,legacy,Kafkaesque Koffka,3.2.8,0,s,NA,s,NA,NA,s,NA,NA,578,NA,53618,NA,NA,578,NA,NA,2,legacy,1024,2,48000,-16,experiment,HHSHH,2,even,55629,NA,NA,NA,2005,NA,NA,87370,2010,NA,NA,86257,87473,88052,87367,NA,NA,87473,Week4submit,18,11552,18,yes,1024
100,100,640.5263158,640.5263158,black,legacy,legacy,legacy,0,incongruent,uniform,1,undefined,1,h,0,0,0,18,0,18,0,18,0,0,0,18,18,18,18,NA,NA,18,9/19/19 15:51,1500,The main experiment item,yes,Week4submit.osexp,C:/Users/DLGoupil/Desktop,no,mono,no,18,no,white,no,yes,768,legacy,18,18,C:/Users/DLGoupil/Desktop/subject-2.csv,legacy,Kafkaesque Koffka,3.2.8,0,h,NA,s,NA,NA,h,NA,NA,618,NA,53618,NA,NA,618,NA,NA,2,legacy,1024,2,48000,-16,experiment,SSHSS,2,even,55629,NA,NA,NA,2005,NA,NA,89169,2010,NA,NA,88057,89273,89892,89167,NA,NA,89273,Week4submit,19,12170,19,yes,1024
100,100,632.8,632.8,black,legacy,legacy,legacy,0,congruent,uniform,1,undefined,1,h,0,0,0,19,0,19,0,19,0,0,0,19,19,19,19,NA,NA,19,9/19/19 15:51,1500,The main experiment item,yes,Week4submit.osexp,C:/Users/DLGoupil/Desktop,no,mono,no,18,no,white,no,yes,768,legacy,19,19,C:/Users/DLGoupil/Desktop/subject-2.csv,legacy,Kafkaesque Koffka,3.2.8,0,h,NA,s,NA,NA,h,NA,NA,486,NA,53618,NA,NA,486,NA,NA,2,legacy,1024,2,48000,-16,experiment,HHHHH,2,even,55629,NA,NA,NA,2005,NA,NA,91006,2010,NA,NA,89897,91109,91596,91003,NA,NA,91109,Week4submit,20,12656,20,yes,1024
100,100,624.2857143,624.2857143,black,legacy,legacy,legacy,0,congruent,uniform,1,undefined,1,h,0,0,0,20,0,20,0,20,0,0,0,20,20,20,20,NA,NA,20,9/19/19 15:51,1500,The main experiment item,yes,Week4submit.osexp,C:/Users/DLGoupil/Desktop,no,mono,no,18,no,white,no,yes,768,legacy,20,20,C:/Users/DLGoupil/Desktop/subject-2.csv,legacy,Kafkaesque Koffka,3.2.8,0,h,NA,s,NA,NA,h,NA,NA,454,NA,53618,NA,NA,454,NA,NA,2,legacy,1024,2,48000,-16,experiment,HHHHH,2,even,55629,NA,NA,NA,2005,NA,NA,92712,2010,NA,NA,91602,92814,93268,92709,NA,NA,92814,Week4submit,21,13110,21,yes,1024
100,100,618,618,black,legacy,legacy,legacy,0,congruent,uniform,1,undefined,1,h,0,0,0,21,0,21,0,21,0,0,0,21,21,21,21,NA,NA,21,9/19/19 15:51,1500,The main experiment item,yes,Week4submit.osexp,C:/Users/DLGoupil/Desktop,no,mono,no,18,no,white,no,yes,768,legacy,21,21,C:/Users/DLGoupil/Desktop/subject-2.csv,legacy,Kafkaesque Koffka,3.2.8,0,h,NA,s,NA,NA,h,NA,NA,486,NA,53618,NA,NA,486,NA,NA,2,legacy,1024,2,48000,-16,experiment,HHHHH,2,even,55629,NA,NA,NA,2005,NA,NA,94375,2010,NA,NA,93273,94478,94964,94372,NA,NA,94478,Week4submit,22,13596,22,yes,1024
100,100,613.6956522,613.6956522,black,legacy,legacy,legacy,0,congruent,uniform,1,undefined,1,h,0,0,0,22,0,22,0,22,0,0,0,22,22,22,22,NA,NA,22,9/19/19 15:51,1500,The main experiment item,yes,Week4submit.osexp,C:/Users/DLGoupil/Desktop,no,mono,no,18,no,white,no,yes,768,legacy,22,22,C:/Users/DLGoupil/Desktop/subject-2.csv,legacy,Kafkaesque Koffka,3.2.8,0,h,NA,s,NA,NA,h,NA,NA,519,NA,53618,NA,NA,519,NA,NA,2,legacy,1024,2,48000,-16,experiment,HHHHH,2,even,55629,NA,NA,NA,2005,NA,NA,96077,2010,NA,NA,94969,96180,96700,96074,NA,NA,96180,Week4submit,23,14115,23,yes,1024
95.83333333,95.83333333,608.0416667,608.0416667,black,legacy,legacy,legacy,0,incongruent,uniform,0,undefined,0,s,0,0,0,23,0,23,0,23,0,0,0,23,23,23,23,NA,NA,23,9/19/19 15:51,1500,The main experiment item,yes,Week4submit.osexp,C:/Users/DLGoupil/Desktop,no,mono,no,18,no,white,no,yes,768,legacy,23,23,C:/Users/DLGoupil/Desktop/subject-2.csv,legacy,Kafkaesque Koffka,3.2.8,0,h,NA,s,NA,NA,h,NA,NA,478,NA,53618,NA,NA,478,NA,NA,2,legacy,1024,2,48000,-16,experiment,HHSHH,2,even,55629,NA,NA,NA,2005,NA,NA,97814,2010,NA,NA,96705,97917,98396,97812,NA,NA,97917,Week4submit,23,14593,24,yes,1024
96,96,633.76,633.76,black,legacy,legacy,legacy,0,congruent,uniform,1,undefined,1,s,0,0,0,24,0,24,0,24,0,0,0,24,24,24,24,NA,NA,24,9/19/19 15:51,1500,The main experiment item,yes,Week4submit.osexp,C:/Users/DLGoupil/Desktop,no,mono,no,18,no,white,no,yes,768,legacy,24,24,C:/Users/DLGoupil/Desktop/subject-2.csv,legacy,Kafkaesque Koffka,3.2.8,0,s,NA,s,NA,NA,s,NA,NA,1251,NA,53618,NA,NA,1251,NA,NA,2,legacy,1024,2,48000,-16,experiment,SSSSS,2,even,55629,NA,NA,98401,2005,NA,NA,100009,2010,NA,NA,98904,100112,101364,100006,NA,NA,100112,Week4submit,24,15844,25,yes,1024
96.15384615,96.15384615,633.8461538,633.8461538,black,legacy,legacy,legacy,0,incongruent,uniform,1,undefined,1,s,0,0,0,25,0,25,0,25,0,0,0,25,25,25,25,NA,NA,25,9/19/19 15:51,1500,The main experiment item,yes,Week4submit.osexp,C:/Users/DLGoupil/Desktop,no,mono,no,18,no,white,no,yes,768,legacy,25,25,C:/Users/DLGoupil/Desktop/subject-2.csv,legacy,Kafkaesque Koffka,3.2.8,0,s,NA,s,NA,NA,s,NA,NA,636,NA,53618,NA,NA,636,NA,NA,2,legacy,1024,2,48000,-16,experiment,HHSHH,2,even,55629,NA,NA,98401,2005,NA,NA,102472,2010,NA,NA,101369,102575,103212,102469,NA,NA,102575,Week4submit,25,16480,26,yes,1024
96.2962963,96.2962963,634.5925926,634.5925926,black,legacy,legacy,legacy,0,incongruent,uniform,1,undefined,1,h,0,0,0,26,0,26,0,26,0,0,0,26,26,26,26,NA,NA,26,9/19/19 15:51,1500,The main experiment item,yes,Week4submit.osexp,C:/Users/DLGoupil/Desktop,no,mono,no,18,no,white,no,yes,768,legacy,26,26,C:/Users/DLGoupil/Desktop/subject-2.csv,legacy,Kafkaesque Koffka,3.2.8,0,h,NA,s,NA,NA,h,NA,NA,654,NA,53618,NA,NA,654,NA,NA,2,legacy,1024,2,48000,-16,experiment,SSHSS,2,even,55629,NA,NA,98401,2005,NA,NA,104326,2010,NA,NA,103217,104429,105084,104323,NA,NA,104429,Week4submit,26,17134,27,yes,1024
96.42857143,96.42857143,635.4642857,635.4642857,black,legacy,legacy,legacy,0,incongruent,uniform,1,undefined,1,s,0,0,0,27,0,27,0,27,0,0,0,27,27,27,27,NA,NA,27,9/19/19 15:51,1500,The main experiment item,yes,Week4submit.osexp,C:/Users/DLGoupil/Desktop,no,mono,no,18,no,white,no,yes,768,legacy,27,27,C:/Users/DLGoupil/Desktop/subject-2.csv,legacy,Kafkaesque Koffka,3.2.8,0,s,NA,s,NA,NA,s,NA,NA,659,NA,53618,NA,NA,659,NA,NA,2,legacy,1024,2,48000,-16,experiment,HHSHH,2,even,55629,NA,NA,98401,2005,NA,NA,106193,2010,NA,NA,105089,106296,106956,106190,NA,NA,106296,Week4submit,27,17793,28,yes,1024
96.55172414,96.55172414,632.7931034,632.7931034,black,legacy,legacy,legacy,0,congruent,uniform,1,undefined,1,s,0,0,0,28,0,28,0,28,0,0,0,28,28,28,28,NA,NA,28,9/19/19 15:51,1500,The main experiment item,yes,Week4submit.osexp,C:/Users/DLGoupil/Desktop,no,mono,no,18,no,white,no,yes,768,legacy,28,28,C:/Users/DLGoupil/Desktop/subject-2.csv,legacy,Kafkaesque Koffka,3.2.8,0,s,NA,s,NA,NA,s,NA,NA,558,NA,53618,NA,NA,558,NA,NA,2,legacy,1024,2,48000,-16,experiment,SSSSS,2,even,55629,NA,NA,98401,2005,NA,NA,108071,2010,NA,NA,106961,108174,108732,108068,NA,NA,108174,Week4submit,28,18351,29,yes,1024
96.66666667,96.66666667,628.4666667,628.4666667,black,legacy,legacy,legacy,0,congruent,uniform,1,undefined,1,s,0,0,0,29,0,29,0,29,0,0,0,29,29,29,29,NA,NA,29,9/19/19 15:51,1500,The main experiment item,yes,Week4submit.osexp,C:/Users/DLGoupil/Desktop,no,mono,no,18,no,white,no,yes,768,legacy,29,29,C:/Users/DLGoupil/Desktop/subject-2.csv,legacy,Kafkaesque Koffka,3.2.8,0,s,NA,s,NA,NA,s,NA,NA,503,NA,53618,NA,NA,503,NA,NA,2,legacy,1024,2,48000,-16,experiment,SSSSS,2,even,55629,NA,NA,98401,2005,NA,NA,109845,2010,NA,NA,108737,109949,110452,109843,NA,NA,109949,Week4submit,29,18854,30,yes,1024
96.77419355,96.77419355,623.5483871,623.5483871,black,legacy,legacy,legacy,0,incongruent,uniform,1,undefined,1,s,0,0,0,30,0,30,0,30,0,0,0,30,30,30,30,NA,NA,30,9/19/19 15:51,1500,The main experiment item,yes,Week4submit.osexp,C:/Users/DLGoupil/Desktop,no,mono,no,18,no,white,no,yes,768,legacy,30,30,C:/Users/DLGoupil/Desktop/subject-2.csv,legacy,Kafkaesque Koffka,3.2.8,0,s,NA,s,NA,NA,s,NA,NA,476,NA,53618,NA,NA,476,NA,NA,2,legacy,1024,2,48000,-16,experiment,HHSHH,2,even,55629,NA,NA,98401,2005,NA,NA,111561,2010,NA,NA,110458,111664,112140,111559,NA,NA,111664,Week4submit,30,19330,31,yes,1024
96.875,96.875,624.15625,624.15625,black,legacy,legacy,legacy,0,incongruent,uniform,1,undefined,1,h,0,0,0,31,0,31,0,31,0,0,0,31,31,31,31,NA,NA,31,9/19/19 15:51,1500,The main experiment item,yes,Week4submit.osexp,C:/Users/DLGoupil/Desktop,no,mono,no,18,no,white,no,yes,768,legacy,31,31,C:/Users/DLGoupil/Desktop/subject-2.csv,legacy,Kafkaesque Koffka,3.2.8,0,h,NA,s,NA,NA,h,NA,NA,643,NA,53618,NA,NA,643,NA,NA,2,legacy,1024,2,48000,-16,experiment,SSHSS,2,even,55629,NA,NA,98401,2005,NA,NA,113258,2010,NA,NA,112145,113361,114004,113255,NA,NA,113361,Week4submit,31,19973,32,yes,1024
96.96969697,96.96969697,625.2121212,625.2121212,black,legacy,legacy,legacy,0,incongruent,uniform,1,undefined,1,s,0,0,0,32,0,32,0,32,0,0,0,32,32,32,32,NA,NA,32,9/19/19 15:51,1500,The main experiment item,yes,Week4submit.osexp,C:/Users/DLGoupil/Desktop,no,mono,no,18,no,white,no,yes,768,legacy,32,32,C:/Users/DLGoupil/Desktop/subject-2.csv,legacy,Kafkaesque Koffka,3.2.8,0,s,NA,s,NA,NA,s,NA,NA,659,NA,53618,NA,NA,659,NA,NA,2,legacy,1024,2,48000,-16,experiment,HHSHH,2,even,55629,NA,NA,98401,2005,NA,NA,115121,2010,NA,NA,114010,115225,115884,115119,NA,NA,115225,Week4submit,32,20632,33,yes,1024
97.05882353,97.05882353,625.7647059,625.7647059,black,legacy,legacy,legacy,0,congruent,uniform,1,undefined,1,h,0,0,0,33,0,33,0,33,0,0,0,33,33,33,33,NA,NA,33,9/19/19 15:51,1500,The main experiment item,yes,Week4submit.osexp,C:/Users/DLGoupil/Desktop,no,mono,no,18,no,white,no,yes,768,legacy,33,33,C:/Users/DLGoupil/Desktop/subject-2.csv,legacy,Kafkaesque Koffka,3.2.8,0,h,NA,s,NA,NA,h,NA,NA,644,NA,53618,NA,NA,644,NA,NA,2,legacy,1024,2,48000,-16,experiment,HHHHH,2,even,55629,NA,NA,98401,2005,NA,NA,116993,2010,NA,NA,115890,117096,117740,116990,NA,NA,117096,Week4submit,33,21276,34,yes,1024
97.14285714,97.14285714,626.9428571,626.9428571,black,legacy,legacy,legacy,0,congruent,uniform,1,undefined,1,s,0,0,0,34,0,34,0,34,0,0,0,34,34,34,34,NA,NA,34,9/19/19 15:51,1500,The main experiment item,yes,Week4submit.osexp,C:/Users/DLGoupil/Desktop,no,mono,no,18,no,white,no,yes,768,legacy,34,34,C:/Users/DLGoupil/Desktop/subject-2.csv,legacy,Kafkaesque Koffka,3.2.8,0,s,NA,s,NA,NA,s,NA,NA,667,NA,53618,NA,NA,667,NA,NA,2,legacy,1024,2,48000,-16,experiment,SSSSS,2,even,55629,NA,NA,98401,2005,NA,NA,118842,2010,NA,NA,117746,118945,119612,118839,NA,NA,118945,Week4submit,34,21943,35,yes,1024
97.22222222,97.22222222,623.1388889,623.1388889,black,legacy,legacy,legacy,0,congruent,uniform,1,undefined,1,h,0,0,0,35,0,35,0,35,0,0,0,35,35,35,35,NA,NA,35,9/19/19 15:51,1500,The main experiment item,yes,Week4submit.osexp,C:/Users/DLGoupil/Desktop,no,mono,no,18,no,white,no,yes,768,legacy,35,35,C:/Users/DLGoupil/Desktop/subject-2.csv,legacy,Kafkaesque Koffka,3.2.8,0,h,NA,s,NA,NA,h,NA,NA,490,NA,53618,NA,NA,490,NA,NA,2,legacy,1024,2,48000,-16,experiment,HHHHH,2,even,55629,NA,NA,98401,2005,NA,NA,120731,2010,NA,NA,119618,120834,121324,120728,NA,NA,120834,Week4submit,35,22433,36,yes,1024
97.2972973,97.2972973,623.0540541,623.0540541,black,legacy,legacy,legacy,0,incongruent,uniform,1,undefined,1,h,0,0,0,36,0,36,0,36,0,0,0,36,36,36,36,NA,NA,36,9/19/19 15:51,1500,The main experiment item,yes,Week4submit.osexp,C:/Users/DLGoupil/Desktop,no,mono,no,18,no,white,no,yes,768,legacy,36,36,C:/Users/DLGoupil/Desktop/subject-2.csv,legacy,Kafkaesque Koffka,3.2.8,0,h,NA,s,NA,NA,h,NA,NA,620,NA,53618,NA,NA,620,NA,NA,2,legacy,1024,2,48000,-16,experiment,SSHSS,2,even,55629,NA,NA,98401,2005,NA,NA,122441,2010,NA,NA,121330,122544,123164,122438,NA,NA,122544,Week4submit,36,23053,37,yes,1024
97.36842105,97.36842105,622.4473684,622.4473684,black,legacy,legacy,legacy,0,congruent,uniform,1,undefined,1,h,0,0,0,37,0,37,0,37,0,0,0,37,37,37,37,NA,NA,37,9/19/19 15:51,1500,The main experiment item,yes,Week4submit.osexp,C:/Users/DLGoupil/Desktop,no,mono,no,18,no,white,no,yes,768,legacy,37,37,C:/Users/DLGoupil/Desktop/subject-2.csv,legacy,Kafkaesque Koffka,3.2.8,0,h,NA,s,NA,NA,h,NA,NA,600,NA,53618,NA,NA,600,NA,NA,2,legacy,1024,2,48000,-16,experiment,HHHHH,2,even,55629,NA,NA,98401,2005,NA,NA,124277,2010,NA,NA,123170,124380,124980,124274,NA,NA,124380,Week4submit,37,23653,38,yes,1024
97.43589744,97.43589744,624.2307692,624.2307692,black,legacy,legacy,legacy,0,congruent,uniform,1,undefined,1,s,0,0,0,38,0,38,0,38,0,0,0,38,38,38,38,NA,NA,38,9/19/19 15:51,1500,The main experiment item,yes,Week4submit.osexp,C:/Users/DLGoupil/Desktop,no,mono,no,18,no,white,no,yes,768,legacy,38,38,C:/Users/DLGoupil/Desktop/subject-2.csv,legacy,Kafkaesque Koffka,3.2.8,0,s,NA,s,NA,NA,s,NA,NA,692,NA,53618,NA,NA,692,NA,NA,2,legacy,1024,2,48000,-16,experiment,SSSSS,2,even,55629,NA,NA,98401,2005,NA,NA,126089,2010,NA,NA,124986,126192,126884,126087,NA,NA,126192,Week4submit,38,24345,39,yes,1024
97.5,97.5,622.225,622.225,black,legacy,legacy,legacy,0,congruent,uniform,1,undefined,1,s,0,0,0,39,0,39,0,39,0,0,0,39,39,39,39,NA,NA,39,9/19/19 15:51,1500,The main experiment item,yes,Week4submit.osexp,C:/Users/DLGoupil/Desktop,no,mono,no,18,no,white,no,yes,768,legacy,39,39,C:/Users/DLGoupil/Desktop/subject-2.csv,legacy,Kafkaesque Koffka,3.2.8,0,s,NA,s,NA,NA,s,NA,NA,544,NA,53618,NA,NA,544,NA,NA,2,legacy,1024,2,48000,-16,experiment,SSSSS,2,even,55629,NA,NA,98401,2005,NA,NA,127997,2010,NA,NA,126890,128100,128644,127994,NA,NA,128100,Week4submit,39,24889,40,yes,1024
97.56097561,97.56097561,619.6341463,619.6341463,black,legacy,legacy,legacy,0,congruent,uniform,1,undefined,1,s,0,0,0,40,0,40,0,40,0,0,0,40,40,40,40,NA,NA,40,9/19/19 15:51,1500,The main experiment item,yes,Week4submit.osexp,C:/Users/DLGoupil/Desktop,no,mono,no,18,no,white,no,yes,768,legacy,40,40,C:/Users/DLGoupil/Desktop/subject-2.csv,legacy,Kafkaesque Koffka,3.2.8,0,s,NA,s,NA,NA,s,NA,NA,516,NA,53618,NA,NA,516,NA,NA,2,legacy,1024,2,48000,-16,experiment,SSSSS,2,even,55629,NA,NA,98401,2005,NA,NA,129761,2010,NA,NA,128650,129864,130380,129758,NA,NA,129864,Week4submit,40,25405,41,yes,1024
97.61904762,97.61904762,620.547619,620.547619,black,legacy,legacy,legacy,0,incongruent,uniform,1,undefined,1,h,0,0,0,41,0,41,0,41,0,0,0,41,41,41,41,NA,NA,41,9/19/19 15:51,1500,The main experiment item,yes,Week4submit.osexp,C:/Users/DLGoupil/Desktop,no,mono,no,18,no,white,no,yes,768,legacy,41,41,C:/Users/DLGoupil/Desktop/subject-2.csv,legacy,Kafkaesque Koffka,3.2.8,0,h,NA,s,NA,NA,h,NA,NA,658,NA,53618,NA,NA,658,NA,NA,2,legacy,1024,2,48000,-16,experiment,SSHSS,2,even,55629,NA,NA,98401,2005,NA,NA,131499,2010,NA,NA,130386,131602,132260,131496,NA,NA,131602,Week4submit,41,26063,42,yes,1024
97.6744186,97.6744186,620.8604651,620.8604651,black,legacy,legacy,legacy,0,congruent,uniform,1,undefined,1,h,0,0,0,42,0,42,0,42,0,0,0,42,42,42,42,NA,NA,42,9/19/19 15:51,1500,The main experiment item,yes,Week4submit.osexp,C:/Users/DLGoupil/Desktop,no,mono,no,18,no,white,no,yes,768,legacy,42,42,C:/Users/DLGoupil/Desktop/subject-2.csv,legacy,Kafkaesque Koffka,3.2.8,0,h,NA,s,NA,NA,h,NA,NA,634,NA,53618,NA,NA,634,NA,NA,2,legacy,1024,2,48000,-16,experiment,HHHHH,2,even,55629,NA,NA,98401,2005,NA,NA,133363,2010,NA,NA,132266,133466,134100,133360,NA,NA,133466,Week4submit,42,26697,43,yes,1024
97.72727273,97.72727273,618.7954545,618.7954545,black,legacy,legacy,legacy,0,congruent,uniform,1,undefined,1,h,0,0,0,43,0,43,0,43,0,0,0,43,43,43,43,NA,NA,43,9/19/19 15:51,1500,The main experiment item,yes,Week4submit.osexp,C:/Users/DLGoupil/Desktop,no,mono,no,18,no,white,no,yes,768,legacy,43,43,C:/Users/DLGoupil/Desktop/subject-2.csv,legacy,Kafkaesque Koffka,3.2.8,0,h,NA,s,NA,NA,h,NA,NA,530,NA,53618,NA,NA,530,NA,NA,2,legacy,1024,2,48000,-16,experiment,HHHHH,2,even,55629,NA,NA,98401,2005,NA,NA,135219,2010,NA,NA,134106,135322,135852,135216,NA,NA,135322,Week4submit,43,27227,44,yes,1024
97.77777778,97.77777778,618.5333333,618.5333333,black,legacy,legacy,legacy,0,congruent,uniform,1,undefined,1,s,0,0,0,44,0,44,0,44,0,0,0,44,44,44,44,NA,NA,44,9/19/19 15:51,1500,The main experiment item,yes,Week4submit.osexp,C:/Users/DLGoupil/Desktop,no,mono,no,18,no,white,no,yes,768,legacy,44,44,C:/Users/DLGoupil/Desktop/subject-2.csv,legacy,Kafkaesque Koffka,3.2.8,0,s,NA,s,NA,NA,s,NA,NA,607,NA,53618,NA,NA,607,NA,NA,2,legacy,1024,2,48000,-16,experiment,SSSSS,2,even,55629,NA,NA,98401,2005,NA,NA,136966,2010,NA,NA,135858,137069,137676,136963,NA,NA,137069,Week4submit,44,27834,45,yes,1024
97.82608696,97.82608696,618.7608696,618.7608696,black,legacy,legacy,legacy,0,incongruent,uniform,1,undefined,1,s,0,0,0,45,0,45,0,45,0,0,0,45,45,45,45,NA,NA,45,9/19/19 15:51,1500,The main experiment item,yes,Week4submit.osexp,C:/Users/DLGoupil/Desktop,no,mono,no,18,no,white,no,yes,768,legacy,45,45,C:/Users/DLGoupil/Desktop/subject-2.csv,legacy,Kafkaesque Koffka,3.2.8,0,s,NA,s,NA,NA,s,NA,NA,629,NA,53618,NA,NA,629,NA,NA,2,legacy,1024,2,48000,-16,experiment,HHSHH,2,even,55629,NA,NA,98401,2005,NA,NA,138793,2010,NA,NA,137682,138895,139525,138790,NA,NA,138895,Week4submit,45,28463,46,yes,1024
97.87234043,97.87234043,617.3829787,617.3829787,black,legacy,legacy,legacy,0,congruent,uniform,1,undefined,1,s,0,0,0,46,0,46,0,46,0,0,0,46,46,46,46,NA,NA,46,9/19/19 15:51,1500,The main experiment item,yes,Week4submit.osexp,C:/Users/DLGoupil/Desktop,no,mono,no,18,no,white,no,yes,768,legacy,46,46,C:/Users/DLGoupil/Desktop/subject-2.csv,legacy,Kafkaesque Koffka,3.2.8,0,s,NA,s,NA,NA,s,NA,NA,554,NA,53618,NA,NA,554,NA,NA,2,legacy,1024,2,48000,-16,experiment,SSSSS,2,even,55629,NA,NA,98401,2005,NA,NA,140627,2010,NA,NA,139530,140730,141285,140624,NA,NA,140730,Week4submit,46,29017,47,yes,1024
97.91666667,97.91666667,617.3541667,617.3541667,black,legacy,legacy,legacy,0,congruent,uniform,1,undefined,1,h,0,0,0,47,0,47,0,47,0,0,0,47,47,47,47,NA,NA,47,9/19/19 15:51,1500,The main experiment item,yes,Week4submit.osexp,C:/Users/DLGoupil/Desktop,no,mono,no,18,no,white,no,yes,768,legacy,47,47,C:/Users/DLGoupil/Desktop/subject-2.csv,legacy,Kafkaesque Koffka,3.2.8,0,h,NA,s,NA,NA,h,NA,NA,616,NA,53618,NA,NA,616,NA,NA,2,legacy,1024,2,48000,-16,experiment,HHHHH,2,even,55629,NA,NA,98401,2005,NA,NA,142397,2010,NA,NA,141290,142500,143117,142394,NA,NA,142500,Week4submit,47,29633,48,yes,1024
97.95918367,97.95918367,615.1836735,615.1836735,black,legacy,legacy,legacy,0,incongruent,uniform,1,undefined,1,h,0,0,0,48,0,48,0,48,0,0,0,48,48,48,48,NA,NA,48,9/19/19 15:51,1500,The main experiment item,yes,Week4submit.osexp,C:/Users/DLGoupil/Desktop,no,mono,no,18,no,white,no,yes,768,legacy,48,48,C:/Users/DLGoupil/Desktop/subject-2.csv,legacy,Kafkaesque Koffka,3.2.8,0,h,NA,s,NA,NA,h,NA,NA,511,NA,53618,NA,NA,511,NA,NA,2,legacy,1024,2,48000,-16,experiment,SSHSS,2,even,55629,NA,NA,98401,2005,NA,NA,144230,2010,NA,NA,143122,144333,144845,144227,NA,NA,144333,Week4submit,48,30144,49,yes,1024
98,98,614.64,614.64,black,legacy,legacy,legacy,0,congruent,uniform,1,undefined,1,s,0,0,0,49,0,49,0,49,0,0,0,49,49,49,49,NA,NA,49,9/19/19 15:51,1500,The main experiment item,yes,Week4submit.osexp,C:/Users/DLGoupil/Desktop,no,mono,no,18,no,white,no,yes,768,legacy,49,49,C:/Users/DLGoupil/Desktop/subject-2.csv,legacy,Kafkaesque Koffka,3.2.8,0,s,NA,s,NA,NA,s,NA,NA,588,NA,53618,NA,NA,588,NA,NA,2,legacy,1024,2,48000,-16,experiment,SSSSS,2,even,55629,NA,NA,98401,2005,NA,NA,145961,2010,NA,NA,144850,146064,146653,145958,NA,NA,146064,Week4submit,49,30732,50,yes,1024
98.03921569,98.03921569,614.3333333,614.3333333,black,legacy,legacy,legacy,0,congruent,uniform,1,undefined,1,h,0,0,0,50,0,50,0,50,0,0,0,50,50,50,50,NA,NA,50,9/19/19 15:51,1500,The main experiment item,yes,Week4submit.osexp,C:/Users/DLGoupil/Desktop,no,mono,no,18,no,white,no,yes,768,legacy,50,50,C:/Users/DLGoupil/Desktop/subject-2.csv,legacy,Kafkaesque Koffka,3.2.8,0,h,NA,s,NA,NA,h,NA,NA,599,NA,53618,NA,NA,599,NA,NA,2,legacy,1024,2,48000,-16,experiment,HHHHH,2,even,55629,NA,NA,98401,2005,NA,NA,147766,2010,NA,NA,146658,147869,148469,147763,NA,NA,147869,Week4submit,50,31331,51,yes,1024
98.07692308,98.07692308,617.9807692,617.9807692,black,legacy,legacy,legacy,0,congruent,uniform,1,undefined,1,s,0,0,0,51,0,51,0,51,0,0,0,51,51,51,51,NA,NA,51,9/19/19 15:51,1500,The main experiment item,yes,Week4submit.osexp,C:/Users/DLGoupil/Desktop,no,mono,no,18,no,white,no,yes,768,legacy,51,51,C:/Users/DLGoupil/Desktop/subject-2.csv,legacy,Kafkaesque Koffka,3.2.8,0,s,NA,s,NA,NA,s,NA,NA,804,NA,53618,NA,NA,804,NA,NA,2,legacy,1024,2,48000,-16,experiment,SSSSS,2,even,55629,NA,NA,98401,2005,NA,NA,149577,2010,NA,NA,148474,149680,150485,149574,NA,NA,149680,Week4submit,51,32135,52,yes,1024
98.11320755,98.11320755,617.4150943,617.4150943,black,legacy,legacy,legacy,0,incongruent,uniform,1,undefined,1,h,0,0,0,52,0,52,0,52,0,0,0,52,52,52,52,NA,NA,52,9/19/19 15:51,1500,The main experiment item,yes,Week4submit.osexp,C:/Users/DLGoupil/Desktop,no,mono,no,18,no,white,no,yes,768,legacy,52,52,C:/Users/DLGoupil/Desktop/subject-2.csv,legacy,Kafkaesque Koffka,3.2.8,0,h,NA,s,NA,NA,h,NA,NA,588,NA,53618,NA,NA,588,NA,NA,2,legacy,1024,2,48000,-16,experiment,SSHSS,2,even,55629,NA,NA,98401,2005,NA,NA,151601,2010,NA,NA,150490,151704,152293,151598,NA,NA,151704,Week4submit,52,32723,53,yes,1024
98.14814815,98.14814815,617.6481481,617.6481481,black,legacy,legacy,legacy,0,congruent,uniform,1,undefined,1,h,0,0,0,53,0,53,0,53,0,0,0,53,53,53,53,NA,NA,53,9/19/19 15:51,1500,The main experiment item,yes,Week4submit.osexp,C:/Users/DLGoupil/Desktop,no,mono,no,18,no,white,no,yes,768,legacy,53,53,C:/Users/DLGoupil/Desktop/subject-2.csv,legacy,Kafkaesque Koffka,3.2.8,0,h,NA,s,NA,NA,h,NA,NA,630,NA,53618,NA,NA,630,NA,NA,2,legacy,1024,2,48000,-16,experiment,HHHHH,2,even,55629,NA,NA,98401,2005,NA,NA,153407,2010,NA,NA,152298,153510,154141,153404,NA,NA,153510,Week4submit,53,33353,54,yes,1024
98.18181818,98.18181818,616.3454545,616.3454545,black,legacy,legacy,legacy,0,congruent,uniform,1,undefined,1,h,0,0,0,54,0,54,0,54,0,0,0,54,54,54,54,NA,NA,54,9/19/19 15:51,1500,The main experiment item,yes,Week4submit.osexp,C:/Users/DLGoupil/Desktop,no,mono,no,18,no,white,no,yes,768,legacy,54,54,C:/Users/DLGoupil/Desktop/subject-2.csv,legacy,Kafkaesque Koffka,3.2.8,0,h,NA,s,NA,NA,h,NA,NA,546,NA,53618,NA,NA,546,NA,NA,2,legacy,1024,2,48000,-16,experiment,HHHHH,2,even,55629,NA,NA,98401,2005,NA,NA,155259,2010,NA,NA,154146,155362,155909,155256,NA,NA,155362,Week4submit,54,33899,55,yes,1024
98.21428571,98.21428571,614.5,614.5,black,legacy,legacy,legacy,0,congruent,uniform,1,undefined,1,h,0,0,0,55,0,55,0,55,0,0,0,55,55,55,55,NA,NA,55,9/19/19 15:51,1500,The main experiment item,yes,Week4submit.osexp,C:/Users/DLGoupil/Desktop,no,mono,no,18,no,white,no,yes,768,legacy,55,55,C:/Users/DLGoupil/Desktop/subject-2.csv,legacy,Kafkaesque Koffka,3.2.8,0,h,NA,s,NA,NA,h,NA,NA,513,NA,53618,NA,NA,513,NA,NA,2,legacy,1024,2,48000,-16,experiment,HHHHH,2,even,55629,NA,NA,98401,2005,NA,NA,157019,2010,NA,NA,155914,157122,157636,157016,NA,NA,157122,Week4submit,55,34412,56,yes,1024
98.24561404,98.24561404,612.8596491,612.8596491,black,legacy,legacy,legacy,0,congruent,uniform,1,undefined,1,h,0,0,0,56,0,56,0,56,0,0,0,56,56,56,56,NA,NA,56,9/19/19 15:51,1500,The main experiment item,yes,Week4submit.osexp,C:/Users/DLGoupil/Desktop,no,mono,no,18,no,white,no,yes,768,legacy,56,56,C:/Users/DLGoupil/Desktop/subject-2.csv,legacy,Kafkaesque Koffka,3.2.8,0,h,NA,s,NA,NA,h,NA,NA,521,NA,53618,NA,NA,521,NA,NA,2,legacy,1024,2,48000,-16,experiment,HHHHH,2,even,55629,NA,NA,98401,2005,NA,NA,158747,2010,NA,NA,157641,158850,159372,158744,NA,NA,158850,Week4submit,56,34933,57,yes,1024
98.27586207,98.27586207,612.6034483,612.6034483,black,legacy,legacy,legacy,0,incongruent,uniform,1,undefined,1,s,0,0,0,57,0,57,0,57,0,0,0,57,57,57,57,NA,NA,57,9/19/19 15:51,1500,The main experiment item,yes,Week4submit.osexp,C:/Users/DLGoupil/Desktop,no,mono,no,18,no,white,no,yes,768,legacy,57,57,C:/Users/DLGoupil/Desktop/subject-2.csv,legacy,Kafkaesque Koffka,3.2.8,0,s,NA,s,NA,NA,s,NA,NA,598,NA,53618,NA,NA,598,NA,NA,2,legacy,1024,2,48000,-16,experiment,HHSHH,2,even,55629,NA,NA,98401,2005,NA,NA,160486,2010,NA,NA,159377,160589,161188,160483,NA,NA,160589,Week4submit,57,35531,58,yes,1024
98.30508475,98.30508475,613.2711864,613.2711864,black,legacy,legacy,legacy,0,congruent,uniform,1,undefined,1,s,0,0,0,58,0,58,0,58,0,0,0,58,58,58,58,NA,NA,58,9/19/19 15:51,1500,The main experiment item,yes,Week4submit.osexp,C:/Users/DLGoupil/Desktop,no,mono,no,18,no,white,no,yes,768,legacy,58,58,C:/Users/DLGoupil/Desktop/subject-2.csv,legacy,Kafkaesque Koffka,3.2.8,0,s,NA,s,NA,NA,s,NA,NA,652,NA,53618,NA,NA,652,NA,NA,2,legacy,1024,2,48000,-16,experiment,SSSSS,2,even,55629,NA,NA,98401,2005,NA,NA,162295,2010,NA,NA,161193,162399,163052,162293,NA,NA,162399,Week4submit,58,36183,59,yes,1024
98.33333333,98.33333333,611.4,611.4,black,legacy,legacy,legacy,0,incongruent,uniform,1,undefined,1,h,0,0,0,59,0,59,0,59,0,0,0,59,59,59,59,NA,NA,59,9/19/19 15:51,1500,The main experiment item,yes,Week4submit.osexp,C:/Users/DLGoupil/Desktop,no,mono,no,18,no,white,no,yes,768,legacy,59,59,C:/Users/DLGoupil/Desktop/subject-2.csv,legacy,Kafkaesque Koffka,3.2.8,0,h,NA,s,NA,NA,h,NA,NA,501,NA,53618,NA,NA,501,NA,NA,2,legacy,1024,2,48000,-16,experiment,SSHSS,2,even,55629,NA,NA,98401,2005,NA,NA,164159,2010,NA,NA,163057,164262,164764,164156,NA,NA,164262,Week4submit,59,36684,60,yes,1024
98.36065574,98.36065574,610.3442623,610.3442623,black,legacy,legacy,legacy,0,incongruent,uniform,1,undefined,1,h,0,0,0,60,0,60,0,60,0,0,0,60,60,60,60,NA,NA,60,9/19/19 15:51,1500,The main experiment item,yes,Week4submit.osexp,C:/Users/DLGoupil/Desktop,no,mono,no,18,no,white,no,yes,768,legacy,60,60,C:/Users/DLGoupil/Desktop/subject-2.csv,legacy,Kafkaesque Koffka,3.2.8,0,h,NA,s,NA,NA,h,NA,NA,547,NA,53618,NA,NA,547,NA,NA,2,legacy,1024,2,48000,-16,experiment,SSHSS,2,even,55629,NA,NA,98401,2005,NA,NA,165881,2010,NA,NA,164769,165984,166532,165878,NA,NA,165984,Week4submit,60,37231,61,yes,1024
98.38709677,98.38709677,610.5,610.5,black,legacy,legacy,legacy,0,congruent,uniform,1,undefined,1,s,0,0,0,61,0,61,0,61,0,0,0,61,61,61,61,NA,NA,61,9/19/19 15:51,1500,The main experiment item,yes,Week4submit.osexp,C:/Users/DLGoupil/Desktop,no,mono,no,18,no,white,no,yes,768,legacy,61,61,C:/Users/DLGoupil/Desktop/subject-2.csv,legacy,Kafkaesque Koffka,3.2.8,0,s,NA,s,NA,NA,s,NA,NA,620,NA,53618,NA,NA,620,NA,NA,2,legacy,1024,2,48000,-16,experiment,SSSSS,2,even,55629,NA,NA,98401,2005,NA,NA,167632,2010,NA,NA,166537,167735,168356,167630,NA,NA,167735,Week4submit,61,37851,62,yes,1024
98.41269841,98.41269841,611.031746,611.031746,black,legacy,legacy,legacy,0,incongruent,uniform,1,undefined,1,h,0,0,0,62,0,62,0,62,0,0,0,62,62,62,62,NA,NA,62,9/19/19 15:51,1500,The main experiment item,yes,Week4submit.osexp,C:/Users/DLGoupil/Desktop,no,mono,no,18,no,white,no,yes,768,legacy,62,62,C:/Users/DLGoupil/Desktop/subject-2.csv,legacy,Kafkaesque Koffka,3.2.8,0,h,NA,s,NA,NA,h,NA,NA,644,NA,53618,NA,NA,644,NA,NA,2,legacy,1024,2,48000,-16,experiment,SSHSS,2,even,55629,NA,NA,98401,2005,NA,NA,169464,2010,NA,NA,168361,169567,170212,169461,NA,NA,169567,Week4submit,62,38495,63,yes,1024
98.4375,98.4375,612.265625,612.265625,black,legacy,legacy,legacy,0,incongruent,uniform,1,undefined,1,s,0,0,0,63,0,63,0,63,0,0,0,63,63,63,63,NA,NA,63,9/19/19 15:51,1500,The main experiment item,yes,Week4submit.osexp,C:/Users/DLGoupil/Desktop,no,mono,no,18,no,white,no,yes,768,legacy,63,63,C:/Users/DLGoupil/Desktop/subject-2.csv,legacy,Kafkaesque Koffka,3.2.8,0,s,NA,s,NA,NA,s,NA,NA,690,NA,53618,NA,NA,690,NA,NA,2,legacy,1024,2,48000,-16,experiment,HHSHH,2,even,55629,NA,NA,98401,2005,NA,NA,171322,2010,NA,NA,170217,171425,172116,171319,NA,NA,171425,Week4submit,63,39185,64,yes,1024
98.46153846,98.46153846,611.9692308,611.9692308,black,legacy,legacy,legacy,0,congruent,uniform,1,undefined,1,s,0,0,0,64,0,64,0,64,0,0,0,64,64,64,64,NA,NA,64,9/19/19 15:51,1500,The main experiment item,yes,Week4submit.osexp,C:/Users/DLGoupil/Desktop,no,mono,no,18,no,white,no,yes,768,legacy,64,64,C:/Users/DLGoupil/Desktop/subject-2.csv,legacy,Kafkaesque Koffka,3.2.8,0,s,NA,s,NA,NA,s,NA,NA,593,NA,53618,NA,NA,593,NA,NA,2,legacy,1024,2,48000,-16,experiment,SSSSS,2,even,55629,NA,NA,98401,2005,NA,NA,173219,2010,NA,NA,172121,173322,173916,173216,NA,NA,173322,Week4submit,64,39778,65,yes,1024
98.48484848,98.48484848,611.8484848,611.8484848,black,legacy,legacy,legacy,0,incongruent,uniform,1,undefined,1,h,0,0,0,65,0,65,0,65,0,0,0,65,65,65,65,NA,NA,65,9/19/19 15:51,1500,The main experiment item,yes,Week4submit.osexp,C:/Users/DLGoupil/Desktop,no,mono,no,18,no,white,no,yes,768,legacy,65,65,C:/Users/DLGoupil/Desktop/subject-2.csv,legacy,Kafkaesque Koffka,3.2.8,0,h,NA,s,NA,NA,h,NA,NA,604,NA,53618,NA,NA,604,NA,NA,2,legacy,1024,2,48000,-16,experiment,SSHSS,2,even,55629,NA,NA,98401,2005,NA,NA,175032,2010,NA,NA,173921,175135,175741,175029,NA,NA,175135,Week4submit,65,40382,66,yes,1024
98.50746269,98.50746269,611.1940299,611.1940299,black,legacy,legacy,legacy,0,congruent,uniform,1,undefined,1,h,0,0,0,66,0,66,0,66,0,0,0,66,66,66,66,NA,NA,66,9/19/19 15:51,1500,The main experiment item,yes,Week4submit.osexp,C:/Users/DLGoupil/Desktop,no,mono,no,18,no,white,no,yes,768,legacy,66,66,C:/Users/DLGoupil/Desktop/subject-2.csv,legacy,Kafkaesque Koffka,3.2.8,0,h,NA,s,NA,NA,h,NA,NA,568,NA,53618,NA,NA,568,NA,NA,2,legacy,1024,2,48000,-16,experiment,HHHHH,2,even,55629,NA,NA,98401,2005,NA,NA,176860,2010,NA,NA,175746,176963,177533,176857,NA,NA,176963,Week4submit,66,40950,67,yes,1024
98.52941176,98.52941176,611.1323529,611.1323529,black,legacy,legacy,legacy,0,incongruent,uniform,1,undefined,1,s,0,0,0,67,0,67,0,67,0,0,0,67,67,67,67,NA,NA,67,9/19/19 15:51,1500,The main experiment item,yes,Week4submit.osexp,C:/Users/DLGoupil/Desktop,no,mono,no,18,no,white,no,yes,768,legacy,67,67,C:/Users/DLGoupil/Desktop/subject-2.csv,legacy,Kafkaesque Koffka,3.2.8,0,s,NA,s,NA,NA,s,NA,NA,607,NA,53618,NA,NA,607,NA,NA,2,legacy,1024,2,48000,-16,experiment,HHSHH,2,even,55629,NA,NA,98401,2005,NA,NA,178645,2010,NA,NA,177538,178748,179357,178642,NA,NA,178748,Week4submit,67,41557,68,yes,1024
98.55072464,98.55072464,615.9565217,615.9565217,black,legacy,legacy,legacy,0,incongruent,uniform,1,undefined,1,h,0,0,0,68,0,68,0,68,0,0,0,68,68,68,68,NA,NA,68,9/19/19 15:51,1500,The main experiment item,yes,Week4submit.osexp,C:/Users/DLGoupil/Desktop,no,mono,no,18,no,white,no,yes,768,legacy,68,68,C:/Users/DLGoupil/Desktop/subject-2.csv,legacy,Kafkaesque Koffka,3.2.8,0,h,NA,s,NA,NA,h,NA,NA,944,NA,53618,NA,NA,944,NA,NA,2,legacy,1024,2,48000,-16,experiment,SSHSS,2,even,55629,NA,NA,98401,2005,NA,NA,180468,2010,NA,NA,179362,180571,181517,180466,NA,NA,180571,Week4submit,68,42501,69,yes,1024
98.57142857,98.57142857,616.6428571,616.6428571,black,legacy,legacy,legacy,0,congruent,uniform,1,undefined,1,s,0,0,0,69,0,69,0,69,0,0,0,69,69,69,69,NA,NA,69,9/19/19 15:51,1500,The main experiment item,yes,Week4submit.osexp,C:/Users/DLGoupil/Desktop,no,mono,no,18,no,white,no,yes,768,legacy,69,69,C:/Users/DLGoupil/Desktop/subject-2.csv,legacy,Kafkaesque Koffka,3.2.8,0,s,NA,s,NA,NA,s,NA,NA,664,NA,53618,NA,NA,664,NA,NA,2,legacy,1024,2,48000,-16,experiment,SSSSS,2,even,55629,NA,NA,98401,2005,NA,NA,182628,2010,NA,NA,181522,182731,183396,182625,NA,NA,182731,Week4submit,69,43165,70,yes,1024
98.5915493,98.5915493,617.1267606,617.1267606,black,legacy,legacy,legacy,0,incongruent,uniform,1,undefined,1,s,0,0,0,70,0,70,0,70,0,0,0,70,70,70,70,NA,NA,70,9/19/19 15:51,1500,The main experiment item,yes,Week4submit.osexp,C:/Users/DLGoupil/Desktop,no,mono,no,18,no,white,no,yes,768,legacy,70,70,C:/Users/DLGoupil/Desktop/subject-2.csv,legacy,Kafkaesque Koffka,3.2.8,0,s,NA,s,NA,NA,s,NA,NA,651,NA,53618,NA,NA,651,NA,NA,2,legacy,1024,2,48000,-16,experiment,HHSHH,2,even,55629,NA,NA,98401,2005,NA,NA,184513,2010,NA,NA,183402,184616,185268,184510,NA,NA,184616,Week4submit,70,43816,71,yes,1024
98.61111111,98.61111111,616.125,616.125,black,legacy,legacy,legacy,0,incongruent,uniform,1,undefined,1,s,0,0,0,71,0,71,0,71,0,0,0,71,71,71,71,NA,NA,71,9/19/19 15:51,1500,The main experiment item,yes,Week4submit.osexp,C:/Users/DLGoupil/Desktop,no,mono,no,18,no,white,no,yes,768,legacy,71,71,C:/Users/DLGoupil/Desktop/subject-2.csv,legacy,Kafkaesque Koffka,3.2.8,0,s,NA,s,NA,NA,s,NA,NA,545,NA,53618,NA,NA,545,NA,NA,2,legacy,1024,2,48000,-16,experiment,HHSHH,2,even,55629,NA,NA,98401,2005,NA,NA,186380,2010,NA,NA,185274,186483,187029,186377,NA,NA,186483,Week4submit,71,44361,72,yes,1024
98.63013699,98.63013699,614.9863014,614.9863014,black,legacy,legacy,legacy,0,congruent,uniform,1,undefined,1,h,0,0,0,72,0,72,0,72,0,0,0,72,72,72,72,NA,NA,72,9/19/19 15:51,1500,The main experiment item,yes,Week4submit.osexp,C:/Users/DLGoupil/Desktop,no,mono,no,18,no,white,no,yes,768,legacy,72,72,C:/Users/DLGoupil/Desktop/subject-2.csv,legacy,Kafkaesque Koffka,3.2.8,0,h,NA,s,NA,NA,h,NA,NA,533,NA,53618,NA,NA,533,NA,NA,2,legacy,1024,2,48000,-16,experiment,HHHHH,2,even,55629,NA,NA,98401,2005,NA,NA,188144,2010,NA,NA,187034,188247,188781,188141,NA,NA,188247,Week4submit,72,44894,73,yes,1024
98.64864865,98.64864865,615.4459459,615.4459459,black,legacy,legacy,legacy,0,incongruent,uniform,1,undefined,1,h,0,0,0,73,0,73,0,73,0,0,0,73,73,73,73,NA,NA,73,9/19/19 15:51,1500,The main experiment item,yes,Week4submit.osexp,C:/Users/DLGoupil/Desktop,no,mono,no,18,no,white,no,yes,768,legacy,73,73,C:/Users/DLGoupil/Desktop/subject-2.csv,legacy,Kafkaesque Koffka,3.2.8,0,h,NA,s,NA,NA,h,NA,NA,649,NA,53618,NA,NA,649,NA,NA,2,legacy,1024,2,48000,-16,experiment,SSHSS,2,even,55629,NA,NA,98401,2005,NA,NA,189891,2010,NA,NA,188786,189994,190645,189888,NA,NA,189994,Week4submit,73,45543,74,yes,1024
98.66666667,98.66666667,615.5066667,615.5066667,black,legacy,legacy,legacy,0,incongruent,uniform,1,undefined,1,s,0,0,0,74,0,74,0,74,0,0,0,74,74,74,74,NA,NA,74,9/19/19 15:51,1500,The main experiment item,yes,Week4submit.osexp,C:/Users/DLGoupil/Desktop,no,mono,no,18,no,white,no,yes,768,legacy,74,74,C:/Users/DLGoupil/Desktop/subject-2.csv,legacy,Kafkaesque Koffka,3.2.8,0,s,NA,s,NA,NA,s,NA,NA,620,NA,53618,NA,NA,620,NA,NA,2,legacy,1024,2,48000,-16,experiment,HHSHH,2,even,55629,NA,NA,98401,2005,NA,NA,191753,2010,NA,NA,190650,191856,192477,191751,NA,NA,191856,Week4submit,74,46163,75,yes,1024
98.68421053,98.68421053,617.4342105,617.4342105,black,legacy,legacy,legacy,0,incongruent,uniform,1,undefined,1,s,0,0,0,75,0,75,0,75,0,0,0,75,75,75,75,NA,NA,75,9/19/19 15:51,1500,The main experiment item,yes,Week4submit.osexp,C:/Users/DLGoupil/Desktop,no,mono,no,18,no,white,no,yes,768,legacy,75,75,C:/Users/DLGoupil/Desktop/subject-2.csv,legacy,Kafkaesque Koffka,3.2.8,0,s,NA,s,NA,NA,s,NA,NA,762,NA,53618,NA,NA,762,NA,NA,2,legacy,1024,2,48000,-16,experiment,HHSHH,2,even,55629,NA,NA,98401,2005,NA,NA,193579,2010,NA,NA,192482,193682,194445,193576,NA,NA,193682,Week4submit,75,46925,76,yes,1024
98.7012987,98.7012987,616.5714286,616.5714286,black,legacy,legacy,legacy,0,congruent,uniform,1,undefined,1,s,0,0,0,76,0,76,0,76,0,0,0,76,76,76,76,NA,NA,76,9/19/19 15:51,1500,The main experiment item,yes,Week4submit.osexp,C:/Users/DLGoupil/Desktop,no,mono,no,18,no,white,no,yes,768,legacy,76,76,C:/Users/DLGoupil/Desktop/subject-2.csv,legacy,Kafkaesque Koffka,3.2.8,0,s,NA,s,NA,NA,s,NA,NA,551,NA,53618,NA,NA,551,NA,NA,2,legacy,1024,2,48000,-16,experiment,SSSSS,2,even,55629,NA,NA,98401,2005,NA,NA,195558,2010,NA,NA,194450,195661,196213,195555,NA,NA,195661,Week4submit,76,47476,77,yes,1024
98.71794872,98.71794872,614.9102564,614.9102564,black,legacy,legacy,legacy,0,congruent,uniform,1,undefined,1,s,0,0,0,77,0,77,0,77,0,0,0,77,77,77,77,NA,NA,77,9/19/19 15:51,1500,The main experiment item,yes,Week4submit.osexp,C:/Users/DLGoupil/Desktop,no,mono,no,18,no,white,no,yes,768,legacy,77,77,C:/Users/DLGoupil/Desktop/subject-2.csv,legacy,Kafkaesque Koffka,3.2.8,0,s,NA,s,NA,NA,s,NA,NA,487,NA,53618,NA,NA,487,NA,NA,2,legacy,1024,2,48000,-16,experiment,SSSSS,2,even,55629,NA,NA,98401,2005,NA,NA,197326,2010,NA,NA,196218,197429,197917,197323,NA,NA,197429,Week4submit,77,47963,78,yes,1024
98.73417722,98.73417722,614.6962025,614.6962025,black,legacy,legacy,legacy,0,congruent,uniform,1,undefined,1,h,0,0,0,78,0,78,0,78,0,0,0,78,78,78,78,NA,NA,78,9/19/19 15:51,1500,The main experiment item,yes,Week4submit.osexp,C:/Users/DLGoupil/Desktop,no,mono,no,18,no,white,no,yes,768,legacy,78,78,C:/Users/DLGoupil/Desktop/subject-2.csv,legacy,Kafkaesque Koffka,3.2.8,0,h,NA,s,NA,NA,h,NA,NA,598,NA,53618,NA,NA,598,NA,NA,2,legacy,1024,2,48000,-16,experiment,HHHHH,2,even,55629,NA,NA,98401,2005,NA,NA,199023,2010,NA,NA,197922,199126,199725,199020,NA,NA,199126,Week4submit,78,48561,79,yes,1024
98.75,98.75,613.9875,613.9875,black,legacy,legacy,legacy,0,incongruent,uniform,1,undefined,1,s,0,0,0,79,0,79,0,79,0,0,0,79,79,79,79,NA,NA,79,9/19/19 15:51,1500,The main experiment item,yes,Week4submit.osexp,C:/Users/DLGoupil/Desktop,no,mono,no,18,no,white,no,yes,768,legacy,79,79,C:/Users/DLGoupil/Desktop/subject-2.csv,legacy,Kafkaesque Koffka,3.2.8,0,s,NA,s,NA,NA,s,NA,NA,558,NA,53618,NA,NA,558,NA,NA,2,legacy,1024,2,48000,-16,experiment,HHSHH,2,even,55629,NA,NA,98401,2005,NA,NA,200831,2010,NA,NA,199730,200934,201493,200828,NA,NA,200934,Week4submit,79,49119,80,yes,1024
97.5308642,97.5308642,616.5185185,616.5185185,black,legacy,legacy,legacy,0,congruent,uniform,0,undefined,0,s,0,0,0,80,0,80,0,80,0,0,0,80,80,80,80,NA,NA,80,9/19/19 15:51,600,The main experiment item,yes,Week4submit.osexp,C:/Users/DLGoupil/Desktop,no,mono,no,18,no,white,no,yes,768,legacy,0,79,C:/Users/DLGoupil/Desktop/subject-2.csv,legacy,Kafkaesque Koffka,3.2.8,0,h,NA,s,s,NA,h,NA,NA,819,NA,53618,25321,NA,819,NA,NA,2,legacy,1024,2,48000,-16,experiment,SSSSS,2,even,55629,227837,NA,98401,2005,NA,NA,227938,2010,202515,NA,201499,228041,228861,227935,NA,NA,228041,Week4submit,79,49938,81,yes,1024
97.56097561,97.56097561,619.4146341,619.4146341,black,legacy,legacy,legacy,0,incongruent,uniform,1,undefined,1,s,0,0,0,81,0,81,0,81,0,0,0,81,81,81,81,NA,NA,81,9/19/19 15:51,600,The main experiment item,yes,Week4submit.osexp,C:/Users/DLGoupil/Desktop,no,mono,no,18,no,white,no,yes,768,legacy,1,79,C:/Users/DLGoupil/Desktop/subject-2.csv,legacy,Kafkaesque Koffka,3.2.8,0,s,NA,s,s,NA,s,NA,NA,854,NA,53618,25321,NA,854,NA,NA,2,legacy,1024,2,48000,-16,experiment,HHSHH,2,even,55629,227837,NA,228866,2005,229369,NA,230983,2010,202515,NA,229872,231086,231941,230980,NA,NA,231086,Week4submit,80,50792,82,yes,1024
97.59036145,97.59036145,626.1686747,626.1686747,black,legacy,legacy,legacy,0,congruent,uniform,1,undefined,1,h,0,0,0,82,0,82,0,82,0,0,0,82,82,82,82,NA,NA,82,9/19/19 15:51,600,The main experiment item,yes,Week4submit.osexp,C:/Users/DLGoupil/Desktop,no,mono,no,18,no,white,no,yes,768,legacy,2,79,C:/Users/DLGoupil/Desktop/subject-2.csv,legacy,Kafkaesque Koffka,3.2.8,0,h,NA,s,s,NA,h,NA,NA,1180,NA,53618,25321,NA,1180,NA,NA,2,legacy,1024,2,48000,-16,experiment,HHHHH,2,even,55629,227837,NA,228866,2005,231946,NA,233559,2010,202515,NA,232449,233663,234845,233557,NA,NA,233663,Week4submit,81,51972,83,yes,1024
97.61904762,97.61904762,629.3690476,629.3690476,black,legacy,legacy,legacy,0,incongruent,uniform,1,undefined,1,s,0,0,0,83,0,83,0,83,0,0,0,83,83,83,83,NA,NA,83,9/19/19 15:51,600,The main experiment item,yes,Week4submit.osexp,C:/Users/DLGoupil/Desktop,no,mono,no,18,no,white,no,yes,768,legacy,3,79,C:/Users/DLGoupil/Desktop/subject-2.csv,legacy,Kafkaesque Koffka,3.2.8,0,s,NA,s,s,NA,s,NA,NA,895,NA,53618,25321,NA,895,NA,NA,2,legacy,1024,2,48000,-16,experiment,HHSHH,2,even,55629,227837,NA,228866,2005,234850,NA,236454,2010,202515,NA,235353,236557,237453,236451,NA,NA,236557,Week4submit,82,52867,84,yes,1024
96.47058824,96.47058824,628.0117647,628.0117647,black,legacy,legacy,legacy,0,incongruent,uniform,0,undefined,0,h,0,0,0,84,0,84,0,84,0,0,0,84,84,84,84,NA,NA,84,9/19/19 15:51,600,The main experiment item,yes,Week4submit.osexp,C:/Users/DLGoupil/Desktop,no,mono,no,18,no,white,no,yes,768,legacy,4,79,C:/Users/DLGoupil/Desktop/subject-2.csv,legacy,Kafkaesque Koffka,3.2.8,0,s,NA,s,s,NA,s,NA,NA,514,NA,53618,25321,NA,514,NA,NA,2,legacy,1024,2,48000,-16,experiment,SSHSS,2,even,55629,227837,NA,228866,2005,237458,NA,239059,2010,202515,NA,237961,239162,239677,239056,NA,NA,239162,Week4submit,82,53381,85,yes,1024
96.51162791,96.51162791,627.2790698,627.2790698,black,legacy,legacy,legacy,0,incongruent,uniform,1,undefined,1,h,0,0,0,85,0,85,0,85,0,0,0,85,85,85,85,NA,NA,85,9/19/19 15:51,600,The main experiment item,yes,Week4submit.osexp,C:/Users/DLGoupil/Desktop,no,mono,no,18,no,white,no,yes,768,legacy,5,79,C:/Users/DLGoupil/Desktop/subject-2.csv,legacy,Kafkaesque Koffka,3.2.8,0,h,NA,s,s,NA,h,NA,NA,565,NA,53618,25321,NA,565,NA,NA,2,legacy,1024,2,48000,-16,experiment,SSHSS,2,even,55629,227837,NA,239682,2005,237458,NA,241288,2010,202515,NA,240185,241391,241957,241285,NA,NA,241391,Week4submit,83,53946,86,yes,1024
95.40229885,95.40229885,624.9195402,624.9195402,black,legacy,legacy,legacy,0,incongruent,uniform,0,undefined,0,h,0,0,0,86,0,86,0,86,0,0,0,86,86,86,86,NA,NA,86,9/19/19 15:51,600,The main experiment item,yes,Week4submit.osexp,C:/Users/DLGoupil/Desktop,no,mono,no,18,no,white,no,yes,768,legacy,6,79,C:/Users/DLGoupil/Desktop/subject-2.csv,legacy,Kafkaesque Koffka,3.2.8,0,s,NA,s,s,NA,s,NA,NA,422,NA,53618,25321,NA,422,NA,NA,2,legacy,1024,2,48000,-16,experiment,SSHSS,2,even,55629,227837,NA,239682,2005,237458,NA,243071,2010,202515,NA,241962,243174,243597,243068,NA,NA,243174,Week4submit,83,54368,87,yes,1024
95.45454545,95.45454545,625.2954545,625.2954545,black,legacy,legacy,legacy,0,congruent,uniform,1,undefined,1,h,0,0,0,87,0,87,0,87,0,0,0,87,87,87,87,NA,NA,87,9/19/19 15:51,600,The main experiment item,yes,Week4submit.osexp,C:/Users/DLGoupil/Desktop,no,mono,no,18,no,white,no,yes,768,legacy,7,79,C:/Users/DLGoupil/Desktop/subject-2.csv,legacy,Kafkaesque Koffka,3.2.8,0,h,NA,s,s,NA,h,NA,NA,658,NA,53618,25321,NA,658,NA,NA,2,legacy,1024,2,48000,-16,experiment,HHHHH,2,even,55629,227837,NA,243602,2005,237458,NA,245210,2010,202515,NA,244106,245313,245972,245207,NA,NA,245313,Week4submit,84,55026,88,yes,1024
95.50561798,95.50561798,624.7303371,624.7303371,black,legacy,legacy,legacy,0,congruent,uniform,1,undefined,1,h,0,0,0,88,0,88,0,88,0,0,0,88,88,88,88,NA,NA,88,9/19/19 15:51,600,The main experiment item,yes,Week4submit.osexp,C:/Users/DLGoupil/Desktop,no,mono,no,18,no,white,no,yes,768,legacy,8,79,C:/Users/DLGoupil/Desktop/subject-2.csv,legacy,Kafkaesque Koffka,3.2.8,0,h,NA,s,s,NA,h,NA,NA,575,NA,53618,25321,NA,575,NA,NA,2,legacy,1024,2,48000,-16,experiment,HHHHH,2,even,55629,227837,NA,243602,2005,245977,NA,247582,2010,202515,NA,246481,247685,248261,247579,NA,NA,247685,Week4submit,85,55601,89,yes,1024
95.55555556,95.55555556,621.9444444,621.9444444,black,legacy,legacy,legacy,0,incongruent,uniform,1,undefined,1,h,0,0,0,89,0,89,0,89,0,0,0,89,89,89,89,NA,NA,89,9/19/19 15:51,600,The main experiment item,yes,Week4submit.osexp,C:/Users/DLGoupil/Desktop,no,mono,no,18,no,white,no,yes,768,legacy,9,79,C:/Users/DLGoupil/Desktop/subject-2.csv,legacy,Kafkaesque Koffka,3.2.8,0,h,NA,s,s,NA,h,NA,NA,374,NA,53618,25321,NA,374,NA,NA,2,legacy,1024,2,48000,-16,experiment,SSHSS,2,even,55629,227837,NA,243602,2005,245977,NA,249374,2010,202515,NA,248266,249477,249852,249371,NA,NA,249477,Week4submit,86,55975,90,yes,1024
94.50549451,94.50549451,617.2197802,617.2197802,black,legacy,legacy,legacy,0,congruent,uniform,0,undefined,0,s,0,0,0,90,0,90,0,90,0,0,0,90,90,90,90,NA,NA,90,9/19/19 15:51,600,The main experiment item,yes,Week4submit.osexp,C:/Users/DLGoupil/Desktop,no,mono,no,18,no,white,no,yes,768,legacy,10,79,C:/Users/DLGoupil/Desktop/subject-2.csv,legacy,Kafkaesque Koffka,3.2.8,0,h,NA,s,s,NA,h,NA,NA,192,NA,53618,25321,NA,192,NA,NA,2,legacy,1024,2,48000,-16,experiment,SSSSS,2,even,55629,227837,NA,243602,2005,245977,NA,250964,2010,202515,NA,249857,251067,251260,250961,NA,NA,251067,Week4submit,86,56167,91,yes,1024
93.47826087,93.47826087,616.3152174,616.3152174,black,legacy,legacy,legacy,0,congruent,uniform,0,undefined,0,h,0,0,0,91,0,91,0,91,0,0,0,91,91,91,91,NA,NA,91,9/19/19 15:51,600,The main experiment item,yes,Week4submit.osexp,C:/Users/DLGoupil/Desktop,no,mono,no,18,no,white,no,yes,768,legacy,11,79,C:/Users/DLGoupil/Desktop/subject-2.csv,legacy,Kafkaesque Koffka,3.2.8,0,s,NA,s,s,NA,s,NA,NA,534,NA,53618,25321,NA,534,NA,NA,2,legacy,1024,2,48000,-16,experiment,HHHHH,2,even,55629,227837,NA,251265,2005,245977,NA,252879,2010,202515,NA,251768,252982,253517,252876,NA,NA,252982,Week4submit,86,56701,92,yes,1024
93.5483871,93.5483871,617.8494624,617.8494624,black,legacy,legacy,legacy,0,congruent,uniform,1,undefined,1,s,0,0,0,92,0,92,0,92,0,0,0,92,92,92,92,NA,NA,92,9/19/19 15:51,600,The main experiment item,yes,Week4submit.osexp,C:/Users/DLGoupil/Desktop,no,mono,no,18,no,white,no,yes,768,legacy,12,79,C:/Users/DLGoupil/Desktop/subject-2.csv,legacy,Kafkaesque Koffka,3.2.8,0,s,NA,s,s,NA,s,NA,NA,759,NA,53618,25321,NA,759,NA,NA,2,legacy,1024,2,48000,-16,experiment,SSSSS,2,even,55629,227837,NA,253522,2005,245977,NA,255133,2010,202515,NA,254026,255236,255996,255130,NA,NA,255236,Week4submit,87,57460,93,yes,1024
93.61702128,93.61702128,618.6276596,618.6276596,black,legacy,legacy,legacy,0,incongruent,uniform,1,undefined,1,s,0,0,0,93,0,93,0,93,0,0,0,93,93,93,93,NA,NA,93,9/19/19 15:51,600,The main experiment item,yes,Week4submit.osexp,C:/Users/DLGoupil/Desktop,no,mono,no,18,no,white,no,yes,768,legacy,13,79,C:/Users/DLGoupil/Desktop/subject-2.csv,legacy,Kafkaesque Koffka,3.2.8,0,s,NA,s,s,NA,s,NA,NA,691,NA,53618,25321,NA,691,NA,NA,2,legacy,1024,2,48000,-16,experiment,HHSHH,2,even,55629,227837,NA,253522,2005,256001,NA,257609,2010,202515,NA,256505,257712,258404,257606,NA,NA,257712,Week4submit,88,58151,94,yes,1024
92.63157895,92.63157895,617.9894737,617.9894737,black,legacy,legacy,legacy,0,incongruent,uniform,0,undefined,0,s,0,0,0,94,0,94,0,94,0,0,0,94,94,94,94,NA,NA,94,9/19/19 15:51,600,The main experiment item,yes,Week4submit.osexp,C:/Users/DLGoupil/Desktop,no,mono,no,18,no,white,no,yes,768,legacy,14,79,C:/Users/DLGoupil/Desktop/subject-2.csv,legacy,Kafkaesque Koffka,3.2.8,0,h,NA,s,s,NA,h,NA,NA,558,NA,53618,25321,NA,558,NA,NA,2,legacy,1024,2,48000,-16,experiment,HHSHH,2,even,55629,227837,NA,253522,2005,258409,NA,260022,2010,202515,NA,258913,260125,260685,260019,NA,NA,260125,Week4submit,88,58709,95,yes,1024
92.70833333,92.70833333,617.9479167,617.9479167,black,legacy,legacy,legacy,0,incongruent,uniform,1,undefined,1,s,0,0,0,95,0,95,0,95,0,0,0,95,95,95,95,NA,NA,95,9/19/19 15:51,600,The main experiment item,yes,Week4submit.osexp,C:/Users/DLGoupil/Desktop,no,mono,no,18,no,white,no,yes,768,legacy,15,79,C:/Users/DLGoupil/Desktop/subject-2.csv,legacy,Kafkaesque Koffka,3.2.8,0,s,NA,s,s,NA,s,NA,NA,614,NA,53618,25321,NA,614,NA,NA,2,legacy,1024,2,48000,-16,experiment,HHSHH,2,even,55629,227837,NA,260690,2005,258409,NA,262303,2010,202515,NA,261193,262406,263021,262300,NA,NA,262406,Week4submit,89,59323,96,yes,1024
91.75257732,91.75257732,616.4948454,616.4948454,black,legacy,legacy,legacy,0,congruent,uniform,0,undefined,0,h,0,0,0,96,0,96,0,96,0,0,0,96,96,96,96,NA,NA,96,9/19/19 15:51,600,The main experiment item,yes,Week4submit.osexp,C:/Users/DLGoupil/Desktop,no,mono,no,18,no,white,no,yes,768,legacy,16,79,C:/Users/DLGoupil/Desktop/subject-2.csv,legacy,Kafkaesque Koffka,3.2.8,0,s,NA,s,s,NA,s,NA,NA,477,NA,53618,25321,NA,477,NA,NA,2,legacy,1024,2,48000,-16,experiment,HHHHH,2,even,55629,227837,NA,260690,2005,263027,NA,264640,2010,202515,NA,263530,264743,265221,264637,NA,NA,264743,Week4submit,89,59800,97,yes,1024
91.83673469,91.83673469,616.0204082,616.0204082,black,legacy,legacy,legacy,0,congruent,uniform,1,undefined,1,h,0,0,0,97,0,97,0,97,0,0,0,97,97,97,97,NA,NA,97,9/19/19 15:51,600,The main experiment item,yes,Week4submit.osexp,C:/Users/DLGoupil/Desktop,no,mono,no,18,no,white,no,yes,768,legacy,17,79,C:/Users/DLGoupil/Desktop/subject-2.csv,legacy,Kafkaesque Koffka,3.2.8,0,h,NA,s,s,NA,h,NA,NA,570,NA,53618,25321,NA,570,NA,NA,2,legacy,1024,2,48000,-16,experiment,HHHHH,2,even,55629,227837,NA,265226,2005,263027,NA,266834,2010,202515,NA,265729,266938,267509,266832,NA,NA,266938,Week4submit,90,60370,98,yes,1024
91.91919192,91.91919192,614.8383838,614.8383838,black,legacy,legacy,legacy,0,congruent,uniform,1,undefined,1,s,0,0,0,98,0,98,0,98,0,0,0,98,98,98,98,NA,NA,98,9/19/19 15:51,600,The main experiment item,yes,Week4submit.osexp,C:/Users/DLGoupil/Desktop,no,mono,no,18,no,white,no,yes,768,legacy,18,79,C:/Users/DLGoupil/Desktop/subject-2.csv,legacy,Kafkaesque Koffka,3.2.8,0,s,NA,s,s,NA,s,NA,NA,499,NA,53618,25321,NA,499,NA,NA,2,legacy,1024,2,48000,-16,experiment,SSSSS,2,even,55629,227837,NA,265226,2005,263027,NA,268617,2010,202515,NA,267514,268720,269221,268614,NA,NA,268720,Week4submit,91,60869,99,yes,1024
92,92,614.79,614.79,black,legacy,legacy,legacy,0,incongruent,uniform,1,undefined,1,h,0,0,0,99,0,99,0,99,0,0,0,99,99,99,99,NA,NA,99,9/19/19 15:51,600,The main experiment item,yes,Week4submit.osexp,C:/Users/DLGoupil/Desktop,no,mono,no,18,no,white,no,yes,768,legacy,19,79,C:/Users/DLGoupil/Desktop/subject-2.csv,legacy,Kafkaesque Koffka,3.2.8,0,h,NA,s,s,NA,h,NA,NA,610,NA,53618,25321,NA,610,NA,NA,2,legacy,1024,2,48000,-16,experiment,SSHSS,2,even,55629,227837,NA,265226,2005,263027,NA,270337,2010,202515,NA,269226,270441,271053,270335,NA,NA,270441,Week4submit,92,61479,100,yes,1024
92.07920792,92.07920792,613.6732673,613.6732673,black,legacy,legacy,legacy,0,congruent,uniform,1,undefined,1,h,0,0,0,100,0,100,0,100,0,0,0,100,100,100,100,NA,NA,100,9/19/19 15:51,600,The main experiment item,yes,Week4submit.osexp,C:/Users/DLGoupil/Desktop,no,mono,no,18,no,white,no,yes,768,legacy,20,79,C:/Users/DLGoupil/Desktop/subject-2.csv,legacy,Kafkaesque Koffka,3.2.8,0,h,NA,s,s,NA,h,NA,NA,502,NA,53618,25321,NA,502,NA,NA,2,legacy,1024,2,48000,-16,experiment,HHHHH,2,even,55629,227837,NA,265226,2005,271058,NA,272662,2010,202515,NA,271561,272766,273269,272660,NA,NA,272766,Week4submit,93,61981,101,yes,1024
91.17647059,91.17647059,613.0294118,613.0294118,black,legacy,legacy,legacy,0,incongruent,uniform,0,undefined,0,s,0,0,0,101,0,101,0,101,0,0,0,101,101,101,101,NA,NA,101,9/19/19 15:51,600,The main experiment item,yes,Week4submit.osexp,C:/Users/DLGoupil/Desktop,no,mono,no,18,no,white,no,yes,768,legacy,21,79,C:/Users/DLGoupil/Desktop/subject-2.csv,legacy,Kafkaesque Koffka,3.2.8,0,h,NA,s,s,NA,h,NA,NA,548,NA,53618,25321,NA,548,NA,NA,2,legacy,1024,2,48000,-16,experiment,HHSHH,2,even,55629,227837,NA,265226,2005,271058,NA,274376,2010,202515,NA,273274,274479,275028,274373,NA,NA,274479,Week4submit,93,62529,102,yes,1024
91.26213592,91.26213592,612.9029126,612.9029126,black,legacy,legacy,legacy,0,incongruent,uniform,1,undefined,1,s,0,0,0,102,0,102,0,102,0,0,0,102,102,102,102,NA,NA,102,9/19/19 15:51,600,The main experiment item,yes,Week4submit.osexp,C:/Users/DLGoupil/Desktop,no,mono,no,18,no,white,no,yes,768,legacy,22,79,C:/Users/DLGoupil/Desktop/subject-2.csv,legacy,Kafkaesque Koffka,3.2.8,0,s,NA,s,s,NA,s,NA,NA,600,NA,53618,25321,NA,600,NA,NA,2,legacy,1024,2,48000,-16,experiment,HHSHH,2,even,55629,227837,NA,275034,2005,271058,NA,276644,2010,202515,NA,275537,276747,277348,276641,NA,NA,276747,Week4submit,94,63129,103,yes,1024
91.34615385,91.34615385,611.9615385,611.9615385,black,legacy,legacy,legacy,0,congruent,uniform,1,undefined,1,s,0,0,0,103,0,103,0,103,0,0,0,103,103,103,103,NA,NA,103,9/19/19 15:51,600,The main experiment item,yes,Week4submit.osexp,C:/Users/DLGoupil/Desktop,no,mono,no,18,no,white,no,yes,768,legacy,23,79,C:/Users/DLGoupil/Desktop/subject-2.csv,legacy,Kafkaesque Koffka,3.2.8,0,s,NA,s,s,NA,s,NA,NA,515,NA,53618,25321,NA,515,NA,NA,2,legacy,1024,2,48000,-16,experiment,SSSSS,2,even,55629,227837,NA,275034,2005,271058,NA,278457,2010,202515,NA,277354,278560,279077,278454,NA,NA,278560,Week4submit,95,63644,104,yes,1024
90.47619048,90.47619048,611.0285714,611.0285714,black,legacy,legacy,legacy,0,incongruent,uniform,0,undefined,0,h,0,0,0,104,0,104,0,104,0,0,0,104,104,104,104,NA,NA,104,9/19/19 15:51,600,The main experiment item,yes,Week4submit.osexp,C:/Users/DLGoupil/Desktop,no,mono,no,18,no,white,no,yes,768,legacy,24,79,C:/Users/DLGoupil/Desktop/subject-2.csv,legacy,Kafkaesque Koffka,3.2.8,0,s,NA,s,s,NA,s,NA,NA,514,NA,53618,25321,NA,514,NA,NA,2,legacy,1024,2,48000,-16,experiment,SSHSS,2,even,55629,227837,NA,275034,2005,271058,NA,280187,2010,202515,NA,279082,280290,280805,280184,NA,NA,280290,Week4submit,95,64158,105,yes,1024
90.56603774,90.56603774,612.0566038,612.0566038,black,legacy,legacy,legacy,0,congruent,uniform,1,undefined,1,s,0,0,0,105,0,105,0,105,0,0,0,105,105,105,105,NA,NA,105,9/19/19 15:51,600,The main experiment item,yes,Week4submit.osexp,C:/Users/DLGoupil/Desktop,no,mono,no,18,no,white,no,yes,768,legacy,25,79,C:/Users/DLGoupil/Desktop/subject-2.csv,legacy,Kafkaesque Koffka,3.2.8,0,s,NA,s,s,NA,s,NA,NA,720,NA,53618,25321,NA,720,NA,NA,2,legacy,1024,2,48000,-16,experiment,SSSSS,2,even,55629,227837,NA,280810,2005,271058,NA,282413,2010,202515,NA,281313,282516,283237,282410,NA,NA,282516,Week4submit,96,64878,106,yes,1024
90.65420561,90.65420561,612.7663551,612.7663551,black,legacy,legacy,legacy,0,congruent,uniform,1,undefined,1,h,0,0,0,106,0,106,0,106,0,0,0,106,106,106,106,NA,NA,106,9/19/19 15:51,600,The main experiment item,yes,Week4submit.osexp,C:/Users/DLGoupil/Desktop,no,mono,no,18,no,white,no,yes,768,legacy,26,79,C:/Users/DLGoupil/Desktop/subject-2.csv,legacy,Kafkaesque Koffka,3.2.8,0,h,NA,s,s,NA,h,NA,NA,688,NA,53618,25321,NA,688,NA,NA,2,legacy,1024,2,48000,-16,experiment,HHHHH,2,even,55629,227837,NA,280810,2005,283242,NA,284845,2010,202515,NA,283745,284948,285637,284842,NA,NA,284948,Week4submit,97,65566,107,yes,1024
90.74074074,90.74074074,611.8981481,611.8981481,black,legacy,legacy,legacy,0,incongruent,uniform,1,undefined,1,s,0,0,0,107,0,107,0,107,0,0,0,107,107,107,107,NA,NA,107,9/19/19 15:51,600,The main experiment item,yes,Week4submit.osexp,C:/Users/DLGoupil/Desktop,no,mono,no,18,no,white,no,yes,768,legacy,27,79,C:/Users/DLGoupil/Desktop/subject-2.csv,legacy,Kafkaesque Koffka,3.2.8,0,s,NA,s,s,NA,s,NA,NA,519,NA,53618,25321,NA,519,NA,NA,2,legacy,1024,2,48000,-16,experiment,HHSHH,2,even,55629,227837,NA,280810,2005,285642,NA,287245,2010,202515,NA,286145,287348,287869,287242,NA,NA,287348,Week4submit,98,66085,108,yes,1024
90.82568807,90.82568807,610.9908257,610.9908257,black,legacy,legacy,legacy,0,congruent,uniform,1,undefined,1,h,0,0,0,108,0,108,0,108,0,0,0,108,108,108,108,NA,NA,108,9/19/19 15:51,600,The main experiment item,yes,Week4submit.osexp,C:/Users/DLGoupil/Desktop,no,mono,no,18,no,white,no,yes,768,legacy,28,79,C:/Users/DLGoupil/Desktop/subject-2.csv,legacy,Kafkaesque Koffka,3.2.8,0,h,NA,s,s,NA,h,NA,NA,513,NA,53618,25321,NA,513,NA,NA,2,legacy,1024,2,48000,-16,experiment,HHHHH,2,even,55629,227837,NA,280810,2005,285642,NA,288979,2010,202515,NA,287874,289082,289597,288976,NA,NA,289082,Week4submit,99,66598,109,yes,1024
90.90909091,90.90909091,611.2363636,611.2363636,black,legacy,legacy,legacy,0,incongruent,uniform,1,undefined,1,h,0,0,0,109,0,109,0,109,0,0,0,109,109,109,109,NA,NA,109,9/19/19 15:51,600,The main experiment item,yes,Week4submit.osexp,C:/Users/DLGoupil/Desktop,no,mono,no,18,no,white,no,yes,768,legacy,29,79,C:/Users/DLGoupil/Desktop/subject-2.csv,legacy,Kafkaesque Koffka,3.2.8,0,h,NA,s,s,NA,h,NA,NA,638,NA,53618,25321,NA,638,NA,NA,2,legacy,1024,2,48000,-16,experiment,SSHSS,2,even,55629,227837,NA,280810,2005,285642,NA,290711,2010,202515,NA,289602,290814,291453,290708,NA,NA,290814,Week4submit,100,67236,110,yes,1024
90.99099099,90.99099099,610.8288288,610.8288288,black,legacy,legacy,legacy,0,congruent,uniform,1,undefined,1,s,0,0,0,110,0,110,0,110,0,0,0,110,110,110,110,NA,NA,110,9/19/19 15:51,600,The main experiment item,yes,Week4submit.osexp,C:/Users/DLGoupil/Desktop,no,mono,no,18,no,white,no,yes,768,legacy,30,79,C:/Users/DLGoupil/Desktop/subject-2.csv,legacy,Kafkaesque Koffka,3.2.8,0,s,NA,s,s,NA,s,NA,NA,566,NA,53618,25321,NA,566,NA,NA,2,legacy,1024,2,48000,-16,experiment,SSSSS,2,even,55629,227837,NA,280810,2005,291458,NA,293062,2010,202515,NA,291960,293165,293733,293059,NA,NA,293165,Week4submit,101,67802,111,yes,1024
91.07142857,91.07142857,609.1160714,609.1160714,black,legacy,legacy,legacy,0,congruent,uniform,1,undefined,1,h,0,0,0,111,0,111,0,111,0,0,0,111,111,111,111,NA,NA,111,9/19/19 15:51,600,The main experiment item,yes,Week4submit.osexp,C:/Users/DLGoupil/Desktop,no,mono,no,18,no,white,no,yes,768,legacy,31,79,C:/Users/DLGoupil/Desktop/subject-2.csv,legacy,Kafkaesque Koffka,3.2.8,0,h,NA,s,s,NA,h,NA,NA,419,NA,53618,25321,NA,419,NA,NA,2,legacy,1024,2,48000,-16,experiment,HHHHH,2,even,55629,227837,NA,280810,2005,291458,NA,294849,2010,202515,NA,293738,294952,295373,294846,NA,NA,294952,Week4submit,102,68221,112,yes,1024
90.26548673,90.26548673,607.8761062,607.8761062,black,legacy,legacy,legacy,0,incongruent,uniform,0,undefined,0,s,0,0,0,112,0,112,0,112,0,0,0,112,112,112,112,NA,NA,112,9/19/19 15:51,600,The main experiment item,yes,Week4submit.osexp,C:/Users/DLGoupil/Desktop,no,mono,no,18,no,white,no,yes,768,legacy,32,79,C:/Users/DLGoupil/Desktop/subject-2.csv,legacy,Kafkaesque Koffka,3.2.8,0,h,NA,s,s,NA,h,NA,NA,469,NA,53618,25321,NA,469,NA,NA,2,legacy,1024,2,48000,-16,experiment,HHSHH,2,even,55629,227837,NA,280810,2005,291458,NA,296480,2010,202515,NA,295378,296583,297053,296477,NA,NA,296583,Week4submit,102,68690,113,yes,1024
90.35087719,90.35087719,608.4649123,608.4649123,black,legacy,legacy,legacy,0,incongruent,uniform,1,undefined,1,s,0,0,0,113,0,113,0,113,0,0,0,113,113,113,113,NA,NA,113,9/19/19 15:51,600,The main experiment item,yes,Week4submit.osexp,C:/Users/DLGoupil/Desktop,no,mono,no,18,no,white,no,yes,768,legacy,33,79,C:/Users/DLGoupil/Desktop/subject-2.csv,legacy,Kafkaesque Koffka,3.2.8,0,s,NA,s,s,NA,s,NA,NA,675,NA,53618,25321,NA,675,NA,NA,2,legacy,1024,2,48000,-16,experiment,HHSHH,2,even,55629,227837,NA,297058,2005,291458,NA,298666,2010,202515,NA,297561,298769,299445,298663,NA,NA,298769,Week4submit,103,69365,114,yes,1024
90.43478261,90.43478261,608.0347826,608.0347826,black,legacy,legacy,legacy,0,congruent,uniform,1,undefined,1,h,0,0,0,114,0,114,0,114,0,0,0,114,114,114,114,NA,NA,114,9/19/19 15:51,600,The main experiment item,yes,Week4submit.osexp,C:/Users/DLGoupil/Desktop,no,mono,no,18,no,white,no,yes,768,legacy,34,79,C:/Users/DLGoupil/Desktop/subject-2.csv,legacy,Kafkaesque Koffka,3.2.8,0,h,NA,s,s,NA,h,NA,NA,559,NA,53618,25321,NA,559,NA,NA,2,legacy,1024,2,48000,-16,experiment,HHHHH,2,even,55629,227837,NA,297058,2005,299450,NA,301062,2010,202515,NA,299953,301165,301725,301059,NA,NA,301165,Week4submit,104,69924,115,yes,1024
90.51724138,90.51724138,607.6982759,607.6982759,black,legacy,legacy,legacy,0,incongruent,uniform,1,undefined,1,h,0,0,0,115,0,115,0,115,0,0,0,115,115,115,115,NA,NA,115,9/19/19 15:51,600,The main experiment item,yes,Week4submit.osexp,C:/Users/DLGoupil/Desktop,no,mono,no,18,no,white,no,yes,768,legacy,35,79,C:/Users/DLGoupil/Desktop/subject-2.csv,legacy,Kafkaesque Koffka,3.2.8,0,h,NA,s,s,NA,h,NA,NA,569,NA,53618,25321,NA,569,NA,NA,2,legacy,1024,2,48000,-16,experiment,SSHSS,2,even,55629,227837,NA,297058,2005,299450,NA,302836,2010,202515,NA,301730,302939,303509,302833,NA,NA,302939,Week4submit,105,70493,116,yes,1024
90.5982906,90.5982906,607,607,black,legacy,legacy,legacy,0,congruent,uniform,1,undefined,1,s,0,0,0,116,0,116,0,116,0,0,0,116,116,116,116,NA,NA,116,9/19/19 15:51,600,The main experiment item,yes,Week4submit.osexp,C:/Users/DLGoupil/Desktop,no,mono,no,18,no,white,no,yes,768,legacy,36,79,C:/Users/DLGoupil/Desktop/subject-2.csv,legacy,Kafkaesque Koffka,3.2.8,0,s,NA,s,s,NA,s,NA,NA,526,NA,53618,25321,NA,526,NA,NA,2,legacy,1024,2,48000,-16,experiment,SSSSS,2,even,55629,227837,NA,297058,2005,299450,NA,304615,2010,202515,NA,303515,304718,305245,304612,NA,NA,304718,Week4submit,106,71019,117,yes,1024
90.6779661,90.6779661,605.8898305,605.8898305,black,legacy,legacy,legacy,0,incongruent,uniform,1,undefined,1,h,0,0,0,117,0,117,0,117,0,0,0,117,117,117,117,NA,NA,117,9/19/19 15:51,600,The main experiment item,yes,Week4submit.osexp,C:/Users/DLGoupil/Desktop,no,mono,no,18,no,white,no,yes,768,legacy,37,79,C:/Users/DLGoupil/Desktop/subject-2.csv,legacy,Kafkaesque Koffka,3.2.8,0,h,NA,s,s,NA,h,NA,NA,476,NA,53618,25321,NA,476,NA,NA,2,legacy,1024,2,48000,-16,experiment,SSHSS,2,even,55629,227837,NA,297058,2005,299450,NA,306353,2010,202515,NA,305251,306456,306934,306350,NA,NA,306456,Week4submit,107,71495,118,yes,1024
89.91596639,89.91596639,604.1176471,604.1176471,black,legacy,legacy,legacy,0,congruent,uniform,0,undefined,0,h,0,0,0,118,0,118,0,118,0,0,0,118,118,118,118,NA,NA,118,9/19/19 15:51,600,The main experiment item,yes,Week4submit.osexp,C:/Users/DLGoupil/Desktop,no,mono,no,18,no,white,no,yes,768,legacy,38,79,C:/Users/DLGoupil/Desktop/subject-2.csv,legacy,Kafkaesque Koffka,3.2.8,0,s,NA,s,s,NA,s,NA,NA,395,NA,53618,25321,NA,395,NA,NA,2,legacy,1024,2,48000,-16,experiment,HHHHH,2,even,55629,227837,NA,297058,2005,299450,NA,308050,2010,202515,NA,306939,308153,308550,308047,NA,NA,308153,Week4submit,107,71890,119,yes,1024
90,90,604.525,604.525,black,legacy,legacy,legacy,0,incongruent,uniform,1,undefined,1,h,0,0,0,119,0,119,0,119,0,0,0,119,119,119,119,NA,NA,119,9/19/19 15:51,600,The main experiment item,yes,Week4submit.osexp,C:/Users/DLGoupil/Desktop,no,mono,no,18,no,white,no,yes,768,legacy,39,79,C:/Users/DLGoupil/Desktop/subject-2.csv,legacy,Kafkaesque Koffka,3.2.8,0,h,NA,s,s,NA,h,NA,NA,653,NA,53618,25321,NA,653,NA,NA,2,legacy,1024,2,48000,-16,experiment,SSHSS,2,even,55629,227837,NA,308555,2005,299450,NA,310160,2010,202515,NA,309058,310263,310918,310157,NA,NA,310263,Week4submit,108,72543,120,yes,1024
90.08264463,90.08264463,603.9917355,603.9917355,black,legacy,legacy,legacy,0,congruent,uniform,1,undefined,1,s,0,0,0,120,0,120,0,120,0,0,0,120,120,120,120,NA,NA,120,9/19/19 15:51,600,The main experiment item,yes,Week4submit.osexp,C:/Users/DLGoupil/Desktop,no,mono,no,18,no,white,no,yes,768,legacy,40,79,C:/Users/DLGoupil/Desktop/subject-2.csv,legacy,Kafkaesque Koffka,3.2.8,0,s,NA,s,s,NA,s,NA,NA,540,NA,53618,25321,NA,540,NA,NA,2,legacy,1024,2,48000,-16,experiment,SSSSS,2,even,55629,227837,NA,308555,2005,310923,NA,312529,2010,202515,NA,311426,312632,313174,312526,NA,NA,312632,Week4submit,109,73083,121,yes,1024
90.16393443,90.16393443,603.204918,603.204918,black,legacy,legacy,legacy,0,congruent,uniform,1,undefined,1,h,0,0,0,121,0,121,0,121,0,0,0,121,121,121,121,NA,NA,121,9/19/19 15:51,600,The main experiment item,yes,Week4submit.osexp,C:/Users/DLGoupil/Desktop,no,mono,no,18,no,white,no,yes,768,legacy,41,79,C:/Users/DLGoupil/Desktop/subject-2.csv,legacy,Kafkaesque Koffka,3.2.8,0,h,NA,s,s,NA,h,NA,NA,508,NA,53618,25321,NA,508,NA,NA,2,legacy,1024,2,48000,-16,experiment,HHHHH,2,even,55629,227837,NA,308555,2005,310923,NA,314290,2010,202515,NA,313179,314392,314902,314287,NA,NA,314392,Week4submit,110,73591,122,yes,1024
89.43089431,89.43089431,602.097561,602.097561,black,legacy,legacy,legacy,0,congruent,uniform,0,undefined,0,h,0,0,0,122,0,122,0,122,0,0,0,122,122,122,122,NA,NA,122,9/19/19 15:51,600,The main experiment item,yes,Week4submit.osexp,C:/Users/DLGoupil/Desktop,no,mono,no,18,no,white,no,yes,768,legacy,42,79,C:/Users/DLGoupil/Desktop/subject-2.csv,legacy,Kafkaesque Koffka,3.2.8,0,s,NA,s,s,NA,s,NA,NA,467,NA,53618,25321,NA,467,NA,NA,2,legacy,1024,2,48000,-16,experiment,HHHHH,2,even,55629,227837,NA,308555,2005,310923,NA,316010,2010,202515,NA,314907,316113,316582,316007,NA,NA,316113,Week4submit,110,74058,123,yes,1024
89.51612903,89.51612903,601.3145161,601.3145161,black,legacy,legacy,legacy,0,congruent,uniform,1,undefined,1,h,0,0,0,123,0,123,0,123,0,0,0,123,123,123,123,NA,NA,123,9/19/19 15:51,600,The main experiment item,yes,Week4submit.osexp,C:/Users/DLGoupil/Desktop,no,mono,no,18,no,white,no,yes,768,legacy,43,79,C:/Users/DLGoupil/Desktop/subject-2.csv,legacy,Kafkaesque Koffka,3.2.8,0,h,NA,s,s,NA,h,NA,NA,505,NA,53618,25321,NA,505,NA,NA,2,legacy,1024,2,48000,-16,experiment,HHHHH,2,even,55629,227837,NA,316587,2005,310923,NA,318196,2010,202515,NA,317090,318299,318806,318193,NA,NA,318299,Week4submit,111,74563,124,yes,1024
89.6,89.6,601.536,601.536,black,legacy,legacy,legacy,0,incongruent,uniform,1,undefined,1,s,0,0,0,124,0,124,0,124,0,0,0,124,124,124,124,NA,NA,124,9/19/19 15:51,600,The main experiment item,yes,Week4submit.osexp,C:/Users/DLGoupil/Desktop,no,mono,no,18,no,white,no,yes,768,legacy,44,79,C:/Users/DLGoupil/Desktop/subject-2.csv,legacy,Kafkaesque Koffka,3.2.8,0,s,NA,s,s,NA,s,NA,NA,629,NA,53618,25321,NA,629,NA,NA,2,legacy,1024,2,48000,-16,experiment,HHSHH,2,even,55629,227837,NA,316587,2005,310923,NA,319912,2010,202515,NA,318811,320015,320646,319909,NA,NA,320015,Week4submit,112,75192,125,yes,1024
89.68253968,89.68253968,600.6904762,600.6904762,black,legacy,legacy,legacy,0,incongruent,uniform,1,undefined,1,h,0,0,0,125,0,125,0,125,0,0,0,125,125,125,125,NA,NA,125,9/19/19 15:51,600,The main experiment item,yes,Week4submit.osexp,C:/Users/DLGoupil/Desktop,no,mono,no,18,no,white,no,yes,768,legacy,45,79,C:/Users/DLGoupil/Desktop/subject-2.csv,legacy,Kafkaesque Koffka,3.2.8,0,h,NA,s,s,NA,h,NA,NA,495,NA,53618,25321,NA,495,NA,NA,2,legacy,1024,2,48000,-16,experiment,SSHSS,2,even,55629,227837,NA,316587,2005,320651,NA,322254,2010,202515,NA,321154,322357,322854,322251,NA,NA,322357,Week4submit,113,75687,126,yes,1024
89.76377953,89.76377953,600.2677165,600.2677165,black,legacy,legacy,legacy,0,congruent,uniform,1,undefined,1,h,0,0,0,126,0,126,0,126,0,0,0,126,126,126,126,NA,NA,126,9/19/19 15:51,600,The main experiment item,yes,Week4submit.osexp,C:/Users/DLGoupil/Desktop,no,mono,no,18,no,white,no,yes,768,legacy,46,79,C:/Users/DLGoupil/Desktop/subject-2.csv,legacy,Kafkaesque Koffka,3.2.8,0,h,NA,s,s,NA,h,NA,NA,547,NA,53618,25321,NA,547,NA,NA,2,legacy,1024,2,48000,-16,experiment,HHHHH,2,even,55629,227837,NA,316587,2005,320651,NA,323962,2010,202515,NA,322859,324065,324614,323959,NA,NA,324065,Week4submit,114,76234,127,yes,1024
89.84375,89.84375,600.6328125,600.6328125,black,legacy,legacy,legacy,0,incongruent,uniform,1,undefined,1,h,0,0,0,127,0,127,0,127,0,0,0,127,127,127,127,NA,NA,127,9/19/19 15:51,600,The main experiment item,yes,Week4submit.osexp,C:/Users/DLGoupil/Desktop,no,mono,no,18,no,white,no,yes,768,legacy,47,79,C:/Users/DLGoupil/Desktop/subject-2.csv,legacy,Kafkaesque Koffka,3.2.8,0,h,NA,s,s,NA,h,NA,NA,647,NA,53618,25321,NA,647,NA,NA,2,legacy,1024,2,48000,-16,experiment,SSHSS,2,even,55629,227837,NA,316587,2005,320651,NA,325726,2010,202515,NA,324619,325829,326477,325723,NA,NA,325829,Week4submit,115,76881,128,yes,1024
89.92248062,89.92248062,599.4418605,599.4418605,black,legacy,legacy,legacy,0,congruent,uniform,1,undefined,1,h,0,0,0,128,0,128,0,128,0,0,0,128,128,128,128,NA,NA,128,9/19/19 15:51,600,The main experiment item,yes,Week4submit.osexp,C:/Users/DLGoupil/Desktop,no,mono,no,18,no,white,no,yes,768,legacy,48,79,C:/Users/DLGoupil/Desktop/subject-2.csv,legacy,Kafkaesque Koffka,3.2.8,0,h,NA,s,s,NA,h,NA,NA,447,NA,53618,25321,NA,447,NA,NA,2,legacy,1024,2,48000,-16,experiment,HHHHH,2,even,55629,227837,NA,316587,2005,326483,NA,328094,2010,202515,NA,326986,328197,328645,328091,NA,NA,328197,Week4submit,116,77328,129,yes,1024
90,90,598.4384615,598.4384615,black,legacy,legacy,legacy,0,congruent,uniform,1,undefined,1,h,0,0,0,129,0,129,0,129,0,0,0,129,129,129,129,NA,NA,129,9/19/19 15:51,600,The main experiment item,yes,Week4submit.osexp,C:/Users/DLGoupil/Desktop,no,mono,no,18,no,white,no,yes,768,legacy,49,79,C:/Users/DLGoupil/Desktop/subject-2.csv,legacy,Kafkaesque Koffka,3.2.8,0,h,NA,s,s,NA,h,NA,NA,469,NA,53618,25321,NA,469,NA,NA,2,legacy,1024,2,48000,-16,experiment,HHHHH,2,even,55629,227837,NA,316587,2005,326483,NA,329752,2010,202515,NA,328651,329855,330326,329749,NA,NA,329855,Week4submit,117,77797,130,yes,1024
90.07633588,90.07633588,597.8091603,597.8091603,black,legacy,legacy,legacy,0,congruent,uniform,1,undefined,1,s,0,0,0,130,0,130,0,130,0,0,0,130,130,130,130,NA,NA,130,9/19/19 15:51,600,The main experiment item,yes,Week4submit.osexp,C:/Users/DLGoupil/Desktop,no,mono,no,18,no,white,no,yes,768,legacy,50,79,C:/Users/DLGoupil/Desktop/subject-2.csv,legacy,Kafkaesque Koffka,3.2.8,0,s,NA,s,s,NA,s,NA,NA,516,NA,53618,25321,NA,516,NA,NA,2,legacy,1024,2,48000,-16,experiment,SSSSS,2,even,55629,227837,NA,316587,2005,326483,NA,331433,2010,202515,NA,330331,331536,332053,331430,NA,NA,331536,Week4submit,118,78313,131,yes,1024
90.15151515,90.15151515,596.7878788,596.7878788,black,legacy,legacy,legacy,0,incongruent,uniform,1,undefined,1,s,0,0,0,131,0,131,0,131,0,0,0,131,131,131,131,NA,NA,131,9/19/19 15:51,600,The main experiment item,yes,Week4submit.osexp,C:/Users/DLGoupil/Desktop,no,mono,no,18,no,white,no,yes,768,legacy,51,79,C:/Users/DLGoupil/Desktop/subject-2.csv,legacy,Kafkaesque Koffka,3.2.8,0,s,NA,s,s,NA,s,NA,NA,463,NA,53618,25321,NA,463,NA,NA,2,legacy,1024,2,48000,-16,experiment,HHSHH,2,even,55629,227837,NA,316587,2005,326483,NA,333166,2010,202515,NA,332058,333269,333734,333163,NA,NA,333269,Week4submit,119,78776,132,yes,1024
90.22556391,90.22556391,596.5037594,596.5037594,black,legacy,legacy,legacy,0,congruent,uniform,1,undefined,1,h,0,0,0,132,0,132,0,132,0,0,0,132,132,132,132,NA,NA,132,9/19/19 15:51,600,The main experiment item,yes,Week4submit.osexp,C:/Users/DLGoupil/Desktop,no,mono,no,18,no,white,no,yes,768,legacy,52,79,C:/Users/DLGoupil/Desktop/subject-2.csv,legacy,Kafkaesque Koffka,3.2.8,0,h,NA,s,s,NA,h,NA,NA,559,NA,53618,25321,NA,559,NA,NA,2,legacy,1024,2,48000,-16,experiment,HHHHH,2,even,55629,227837,NA,316587,2005,326483,NA,334846,2010,202515,NA,333739,334949,335510,334843,NA,NA,334949,Week4submit,120,79335,133,yes,1024
90.29850746,90.29850746,595.7089552,595.7089552,black,legacy,legacy,legacy,0,congruent,uniform,1,undefined,1,s,0,0,0,133,0,133,0,133,0,0,0,133,133,133,133,NA,NA,133,9/19/19 15:51,600,The main experiment item,yes,Week4submit.osexp,C:/Users/DLGoupil/Desktop,no,mono,no,18,no,white,no,yes,768,legacy,53,79,C:/Users/DLGoupil/Desktop/subject-2.csv,legacy,Kafkaesque Koffka,3.2.8,0,s,NA,s,s,NA,s,NA,NA,490,NA,53618,25321,NA,490,NA,NA,2,legacy,1024,2,48000,-16,experiment,SSSSS,2,even,55629,227837,NA,316587,2005,326483,NA,336619,2010,202515,NA,335515,336722,337213,336616,NA,NA,336722,Week4submit,121,79825,134,yes,1024
90.37037037,90.37037037,595.3185185,595.3185185,black,legacy,legacy,legacy,0,incongruent,uniform,1,undefined,1,h,0,0,0,134,0,134,0,134,0,0,0,134,134,134,134,NA,NA,134,9/19/19 15:51,600,The main experiment item,yes,Week4submit.osexp,C:/Users/DLGoupil/Desktop,no,mono,no,18,no,white,no,yes,768,legacy,54,79,C:/Users/DLGoupil/Desktop/subject-2.csv,legacy,Kafkaesque Koffka,3.2.8,0,h,NA,s,s,NA,h,NA,NA,543,NA,53618,25321,NA,543,NA,NA,2,legacy,1024,2,48000,-16,experiment,SSHSS,2,even,55629,227837,NA,316587,2005,326483,NA,338325,2010,202515,NA,337219,338429,338973,338323,NA,NA,338429,Week4submit,122,80368,135,yes,1024
90.44117647,90.44117647,594.0882353,594.0882353,black,legacy,legacy,legacy,0,incongruent,uniform,1,undefined,1,s,0,0,0,135,0,135,0,135,0,0,0,135,135,135,135,NA,NA,135,9/19/19 15:51,600,The main experiment item,yes,Week4submit.osexp,C:/Users/DLGoupil/Desktop,no,mono,no,18,no,white,no,yes,768,legacy,55,79,C:/Users/DLGoupil/Desktop/subject-2.csv,legacy,Kafkaesque Koffka,3.2.8,0,s,NA,s,s,NA,s,NA,NA,428,NA,53618,25321,NA,428,NA,NA,2,legacy,1024,2,48000,-16,experiment,HHSHH,2,even,55629,227837,NA,316587,2005,326483,NA,340089,2010,202515,NA,338979,340192,340621,340086,NA,NA,340192,Week4submit,123,80796,136,yes,1024
90.51094891,90.51094891,592.8978102,592.8978102,black,legacy,legacy,legacy,0,incongruent,uniform,1,undefined,1,h,0,0,0,136,0,136,0,136,0,0,0,136,136,136,136,NA,NA,136,9/19/19 15:51,600,The main experiment item,yes,Week4submit.osexp,C:/Users/DLGoupil/Desktop,no,mono,no,18,no,white,no,yes,768,legacy,56,79,C:/Users/DLGoupil/Desktop/subject-2.csv,legacy,Kafkaesque Koffka,3.2.8,0,h,NA,s,s,NA,h,NA,NA,431,NA,53618,25321,NA,431,NA,NA,2,legacy,1024,2,48000,-16,experiment,SSHSS,2,even,55629,227837,NA,316587,2005,326483,NA,341725,2010,202515,NA,340627,341829,342261,341723,NA,NA,341829,Week4submit,124,81227,137,yes,1024
90.57971014,90.57971014,592.4492754,592.4492754,black,legacy,legacy,legacy,0,congruent,uniform,1,undefined,1,s,0,0,0,137,0,137,0,137,0,0,0,137,137,137,137,NA,NA,137,9/19/19 15:51,600,The main experiment item,yes,Week4submit.osexp,C:/Users/DLGoupil/Desktop,no,mono,no,18,no,white,no,yes,768,legacy,57,79,C:/Users/DLGoupil/Desktop/subject-2.csv,legacy,Kafkaesque Koffka,3.2.8,0,s,NA,s,s,NA,s,NA,NA,531,NA,53618,25321,NA,531,NA,NA,2,legacy,1024,2,48000,-16,experiment,SSSSS,2,even,55629,227837,NA,316587,2005,326483,NA,343369,2010,202515,NA,342267,343472,344005,343366,NA,NA,343472,Week4submit,125,81758,138,yes,1024
90.64748201,90.64748201,591.4964029,591.4964029,black,legacy,legacy,legacy,0,incongruent,uniform,1,undefined,1,s,0,0,0,138,0,138,0,138,0,0,0,138,138,138,138,NA,NA,138,9/19/19 15:51,600,The main experiment item,yes,Week4submit.osexp,C:/Users/DLGoupil/Desktop,no,mono,no,18,no,white,no,yes,768,legacy,58,79,C:/Users/DLGoupil/Desktop/subject-2.csv,legacy,Kafkaesque Koffka,3.2.8,0,s,NA,s,s,NA,s,NA,NA,460,NA,53618,25321,NA,460,NA,NA,2,legacy,1024,2,48000,-16,experiment,HHSHH,2,even,55629,227837,NA,316587,2005,326483,NA,345112,2010,202515,NA,344010,345215,345677,345109,NA,NA,345215,Week4submit,126,82218,139,yes,1024
90.71428571,90.71428571,590.9928571,590.9928571,black,legacy,legacy,legacy,0,incongruent,uniform,1,undefined,1,s,0,0,0,139,0,139,0,139,0,0,0,139,139,139,139,NA,NA,139,9/19/19 15:51,600,The main experiment item,yes,Week4submit.osexp,C:/Users/DLGoupil/Desktop,no,mono,no,18,no,white,no,yes,768,legacy,59,79,C:/Users/DLGoupil/Desktop/subject-2.csv,legacy,Kafkaesque Koffka,3.2.8,0,s,NA,s,s,NA,s,NA,NA,521,NA,53618,25321,NA,521,NA,NA,2,legacy,1024,2,48000,-16,experiment,HHSHH,2,even,55629,227837,NA,316587,2005,326483,NA,346787,2010,202515,NA,345682,346890,347413,346784,NA,NA,346890,Week4submit,127,82739,140,yes,1024
90.78014184,90.78014184,590.4609929,590.4609929,black,legacy,legacy,legacy,0,congruent,uniform,1,undefined,1,s,0,0,0,140,0,140,0,140,0,0,0,140,140,140,140,NA,NA,140,9/19/19 15:51,600,The main experiment item,yes,Week4submit.osexp,C:/Users/DLGoupil/Desktop,no,mono,no,18,no,white,no,yes,768,legacy,60,79,C:/Users/DLGoupil/Desktop/subject-2.csv,legacy,Kafkaesque Koffka,3.2.8,0,s,NA,s,s,NA,s,NA,NA,516,NA,53618,25321,NA,516,NA,NA,2,legacy,1024,2,48000,-16,experiment,SSSSS,2,even,55629,227837,NA,316587,2005,326483,NA,348520,2010,202515,NA,347418,348623,349141,348517,NA,NA,348623,Week4submit,128,83255,141,yes,1024
90.84507042,90.84507042,589.6478873,589.6478873,black,legacy,legacy,legacy,0,congruent,uniform,1,undefined,1,s,0,0,0,141,0,141,0,141,0,0,0,141,141,141,141,NA,NA,141,9/19/19 15:51,600,The main experiment item,yes,Week4submit.osexp,C:/Users/DLGoupil/Desktop,no,mono,no,18,no,white,no,yes,768,legacy,61,79,C:/Users/DLGoupil/Desktop/subject-2.csv,legacy,Kafkaesque Koffka,3.2.8,0,s,NA,s,s,NA,s,NA,NA,475,NA,53618,25321,NA,475,NA,NA,2,legacy,1024,2,48000,-16,experiment,SSSSS,2,even,55629,227837,NA,316587,2005,326483,NA,350241,2010,202515,NA,349146,350344,350821,350238,NA,NA,350344,Week4submit,129,83730,142,yes,1024
90.20979021,90.20979021,588.7412587,588.7412587,black,legacy,legacy,legacy,0,incongruent,uniform,0,undefined,0,s,0,0,0,142,0,142,0,142,0,0,0,142,142,142,142,NA,NA,142,9/19/19 15:51,600,The main experiment item,yes,Week4submit.osexp,C:/Users/DLGoupil/Desktop,no,mono,no,18,no,white,no,yes,768,legacy,62,79,C:/Users/DLGoupil/Desktop/subject-2.csv,legacy,Kafkaesque Koffka,3.2.8,0,h,NA,s,s,NA,h,NA,NA,460,NA,53618,25321,NA,460,NA,NA,2,legacy,1024,2,48000,-16,experiment,HHSHH,2,even,55629,227837,NA,316587,2005,326483,NA,351928,2010,202515,NA,350826,352031,352493,351925,NA,NA,352031,Week4submit,129,84190,143,yes,1024
90.27777778,90.27777778,587.8888889,587.8888889,black,legacy,legacy,legacy,0,congruent,uniform,1,undefined,1,s,0,0,0,143,0,143,0,143,0,0,0,143,143,143,143,NA,NA,143,9/19/19 15:51,600,The main experiment item,yes,Week4submit.osexp,C:/Users/DLGoupil/Desktop,no,mono,no,18,no,white,no,yes,768,legacy,63,79,C:/Users/DLGoupil/Desktop/subject-2.csv,legacy,Kafkaesque Koffka,3.2.8,0,s,NA,s,s,NA,s,NA,NA,466,NA,53618,25321,NA,466,NA,NA,2,legacy,1024,2,48000,-16,experiment,SSSSS,2,even,55629,227837,NA,352498,2005,326483,NA,354106,2010,202515,NA,353001,354209,354677,354103,NA,NA,354209,Week4submit,130,84656,144,yes,1024
90.34482759,90.34482759,586.8137931,586.8137931,black,legacy,legacy,legacy,0,congruent,uniform,1,undefined,1,s,0,0,0,144,0,144,0,144,0,0,0,144,144,144,144,NA,NA,144,9/19/19 15:51,600,The main experiment item,yes,Week4submit.osexp,C:/Users/DLGoupil/Desktop,no,mono,no,18,no,white,no,yes,768,legacy,64,79,C:/Users/DLGoupil/Desktop/subject-2.csv,legacy,Kafkaesque Koffka,3.2.8,0,s,NA,s,s,NA,s,NA,NA,432,NA,53618,25321,NA,432,NA,NA,2,legacy,1024,2,48000,-16,experiment,SSSSS,2,even,55629,227837,NA,352498,2005,326483,NA,355789,2010,202515,NA,354682,355891,356325,355786,NA,NA,355891,Week4submit,131,85088,145,yes,1024
90.4109589,90.4109589,586.8424658,586.8424658,black,legacy,legacy,legacy,0,incongruent,uniform,1,undefined,1,s,0,0,0,145,0,145,0,145,0,0,0,145,145,145,145,NA,NA,145,9/19/19 15:51,600,The main experiment item,yes,Week4submit.osexp,C:/Users/DLGoupil/Desktop,no,mono,no,18,no,white,no,yes,768,legacy,65,79,C:/Users/DLGoupil/Desktop/subject-2.csv,legacy,Kafkaesque Koffka,3.2.8,0,s,NA,s,s,NA,s,NA,NA,591,NA,53618,25321,NA,591,NA,NA,2,legacy,1024,2,48000,-16,experiment,HHSHH,2,even,55629,227837,NA,352498,2005,326483,NA,357436,2010,202515,NA,356330,357540,358133,357434,NA,NA,357540,Week4submit,132,85679,146,yes,1024
90.47619048,90.47619048,584.9387755,584.9387755,black,legacy,legacy,legacy,0,incongruent,uniform,1,undefined,1,s,0,0,0,146,0,146,0,146,0,0,0,146,146,146,146,NA,NA,146,9/19/19 15:51,600,The main experiment item,yes,Week4submit.osexp,C:/Users/DLGoupil/Desktop,no,mono,no,18,no,white,no,yes,768,legacy,66,79,C:/Users/DLGoupil/Desktop/subject-2.csv,legacy,Kafkaesque Koffka,3.2.8,0,s,NA,s,s,NA,s,NA,NA,307,NA,53618,25321,NA,307,NA,NA,2,legacy,1024,2,48000,-16,experiment,HHSHH,2,even,55629,227837,NA,352498,2005,326483,NA,359233,2010,202515,NA,358138,359336,359645,359230,NA,NA,359336,Week4submit,133,85986,147,yes,1024
90.54054054,90.54054054,584.5810811,584.5810811,black,legacy,legacy,legacy,0,incongruent,uniform,1,undefined,1,h,0,0,0,147,0,147,0,147,0,0,0,147,147,147,147,NA,NA,147,9/19/19 15:51,600,The main experiment item,yes,Week4submit.osexp,C:/Users/DLGoupil/Desktop,no,mono,no,18,no,white,no,yes,768,legacy,67,79,C:/Users/DLGoupil/Desktop/subject-2.csv,legacy,Kafkaesque Koffka,3.2.8,0,h,NA,s,s,NA,h,NA,NA,532,NA,53618,25321,NA,532,NA,NA,2,legacy,1024,2,48000,-16,experiment,SSHSS,2,even,55629,227837,NA,352498,2005,326483,NA,360760,2010,202515,NA,359650,360863,361397,360757,NA,NA,360863,Week4submit,134,86518,148,yes,1024
89.93288591,89.93288591,583.5100671,583.5100671,black,legacy,legacy,legacy,0,incongruent,uniform,0,undefined,0,h,0,0,0,148,0,148,0,148,0,0,0,148,148,148,148,NA,NA,148,9/19/19 15:51,600,The main experiment item,yes,Week4submit.osexp,C:/Users/DLGoupil/Desktop,no,mono,no,18,no,white,no,yes,768,legacy,68,79,C:/Users/DLGoupil/Desktop/subject-2.csv,legacy,Kafkaesque Koffka,3.2.8,0,s,NA,s,s,NA,s,NA,NA,425,NA,53618,25321,NA,425,NA,NA,2,legacy,1024,2,48000,-16,experiment,SSHSS,2,even,55629,227837,NA,352498,2005,326483,NA,362507,2010,202515,NA,361402,362610,363037,362504,NA,NA,362610,Week4submit,134,86943,149,yes,1024
90,90,582.5933333,582.5933333,black,legacy,legacy,legacy,0,congruent,uniform,1,undefined,1,h,0,0,0,149,0,149,0,149,0,0,0,149,149,149,149,NA,NA,149,9/19/19 15:51,600,The main experiment item,yes,Week4submit.osexp,C:/Users/DLGoupil/Desktop,no,mono,no,18,no,white,no,yes,768,legacy,69,79,C:/Users/DLGoupil/Desktop/subject-2.csv,legacy,Kafkaesque Koffka,3.2.8,0,h,NA,s,s,NA,h,NA,NA,446,NA,53618,25321,NA,446,NA,NA,2,legacy,1024,2,48000,-16,experiment,HHHHH,2,even,55629,227837,NA,363042,2005,326483,NA,364646,2010,202515,NA,363545,364749,365197,364643,NA,NA,364749,Week4submit,135,87389,150,yes,1024
90.06622517,90.06622517,582.0463576,582.0463576,black,legacy,legacy,legacy,0,congruent,uniform,1,undefined,1,s,0,0,0,150,0,150,0,150,0,0,0,150,150,150,150,NA,NA,150,9/19/19 15:51,600,The main experiment item,yes,Week4submit.osexp,C:/Users/DLGoupil/Desktop,no,mono,no,18,no,white,no,yes,768,legacy,70,79,C:/Users/DLGoupil/Desktop/subject-2.csv,legacy,Kafkaesque Koffka,3.2.8,0,s,NA,s,s,NA,s,NA,NA,500,NA,53618,25321,NA,500,NA,NA,2,legacy,1024,2,48000,-16,experiment,SSSSS,2,even,55629,227837,NA,363042,2005,326483,NA,366312,2010,202515,NA,365202,366415,366917,366309,NA,NA,366415,Week4submit,136,87889,151,yes,1024
90.13157895,90.13157895,582.2763158,582.2763158,black,legacy,legacy,legacy,0,incongruent,uniform,1,undefined,1,h,0,0,0,151,0,151,0,151,0,0,0,151,151,151,151,NA,NA,151,9/19/19 15:51,600,The main experiment item,yes,Week4submit.osexp,C:/Users/DLGoupil/Desktop,no,mono,no,18,no,white,no,yes,768,legacy,71,79,C:/Users/DLGoupil/Desktop/subject-2.csv,legacy,Kafkaesque Koffka,3.2.8,0,h,NA,s,s,NA,h,NA,NA,617,NA,53618,25321,NA,617,NA,NA,2,legacy,1024,2,48000,-16,experiment,SSHSS,2,even,55629,227837,NA,363042,2005,326483,NA,368028,2010,202515,NA,366922,368131,368750,368025,NA,NA,368131,Week4submit,137,88506,152,yes,1024
89.54248366,89.54248366,581.3921569,581.3921569,black,legacy,legacy,legacy,0,incongruent,uniform,0,undefined,0,s,0,0,0,152,0,152,0,152,0,0,0,152,152,152,152,NA,NA,152,9/19/19 15:51,600,The main experiment item,yes,Week4submit.osexp,C:/Users/DLGoupil/Desktop,no,mono,no,18,no,white,no,yes,768,legacy,72,79,C:/Users/DLGoupil/Desktop/subject-2.csv,legacy,Kafkaesque Koffka,3.2.8,0,h,NA,s,s,NA,h,NA,NA,447,NA,53618,25321,NA,447,NA,NA,2,legacy,1024,2,48000,-16,experiment,HHSHH,2,even,55629,227837,NA,363042,2005,368755,NA,370366,2010,202515,NA,369258,370469,370918,370363,NA,NA,370469,Week4submit,137,88953,153,yes,1024
89.61038961,89.61038961,581.474026,581.474026,black,legacy,legacy,legacy,0,congruent,uniform,1,undefined,1,s,0,0,0,153,0,153,0,153,0,0,0,153,153,153,153,NA,NA,153,9/19/19 15:51,600,The main experiment item,yes,Week4submit.osexp,C:/Users/DLGoupil/Desktop,no,mono,no,18,no,white,no,yes,768,legacy,73,79,C:/Users/DLGoupil/Desktop/subject-2.csv,legacy,Kafkaesque Koffka,3.2.8,0,s,NA,s,s,NA,s,NA,NA,594,NA,53618,25321,NA,594,NA,NA,2,legacy,1024,2,48000,-16,experiment,SSSSS,2,even,55629,227837,NA,370923,2005,368755,NA,372531,2010,202515,NA,371427,372634,373230,372528,NA,NA,372634,Week4submit,138,89547,154,yes,1024
89.67741935,89.67741935,580.8709677,580.8709677,black,legacy,legacy,legacy,0,congruent,uniform,1,undefined,1,s,0,0,0,154,0,154,0,154,0,0,0,154,154,154,154,NA,NA,154,9/19/19 15:51,600,The main experiment item,yes,Week4submit.osexp,C:/Users/DLGoupil/Desktop,no,mono,no,18,no,white,no,yes,768,legacy,74,79,C:/Users/DLGoupil/Desktop/subject-2.csv,legacy,Kafkaesque Koffka,3.2.8,0,s,NA,s,s,NA,s,NA,NA,488,NA,53618,25321,NA,488,NA,NA,2,legacy,1024,2,48000,-16,experiment,SSSSS,2,even,55629,227837,NA,370923,2005,368755,NA,374341,2010,202515,NA,373235,374444,374934,374338,NA,NA,374444,Week4submit,139,90035,155,yes,1024
89.1025641,89.1025641,579.7884615,579.7884615,black,legacy,legacy,legacy,0,incongruent,uniform,0,undefined,0,h,0,0,0,155,0,155,0,155,0,0,0,155,155,155,155,NA,NA,155,9/19/19 15:51,600,The main experiment item,yes,Week4submit.osexp,C:/Users/DLGoupil/Desktop,no,mono,no,18,no,white,no,yes,768,legacy,75,79,C:/Users/DLGoupil/Desktop/subject-2.csv,legacy,Kafkaesque Koffka,3.2.8,0,s,NA,s,s,NA,s,NA,NA,412,NA,53618,25321,NA,412,NA,NA,2,legacy,1024,2,48000,-16,experiment,SSHSS,2,even,55629,227837,NA,370923,2005,368755,NA,376042,2010,202515,NA,374939,376144,376558,376039,NA,NA,376144,Week4submit,139,90447,156,yes,1024
89.17197452,89.17197452,579.0127389,579.0127389,black,legacy,legacy,legacy,0,incongruent,uniform,1,undefined,1,h,0,0,0,156,0,156,0,156,0,0,0,156,156,156,156,NA,NA,156,9/19/19 15:51,600,The main experiment item,yes,Week4submit.osexp,C:/Users/DLGoupil/Desktop,no,mono,no,18,no,white,no,yes,768,legacy,76,79,C:/Users/DLGoupil/Desktop/subject-2.csv,legacy,Kafkaesque Koffka,3.2.8,0,h,NA,s,s,NA,h,NA,NA,458,NA,53618,25321,NA,458,NA,NA,2,legacy,1024,2,48000,-16,experiment,SSHSS,2,even,55629,227837,NA,376563,2005,368755,NA,378171,2010,202515,NA,377066,378274,378734,378168,NA,NA,378274,Week4submit,140,90905,157,yes,1024
89.24050633,89.24050633,578.4240506,578.4240506,black,legacy,legacy,legacy,0,congruent,uniform,1,undefined,1,s,0,0,0,157,0,157,0,157,0,0,0,157,157,157,157,NA,NA,157,9/19/19 15:51,600,The main experiment item,yes,Week4submit.osexp,C:/Users/DLGoupil/Desktop,no,mono,no,18,no,white,no,yes,768,legacy,77,79,C:/Users/DLGoupil/Desktop/subject-2.csv,legacy,Kafkaesque Koffka,3.2.8,0,s,NA,s,s,NA,s,NA,NA,486,NA,53618,25321,NA,486,NA,NA,2,legacy,1024,2,48000,-16,experiment,SSSSS,2,even,55629,227837,NA,376563,2005,368755,NA,379846,2010,202515,NA,378739,379950,380438,379844,NA,NA,379950,Week4submit,141,91391,158,yes,1024
89.3081761,89.3081761,578.2327044,578.2327044,black,legacy,legacy,legacy,0,incongruent,uniform,1,undefined,1,s,0,0,0,158,0,158,0,158,0,0,0,158,158,158,158,NA,NA,158,9/19/19 15:51,600,The main experiment item,yes,Week4submit.osexp,C:/Users/DLGoupil/Desktop,no,mono,no,18,no,white,no,yes,768,legacy,78,79,C:/Users/DLGoupil/Desktop/subject-2.csv,legacy,Kafkaesque Koffka,3.2.8,0,s,NA,s,s,NA,s,NA,NA,548,NA,53618,25321,NA,548,NA,NA,2,legacy,1024,2,48000,-16,experiment,HHSHH,2,even,55629,227837,NA,376563,2005,368755,NA,381553,2010,202515,NA,380443,381656,382206,381550,NA,NA,381656,Week4submit,142,91939,159,yes,1024
89.375,89.375,577.6875,577.6875,black,legacy,legacy,legacy,0,incongruent,uniform,1,undefined,1,h,0,0,0,159,0,159,0,159,0,0,0,159,159,159,159,NA,NA,159,9/19/19 15:51,600,The main experiment item,yes,Week4submit.osexp,C:/Users/DLGoupil/Desktop,no,mono,no,18,no,white,no,yes,768,legacy,79,79,C:/Users/DLGoupil/Desktop/subject-2.csv,legacy,Kafkaesque Koffka,3.2.8,0,h,NA,s,s,NA,h,NA,NA,491,NA,53618,25321,NA,491,NA,NA,2,legacy,1024,2,48000,-16,experiment,SSHSS,2,even,55629,227837,NA,376563,2005,368755,NA,383322,2010,202515,NA,382211,383425,383918,383319,NA,NA,383425,Week4submit,143,92430,160,yes,1024
88.81987578,88.81987578,577.9627329,577.9627329,black,legacy,legacy,legacy,0,congruent,uniform,0,undefined,0,s,0,0,0,160,0,160,0,160,0,0,0,160,160,160,160,NA,NA,160,9/19/19 15:51,300,The main experiment item,yes,Week4submit.osexp,C:/Users/DLGoupil/Desktop,no,mono,no,18,no,white,no,yes,768,legacy,0,79,C:/Users/DLGoupil/Desktop/subject-2.csv,legacy,Kafkaesque Koffka,3.2.8,0,h,NA,s,s,s,h,NA,NA,622,NA,53618,25321,7490,622,NA,NA,2,legacy,1024,2,48000,-16,experiment,SSSSS,2,even,55629,227837,392438,376563,2005,368755,NA,392534,2010,202515,384946,383923,392637,393262,392532,NA,NA,392637,Week4submit,143,93052,161,yes,1024
88.88888889,88.88888889,578.3765432,578.3765432,black,legacy,legacy,legacy,0,congruent,uniform,1,undefined,1,h,0,0,0,161,0,161,0,161,0,0,0,161,161,161,161,NA,NA,161,9/19/19 15:51,300,The main experiment item,yes,Week4submit.osexp,C:/Users/DLGoupil/Desktop,no,mono,no,18,no,white,no,yes,768,legacy,1,79,C:/Users/DLGoupil/Desktop/subject-2.csv,legacy,Kafkaesque Koffka,3.2.8,0,h,NA,s,s,s,h,NA,NA,645,NA,53618,25321,7490,645,NA,NA,2,legacy,1024,2,48000,-16,experiment,HHHHH,2,even,55629,227837,392438,393267,2005,393770,NA,395384,2010,202515,384946,394273,395487,396134,395381,NA,NA,395487,Week4submit,144,93697,162,yes,1024
88.95705521,88.95705521,578.0429448,578.0429448,black,legacy,legacy,legacy,0,incongruent,uniform,1,undefined,1,h,0,0,0,162,0,162,0,162,0,0,0,162,162,162,162,NA,NA,162,9/19/19 15:51,300,The main experiment item,yes,Week4submit.osexp,C:/Users/DLGoupil/Desktop,no,mono,no,18,no,white,no,yes,768,legacy,2,79,C:/Users/DLGoupil/Desktop/subject-2.csv,legacy,Kafkaesque Koffka,3.2.8,0,h,NA,s,s,s,h,NA,NA,524,NA,53618,25321,7490,524,NA,NA,2,legacy,1024,2,48000,-16,experiment,SSHSS,2,even,55629,227837,392438,393267,2005,396139,NA,397753,2010,202515,384946,396642,397856,398382,397750,NA,NA,397856,Week4submit,145,94221,163,yes,1024
88.41463415,88.41463415,576.9268293,576.9268293,black,legacy,legacy,legacy,0,incongruent,uniform,0,undefined,0,s,0,0,0,163,0,163,0,163,0,0,0,163,163,163,163,NA,NA,163,9/19/19 15:51,300,The main experiment item,yes,Week4submit.osexp,C:/Users/DLGoupil/Desktop,no,mono,no,18,no,white,no,yes,768,legacy,3,79,C:/Users/DLGoupil/Desktop/subject-2.csv,legacy,Kafkaesque Koffka,3.2.8,0,h,NA,s,s,s,h,NA,NA,395,NA,53618,25321,7490,395,NA,NA,2,legacy,1024,2,48000,-16,experiment,HHSHH,2,even,55629,227837,392438,393267,2005,398387,NA,399993,2010,202515,384946,398890,400097,400494,399991,NA,NA,400097,Week4submit,145,94616,164,yes,1024
88.48484848,88.48484848,575.9818182,575.9818182,black,legacy,legacy,legacy,0,incongruent,uniform,1,undefined,1,s,0,0,0,164,0,164,0,164,0,0,0,164,164,164,164,NA,NA,164,9/19/19 15:51,300,The main experiment item,yes,Week4submit.osexp,C:/Users/DLGoupil/Desktop,no,mono,no,18,no,white,no,yes,768,legacy,4,79,C:/Users/DLGoupil/Desktop/subject-2.csv,legacy,Kafkaesque Koffka,3.2.8,0,s,NA,s,s,s,s,NA,NA,421,NA,53618,25321,7490,421,NA,NA,2,legacy,1024,2,48000,-16,experiment,HHSHH,2,even,55629,227837,392438,400499,2005,401002,NA,402616,2010,202515,384946,401505,402719,403142,402613,NA,NA,402719,Week4submit,146,95037,165,yes,1024
