acc,accuracy,average_response_time,avg_rt,background,canvas_backend,clock_backend,color_backend,compensation,condition,coordinates,correct,correct_instruction1,correct_keybordresponse,correct_response,count_Block1,count_Block2,count_Block3,count_errorfeedback,count_experiment,count_faster,count_finish,count_fixation,count_instruction1,count_instructions2,count_instructions3,count_isi,count_keybordresponse,count_logger,count_sequence,count_stimulus,datetime,deadline,description,disable_garbage_collection,experiment_file,experiment_path,font_bold,font_family,font_italic,font_size,font_underline,foreground,form_clicks,fullscreen,height,keyboard_backend,live_row,live_row_Block1,logfile,mouse_backend,opensesame_codename,opensesame_version,repeat_cycle,response,response_finish,response_instruction1,response_instructions2,response_instructions3,response_keybordresponse,response_time,response_time_finish,response_time_instruction1,response_time_instructions2,response_time_instructions3,response_time_keybordresponse,round_decimals,sampler_backend,sound_buf_size,sound_channels,sound_freq,sound_sample_size,start,stimulus,subject_nr,subject_parity,time_Block1,time_Block2,time_Block3,time_errorfeedback,time_experiment,time_faster,time_finish,time_fixation,time_instruction1,time_instructions2,time_instructions3,time_isi,time_keybordresponse,time_logger,time_sequence,time_stimulus,title,total_correct,total_response_time,total_responses,uniform_coordinates,width
100,100,530,530,black,legacy,legacy,legacy,0,congruent,uniform,1,undefined,1,h,0,0,0,0,0,0,0,0,0,0,0,0,0,0,0,0,Fri Sep 25 23:43:51 2020,1500,The main experiment item,yes,FlankerTask.osexp,C:\Users\katri\OneDrive\Documents\Fall 2020\Flanker Test,no,mono,no,18,no,white,no,yes,768,legacy,0,0,C:/Users/katri/OneDrive/Documents/Fall 2020/Flanker Test/subject-4.csv,legacy,Lentiform Loewenfeld,3.3.3,0,H,NA,S,NA,NA,H,530,NA,35659,NA,NA,530,2,legacy,1024,2,48000,-16,experiment,HHHHH,4,even,38248,NA,NA,NA,2580,NA,NA,38307,2588,NA,NA,NA,38411,38942,38305,38410,Flanker Task,1,530,1,yes,1024
100,100,470,470,black,legacy,legacy,legacy,0,congruent,uniform,1,undefined,1,s,0,0,0,1,0,1,0,1,0,0,0,1,1,1,1,1,Fri Sep 25 23:43:51 2020,1500,The main experiment item,yes,FlankerTask.osexp,C:\Users\katri\OneDrive\Documents\Fall 2020\Flanker Test,no,mono,no,18,no,white,no,yes,768,legacy,1,1,C:/Users/katri/OneDrive/Documents/Fall 2020/Flanker Test/subject-4.csv,legacy,Lentiform Loewenfeld,3.3.3,0,S,NA,S,NA,NA,S,410,NA,35659,NA,NA,410,2,legacy,1024,2,48000,-16,experiment,SSSSS,4,even,38248,NA,NA,NA,2580,NA,NA,40029,2588,NA,NA,38966,40133,40543,40026,40133,Flanker Task,2,940,2,yes,1024
100,100,467,467,black,legacy,legacy,legacy,0,incongruent,uniform,1,undefined,1,s,0,0,0,2,0,2,0,2,0,0,0,2,2,2,2,2,Fri Sep 25 23:43:51 2020,1500,The main experiment item,yes,FlankerTask.osexp,C:\Users\katri\OneDrive\Documents\Fall 2020\Flanker Test,no,mono,no,18,no,white,no,yes,768,legacy,2,2,C:/Users/katri/OneDrive/Documents/Fall 2020/Flanker Test/subject-4.csv,legacy,Lentiform Loewenfeld,3.3.3,0,S,NA,S,NA,NA,S,461,NA,35659,NA,NA,461,2,legacy,1024,2,48000,-16,experiment,HHSHH,4,even,38248,NA,NA,NA,2580,NA,NA,41628,2588,NA,NA,40566,41732,42193,41626,41732,Flanker Task,3,1401,3,yes,1024
100,100,448.75,448.75,black,legacy,legacy,legacy,0,congruent,uniform,1,undefined,1,s,0,0,0,3,0,3,0,3,0,0,0,3,3,3,3,3,Fri Sep 25 23:43:51 2020,1500,The main experiment item,yes,FlankerTask.osexp,C:\Users\katri\OneDrive\Documents\Fall 2020\Flanker Test,no,mono,no,18,no,white,no,yes,768,legacy,3,3,C:/Users/katri/OneDrive/Documents/Fall 2020/Flanker Test/subject-4.csv,legacy,Lentiform Loewenfeld,3.3.3,0,S,NA,S,NA,NA,S,394,NA,35659,NA,NA,394,2,legacy,1024,2,48000,-16,experiment,SSSSS,4,even,38248,NA,NA,NA,2580,NA,NA,43263,2588,NA,NA,42201,43368,43763,43261,43367,Flanker Task,4,1795,4,yes,1024
100,100,457.2,457.2,black,legacy,legacy,legacy,0,congruent,uniform,1,undefined,1,s,0,0,0,4,0,4,0,4,0,0,0,4,4,4,4,4,Fri Sep 25 23:43:51 2020,1500,The main experiment item,yes,FlankerTask.osexp,C:\Users\katri\OneDrive\Documents\Fall 2020\Flanker Test,no,mono,no,18,no,white,no,yes,768,legacy,4,4,C:/Users/katri/OneDrive/Documents/Fall 2020/Flanker Test/subject-4.csv,legacy,Lentiform Loewenfeld,3.3.3,0,S,NA,S,NA,NA,S,491,NA,35659,NA,NA,491,2,legacy,1024,2,48000,-16,experiment,SSSSS,4,even,38248,NA,NA,NA,2580,NA,NA,44846,2588,NA,NA,43785,44948,45440,44844,44948,Flanker Task,5,2286,5,yes,1024
100,100,447.6666667,447.6666667,black,legacy,legacy,legacy,0,congruent,uniform,1,undefined,1,s,0,0,0,5,0,5,0,5,0,0,0,5,5,5,5,5,Fri Sep 25 23:43:51 2020,1500,The main experiment item,yes,FlankerTask.osexp,C:\Users\katri\OneDrive\Documents\Fall 2020\Flanker Test,no,mono,no,18,no,white,no,yes,768,legacy,5,5,C:/Users/katri/OneDrive/Documents/Fall 2020/Flanker Test/subject-4.csv,legacy,Lentiform Loewenfeld,3.3.3,0,S,NA,S,NA,NA,S,400,NA,35659,NA,NA,400,2,legacy,1024,2,48000,-16,experiment,SSSSS,4,even,38248,NA,NA,NA,2580,NA,NA,46509,2588,NA,NA,45447,46610,47010,46508,46610,Flanker Task,6,2686,6,yes,1024
100,100,441.1428571,441.1428571,black,legacy,legacy,legacy,0,congruent,uniform,1,undefined,1,s,0,0,0,6,0,6,0,6,0,0,0,6,6,6,6,6,Fri Sep 25 23:43:51 2020,1500,The main experiment item,yes,FlankerTask.osexp,C:\Users\katri\OneDrive\Documents\Fall 2020\Flanker Test,no,mono,no,18,no,white,no,yes,768,legacy,6,6,C:/Users/katri/OneDrive/Documents/Fall 2020/Flanker Test/subject-4.csv,legacy,Lentiform Loewenfeld,3.3.3,0,S,NA,S,NA,NA,S,402,NA,35659,NA,NA,402,2,legacy,1024,2,48000,-16,experiment,SSSSS,4,even,38248,NA,NA,NA,2580,NA,NA,48096,2588,NA,NA,47033,48197,48599,48094,48197,Flanker Task,7,3088,7,yes,1024
100,100,430.875,430.875,black,legacy,legacy,legacy,0,congruent,uniform,1,undefined,1,s,0,0,0,7,0,7,0,7,0,0,0,7,7,7,7,7,Fri Sep 25 23:43:51 2020,1500,The main experiment item,yes,FlankerTask.osexp,C:\Users\katri\OneDrive\Documents\Fall 2020\Flanker Test,no,mono,no,18,no,white,no,yes,768,legacy,7,7,C:/Users/katri/OneDrive/Documents/Fall 2020/Flanker Test/subject-4.csv,legacy,Lentiform Loewenfeld,3.3.3,0,S,NA,S,NA,NA,S,359,NA,35659,NA,NA,359,2,legacy,1024,2,48000,-16,experiment,SSSSS,4,even,38248,NA,NA,NA,2580,NA,NA,49683,2588,NA,NA,48621,49785,50144,49681,49785,Flanker Task,8,3447,8,yes,1024
100,100,442,442,black,legacy,legacy,legacy,0,congruent,uniform,1,undefined,1,h,0,0,0,8,0,8,0,8,0,0,0,8,8,8,8,8,Fri Sep 25 23:43:51 2020,1500,The main experiment item,yes,FlankerTask.osexp,C:\Users\katri\OneDrive\Documents\Fall 2020\Flanker Test,no,mono,no,18,no,white,no,yes,768,legacy,8,8,C:/Users/katri/OneDrive/Documents/Fall 2020/Flanker Test/subject-4.csv,legacy,Lentiform Loewenfeld,3.3.3,0,H,NA,S,NA,NA,H,531,NA,35659,NA,NA,531,2,legacy,1024,2,48000,-16,experiment,HHHHH,4,even,38248,NA,NA,NA,2580,NA,NA,51239,2588,NA,NA,50166,51343,51874,51237,51342,Flanker Task,9,3978,9,yes,1024
100,100,460.1,460.1,black,legacy,legacy,legacy,0,incongruent,uniform,1,undefined,1,s,0,0,0,9,0,9,0,9,0,0,0,9,9,9,9,9,Fri Sep 25 23:43:51 2020,1500,The main experiment item,yes,FlankerTask.osexp,C:\Users\katri\OneDrive\Documents\Fall 2020\Flanker Test,no,mono,no,18,no,white,no,yes,768,legacy,9,9,C:/Users/katri/OneDrive/Documents/Fall 2020/Flanker Test/subject-4.csv,legacy,Lentiform Loewenfeld,3.3.3,0,S,NA,S,NA,NA,S,623,NA,35659,NA,NA,623,2,legacy,1024,2,48000,-16,experiment,HHSHH,4,even,38248,NA,NA,NA,2580,NA,NA,52948,2588,NA,NA,51881,53049,53672,52946,53049,Flanker Task,10,4601,10,yes,1024
100,100,459.2727273,459.2727273,black,legacy,legacy,legacy,0,incongruent,uniform,1,undefined,1,s,0,0,0,10,0,10,0,10,0,0,0,10,10,10,10,10,Fri Sep 25 23:43:51 2020,1500,The main experiment item,yes,FlankerTask.osexp,C:\Users\katri\OneDrive\Documents\Fall 2020\Flanker Test,no,mono,no,18,no,white,no,yes,768,legacy,10,10,C:/Users/katri/OneDrive/Documents/Fall 2020/Flanker Test/subject-4.csv,legacy,Lentiform Loewenfeld,3.3.3,0,S,NA,S,NA,NA,S,451,NA,35659,NA,NA,451,2,legacy,1024,2,48000,-16,experiment,HHSHH,4,even,38248,NA,NA,NA,2580,NA,NA,54742,2588,NA,NA,53679,54847,55298,54739,54846,Flanker Task,11,5052,11,yes,1024
100,100,458.4166667,458.4166667,black,legacy,legacy,legacy,0,congruent,uniform,1,undefined,1,s,0,0,0,11,0,11,0,11,0,0,0,11,11,11,11,11,Fri Sep 25 23:43:51 2020,1500,The main experiment item,yes,FlankerTask.osexp,C:\Users\katri\OneDrive\Documents\Fall 2020\Flanker Test,no,mono,no,18,no,white,no,yes,768,legacy,11,11,C:/Users/katri/OneDrive/Documents/Fall 2020/Flanker Test/subject-4.csv,legacy,Lentiform Loewenfeld,3.3.3,0,S,NA,S,NA,NA,S,449,NA,35659,NA,NA,449,2,legacy,1024,2,48000,-16,experiment,SSSSS,4,even,38248,NA,NA,NA,2580,NA,NA,56381,2588,NA,NA,55320,56485,56935,56379,56484,Flanker Task,12,5501,12,yes,1024
92.30769231,92.30769231,453.3846154,453.3846154,black,legacy,legacy,legacy,0,incongrunet,uniform,0,undefined,0,h,0,0,0,12,0,12,0,12,0,0,0,12,12,12,12,12,Fri Sep 25 23:43:51 2020,1500,The main experiment item,yes,FlankerTask.osexp,C:\Users\katri\OneDrive\Documents\Fall 2020\Flanker Test,no,mono,no,18,no,white,no,yes,768,legacy,12,12,C:/Users/katri/OneDrive/Documents/Fall 2020/Flanker Test/subject-4.csv,legacy,Lentiform Loewenfeld,3.3.3,0,S,NA,S,NA,NA,S,393,NA,35659,NA,NA,393,2,legacy,1024,2,48000,-16,experiment,SSHSS,4,even,38248,NA,NA,NA,2580,NA,NA,58019,2588,NA,NA,56957,58120,58513,58017,58120,Flanker Task,12,5894,13,yes,1024
92.85714286,92.85714286,467.5714286,467.5714286,black,legacy,legacy,legacy,0,congruent,uniform,1,undefined,1,h,0,0,0,13,0,13,0,13,0,0,0,13,13,13,13,13,Fri Sep 25 23:43:51 2020,1500,The main experiment item,yes,FlankerTask.osexp,C:\Users\katri\OneDrive\Documents\Fall 2020\Flanker Test,no,mono,no,18,no,white,no,yes,768,legacy,13,13,C:/Users/katri/OneDrive/Documents/Fall 2020/Flanker Test/subject-4.csv,legacy,Lentiform Loewenfeld,3.3.3,0,H,NA,S,NA,NA,H,652,NA,35659,NA,NA,652,2,legacy,1024,2,48000,-16,experiment,HHHHH,4,even,38248,NA,NA,59536,2580,NA,NA,60096,2588,NA,NA,58535,60201,60853,60095,60200,Flanker Task,13,6546,14,yes,1024
93.33333333,93.33333333,468.4666667,468.4666667,black,legacy,legacy,legacy,0,congruent,uniform,1,undefined,1,h,0,0,0,14,0,14,0,14,0,0,0,14,14,14,14,14,Fri Sep 25 23:43:51 2020,1500,The main experiment item,yes,FlankerTask.osexp,C:\Users\katri\OneDrive\Documents\Fall 2020\Flanker Test,no,mono,no,18,no,white,no,yes,768,legacy,14,14,C:/Users/katri/OneDrive/Documents/Fall 2020/Flanker Test/subject-4.csv,legacy,Lentiform Loewenfeld,3.3.3,0,H,NA,S,NA,NA,H,481,NA,35659,NA,NA,481,2,legacy,1024,2,48000,-16,experiment,HHHHH,4,even,38248,NA,NA,59536,2580,NA,NA,61939,2588,NA,NA,60861,62044,62526,61936,62043,Flanker Task,14,7027,15,yes,1024
93.75,93.75,468.4375,468.4375,black,legacy,legacy,legacy,0,congruent,uniform,1,undefined,1,s,0,0,0,15,0,15,0,15,0,0,0,15,15,15,15,15,Fri Sep 25 23:43:51 2020,1500,The main experiment item,yes,FlankerTask.osexp,C:\Users\katri\OneDrive\Documents\Fall 2020\Flanker Test,no,mono,no,18,no,white,no,yes,768,legacy,15,15,C:/Users/katri/OneDrive/Documents/Fall 2020/Flanker Test/subject-4.csv,legacy,Lentiform Loewenfeld,3.3.3,0,S,NA,S,NA,NA,S,468,NA,35659,NA,NA,468,2,legacy,1024,2,48000,-16,experiment,SSSSS,4,even,38248,NA,NA,59536,2580,NA,NA,63595,2588,NA,NA,62534,63700,64168,63593,63699,Flanker Task,15,7495,16,yes,1024
94.11764706,94.11764706,471.6470588,471.6470588,black,legacy,legacy,legacy,0,incongruent,uniform,1,undefined,1,s,0,0,0,16,0,16,0,16,0,0,0,16,16,16,16,16,Fri Sep 25 23:43:51 2020,1500,The main experiment item,yes,FlankerTask.osexp,C:\Users\katri\OneDrive\Documents\Fall 2020\Flanker Test,no,mono,no,18,no,white,no,yes,768,legacy,16,16,C:/Users/katri/OneDrive/Documents/Fall 2020/Flanker Test/subject-4.csv,legacy,Lentiform Loewenfeld,3.3.3,0,S,NA,S,NA,NA,S,523,NA,35659,NA,NA,523,2,legacy,1024,2,48000,-16,experiment,HHSHH,4,even,38248,NA,NA,59536,2580,NA,NA,65254,2588,NA,NA,64191,65359,65882,65251,65358,Flanker Task,16,8018,17,yes,1024
94.44444444,94.44444444,467.8333333,467.8333333,black,legacy,legacy,legacy,0,congruent,uniform,1,undefined,1,s,0,0,0,17,0,17,0,17,0,0,0,17,17,17,17,17,Fri Sep 25 23:43:51 2020,1500,The main experiment item,yes,FlankerTask.osexp,C:\Users\katri\OneDrive\Documents\Fall 2020\Flanker Test,no,mono,no,18,no,white,no,yes,768,legacy,17,17,C:/Users/katri/OneDrive/Documents/Fall 2020/Flanker Test/subject-4.csv,legacy,Lentiform Loewenfeld,3.3.3,0,S,NA,S,NA,NA,S,403,NA,35659,NA,NA,403,2,legacy,1024,2,48000,-16,experiment,SSSSS,4,even,38248,NA,NA,59536,2580,NA,NA,66977,2588,NA,NA,65906,67082,67486,66975,67081,Flanker Task,17,8421,18,yes,1024
94.73684211,94.73684211,465.1052632,465.1052632,black,legacy,legacy,legacy,0,incongrunet,uniform,1,undefined,1,h,0,0,0,18,0,18,0,18,0,0,0,18,18,18,18,18,Fri Sep 25 23:43:51 2020,1500,The main experiment item,yes,FlankerTask.osexp,C:\Users\katri\OneDrive\Documents\Fall 2020\Flanker Test,no,mono,no,18,no,white,no,yes,768,legacy,18,18,C:/Users/katri/OneDrive/Documents/Fall 2020/Flanker Test/subject-4.csv,legacy,Lentiform Loewenfeld,3.3.3,0,H,NA,S,NA,NA,H,416,NA,35659,NA,NA,416,2,legacy,1024,2,48000,-16,experiment,SSHSS,4,even,38248,NA,NA,59536,2580,NA,NA,68573,2588,NA,NA,67509,68678,69095,68571,68677,Flanker Task,18,8837,19,yes,1024
95,95,465.9,465.9,black,legacy,legacy,legacy,0,incongruent,uniform,1,undefined,1,s,0,0,0,19,0,19,0,19,0,0,0,19,19,19,19,19,Fri Sep 25 23:43:51 2020,1500,The main experiment item,yes,FlankerTask.osexp,C:\Users\katri\OneDrive\Documents\Fall 2020\Flanker Test,no,mono,no,18,no,white,no,yes,768,legacy,19,19,C:/Users/katri/OneDrive/Documents/Fall 2020/Flanker Test/subject-4.csv,legacy,Lentiform Loewenfeld,3.3.3,0,S,NA,S,NA,NA,S,481,NA,35659,NA,NA,481,2,legacy,1024,2,48000,-16,experiment,HHSHH,4,even,38248,NA,NA,59536,2580,NA,NA,70181,2588,NA,NA,69119,70282,70763,70179,70282,Flanker Task,19,9318,20,yes,1024
95.23809524,95.23809524,463.7619048,463.7619048,black,legacy,legacy,legacy,0,congruent,uniform,1,undefined,1,s,0,0,0,20,0,20,0,20,0,0,0,20,20,20,20,20,Fri Sep 25 23:43:51 2020,1500,The main experiment item,yes,FlankerTask.osexp,C:\Users\katri\OneDrive\Documents\Fall 2020\Flanker Test,no,mono,no,18,no,white,no,yes,768,legacy,20,20,C:/Users/katri/OneDrive/Documents/Fall 2020/Flanker Test/subject-4.csv,legacy,Lentiform Loewenfeld,3.3.3,0,S,NA,S,NA,NA,S,421,NA,35659,NA,NA,421,2,legacy,1024,2,48000,-16,experiment,SSSSS,4,even,38248,NA,NA,59536,2580,NA,NA,71845,2588,NA,NA,70785,71947,72368,71843,71947,Flanker Task,20,9739,21,yes,1024
90.90909091,90.90909091,461.6818182,461.6818182,black,legacy,legacy,legacy,0,congruent,uniform,0,undefined,0,h,0,0,0,21,0,21,0,21,0,0,0,21,21,21,21,21,Fri Sep 25 23:43:51 2020,1500,The main experiment item,yes,FlankerTask.osexp,C:\Users\katri\OneDrive\Documents\Fall 2020\Flanker Test,no,mono,no,18,no,white,no,yes,768,legacy,21,21,C:/Users/katri/OneDrive/Documents/Fall 2020/Flanker Test/subject-4.csv,legacy,Lentiform Loewenfeld,3.3.3,0,S,NA,S,NA,NA,S,418,NA,35659,NA,NA,418,2,legacy,1024,2,48000,-16,experiment,HHHHH,4,even,38248,NA,NA,59536,2580,NA,NA,73470,2588,NA,NA,72391,73573,73992,73467,73573,Flanker Task,20,10157,22,yes,1024
91.30434783,91.30434783,475.2173913,475.2173913,black,legacy,legacy,legacy,0,incongruent,uniform,1,undefined,1,s,0,0,0,22,0,22,0,22,0,0,0,22,22,22,22,22,Fri Sep 25 23:43:51 2020,1500,The main experiment item,yes,FlankerTask.osexp,C:\Users\katri\OneDrive\Documents\Fall 2020\Flanker Test,no,mono,no,18,no,white,no,yes,768,legacy,22,22,C:/Users/katri/OneDrive/Documents/Fall 2020/Flanker Test/subject-4.csv,legacy,Lentiform Loewenfeld,3.3.3,0,S,NA,S,NA,NA,S,773,NA,35659,NA,NA,773,2,legacy,1024,2,48000,-16,experiment,HHSHH,4,even,38248,NA,NA,74996,2580,NA,NA,75556,2588,NA,NA,73995,75661,76434,75554,75660,Flanker Task,21,10930,23,yes,1024
91.66666667,91.66666667,471.75,471.75,black,legacy,legacy,legacy,0,congruent,uniform,1,undefined,1,h,0,0,0,23,0,23,0,23,0,0,0,23,23,23,23,23,Fri Sep 25 23:43:51 2020,1500,The main experiment item,yes,FlankerTask.osexp,C:\Users\katri\OneDrive\Documents\Fall 2020\Flanker Test,no,mono,no,18,no,white,no,yes,768,legacy,23,23,C:/Users/katri/OneDrive/Documents/Fall 2020/Flanker Test/subject-4.csv,legacy,Lentiform Loewenfeld,3.3.3,0,H,NA,S,NA,NA,H,392,NA,35659,NA,NA,392,2,legacy,1024,2,48000,-16,experiment,HHHHH,4,even,38248,NA,NA,74996,2580,NA,NA,77505,2588,NA,NA,76442,77610,78002,77503,77610,Flanker Task,22,11322,24,yes,1024
92,92,477.92,477.92,black,legacy,legacy,legacy,0,incongruent,uniform,1,undefined,1,s,0,0,0,24,0,24,0,24,0,0,0,24,24,24,24,24,Fri Sep 25 23:43:51 2020,1500,The main experiment item,yes,FlankerTask.osexp,C:\Users\katri\OneDrive\Documents\Fall 2020\Flanker Test,no,mono,no,18,no,white,no,yes,768,legacy,24,24,C:/Users/katri/OneDrive/Documents/Fall 2020/Flanker Test/subject-4.csv,legacy,Lentiform Loewenfeld,3.3.3,0,S,NA,S,NA,NA,S,626,NA,35659,NA,NA,626,2,legacy,1024,2,48000,-16,experiment,HHSHH,4,even,38248,NA,NA,74996,2580,NA,NA,79087,2588,NA,NA,78010,79191,79817,79085,79191,Flanker Task,23,11948,25,yes,1024
92.30769231,92.30769231,481.5,481.5,black,legacy,legacy,legacy,0,incongruent,uniform,1,undefined,1,s,0,0,0,25,0,25,0,25,0,0,0,25,25,25,25,25,Fri Sep 25 23:43:51 2020,1500,The main experiment item,yes,FlankerTask.osexp,C:\Users\katri\OneDrive\Documents\Fall 2020\Flanker Test,no,mono,no,18,no,white,no,yes,768,legacy,25,25,C:/Users/katri/OneDrive/Documents/Fall 2020/Flanker Test/subject-4.csv,legacy,Lentiform Loewenfeld,3.3.3,0,S,NA,S,NA,NA,S,571,NA,35659,NA,NA,571,2,legacy,1024,2,48000,-16,experiment,HHSHH,4,even,38248,NA,NA,74996,2580,NA,NA,80887,2588,NA,NA,79824,80992,81563,80885,80991,Flanker Task,24,12519,26,yes,1024
92.59259259,92.59259259,480.8888889,480.8888889,black,legacy,legacy,legacy,0,congruent,uniform,1,undefined,1,s,0,0,0,26,0,26,0,26,0,0,0,26,26,26,26,26,Fri Sep 25 23:43:51 2020,1500,The main experiment item,yes,FlankerTask.osexp,C:\Users\katri\OneDrive\Documents\Fall 2020\Flanker Test,no,mono,no,18,no,white,no,yes,768,legacy,26,26,C:/Users/katri/OneDrive/Documents/Fall 2020/Flanker Test/subject-4.csv,legacy,Lentiform Loewenfeld,3.3.3,0,S,NA,S,NA,NA,S,465,NA,35659,NA,NA,465,2,legacy,1024,2,48000,-16,experiment,SSSSS,4,even,38248,NA,NA,74996,2580,NA,NA,82650,2588,NA,NA,81587,82755,83220,82648,82754,Flanker Task,25,12984,27,yes,1024
92.85714286,92.85714286,482.5,482.5,black,legacy,legacy,legacy,0,incongrunet,uniform,1,undefined,1,h,0,0,0,27,0,27,0,27,0,0,0,27,27,27,27,27,Fri Sep 25 23:43:51 2020,1500,The main experiment item,yes,FlankerTask.osexp,C:\Users\katri\OneDrive\Documents\Fall 2020\Flanker Test,no,mono,no,18,no,white,no,yes,768,legacy,27,27,C:/Users/katri/OneDrive/Documents/Fall 2020/Flanker Test/subject-4.csv,legacy,Lentiform Loewenfeld,3.3.3,0,H,NA,S,NA,NA,H,526,NA,35659,NA,NA,526,2,legacy,1024,2,48000,-16,experiment,SSHSS,4,even,38248,NA,NA,74996,2580,NA,NA,84288,2588,NA,NA,83227,84389,84915,84286,84389,Flanker Task,26,13510,28,yes,1024
93.10344828,93.10344828,482.5172414,482.5172414,black,legacy,legacy,legacy,0,congruent,uniform,1,undefined,1,s,0,0,0,28,0,28,0,28,0,0,0,28,28,28,28,28,Fri Sep 25 23:43:51 2020,1500,The main experiment item,yes,FlankerTask.osexp,C:\Users\katri\OneDrive\Documents\Fall 2020\Flanker Test,no,mono,no,18,no,white,no,yes,768,legacy,28,28,C:/Users/katri/OneDrive/Documents/Fall 2020/Flanker Test/subject-4.csv,legacy,Lentiform Loewenfeld,3.3.3,0,S,NA,S,NA,NA,S,483,NA,35659,NA,NA,483,2,legacy,1024,2,48000,-16,experiment,SSSSS,4,even,38248,NA,NA,74996,2580,NA,NA,86009,2588,NA,NA,84937,86114,86598,86006,86113,Flanker Task,27,13993,29,yes,1024
93.33333333,93.33333333,481.1666667,481.1666667,black,legacy,legacy,legacy,0,incongrunet,uniform,1,undefined,1,h,0,0,0,29,0,29,0,29,0,0,0,29,29,29,29,29,Fri Sep 25 23:43:51 2020,1500,The main experiment item,yes,FlankerTask.osexp,C:\Users\katri\OneDrive\Documents\Fall 2020\Flanker Test,no,mono,no,18,no,white,no,yes,768,legacy,29,29,C:/Users/katri/OneDrive/Documents/Fall 2020/Flanker Test/subject-4.csv,legacy,Lentiform Loewenfeld,3.3.3,0,H,NA,S,NA,NA,H,442,NA,35659,NA,NA,442,2,legacy,1024,2,48000,-16,experiment,SSHSS,4,even,38248,NA,NA,74996,2580,NA,NA,87683,2588,NA,NA,86620,87788,88231,87680,87787,Flanker Task,28,14435,30,yes,1024
93.5483871,93.5483871,483.6129032,483.6129032,black,legacy,legacy,legacy,0,incongruent,uniform,1,undefined,1,s,0,0,0,30,0,30,0,30,0,0,0,30,30,30,30,30,Fri Sep 25 23:43:51 2020,1500,The main experiment item,yes,FlankerTask.osexp,C:\Users\katri\OneDrive\Documents\Fall 2020\Flanker Test,no,mono,no,18,no,white,no,yes,768,legacy,30,30,C:/Users/katri/OneDrive/Documents/Fall 2020/Flanker Test/subject-4.csv,legacy,Lentiform Loewenfeld,3.3.3,0,S,NA,S,NA,NA,S,557,NA,35659,NA,NA,557,2,legacy,1024,2,48000,-16,experiment,HHSHH,4,even,38248,NA,NA,74996,2580,NA,NA,89311,2588,NA,NA,88239,89416,89973,89309,89415,Flanker Task,29,14992,31,yes,1024
93.75,93.75,481.96875,481.96875,black,legacy,legacy,legacy,0,congruent,uniform,1,undefined,1,s,0,0,0,31,0,31,0,31,0,0,0,31,31,31,31,31,Fri Sep 25 23:43:51 2020,1500,The main experiment item,yes,FlankerTask.osexp,C:\Users\katri\OneDrive\Documents\Fall 2020\Flanker Test,no,mono,no,18,no,white,no,yes,768,legacy,31,31,C:/Users/katri/OneDrive/Documents/Fall 2020/Flanker Test/subject-4.csv,legacy,Lentiform Loewenfeld,3.3.3,0,S,NA,S,NA,NA,S,431,NA,35659,NA,NA,431,2,legacy,1024,2,48000,-16,experiment,SSSSS,4,even,38248,NA,NA,74996,2580,NA,NA,91070,2588,NA,NA,89997,91175,91606,91068,91174,Flanker Task,30,15423,32,yes,1024
93.93939394,93.93939394,485.5151515,485.5151515,black,legacy,legacy,legacy,0,congruent,uniform,1,undefined,1,s,0,0,0,32,0,32,0,32,0,0,0,32,32,32,32,32,Fri Sep 25 23:43:51 2020,1500,The main experiment item,yes,FlankerTask.osexp,C:\Users\katri\OneDrive\Documents\Fall 2020\Flanker Test,no,mono,no,18,no,white,no,yes,768,legacy,32,32,C:/Users/katri/OneDrive/Documents/Fall 2020/Flanker Test/subject-4.csv,legacy,Lentiform Loewenfeld,3.3.3,0,S,NA,S,NA,NA,S,599,NA,35659,NA,NA,599,2,legacy,1024,2,48000,-16,experiment,SSSSS,4,even,38248,NA,NA,74996,2580,NA,NA,92702,2588,NA,NA,91629,92803,93402,92700,92803,Flanker Task,31,16022,33,yes,1024
94.11764706,94.11764706,482.8529412,482.8529412,black,legacy,legacy,legacy,0,congruent,uniform,1,undefined,1,s,0,0,0,33,0,33,0,33,0,0,0,33,33,33,33,33,Fri Sep 25 23:43:51 2020,1500,The main experiment item,yes,FlankerTask.osexp,C:\Users\katri\OneDrive\Documents\Fall 2020\Flanker Test,no,mono,no,18,no,white,no,yes,768,legacy,33,33,C:/Users/katri/OneDrive/Documents/Fall 2020/Flanker Test/subject-4.csv,legacy,Lentiform Loewenfeld,3.3.3,0,S,NA,S,NA,NA,S,395,NA,35659,NA,NA,395,2,legacy,1024,2,48000,-16,experiment,SSSSS,4,even,38248,NA,NA,74996,2580,NA,NA,94501,2588,NA,NA,93425,94602,94998,94499,94602,Flanker Task,32,16417,34,yes,1024
94.28571429,94.28571429,479.9428571,479.9428571,black,legacy,legacy,legacy,0,incongrunet,uniform,1,undefined,1,h,0,0,0,34,0,34,0,34,0,0,0,34,34,34,34,34,Fri Sep 25 23:43:51 2020,1500,The main experiment item,yes,FlankerTask.osexp,C:\Users\katri\OneDrive\Documents\Fall 2020\Flanker Test,no,mono,no,18,no,white,no,yes,768,legacy,34,34,C:/Users/katri/OneDrive/Documents/Fall 2020/Flanker Test/subject-4.csv,legacy,Lentiform Loewenfeld,3.3.3,0,H,NA,S,NA,NA,H,381,NA,35659,NA,NA,381,2,legacy,1024,2,48000,-16,experiment,SSHSS,4,even,38248,NA,NA,74996,2580,NA,NA,96082,2588,NA,NA,95020,96183,96565,96080,96183,Flanker Task,33,16798,35,yes,1024
94.44444444,94.44444444,481.4166667,481.4166667,black,legacy,legacy,legacy,0,incongrunet,uniform,1,undefined,1,h,0,0,0,35,0,35,0,35,0,0,0,35,35,35,35,35,Fri Sep 25 23:43:51 2020,1500,The main experiment item,yes,FlankerTask.osexp,C:\Users\katri\OneDrive\Documents\Fall 2020\Flanker Test,no,mono,no,18,no,white,no,yes,768,legacy,35,35,C:/Users/katri/OneDrive/Documents/Fall 2020/Flanker Test/subject-4.csv,legacy,Lentiform Loewenfeld,3.3.3,0,H,NA,S,NA,NA,H,533,NA,35659,NA,NA,533,2,legacy,1024,2,48000,-16,experiment,SSHSS,4,even,38248,NA,NA,74996,2580,NA,NA,97650,2588,NA,NA,96589,97755,98288,97648,97754,Flanker Task,34,17331,36,yes,1024
94.59459459,94.59459459,480.7027027,480.7027027,black,legacy,legacy,legacy,0,incongruent,uniform,1,undefined,1,s,0,0,0,36,0,36,0,36,0,0,0,36,36,36,36,36,Fri Sep 25 23:43:51 2020,1500,The main experiment item,yes,FlankerTask.osexp,C:\Users\katri\OneDrive\Documents\Fall 2020\Flanker Test,no,mono,no,18,no,white,no,yes,768,legacy,36,36,C:/Users/katri/OneDrive/Documents/Fall 2020/Flanker Test/subject-4.csv,legacy,Lentiform Loewenfeld,3.3.3,0,S,NA,S,NA,NA,S,455,NA,35659,NA,NA,455,2,legacy,1024,2,48000,-16,experiment,HHSHH,4,even,38248,NA,NA,74996,2580,NA,NA,99357,2588,NA,NA,98295,99461,99917,99355,99461,Flanker Task,35,17786,37,yes,1024
94.73684211,94.73684211,480.2631579,480.2631579,black,legacy,legacy,legacy,0,congruent,uniform,1,undefined,1,h,0,0,0,37,0,37,0,37,0,0,0,37,37,37,37,37,Fri Sep 25 23:43:51 2020,1500,The main experiment item,yes,FlankerTask.osexp,C:\Users\katri\OneDrive\Documents\Fall 2020\Flanker Test,no,mono,no,18,no,white,no,yes,768,legacy,37,37,C:/Users/katri/OneDrive/Documents/Fall 2020/Flanker Test/subject-4.csv,legacy,Lentiform Loewenfeld,3.3.3,0,H,NA,S,NA,NA,H,464,NA,35659,NA,NA,464,2,legacy,1024,2,48000,-16,experiment,HHHHH,4,even,38248,NA,NA,74996,2580,NA,NA,101001,2588,NA,NA,99939,101106,101571,100999,101105,Flanker Task,36,18250,38,yes,1024
94.87179487,94.87179487,478.6923077,478.6923077,black,legacy,legacy,legacy,0,incongruent,uniform,1,undefined,1,s,0,0,0,38,0,38,0,38,0,0,0,38,38,38,38,38,Fri Sep 25 23:43:51 2020,1500,The main experiment item,yes,FlankerTask.osexp,C:\Users\katri\OneDrive\Documents\Fall 2020\Flanker Test,no,mono,no,18,no,white,no,yes,768,legacy,38,38,C:/Users/katri/OneDrive/Documents/Fall 2020/Flanker Test/subject-4.csv,legacy,Lentiform Loewenfeld,3.3.3,0,S,NA,S,NA,NA,S,419,NA,35659,NA,NA,419,2,legacy,1024,2,48000,-16,experiment,HHSHH,4,even,38248,NA,NA,74996,2580,NA,NA,102662,2588,NA,NA,101597,102767,103187,102660,102766,Flanker Task,37,18669,39,yes,1024
95,95,485.175,485.175,black,legacy,legacy,legacy,0,incongrunet,uniform,1,undefined,1,h,0,0,0,39,0,39,0,39,0,0,0,39,39,39,39,39,Fri Sep 25 23:43:51 2020,1500,The main experiment item,yes,FlankerTask.osexp,C:\Users\katri\OneDrive\Documents\Fall 2020\Flanker Test,no,mono,no,18,no,white,no,yes,768,legacy,39,39,C:/Users/katri/OneDrive/Documents/Fall 2020/Flanker Test/subject-4.csv,legacy,Lentiform Loewenfeld,3.3.3,0,H,NA,S,NA,NA,H,738,NA,35659,NA,NA,738,2,legacy,1024,2,48000,-16,experiment,SSHSS,4,even,38248,NA,NA,74996,2580,NA,NA,104271,2588,NA,NA,103208,104372,105110,104269,104372,Flanker Task,38,19407,40,yes,1024
92.68292683,92.68292683,484.8536585,484.8536585,black,legacy,legacy,legacy,0,incongruent,uniform,0,undefined,0,s,0,0,0,40,0,40,0,40,0,0,0,40,40,40,40,40,Fri Sep 25 23:43:51 2020,1500,The main experiment item,yes,FlankerTask.osexp,C:\Users\katri\OneDrive\Documents\Fall 2020\Flanker Test,no,mono,no,18,no,white,no,yes,768,legacy,40,40,C:/Users/katri/OneDrive/Documents/Fall 2020/Flanker Test/subject-4.csv,legacy,Lentiform Loewenfeld,3.3.3,0,H,NA,S,NA,NA,H,472,NA,35659,NA,NA,472,2,legacy,1024,2,48000,-16,experiment,HHSHH,4,even,38248,NA,NA,74996,2580,NA,NA,106198,2588,NA,NA,105134,106302,106774,106195,106302,Flanker Task,38,19879,41,yes,1024
92.85714286,92.85714286,489.8809524,489.8809524,black,legacy,legacy,legacy,0,incongruent,uniform,1,undefined,1,s,0,0,0,41,0,41,0,41,0,0,0,41,41,41,41,41,Fri Sep 25 23:43:51 2020,1500,The main experiment item,yes,FlankerTask.osexp,C:\Users\katri\OneDrive\Documents\Fall 2020\Flanker Test,no,mono,no,18,no,white,no,yes,768,legacy,41,41,C:/Users/katri/OneDrive/Documents/Fall 2020/Flanker Test/subject-4.csv,legacy,Lentiform Loewenfeld,3.3.3,0,S,NA,S,NA,NA,S,696,NA,35659,NA,NA,696,2,legacy,1024,2,48000,-16,experiment,HHSHH,4,even,38248,NA,NA,107783,2580,NA,NA,108343,2588,NA,NA,106782,108449,109146,108341,108448,Flanker Task,39,20575,42,yes,1024
93.02325581,93.02325581,490.6046512,490.6046512,black,legacy,legacy,legacy,0,incongrunet,uniform,1,undefined,1,h,0,0,0,42,0,42,0,42,0,0,0,42,42,42,42,42,Fri Sep 25 23:43:51 2020,1500,The main experiment item,yes,FlankerTask.osexp,C:\Users\katri\OneDrive\Documents\Fall 2020\Flanker Test,no,mono,no,18,no,white,no,yes,768,legacy,42,42,C:/Users/katri/OneDrive/Documents/Fall 2020/Flanker Test/subject-4.csv,legacy,Lentiform Loewenfeld,3.3.3,0,H,NA,S,NA,NA,H,521,NA,35659,NA,NA,521,2,legacy,1024,2,48000,-16,experiment,SSHSS,4,even,38248,NA,NA,107783,2580,NA,NA,110215,2588,NA,NA,109153,110320,110841,110214,110319,Flanker Task,40,21096,43,yes,1024
93.18181818,93.18181818,491.8863636,491.8863636,black,legacy,legacy,legacy,0,congruent,uniform,1,undefined,1,h,0,0,0,43,0,43,0,43,0,0,0,43,43,43,43,43,Fri Sep 25 23:43:51 2020,1500,The main experiment item,yes,FlankerTask.osexp,C:\Users\katri\OneDrive\Documents\Fall 2020\Flanker Test,no,mono,no,18,no,white,no,yes,768,legacy,43,43,C:/Users/katri/OneDrive/Documents/Fall 2020/Flanker Test/subject-4.csv,legacy,Lentiform Loewenfeld,3.3.3,0,H,NA,S,NA,NA,H,547,NA,35659,NA,NA,547,2,legacy,1024,2,48000,-16,experiment,HHHHH,4,even,38248,NA,NA,107783,2580,NA,NA,111921,2588,NA,NA,110844,112022,112570,111919,112022,Flanker Task,41,21643,44,yes,1024
93.33333333,93.33333333,489.6222222,489.6222222,black,legacy,legacy,legacy,0,incongruent,uniform,1,undefined,1,s,0,0,0,44,0,44,0,44,0,0,0,44,44,44,44,44,Fri Sep 25 23:43:51 2020,1500,The main experiment item,yes,FlankerTask.osexp,C:\Users\katri\OneDrive\Documents\Fall 2020\Flanker Test,no,mono,no,18,no,white,no,yes,768,legacy,44,44,C:/Users/katri/OneDrive/Documents/Fall 2020/Flanker Test/subject-4.csv,legacy,Lentiform Loewenfeld,3.3.3,0,S,NA,S,NA,NA,S,390,NA,35659,NA,NA,390,2,legacy,1024,2,48000,-16,experiment,HHSHH,4,even,38248,NA,NA,107783,2580,NA,NA,113657,2588,NA,NA,112594,113761,114152,113655,113761,Flanker Task,42,22033,45,yes,1024
93.47826087,93.47826087,486.173913,486.173913,black,legacy,legacy,legacy,0,incongrunet,uniform,1,undefined,1,h,0,0,0,45,0,45,0,45,0,0,0,45,45,45,45,45,Fri Sep 25 23:43:51 2020,1500,The main experiment item,yes,FlankerTask.osexp,C:\Users\katri\OneDrive\Documents\Fall 2020\Flanker Test,no,mono,no,18,no,white,no,yes,768,legacy,45,45,C:/Users/katri/OneDrive/Documents/Fall 2020/Flanker Test/subject-4.csv,legacy,Lentiform Loewenfeld,3.3.3,0,H,NA,S,NA,NA,H,331,NA,35659,NA,NA,331,2,legacy,1024,2,48000,-16,experiment,SSHSS,4,even,38248,NA,NA,107783,2580,NA,NA,115236,2588,NA,NA,114174,115337,115669,115234,115337,Flanker Task,43,22364,46,yes,1024
93.61702128,93.61702128,484.3191489,484.3191489,black,legacy,legacy,legacy,0,incongruent,uniform,1,undefined,1,s,0,0,0,46,0,46,0,46,0,0,0,46,46,46,46,46,Fri Sep 25 23:43:51 2020,1500,The main experiment item,yes,FlankerTask.osexp,C:\Users\katri\OneDrive\Documents\Fall 2020\Flanker Test,no,mono,no,18,no,white,no,yes,768,legacy,46,46,C:/Users/katri/OneDrive/Documents/Fall 2020/Flanker Test/subject-4.csv,legacy,Lentiform Loewenfeld,3.3.3,0,S,NA,S,NA,NA,S,399,NA,35659,NA,NA,399,2,legacy,1024,2,48000,-16,experiment,HHSHH,4,even,38248,NA,NA,107783,2580,NA,NA,116754,2588,NA,NA,115693,116859,117259,116752,116858,Flanker Task,44,22763,47,yes,1024
93.75,93.75,484.9166667,484.9166667,black,legacy,legacy,legacy,0,incongrunet,uniform,1,undefined,1,h,0,0,0,47,0,47,0,47,0,0,0,47,47,47,47,47,Fri Sep 25 23:43:51 2020,1500,The main experiment item,yes,FlankerTask.osexp,C:\Users\katri\OneDrive\Documents\Fall 2020\Flanker Test,no,mono,no,18,no,white,no,yes,768,legacy,47,47,C:/Users/katri/OneDrive/Documents/Fall 2020/Flanker Test/subject-4.csv,legacy,Lentiform Loewenfeld,3.3.3,0,H,NA,S,NA,NA,H,513,NA,35659,NA,NA,513,2,legacy,1024,2,48000,-16,experiment,SSHSS,4,even,38248,NA,NA,107783,2580,NA,NA,118326,2588,NA,NA,117266,118431,118945,118324,118430,Flanker Task,45,23276,48,yes,1024
93.87755102,93.87755102,481.8367347,481.8367347,black,legacy,legacy,legacy,0,incongruent,uniform,1,undefined,1,s,0,0,0,48,0,48,0,48,0,0,0,48,48,48,48,48,Fri Sep 25 23:43:51 2020,1500,The main experiment item,yes,FlankerTask.osexp,C:\Users\katri\OneDrive\Documents\Fall 2020\Flanker Test,no,mono,no,18,no,white,no,yes,768,legacy,48,48,C:/Users/katri/OneDrive/Documents/Fall 2020/Flanker Test/subject-4.csv,legacy,Lentiform Loewenfeld,3.3.3,0,S,NA,S,NA,NA,S,334,NA,35659,NA,NA,334,2,legacy,1024,2,48000,-16,experiment,HHSHH,4,even,38248,NA,NA,107783,2580,NA,NA,120035,2588,NA,NA,118970,120139,120474,120033,120139,Flanker Task,46,23610,49,yes,1024
94,94,482.02,482.02,black,legacy,legacy,legacy,0,congruent,uniform,1,undefined,1,h,0,0,0,49,0,49,0,49,0,0,0,49,49,49,49,49,Fri Sep 25 23:43:51 2020,1500,The main experiment item,yes,FlankerTask.osexp,C:\Users\katri\OneDrive\Documents\Fall 2020\Flanker Test,no,mono,no,18,no,white,no,yes,768,legacy,49,49,C:/Users/katri/OneDrive/Documents/Fall 2020/Flanker Test/subject-4.csv,legacy,Lentiform Loewenfeld,3.3.3,0,H,NA,S,NA,NA,H,491,NA,35659,NA,NA,491,2,legacy,1024,2,48000,-16,experiment,HHHHH,4,even,38248,NA,NA,107783,2580,NA,NA,121559,2588,NA,NA,120498,121660,122152,121557,121660,Flanker Task,47,24101,50,yes,1024
94.11764706,94.11764706,479.5294118,479.5294118,black,legacy,legacy,legacy,0,incongruent,uniform,1,undefined,1,s,0,0,0,50,0,50,0,50,0,0,0,50,50,50,50,50,Fri Sep 25 23:43:51 2020,1500,The main experiment item,yes,FlankerTask.osexp,C:\Users\katri\OneDrive\Documents\Fall 2020\Flanker Test,no,mono,no,18,no,white,no,yes,768,legacy,50,50,C:/Users/katri/OneDrive/Documents/Fall 2020/Flanker Test/subject-4.csv,legacy,Lentiform Loewenfeld,3.3.3,0,S,NA,S,NA,NA,S,355,NA,35659,NA,NA,355,2,legacy,1024,2,48000,-16,experiment,HHSHH,4,even,38248,NA,NA,107783,2580,NA,NA,123218,2588,NA,NA,122159,123322,123678,123217,123322,Flanker Task,48,24456,51,yes,1024
94.23076923,94.23076923,478.9230769,478.9230769,black,legacy,legacy,legacy,0,congruent,uniform,1,undefined,1,h,0,0,0,51,0,51,0,51,0,0,0,51,51,51,51,51,Fri Sep 25 23:43:51 2020,1500,The main experiment item,yes,FlankerTask.osexp,C:\Users\katri\OneDrive\Documents\Fall 2020\Flanker Test,no,mono,no,18,no,white,no,yes,768,legacy,51,51,C:/Users/katri/OneDrive/Documents/Fall 2020/Flanker Test/subject-4.csv,legacy,Lentiform Loewenfeld,3.3.3,0,H,NA,S,NA,NA,H,448,NA,35659,NA,NA,448,2,legacy,1024,2,48000,-16,experiment,HHHHH,4,even,38248,NA,NA,107783,2580,NA,NA,124747,2588,NA,NA,123685,124851,125300,124745,124851,Flanker Task,49,24904,52,yes,1024
92.45283019,92.45283019,477.8490566,477.8490566,black,legacy,legacy,legacy,0,congruent,uniform,0,undefined,0,s,0,0,0,52,0,52,0,52,0,0,0,52,52,52,52,52,Fri Sep 25 23:43:51 2020,1500,The main experiment item,yes,FlankerTask.osexp,C:\Users\katri\OneDrive\Documents\Fall 2020\Flanker Test,no,mono,no,18,no,white,no,yes,768,legacy,52,52,C:/Users/katri/OneDrive/Documents/Fall 2020/Flanker Test/subject-4.csv,legacy,Lentiform Loewenfeld,3.3.3,0,H,NA,S,NA,NA,H,422,NA,35659,NA,NA,422,2,legacy,1024,2,48000,-16,experiment,SSSSS,4,even,38248,NA,NA,107783,2580,NA,NA,126367,2588,NA,NA,125307,126473,126896,126366,126472,Flanker Task,49,25326,53,yes,1024
92.59259259,92.59259259,480.5185185,480.5185185,black,legacy,legacy,legacy,0,congruent,uniform,1,undefined,1,s,0,0,0,53,0,53,0,53,0,0,0,53,53,53,53,53,Fri Sep 25 23:43:51 2020,1500,The main experiment item,yes,FlankerTask.osexp,C:\Users\katri\OneDrive\Documents\Fall 2020\Flanker Test,no,mono,no,18,no,white,no,yes,768,legacy,53,53,C:/Users/katri/OneDrive/Documents/Fall 2020/Flanker Test/subject-4.csv,legacy,Lentiform Loewenfeld,3.3.3,0,S,NA,S,NA,NA,S,622,NA,35659,NA,NA,622,2,legacy,1024,2,48000,-16,experiment,SSSSS,4,even,38248,NA,NA,127904,2580,NA,NA,128466,2588,NA,NA,126903,128567,129190,128464,128567,Flanker Task,50,25948,54,yes,1024
92.72727273,92.72727273,484.3272727,484.3272727,black,legacy,legacy,legacy,0,incongruent,uniform,1,undefined,1,s,0,0,0,54,0,54,0,54,0,0,0,54,54,54,54,54,Fri Sep 25 23:43:51 2020,1500,The main experiment item,yes,FlankerTask.osexp,C:\Users\katri\OneDrive\Documents\Fall 2020\Flanker Test,no,mono,no,18,no,white,no,yes,768,legacy,54,54,C:/Users/katri/OneDrive/Documents/Fall 2020/Flanker Test/subject-4.csv,legacy,Lentiform Loewenfeld,3.3.3,0,S,NA,S,NA,NA,S,690,NA,35659,NA,NA,690,2,legacy,1024,2,48000,-16,experiment,HHSHH,4,even,38248,NA,NA,127904,2580,NA,NA,130277,2588,NA,NA,129215,130381,131071,130275,130381,Flanker Task,51,26638,55,yes,1024
92.85714286,92.85714286,486.1964286,486.1964286,black,legacy,legacy,legacy,0,incongrunet,uniform,1,undefined,1,h,0,0,0,55,0,55,0,55,0,0,0,55,55,55,55,55,Fri Sep 25 23:43:51 2020,1500,The main experiment item,yes,FlankerTask.osexp,C:\Users\katri\OneDrive\Documents\Fall 2020\Flanker Test,no,mono,no,18,no,white,no,yes,768,legacy,55,55,C:/Users/katri/OneDrive/Documents/Fall 2020/Flanker Test/subject-4.csv,legacy,Lentiform Loewenfeld,3.3.3,0,H,NA,S,NA,NA,H,589,NA,35659,NA,NA,589,2,legacy,1024,2,48000,-16,experiment,SSHSS,4,even,38248,NA,NA,127904,2580,NA,NA,132139,2588,NA,NA,131078,132243,132833,132137,132243,Flanker Task,52,27227,56,yes,1024
92.98245614,92.98245614,484.4561404,484.4561404,black,legacy,legacy,legacy,0,congruent,uniform,1,undefined,1,s,0,0,0,56,0,56,0,56,0,0,0,56,56,56,56,56,Fri Sep 25 23:43:51 2020,1500,The main experiment item,yes,FlankerTask.osexp,C:\Users\katri\OneDrive\Documents\Fall 2020\Flanker Test,no,mono,no,18,no,white,no,yes,768,legacy,56,56,C:/Users/katri/OneDrive/Documents/Fall 2020/Flanker Test/subject-4.csv,legacy,Lentiform Loewenfeld,3.3.3,0,S,NA,S,NA,NA,S,387,NA,35659,NA,NA,387,2,legacy,1024,2,48000,-16,experiment,SSSSS,4,even,38248,NA,NA,127904,2580,NA,NA,133897,2588,NA,NA,132835,134001,134389,133894,134001,Flanker Task,53,27614,57,yes,1024
93.10344828,93.10344828,482.5172414,482.5172414,black,legacy,legacy,legacy,0,incongrunet,uniform,1,undefined,1,h,0,0,0,57,0,57,0,57,0,0,0,57,57,57,57,57,Fri Sep 25 23:43:51 2020,1500,The main experiment item,yes,FlankerTask.osexp,C:\Users\katri\OneDrive\Documents\Fall 2020\Flanker Test,no,mono,no,18,no,white,no,yes,768,legacy,57,57,C:/Users/katri/OneDrive/Documents/Fall 2020/Flanker Test/subject-4.csv,legacy,Lentiform Loewenfeld,3.3.3,0,H,NA,S,NA,NA,H,372,NA,35659,NA,NA,372,2,legacy,1024,2,48000,-16,experiment,SSHSS,4,even,38248,NA,NA,127904,2580,NA,NA,135476,2588,NA,NA,134414,135580,135953,135473,135580,Flanker Task,54,27986,58,yes,1024
93.22033898,93.22033898,481.8644068,481.8644068,black,legacy,legacy,legacy,0,congruent,uniform,1,undefined,1,h,0,0,0,58,0,58,0,58,0,0,0,58,58,58,58,58,Fri Sep 25 23:43:51 2020,1500,The main experiment item,yes,FlankerTask.osexp,C:\Users\katri\OneDrive\Documents\Fall 2020\Flanker Test,no,mono,no,18,no,white,no,yes,768,legacy,58,58,C:/Users/katri/OneDrive/Documents/Fall 2020/Flanker Test/subject-4.csv,legacy,Lentiform Loewenfeld,3.3.3,0,H,NA,S,NA,NA,H,444,NA,35659,NA,NA,444,2,legacy,1024,2,48000,-16,experiment,HHHHH,4,even,38248,NA,NA,127904,2580,NA,NA,137042,2588,NA,NA,135978,137146,137590,137040,137146,Flanker Task,55,28430,59,yes,1024
93.33333333,93.33333333,480.1166667,480.1166667,black,legacy,legacy,legacy,0,congruent,uniform,1,undefined,1,s,0,0,0,59,0,59,0,59,0,0,0,59,59,59,59,59,Fri Sep 25 23:43:51 2020,1500,The main experiment item,yes,FlankerTask.osexp,C:\Users\katri\OneDrive\Documents\Fall 2020\Flanker Test,no,mono,no,18,no,white,no,yes,768,legacy,59,59,C:/Users/katri/OneDrive/Documents/Fall 2020/Flanker Test/subject-4.csv,legacy,Lentiform Loewenfeld,3.3.3,0,S,NA,S,NA,NA,S,377,NA,35659,NA,NA,377,2,legacy,1024,2,48000,-16,experiment,SSSSS,4,even,38248,NA,NA,127904,2580,NA,NA,138660,2588,NA,NA,137598,138764,139142,138658,138764,Flanker Task,56,28807,60,yes,1024
93.44262295,93.44262295,479.8688525,479.8688525,black,legacy,legacy,legacy,0,incongrunet,uniform,1,undefined,1,h,0,0,0,60,0,60,0,60,0,0,0,60,60,60,60,60,Fri Sep 25 23:43:51 2020,1500,The main experiment item,yes,FlankerTask.osexp,C:\Users\katri\OneDrive\Documents\Fall 2020\Flanker Test,no,mono,no,18,no,white,no,yes,768,legacy,60,60,C:/Users/katri/OneDrive/Documents/Fall 2020/Flanker Test/subject-4.csv,legacy,Lentiform Loewenfeld,3.3.3,0,H,NA,S,NA,NA,H,465,NA,35659,NA,NA,465,2,legacy,1024,2,48000,-16,experiment,SSHSS,4,even,38248,NA,NA,127904,2580,NA,NA,140229,2588,NA,NA,139166,140333,140799,140227,140333,Flanker Task,57,29272,61,yes,1024
93.5483871,93.5483871,480.1290323,480.1290323,black,legacy,legacy,legacy,0,congruent,uniform,1,undefined,1,h,0,0,0,61,0,61,0,61,0,0,0,61,61,61,61,61,Fri Sep 25 23:43:51 2020,1500,The main experiment item,yes,FlankerTask.osexp,C:\Users\katri\OneDrive\Documents\Fall 2020\Flanker Test,no,mono,no,18,no,white,no,yes,768,legacy,61,61,C:/Users/katri/OneDrive/Documents/Fall 2020/Flanker Test/subject-4.csv,legacy,Lentiform Loewenfeld,3.3.3,0,H,NA,S,NA,NA,H,496,NA,35659,NA,NA,496,2,legacy,1024,2,48000,-16,experiment,HHHHH,4,even,38248,NA,NA,127904,2580,NA,NA,141870,2588,NA,NA,140802,141975,142472,141867,141974,Flanker Task,58,29768,62,yes,1024
93.65079365,93.65079365,480.3968254,480.3968254,black,legacy,legacy,legacy,0,congruent,uniform,1,undefined,1,h,0,0,0,62,0,62,0,62,0,0,0,62,62,62,62,62,Fri Sep 25 23:43:51 2020,1500,The main experiment item,yes,FlankerTask.osexp,C:\Users\katri\OneDrive\Documents\Fall 2020\Flanker Test,no,mono,no,18,no,white,no,yes,768,legacy,62,62,C:/Users/katri/OneDrive/Documents/Fall 2020/Flanker Test/subject-4.csv,legacy,Lentiform Loewenfeld,3.3.3,0,H,NA,S,NA,NA,H,497,NA,35659,NA,NA,497,2,legacy,1024,2,48000,-16,experiment,HHHHH,4,even,38248,NA,NA,127904,2580,NA,NA,143556,2588,NA,NA,142495,143660,144157,143554,143660,Flanker Task,59,30265,63,yes,1024
93.75,93.75,479.953125,479.953125,black,legacy,legacy,legacy,0,congruent,uniform,1,undefined,1,h,0,0,0,63,0,63,0,63,0,0,0,63,63,63,63,63,Fri Sep 25 23:43:51 2020,1500,The main experiment item,yes,FlankerTask.osexp,C:\Users\katri\OneDrive\Documents\Fall 2020\Flanker Test,no,mono,no,18,no,white,no,yes,768,legacy,63,63,C:/Users/katri/OneDrive/Documents/Fall 2020/Flanker Test/subject-4.csv,legacy,Lentiform Loewenfeld,3.3.3,0,H,NA,S,NA,NA,H,452,NA,35659,NA,NA,452,2,legacy,1024,2,48000,-16,experiment,HHHHH,4,even,38248,NA,NA,127904,2580,NA,NA,145245,2588,NA,NA,144182,145349,145802,145243,145349,Flanker Task,60,30717,64,yes,1024
93.84615385,93.84615385,478.9846154,478.9846154,black,legacy,legacy,legacy,0,congruent,uniform,1,undefined,1,h,0,0,0,64,0,64,0,64,0,0,0,64,64,64,64,64,Fri Sep 25 23:43:51 2020,1500,The main experiment item,yes,FlankerTask.osexp,C:\Users\katri\OneDrive\Documents\Fall 2020\Flanker Test,no,mono,no,18,no,white,no,yes,768,legacy,64,64,C:/Users/katri/OneDrive/Documents/Fall 2020/Flanker Test/subject-4.csv,legacy,Lentiform Loewenfeld,3.3.3,0,H,NA,S,NA,NA,H,417,NA,35659,NA,NA,417,2,legacy,1024,2,48000,-16,experiment,HHHHH,4,even,38248,NA,NA,127904,2580,NA,NA,146893,2588,NA,NA,145824,146997,147414,146890,146997,Flanker Task,61,31134,65,yes,1024
93.93939394,93.93939394,477.5,477.5,black,legacy,legacy,legacy,0,incongruent,uniform,1,undefined,1,s,0,0,0,65,0,65,0,65,0,0,0,65,65,65,65,65,Fri Sep 25 23:43:51 2020,1500,The main experiment item,yes,FlankerTask.osexp,C:\Users\katri\OneDrive\Documents\Fall 2020\Flanker Test,no,mono,no,18,no,white,no,yes,768,legacy,65,65,C:/Users/katri/OneDrive/Documents/Fall 2020/Flanker Test/subject-4.csv,legacy,Lentiform Loewenfeld,3.3.3,0,S,NA,S,NA,NA,S,381,NA,35659,NA,NA,381,2,legacy,1024,2,48000,-16,experiment,HHSHH,4,even,38248,NA,NA,127904,2580,NA,NA,148502,2588,NA,NA,147439,148606,148987,148500,148606,Flanker Task,62,31515,66,yes,1024
94.02985075,94.02985075,478.358209,478.358209,black,legacy,legacy,legacy,0,congruent,uniform,1,undefined,1,s,0,0,0,66,0,66,0,66,0,0,0,66,66,66,66,66,Fri Sep 25 23:43:51 2020,1500,The main experiment item,yes,FlankerTask.osexp,C:\Users\katri\OneDrive\Documents\Fall 2020\Flanker Test,no,mono,no,18,no,white,no,yes,768,legacy,66,66,C:/Users/katri/OneDrive/Documents/Fall 2020/Flanker Test/subject-4.csv,legacy,Lentiform Loewenfeld,3.3.3,0,S,NA,S,NA,NA,S,535,NA,35659,NA,NA,535,2,legacy,1024,2,48000,-16,experiment,SSSSS,4,even,38248,NA,NA,127904,2580,NA,NA,150073,2588,NA,NA,149011,150177,150713,150070,150177,Flanker Task,63,32050,67,yes,1024
94.11764706,94.11764706,477.1029412,477.1029412,black,legacy,legacy,legacy,0,incongrunet,uniform,1,undefined,1,h,0,0,0,67,0,67,0,67,0,0,0,67,67,67,67,67,Fri Sep 25 23:43:51 2020,1500,The main experiment item,yes,FlankerTask.osexp,C:\Users\katri\OneDrive\Documents\Fall 2020\Flanker Test,no,mono,no,18,no,white,no,yes,768,legacy,67,67,C:/Users/katri/OneDrive/Documents/Fall 2020/Flanker Test/subject-4.csv,legacy,Lentiform Loewenfeld,3.3.3,0,H,NA,S,NA,NA,H,393,NA,35659,NA,NA,393,2,legacy,1024,2,48000,-16,experiment,SSHSS,4,even,38248,NA,NA,127904,2580,NA,NA,151781,2588,NA,NA,150720,151885,152279,151779,151885,Flanker Task,64,32443,68,yes,1024
94.20289855,94.20289855,477.5362319,477.5362319,black,legacy,legacy,legacy,0,incongrunet,uniform,1,undefined,1,h,0,0,0,68,0,68,0,68,0,0,0,68,68,68,68,68,Fri Sep 25 23:43:51 2020,1500,The main experiment item,yes,FlankerTask.osexp,C:\Users\katri\OneDrive\Documents\Fall 2020\Flanker Test,no,mono,no,18,no,white,no,yes,768,legacy,68,68,C:/Users/katri/OneDrive/Documents/Fall 2020/Flanker Test/subject-4.csv,legacy,Lentiform Loewenfeld,3.3.3,0,H,NA,S,NA,NA,H,507,NA,35659,NA,NA,507,2,legacy,1024,2,48000,-16,experiment,SSHSS,4,even,38248,NA,NA,127904,2580,NA,NA,153349,2588,NA,NA,152286,153453,153961,153346,153453,Flanker Task,65,32950,69,yes,1024
94.28571429,94.28571429,477.3571429,477.3571429,black,legacy,legacy,legacy,0,congruent,uniform,1,undefined,1,h,0,0,0,69,0,69,0,69,0,0,0,69,69,69,69,69,Fri Sep 25 23:43:51 2020,1500,The main experiment item,yes,FlankerTask.osexp,C:\Users\katri\OneDrive\Documents\Fall 2020\Flanker Test,no,mono,no,18,no,white,no,yes,768,legacy,69,69,C:/Users/katri/OneDrive/Documents/Fall 2020/Flanker Test/subject-4.csv,legacy,Lentiform Loewenfeld,3.3.3,0,H,NA,S,NA,NA,H,465,NA,35659,NA,NA,465,2,legacy,1024,2,48000,-16,experiment,HHHHH,4,even,38248,NA,NA,127904,2580,NA,NA,155049,2588,NA,NA,153985,155152,155618,155047,155152,Flanker Task,66,33415,70,yes,1024
94.36619718,94.36619718,475.915493,475.915493,black,legacy,legacy,legacy,0,incongruent,uniform,1,undefined,1,s,0,0,0,70,0,70,0,70,0,0,0,70,70,70,70,70,Fri Sep 25 23:43:51 2020,1500,The main experiment item,yes,FlankerTask.osexp,C:\Users\katri\OneDrive\Documents\Fall 2020\Flanker Test,no,mono,no,18,no,white,no,yes,768,legacy,70,70,C:/Users/katri/OneDrive/Documents/Fall 2020/Flanker Test/subject-4.csv,legacy,Lentiform Loewenfeld,3.3.3,0,S,NA,S,NA,NA,S,375,NA,35659,NA,NA,375,2,legacy,1024,2,48000,-16,experiment,HHSHH,4,even,38248,NA,NA,127904,2580,NA,NA,156701,2588,NA,NA,155640,156802,157178,156699,156802,Flanker Task,67,33790,71,yes,1024
94.44444444,94.44444444,476.0416667,476.0416667,black,legacy,legacy,legacy,0,incongrunet,uniform,1,undefined,1,h,0,0,0,71,0,71,0,71,0,0,0,71,71,71,71,71,Fri Sep 25 23:43:51 2020,1500,The main experiment item,yes,FlankerTask.osexp,C:\Users\katri\OneDrive\Documents\Fall 2020\Flanker Test,no,mono,no,18,no,white,no,yes,768,legacy,71,71,C:/Users/katri/OneDrive/Documents/Fall 2020/Flanker Test/subject-4.csv,legacy,Lentiform Loewenfeld,3.3.3,0,H,NA,S,NA,NA,H,485,NA,35659,NA,NA,485,2,legacy,1024,2,48000,-16,experiment,SSHSS,4,even,38248,NA,NA,127904,2580,NA,NA,158244,2588,NA,NA,157180,158349,158834,158242,158348,Flanker Task,68,34275,72,yes,1024
94.52054795,94.52054795,476.0273973,476.0273973,black,legacy,legacy,legacy,0,incongrunet,uniform,1,undefined,1,h,0,0,0,72,0,72,0,72,0,0,0,72,72,72,72,72,Fri Sep 25 23:43:51 2020,1500,The main experiment item,yes,FlankerTask.osexp,C:\Users\katri\OneDrive\Documents\Fall 2020\Flanker Test,no,mono,no,18,no,white,no,yes,768,legacy,72,72,C:/Users/katri/OneDrive/Documents/Fall 2020/Flanker Test/subject-4.csv,legacy,Lentiform Loewenfeld,3.3.3,0,H,NA,S,NA,NA,H,475,NA,35659,NA,NA,475,2,legacy,1024,2,48000,-16,experiment,SSHSS,4,even,38248,NA,NA,127904,2580,NA,NA,159917,2588,NA,NA,158856,160021,160497,159915,160021,Flanker Task,69,34750,73,yes,1024
94.59459459,94.59459459,475.2027027,475.2027027,black,legacy,legacy,legacy,0,congruent,uniform,1,undefined,1,h,0,0,0,73,0,73,0,73,0,0,0,73,73,73,73,73,Fri Sep 25 23:43:51 2020,1500,The main experiment item,yes,FlankerTask.osexp,C:\Users\katri\OneDrive\Documents\Fall 2020\Flanker Test,no,mono,no,18,no,white,no,yes,768,legacy,73,73,C:/Users/katri/OneDrive/Documents/Fall 2020/Flanker Test/subject-4.csv,legacy,Lentiform Loewenfeld,3.3.3,0,H,NA,S,NA,NA,H,415,NA,35659,NA,NA,415,2,legacy,1024,2,48000,-16,experiment,HHHHH,4,even,38248,NA,NA,127904,2580,NA,NA,161581,2588,NA,NA,160519,161686,162101,161579,161686,Flanker Task,70,35165,74,yes,1024
93.33333333,93.33333333,474,474,black,legacy,legacy,legacy,0,incongrunet,uniform,0,undefined,0,h,0,0,0,74,0,74,0,74,0,0,0,74,74,74,74,74,Fri Sep 25 23:43:51 2020,1500,The main experiment item,yes,FlankerTask.osexp,C:\Users\katri\OneDrive\Documents\Fall 2020\Flanker Test,no,mono,no,18,no,white,no,yes,768,legacy,74,74,C:/Users/katri/OneDrive/Documents/Fall 2020/Flanker Test/subject-4.csv,legacy,Lentiform Loewenfeld,3.3.3,0,S,NA,S,NA,NA,S,385,NA,35659,NA,NA,385,2,legacy,1024,2,48000,-16,experiment,SSHSS,4,even,38248,NA,NA,127904,2580,NA,NA,163184,2588,NA,NA,162122,163289,163675,163181,163288,Flanker Task,70,35550,75,yes,1024
93.42105263,93.42105263,474.3684211,474.3684211,black,legacy,legacy,legacy,0,incongrunet,uniform,1,undefined,1,h,0,0,0,75,0,75,0,75,0,0,0,75,75,75,75,75,Fri Sep 25 23:43:51 2020,1500,The main experiment item,yes,FlankerTask.osexp,C:\Users\katri\OneDrive\Documents\Fall 2020\Flanker Test,no,mono,no,18,no,white,no,yes,768,legacy,75,75,C:/Users/katri/OneDrive/Documents/Fall 2020/Flanker Test/subject-4.csv,legacy,Lentiform Loewenfeld,3.3.3,0,H,NA,S,NA,NA,H,502,NA,35659,NA,NA,502,2,legacy,1024,2,48000,-16,experiment,SSHSS,4,even,38248,NA,NA,164698,2580,NA,NA,165258,2588,NA,NA,163697,165362,165864,165256,165362,Flanker Task,71,36052,76,yes,1024
93.50649351,93.50649351,474.2467532,474.2467532,black,legacy,legacy,legacy,0,congruent,uniform,1,undefined,1,h,0,0,0,76,0,76,0,76,0,0,0,76,76,76,76,76,Fri Sep 25 23:43:51 2020,1500,The main experiment item,yes,FlankerTask.osexp,C:\Users\katri\OneDrive\Documents\Fall 2020\Flanker Test,no,mono,no,18,no,white,no,yes,768,legacy,76,76,C:/Users/katri/OneDrive/Documents/Fall 2020/Flanker Test/subject-4.csv,legacy,Lentiform Loewenfeld,3.3.3,0,H,NA,S,NA,NA,H,465,NA,35659,NA,NA,465,2,legacy,1024,2,48000,-16,experiment,HHHHH,4,even,38248,NA,NA,164698,2580,NA,NA,166952,2588,NA,NA,165889,167056,167521,166949,167056,Flanker Task,72,36517,77,yes,1024
93.58974359,93.58974359,475.8589744,475.8589744,black,legacy,legacy,legacy,0,congruent,uniform,1,undefined,1,h,0,0,0,77,0,77,0,77,0,0,0,77,77,77,77,77,Fri Sep 25 23:43:51 2020,1500,The main experiment item,yes,FlankerTask.osexp,C:\Users\katri\OneDrive\Documents\Fall 2020\Flanker Test,no,mono,no,18,no,white,no,yes,768,legacy,77,77,C:/Users/katri/OneDrive/Documents/Fall 2020/Flanker Test/subject-4.csv,legacy,Lentiform Loewenfeld,3.3.3,0,H,NA,S,NA,NA,H,600,NA,35659,NA,NA,600,2,legacy,1024,2,48000,-16,experiment,HHHHH,4,even,38248,NA,NA,164698,2580,NA,NA,168608,2588,NA,NA,167546,168712,169312,168606,168712,Flanker Task,73,37117,78,yes,1024
93.67088608,93.67088608,475.6202532,475.6202532,black,legacy,legacy,legacy,0,congruent,uniform,1,undefined,1,h,0,0,0,78,0,78,0,78,0,0,0,78,78,78,78,78,Fri Sep 25 23:43:51 2020,1500,The main experiment item,yes,FlankerTask.osexp,C:\Users\katri\OneDrive\Documents\Fall 2020\Flanker Test,no,mono,no,18,no,white,no,yes,768,legacy,78,78,C:/Users/katri/OneDrive/Documents/Fall 2020/Flanker Test/subject-4.csv,legacy,Lentiform Loewenfeld,3.3.3,0,H,NA,S,NA,NA,H,457,NA,35659,NA,NA,457,2,legacy,1024,2,48000,-16,experiment,HHHHH,4,even,38248,NA,NA,164698,2580,NA,NA,170397,2588,NA,NA,169335,170501,170959,170395,170501,Flanker Task,74,37574,79,yes,1024
93.75,93.75,477.85,477.85,black,legacy,legacy,legacy,0,incongrunet,uniform,1,undefined,1,h,0,0,0,79,0,79,0,79,0,0,0,79,79,79,79,79,Fri Sep 25 23:43:51 2020,1500,The main experiment item,yes,FlankerTask.osexp,C:\Users\katri\OneDrive\Documents\Fall 2020\Flanker Test,no,mono,no,18,no,white,no,yes,768,legacy,79,79,C:/Users/katri/OneDrive/Documents/Fall 2020/Flanker Test/subject-4.csv,legacy,Lentiform Loewenfeld,3.3.3,0,H,NA,S,NA,NA,H,654,NA,35659,NA,NA,654,2,legacy,1024,2,48000,-16,experiment,SSHSS,4,even,38248,NA,NA,164698,2580,NA,NA,172053,2588,NA,NA,170984,172154,172808,172051,172154,Flanker Task,75,38228,80,yes,1024
93.82716049,93.82716049,477.5679012,477.5679012,black,legacy,legacy,legacy,0,incongrunet,uniform,1,undefined,1,h,0,0,0,80,0,80,0,80,0,0,0,80,80,80,80,80,Fri Sep 25 23:43:51 2020,600,The main experiment item,yes,FlankerTask.osexp,C:\Users\katri\OneDrive\Documents\Fall 2020\Flanker Test,no,mono,no,18,no,white,no,yes,768,legacy,0,79,C:/Users/katri/OneDrive/Documents/Fall 2020/Flanker Test/subject-4.csv,legacy,Lentiform Loewenfeld,3.3.3,0,H,NA,S,H,NA,H,455,NA,35659,17664,NA,455,2,legacy,1024,2,48000,-16,experiment,SSHSS,4,even,38248,191515,NA,164698,2580,NA,NA,191562,2588,173850,NA,172830,191665,192120,191560,191665,Flanker Task,76,38683,81,yes,1024
93.90243902,93.90243902,477.1097561,477.1097561,black,legacy,legacy,legacy,0,congruent,uniform,1,undefined,1,h,0,0,0,81,0,81,0,81,0,0,0,81,81,81,81,81,Fri Sep 25 23:43:51 2020,600,The main experiment item,yes,FlankerTask.osexp,C:\Users\katri\OneDrive\Documents\Fall 2020\Flanker Test,no,mono,no,18,no,white,no,yes,768,legacy,1,79,C:/Users/katri/OneDrive/Documents/Fall 2020/Flanker Test/subject-4.csv,legacy,Lentiform Loewenfeld,3.3.3,0,H,NA,S,H,NA,H,440,NA,35659,17664,NA,440,2,legacy,1024,2,48000,-16,experiment,HHHHH,4,even,38248,191515,NA,164698,2580,NA,NA,193190,2588,173850,NA,192128,193294,193735,193188,193293,Flanker Task,77,39123,82,yes,1024
93.97590361,93.97590361,476.6626506,476.6626506,black,legacy,legacy,legacy,0,incongruent,uniform,1,undefined,1,s,0,0,0,82,0,82,0,82,0,0,0,82,82,82,82,82,Fri Sep 25 23:43:51 2020,600,The main experiment item,yes,FlankerTask.osexp,C:\Users\katri\OneDrive\Documents\Fall 2020\Flanker Test,no,mono,no,18,no,white,no,yes,768,legacy,2,79,C:/Users/katri/OneDrive/Documents/Fall 2020/Flanker Test/subject-4.csv,legacy,Lentiform Loewenfeld,3.3.3,0,S,NA,S,H,NA,S,440,NA,35659,17664,NA,440,2,legacy,1024,2,48000,-16,experiment,HHSHH,4,even,38248,191515,NA,164698,2580,NA,NA,194819,2588,173850,NA,193757,194922,195362,194817,194922,Flanker Task,78,39563,83,yes,1024
94.04761905,94.04761905,475.8809524,475.8809524,black,legacy,legacy,legacy,0,incongrunet,uniform,1,undefined,1,h,0,0,0,83,0,83,0,83,0,0,0,83,83,83,83,83,Fri Sep 25 23:43:51 2020,600,The main experiment item,yes,FlankerTask.osexp,C:\Users\katri\OneDrive\Documents\Fall 2020\Flanker Test,no,mono,no,18,no,white,no,yes,768,legacy,3,79,C:/Users/katri/OneDrive/Documents/Fall 2020/Flanker Test/subject-4.csv,legacy,Lentiform Loewenfeld,3.3.3,0,H,NA,S,H,NA,H,411,NA,35659,17664,NA,411,2,legacy,1024,2,48000,-16,experiment,SSHSS,4,even,38248,191515,NA,164698,2580,NA,NA,196447,2588,173850,NA,195385,196551,196963,196445,196551,Flanker Task,79,39974,84,yes,1024
94.11764706,94.11764706,474.6,474.6,black,legacy,legacy,legacy,0,congruent,uniform,1,undefined,1,h,0,0,0,84,0,84,0,84,0,0,0,84,84,84,84,84,Fri Sep 25 23:43:51 2020,600,The main experiment item,yes,FlankerTask.osexp,C:\Users\katri\OneDrive\Documents\Fall 2020\Flanker Test,no,mono,no,18,no,white,no,yes,768,legacy,4,79,C:/Users/katri/OneDrive/Documents/Fall 2020/Flanker Test/subject-4.csv,legacy,Lentiform Loewenfeld,3.3.3,0,H,NA,S,H,NA,H,367,NA,35659,17664,NA,367,2,legacy,1024,2,48000,-16,experiment,HHHHH,4,even,38248,191515,NA,164698,2580,NA,NA,198034,2588,173850,NA,196971,198139,198507,198032,198138,Flanker Task,80,40341,85,yes,1024
94.18604651,94.18604651,473.6744186,473.6744186,black,legacy,legacy,legacy,0,congruent,uniform,1,undefined,1,h,0,0,0,85,0,85,0,85,0,0,0,85,85,85,85,85,Fri Sep 25 23:43:51 2020,600,The main experiment item,yes,FlankerTask.osexp,C:\Users\katri\OneDrive\Documents\Fall 2020\Flanker Test,no,mono,no,18,no,white,no,yes,768,legacy,5,79,C:/Users/katri/OneDrive/Documents/Fall 2020/Flanker Test/subject-4.csv,legacy,Lentiform Loewenfeld,3.3.3,0,H,NA,S,H,NA,H,395,NA,35659,17664,NA,395,2,legacy,1024,2,48000,-16,experiment,HHHHH,4,even,38248,191515,NA,164698,2580,NA,NA,199608,2588,173850,NA,198532,199712,200107,199606,199712,Flanker Task,81,40736,86,yes,1024
94.25287356,94.25287356,472.3793103,472.3793103,black,legacy,legacy,legacy,0,congruent,uniform,1,undefined,1,s,0,0,0,86,0,86,0,86,0,0,0,86,86,86,86,86,Fri Sep 25 23:43:51 2020,600,The main experiment item,yes,FlankerTask.osexp,C:\Users\katri\OneDrive\Documents\Fall 2020\Flanker Test,no,mono,no,18,no,white,no,yes,768,legacy,6,79,C:/Users/katri/OneDrive/Documents/Fall 2020/Flanker Test/subject-4.csv,legacy,Lentiform Loewenfeld,3.3.3,0,S,NA,S,H,NA,S,361,NA,35659,17664,NA,361,2,legacy,1024,2,48000,-16,experiment,SSSSS,4,even,38248,191515,NA,164698,2580,NA,NA,201201,2588,173850,NA,200129,201306,201668,201199,201305,Flanker Task,82,41097,87,yes,1024
94.31818182,94.31818182,471.9204545,471.9204545,black,legacy,legacy,legacy,0,congruent,uniform,1,undefined,1,s,0,0,0,87,0,87,0,87,0,0,0,87,87,87,87,87,Fri Sep 25 23:43:51 2020,600,The main experiment item,yes,FlankerTask.osexp,C:\Users\katri\OneDrive\Documents\Fall 2020\Flanker Test,no,mono,no,18,no,white,no,yes,768,legacy,7,79,C:/Users/katri/OneDrive/Documents/Fall 2020/Flanker Test/subject-4.csv,legacy,Lentiform Loewenfeld,3.3.3,0,S,NA,S,H,NA,S,432,NA,35659,17664,NA,432,2,legacy,1024,2,48000,-16,experiment,SSSSS,4,even,38248,191515,NA,164698,2580,NA,NA,202755,2588,173850,NA,201693,202859,203291,202752,202859,Flanker Task,83,41529,88,yes,1024
93.25842697,93.25842697,471.011236,471.011236,black,legacy,legacy,legacy,0,incongruent,uniform,0,undefined,0,s,0,0,0,88,0,88,0,88,0,0,0,88,88,88,88,88,Fri Sep 25 23:43:51 2020,600,The main experiment item,yes,FlankerTask.osexp,C:\Users\katri\OneDrive\Documents\Fall 2020\Flanker Test,no,mono,no,18,no,white,no,yes,768,legacy,8,79,C:/Users/katri/OneDrive/Documents/Fall 2020/Flanker Test/subject-4.csv,legacy,Lentiform Loewenfeld,3.3.3,0,H,NA,S,H,NA,H,391,NA,35659,17664,NA,391,2,legacy,1024,2,48000,-16,experiment,HHSHH,4,even,38248,191515,NA,164698,2580,NA,NA,204376,2588,173850,NA,203314,204478,204870,204375,204478,Flanker Task,83,41920,89,yes,1024
93.33333333,93.33333333,470.8111111,470.8111111,black,legacy,legacy,legacy,0,congruent,uniform,1,undefined,1,s,0,0,0,89,0,89,0,89,0,0,0,89,89,89,89,89,Fri Sep 25 23:43:51 2020,600,The main experiment item,yes,FlankerTask.osexp,C:\Users\katri\OneDrive\Documents\Fall 2020\Flanker Test,no,mono,no,18,no,white,no,yes,768,legacy,9,79,C:/Users/katri/OneDrive/Documents/Fall 2020/Flanker Test/subject-4.csv,legacy,Lentiform Loewenfeld,3.3.3,0,S,NA,S,H,NA,S,453,NA,35659,17664,NA,453,2,legacy,1024,2,48000,-16,experiment,SSSSS,4,even,38248,191515,NA,205874,2580,NA,NA,206434,2588,173850,NA,204873,206538,206992,206432,206538,Flanker Task,84,42373,90,yes,1024
93.40659341,93.40659341,470.2637363,470.2637363,black,legacy,legacy,legacy,0,congruent,uniform,1,undefined,1,s,0,0,0,90,0,90,0,90,0,0,0,90,90,90,90,90,Fri Sep 25 23:43:51 2020,600,The main experiment item,yes,FlankerTask.osexp,C:\Users\katri\OneDrive\Documents\Fall 2020\Flanker Test,no,mono,no,18,no,white,no,yes,768,legacy,10,79,C:/Users/katri/OneDrive/Documents/Fall 2020/Flanker Test/subject-4.csv,legacy,Lentiform Loewenfeld,3.3.3,0,S,NA,S,H,NA,S,421,NA,35659,17664,NA,421,2,legacy,1024,2,48000,-16,experiment,SSSSS,4,even,38248,191515,NA,205874,2580,NA,NA,208060,2588,173850,NA,206999,208164,208586,208058,208164,Flanker Task,85,42794,91,yes,1024
92.39130435,92.39130435,469.6521739,469.6521739,black,legacy,legacy,legacy,0,incongruent,uniform,0,undefined,0,s,0,0,0,91,0,91,0,91,0,0,0,91,91,91,91,91,Fri Sep 25 23:43:51 2020,600,The main experiment item,yes,FlankerTask.osexp,C:\Users\katri\OneDrive\Documents\Fall 2020\Flanker Test,no,mono,no,18,no,white,no,yes,768,legacy,11,79,C:/Users/katri/OneDrive/Documents/Fall 2020/Flanker Test/subject-4.csv,legacy,Lentiform Loewenfeld,3.3.3,0,H,NA,S,H,NA,H,414,NA,35659,17664,NA,414,2,legacy,1024,2,48000,-16,experiment,HHSHH,4,even,38248,191515,NA,205874,2580,NA,NA,209676,2588,173850,NA,208610,209777,210191,209674,209777,Flanker Task,85,43208,92,yes,1024
92.47311828,92.47311828,469.827957,469.827957,black,legacy,legacy,legacy,0,congruent,uniform,1,undefined,1,s,0,0,0,92,0,92,0,92,0,0,0,92,92,92,92,92,Fri Sep 25 23:43:51 2020,600,The main experiment item,yes,FlankerTask.osexp,C:\Users\katri\OneDrive\Documents\Fall 2020\Flanker Test,no,mono,no,18,no,white,no,yes,768,legacy,12,79,C:/Users/katri/OneDrive/Documents/Fall 2020/Flanker Test/subject-4.csv,legacy,Lentiform Loewenfeld,3.3.3,0,S,NA,S,H,NA,S,486,NA,35659,17664,NA,486,2,legacy,1024,2,48000,-16,experiment,SSSSS,4,even,38248,191515,NA,211214,2580,NA,NA,211774,2588,173850,NA,210213,211875,212361,211772,211875,Flanker Task,86,43694,93,yes,1024
92.55319149,92.55319149,470.8297872,470.8297872,black,legacy,legacy,legacy,0,incongruent,uniform,1,undefined,1,s,0,0,0,93,0,93,0,93,0,0,0,93,93,93,93,93,Fri Sep 25 23:43:51 2020,600,The main experiment item,yes,FlankerTask.osexp,C:\Users\katri\OneDrive\Documents\Fall 2020\Flanker Test,no,mono,no,18,no,white,no,yes,768,legacy,13,79,C:/Users/katri/OneDrive/Documents/Fall 2020/Flanker Test/subject-4.csv,legacy,Lentiform Loewenfeld,3.3.3,0,S,NA,S,H,NA,S,564,NA,35659,17664,NA,564,2,legacy,1024,2,48000,-16,experiment,HHSHH,4,even,38248,191515,NA,211214,2580,NA,NA,213448,2588,173850,NA,212386,213553,214118,213446,213552,Flanker Task,87,44258,94,yes,1024
92.63157895,92.63157895,470.1684211,470.1684211,black,legacy,legacy,legacy,0,congruent,uniform,1,undefined,1,s,0,0,0,94,0,94,0,94,0,0,0,94,94,94,94,94,Fri Sep 25 23:43:51 2020,600,The main experiment item,yes,FlankerTask.osexp,C:\Users\katri\OneDrive\Documents\Fall 2020\Flanker Test,no,mono,no,18,no,white,no,yes,768,legacy,14,79,C:/Users/katri/OneDrive/Documents/Fall 2020/Flanker Test/subject-4.csv,legacy,Lentiform Loewenfeld,3.3.3,0,S,NA,S,H,NA,S,408,NA,35659,17664,NA,408,2,legacy,1024,2,48000,-16,experiment,SSSSS,4,even,38248,191515,NA,211214,2580,NA,NA,215207,2588,173850,NA,214143,215311,215719,215204,215311,Flanker Task,88,44666,95,yes,1024
92.70833333,92.70833333,469.5208333,469.5208333,black,legacy,legacy,legacy,0,congruent,uniform,1,undefined,1,h,0,0,0,95,0,95,0,95,0,0,0,95,95,95,95,95,Fri Sep 25 23:43:51 2020,600,The main experiment item,yes,FlankerTask.osexp,C:\Users\katri\OneDrive\Documents\Fall 2020\Flanker Test,no,mono,no,18,no,white,no,yes,768,legacy,15,79,C:/Users/katri/OneDrive/Documents/Fall 2020/Flanker Test/subject-4.csv,legacy,Lentiform Loewenfeld,3.3.3,0,H,NA,S,H,NA,H,408,NA,35659,17664,NA,408,2,legacy,1024,2,48000,-16,experiment,HHHHH,4,even,38248,191515,NA,211214,2580,NA,NA,216802,2588,173850,NA,215741,216903,217312,216800,216903,Flanker Task,89,45074,96,yes,1024
92.78350515,92.78350515,469.8659794,469.8659794,black,legacy,legacy,legacy,0,incongrunet,uniform,1,undefined,1,h,0,0,0,96,0,96,0,96,0,0,0,96,96,96,96,96,Fri Sep 25 23:43:51 2020,600,The main experiment item,yes,FlankerTask.osexp,C:\Users\katri\OneDrive\Documents\Fall 2020\Flanker Test,no,mono,no,18,no,white,no,yes,768,legacy,16,79,C:/Users/katri/OneDrive/Documents/Fall 2020/Flanker Test/subject-4.csv,legacy,Lentiform Loewenfeld,3.3.3,0,H,NA,S,H,NA,H,503,NA,35659,17664,NA,503,2,legacy,1024,2,48000,-16,experiment,SSHSS,4,even,38248,191515,NA,211214,2580,NA,NA,218383,2588,173850,NA,217319,218487,218991,218380,218486,Flanker Task,90,45577,97,yes,1024
92.85714286,92.85714286,469.4897959,469.4897959,black,legacy,legacy,legacy,0,congruent,uniform,1,undefined,1,s,0,0,0,97,0,97,0,97,0,0,0,97,97,97,97,97,Fri Sep 25 23:43:51 2020,600,The main experiment item,yes,FlankerTask.osexp,C:\Users\katri\OneDrive\Documents\Fall 2020\Flanker Test,no,mono,no,18,no,white,no,yes,768,legacy,17,79,C:/Users/katri/OneDrive/Documents/Fall 2020/Flanker Test/subject-4.csv,legacy,Lentiform Loewenfeld,3.3.3,0,S,NA,S,H,NA,S,433,NA,35659,17664,NA,433,2,legacy,1024,2,48000,-16,experiment,SSSSS,4,even,38248,191515,NA,211214,2580,NA,NA,220076,2588,173850,NA,219015,220180,220614,220074,220180,Flanker Task,91,46010,98,yes,1024
92.92929293,92.92929293,469.0606061,469.0606061,black,legacy,legacy,legacy,0,congruent,uniform,1,undefined,1,h,0,0,0,98,0,98,0,98,0,0,0,98,98,98,98,98,Fri Sep 25 23:43:51 2020,600,The main experiment item,yes,FlankerTask.osexp,C:\Users\katri\OneDrive\Documents\Fall 2020\Flanker Test,no,mono,no,18,no,white,no,yes,768,legacy,18,79,C:/Users/katri/OneDrive/Documents/Fall 2020/Flanker Test/subject-4.csv,legacy,Lentiform Loewenfeld,3.3.3,0,H,NA,S,H,NA,H,427,NA,35659,17664,NA,427,2,legacy,1024,2,48000,-16,experiment,HHHHH,4,even,38248,191515,NA,211214,2580,NA,NA,221699,2588,173850,NA,220639,221803,222231,221697,221803,Flanker Task,92,46437,99,yes,1024
92,92,468.2,468.2,black,legacy,legacy,legacy,0,incongrunet,uniform,0,undefined,0,h,0,0,0,99,0,99,0,99,0,0,0,99,99,99,99,99,Fri Sep 25 23:43:51 2020,600,The main experiment item,yes,FlankerTask.osexp,C:\Users\katri\OneDrive\Documents\Fall 2020\Flanker Test,no,mono,no,18,no,white,no,yes,768,legacy,19,79,C:/Users/katri/OneDrive/Documents/Fall 2020/Flanker Test/subject-4.csv,legacy,Lentiform Loewenfeld,3.3.3,0,S,NA,S,H,NA,S,383,NA,35659,17664,NA,383,2,legacy,1024,2,48000,-16,experiment,SSHSS,4,even,38248,191515,NA,211214,2580,NA,NA,223303,2588,173850,NA,222240,223407,223791,223300,223407,Flanker Task,92,46820,100,yes,1024
91.08910891,91.08910891,468.5841584,468.5841584,black,legacy,legacy,legacy,0,incongruent,uniform,0,undefined,0,s,0,0,0,100,0,100,0,100,0,0,0,100,100,100,100,100,Fri Sep 25 23:43:51 2020,600,The main experiment item,yes,FlankerTask.osexp,C:\Users\katri\OneDrive\Documents\Fall 2020\Flanker Test,no,mono,no,18,no,white,no,yes,768,legacy,20,79,C:/Users/katri/OneDrive/Documents/Fall 2020/Flanker Test/subject-4.csv,legacy,Lentiform Loewenfeld,3.3.3,0,H,NA,S,H,NA,H,507,NA,35659,17664,NA,507,2,legacy,1024,2,48000,-16,experiment,HHSHH,4,even,38248,191515,NA,224814,2580,NA,NA,225373,2588,173850,NA,223813,225477,225985,225371,225477,Flanker Task,92,47327,101,yes,1024
91.17647059,91.17647059,468.8431373,468.8431373,black,legacy,legacy,legacy,0,congruent,uniform,1,undefined,1,s,0,0,0,101,0,101,0,101,0,0,0,101,101,101,101,101,Fri Sep 25 23:43:51 2020,600,The main experiment item,yes,FlankerTask.osexp,C:\Users\katri\OneDrive\Documents\Fall 2020\Flanker Test,no,mono,no,18,no,white,no,yes,768,legacy,21,79,C:/Users/katri/OneDrive/Documents/Fall 2020/Flanker Test/subject-4.csv,legacy,Lentiform Loewenfeld,3.3.3,0,S,NA,S,H,NA,S,495,NA,35659,17664,NA,495,2,legacy,1024,2,48000,-16,experiment,SSSSS,4,even,38248,191515,NA,227010,2580,NA,NA,227569,2588,173850,NA,226009,227670,228166,227567,227670,Flanker Task,93,47822,102,yes,1024
91.26213592,91.26213592,468.3495146,468.3495146,black,legacy,legacy,legacy,0,congruent,uniform,1,undefined,1,s,0,0,0,102,0,102,0,102,0,0,0,102,102,102,102,102,Fri Sep 25 23:43:51 2020,600,The main experiment item,yes,FlankerTask.osexp,C:\Users\katri\OneDrive\Documents\Fall 2020\Flanker Test,no,mono,no,18,no,white,no,yes,768,legacy,22,79,C:/Users/katri/OneDrive/Documents/Fall 2020/Flanker Test/subject-4.csv,legacy,Lentiform Loewenfeld,3.3.3,0,S,NA,S,H,NA,S,418,NA,35659,17664,NA,418,2,legacy,1024,2,48000,-16,experiment,SSSSS,4,even,38248,191515,NA,227010,2580,NA,NA,229251,2588,173850,NA,228188,229352,229771,229248,229352,Flanker Task,94,48240,103,yes,1024
91.34615385,91.34615385,468.625,468.625,black,legacy,legacy,legacy,0,incongrunet,uniform,1,undefined,1,h,0,0,0,103,0,103,0,103,0,0,0,103,103,103,103,103,Fri Sep 25 23:43:51 2020,600,The main experiment item,yes,FlankerTask.osexp,C:\Users\katri\OneDrive\Documents\Fall 2020\Flanker Test,no,mono,no,18,no,white,no,yes,768,legacy,23,79,C:/Users/katri/OneDrive/Documents/Fall 2020/Flanker Test/subject-4.csv,legacy,Lentiform Loewenfeld,3.3.3,0,H,NA,S,H,NA,H,497,NA,35659,17664,NA,497,2,legacy,1024,2,48000,-16,experiment,SSHSS,4,even,38248,191515,NA,227010,2580,NA,NA,230855,2588,173850,NA,229793,230959,231457,230853,230959,Flanker Task,95,48737,104,yes,1024
91.42857143,91.42857143,468.9142857,468.9142857,black,legacy,legacy,legacy,0,incongrunet,uniform,1,undefined,1,h,0,0,0,104,0,104,0,104,0,0,0,104,104,104,104,104,Fri Sep 25 23:43:51 2020,600,The main experiment item,yes,FlankerTask.osexp,C:\Users\katri\OneDrive\Documents\Fall 2020\Flanker Test,no,mono,no,18,no,white,no,yes,768,legacy,24,79,C:/Users/katri/OneDrive/Documents/Fall 2020/Flanker Test/subject-4.csv,legacy,Lentiform Loewenfeld,3.3.3,0,H,NA,S,H,NA,H,499,NA,35659,17664,NA,499,2,legacy,1024,2,48000,-16,experiment,SSHSS,4,even,38248,191515,NA,227010,2580,NA,NA,232543,2588,173850,NA,231481,232648,233148,232541,232647,Flanker Task,96,49236,105,yes,1024
91.50943396,91.50943396,469.0849057,469.0849057,black,legacy,legacy,legacy,0,congruent,uniform,1,undefined,1,h,0,0,0,105,0,105,0,105,0,0,0,105,105,105,105,105,Fri Sep 25 23:43:51 2020,600,The main experiment item,yes,FlankerTask.osexp,C:\Users\katri\OneDrive\Documents\Fall 2020\Flanker Test,no,mono,no,18,no,white,no,yes,768,legacy,25,79,C:/Users/katri/OneDrive/Documents/Fall 2020/Flanker Test/subject-4.csv,legacy,Lentiform Loewenfeld,3.3.3,0,H,NA,S,H,NA,H,487,NA,35659,17664,NA,487,2,legacy,1024,2,48000,-16,experiment,HHHHH,4,even,38248,191515,NA,227010,2580,NA,NA,234233,2588,173850,NA,233171,234338,234826,234231,234337,Flanker Task,97,49723,106,yes,1024
91.58878505,91.58878505,468.8785047,468.8785047,black,legacy,legacy,legacy,0,congruent,uniform,1,undefined,1,h,0,0,0,106,0,106,0,106,0,0,0,106,106,106,106,106,Fri Sep 25 23:43:51 2020,600,The main experiment item,yes,FlankerTask.osexp,C:\Users\katri\OneDrive\Documents\Fall 2020\Flanker Test,no,mono,no,18,no,white,no,yes,768,legacy,26,79,C:/Users/katri/OneDrive/Documents/Fall 2020/Flanker Test/subject-4.csv,legacy,Lentiform Loewenfeld,3.3.3,0,H,NA,S,H,NA,H,447,NA,35659,17664,NA,447,2,legacy,1024,2,48000,-16,experiment,HHHHH,4,even,38248,191515,NA,227010,2580,NA,NA,235909,2588,173850,NA,234848,236013,236461,235907,236013,Flanker Task,98,50170,107,yes,1024
91.66666667,91.66666667,468.8333333,468.8333333,black,legacy,legacy,legacy,0,incongruent,uniform,1,undefined,1,s,0,0,0,107,0,107,0,107,0,0,0,107,107,107,107,107,Fri Sep 25 23:43:51 2020,600,The main experiment item,yes,FlankerTask.osexp,C:\Users\katri\OneDrive\Documents\Fall 2020\Flanker Test,no,mono,no,18,no,white,no,yes,768,legacy,27,79,C:/Users/katri/OneDrive/Documents/Fall 2020/Flanker Test/subject-4.csv,legacy,Lentiform Loewenfeld,3.3.3,0,S,NA,S,H,NA,S,464,NA,35659,17664,NA,464,2,legacy,1024,2,48000,-16,experiment,HHSHH,4,even,38248,191515,NA,227010,2580,NA,NA,237550,2588,173850,NA,236486,237654,238119,237547,237654,Flanker Task,99,50634,108,yes,1024
91.74311927,91.74311927,470.7889908,470.7889908,black,legacy,legacy,legacy,0,incongrunet,uniform,1,undefined,1,h,0,0,0,108,0,108,0,108,0,0,0,108,108,108,108,108,Fri Sep 25 23:43:51 2020,600,The main experiment item,yes,FlankerTask.osexp,C:\Users\katri\OneDrive\Documents\Fall 2020\Flanker Test,no,mono,no,18,no,white,no,yes,768,legacy,28,79,C:/Users/katri/OneDrive/Documents/Fall 2020/Flanker Test/subject-4.csv,legacy,Lentiform Loewenfeld,3.3.3,0,H,NA,S,H,NA,H,682,NA,35659,17664,NA,682,2,legacy,1024,2,48000,-16,experiment,SSHSS,4,even,38248,191515,NA,227010,2580,NA,NA,239207,2588,173850,NA,238143,239311,239993,239205,239311,Flanker Task,100,51316,109,yes,1024
91.81818182,91.81818182,473.9272727,473.9272727,black,legacy,legacy,legacy,0,incongrunet,uniform,1,undefined,1,h,0,0,0,109,0,109,0,109,0,0,0,109,109,109,109,109,Fri Sep 25 23:43:51 2020,600,The main experiment item,yes,FlankerTask.osexp,C:\Users\katri\OneDrive\Documents\Fall 2020\Flanker Test,no,mono,no,18,no,white,no,yes,768,legacy,29,79,C:/Users/katri/OneDrive/Documents/Fall 2020/Flanker Test/subject-4.csv,legacy,Lentiform Loewenfeld,3.3.3,0,H,NA,S,H,NA,H,816,NA,35659,17664,NA,816,2,legacy,1024,2,48000,-16,experiment,SSHSS,4,even,38248,191515,NA,227010,2580,241016,NA,241577,2588,173850,NA,240015,241678,242495,241575,241678,Flanker Task,101,52132,110,yes,1024
91.89189189,91.89189189,474.7207207,474.7207207,black,legacy,legacy,legacy,0,incongrunet,uniform,1,undefined,1,h,0,0,0,110,0,110,0,110,0,0,0,110,110,110,110,110,Fri Sep 25 23:43:51 2020,600,The main experiment item,yes,FlankerTask.osexp,C:\Users\katri\OneDrive\Documents\Fall 2020\Flanker Test,no,mono,no,18,no,white,no,yes,768,legacy,30,79,C:/Users/katri/OneDrive/Documents/Fall 2020/Flanker Test/subject-4.csv,legacy,Lentiform Loewenfeld,3.3.3,0,H,NA,S,H,NA,H,562,NA,35659,17664,NA,562,2,legacy,1024,2,48000,-16,experiment,SSHSS,4,even,38248,191515,NA,227010,2580,243503,NA,244065,2588,173850,NA,242502,244169,244732,244063,244169,Flanker Task,102,52694,111,yes,1024
91.07142857,91.07142857,474.2767857,474.2767857,black,legacy,legacy,legacy,0,incongruent,uniform,0,undefined,0,s,0,0,0,111,0,111,0,111,0,0,0,111,111,111,111,111,Fri Sep 25 23:43:51 2020,600,The main experiment item,yes,FlankerTask.osexp,C:\Users\katri\OneDrive\Documents\Fall 2020\Flanker Test,no,mono,no,18,no,white,no,yes,768,legacy,31,79,C:/Users/katri/OneDrive/Documents/Fall 2020/Flanker Test/subject-4.csv,legacy,Lentiform Loewenfeld,3.3.3,0,H,NA,S,H,NA,H,425,NA,35659,17664,NA,425,2,legacy,1024,2,48000,-16,experiment,HHSHH,4,even,38248,191515,NA,227010,2580,243503,NA,245815,2588,173850,NA,244754,245920,246346,245813,245919,Flanker Task,102,53119,112,yes,1024
91.15044248,91.15044248,474.9911504,474.9911504,black,legacy,legacy,legacy,0,congruent,uniform,1,undefined,1,s,0,0,0,112,0,112,0,112,0,0,0,112,112,112,112,112,Fri Sep 25 23:43:51 2020,600,The main experiment item,yes,FlankerTask.osexp,C:\Users\katri\OneDrive\Documents\Fall 2020\Flanker Test,no,mono,no,18,no,white,no,yes,768,legacy,32,79,C:/Users/katri/OneDrive/Documents/Fall 2020/Flanker Test/subject-4.csv,legacy,Lentiform Loewenfeld,3.3.3,0,S,NA,S,H,NA,S,555,NA,35659,17664,NA,555,2,legacy,1024,2,48000,-16,experiment,SSSSS,4,even,38248,191515,NA,247370,2580,243503,NA,247941,2588,173850,NA,246369,248046,248602,247939,248045,Flanker Task,103,53674,113,yes,1024
91.22807018,91.22807018,474.0526316,474.0526316,black,legacy,legacy,legacy,0,incongrunet,uniform,1,undefined,1,h,0,0,0,113,0,113,0,113,0,0,0,113,113,113,113,113,Fri Sep 25 23:43:51 2020,600,The main experiment item,yes,FlankerTask.osexp,C:\Users\katri\OneDrive\Documents\Fall 2020\Flanker Test,no,mono,no,18,no,white,no,yes,768,legacy,33,79,C:/Users/katri/OneDrive/Documents/Fall 2020/Flanker Test/subject-4.csv,legacy,Lentiform Loewenfeld,3.3.3,0,H,NA,S,H,NA,H,368,NA,35659,17664,NA,368,2,legacy,1024,2,48000,-16,experiment,SSHSS,4,even,38248,191515,NA,247370,2580,243503,NA,249687,2588,173850,NA,248626,249791,250159,249685,249791,Flanker Task,104,54042,114,yes,1024
91.30434783,91.30434783,474.0173913,474.0173913,black,legacy,legacy,legacy,0,congruent,uniform,1,undefined,1,h,0,0,0,114,0,114,0,114,0,0,0,114,114,114,114,114,Fri Sep 25 23:43:51 2020,600,The main experiment item,yes,FlankerTask.osexp,C:\Users\katri\OneDrive\Documents\Fall 2020\Flanker Test,no,mono,no,18,no,white,no,yes,768,legacy,34,79,C:/Users/katri/OneDrive/Documents/Fall 2020/Flanker Test/subject-4.csv,legacy,Lentiform Loewenfeld,3.3.3,0,H,NA,S,H,NA,H,470,NA,35659,17664,NA,470,2,legacy,1024,2,48000,-16,experiment,HHHHH,4,even,38248,191515,NA,247370,2580,243503,NA,251245,2588,173850,NA,250182,251350,251821,251242,251349,Flanker Task,105,54512,115,yes,1024
91.37931034,91.37931034,472.9655172,472.9655172,black,legacy,legacy,legacy,0,incongruent,uniform,1,undefined,1,s,0,0,0,115,0,115,0,115,0,0,0,115,115,115,115,115,Fri Sep 25 23:43:51 2020,600,The main experiment item,yes,FlankerTask.osexp,C:\Users\katri\OneDrive\Documents\Fall 2020\Flanker Test,no,mono,no,18,no,white,no,yes,768,legacy,35,79,C:/Users/katri/OneDrive/Documents/Fall 2020/Flanker Test/subject-4.csv,legacy,Lentiform Loewenfeld,3.3.3,0,S,NA,S,H,NA,S,352,NA,35659,17664,NA,352,2,legacy,1024,2,48000,-16,experiment,HHSHH,4,even,38248,191515,NA,247370,2580,243503,NA,252909,2588,173850,NA,251845,253013,253366,252907,253013,Flanker Task,106,54864,116,yes,1024
91.45299145,91.45299145,472.2478632,472.2478632,black,legacy,legacy,legacy,0,congruent,uniform,1,undefined,1,s,0,0,0,116,0,116,0,116,0,0,0,116,116,116,116,116,Fri Sep 25 23:43:51 2020,600,The main experiment item,yes,FlankerTask.osexp,C:\Users\katri\OneDrive\Documents\Fall 2020\Flanker Test,no,mono,no,18,no,white,no,yes,768,legacy,36,79,C:/Users/katri/OneDrive/Documents/Fall 2020/Flanker Test/subject-4.csv,legacy,Lentiform Loewenfeld,3.3.3,0,S,NA,S,H,NA,S,389,NA,35659,17664,NA,389,2,legacy,1024,2,48000,-16,experiment,SSSSS,4,even,38248,191515,NA,247370,2580,243503,NA,254450,2588,173850,NA,253388,254555,254945,254447,254554,Flanker Task,107,55253,117,yes,1024
90.6779661,90.6779661,470.8728814,470.8728814,black,legacy,legacy,legacy,0,congruent,uniform,0,undefined,0,s,0,0,0,117,0,117,0,117,0,0,0,117,117,117,117,117,Fri Sep 25 23:43:51 2020,600,The main experiment item,yes,FlankerTask.osexp,C:\Users\katri\OneDrive\Documents\Fall 2020\Flanker Test,no,mono,no,18,no,white,no,yes,768,legacy,37,79,C:/Users/katri/OneDrive/Documents/Fall 2020/Flanker Test/subject-4.csv,legacy,Lentiform Loewenfeld,3.3.3,0,H,NA,S,H,NA,H,310,NA,35659,17664,NA,310,2,legacy,1024,2,48000,-16,experiment,SSSSS,4,even,38248,191515,NA,247370,2580,243503,NA,256035,2588,173850,NA,254970,256139,256450,256033,256139,Flanker Task,107,55563,118,yes,1024
90.75630252,90.75630252,470.5630252,470.5630252,black,legacy,legacy,legacy,0,congruent,uniform,1,undefined,1,h,0,0,0,118,0,118,0,118,0,0,0,118,118,118,118,118,Fri Sep 25 23:43:51 2020,600,The main experiment item,yes,FlankerTask.osexp,C:\Users\katri\OneDrive\Documents\Fall 2020\Flanker Test,no,mono,no,18,no,white,no,yes,768,legacy,38,79,C:/Users/katri/OneDrive/Documents/Fall 2020/Flanker Test/subject-4.csv,legacy,Lentiform Loewenfeld,3.3.3,0,H,NA,S,H,NA,H,434,NA,35659,17664,NA,434,2,legacy,1024,2,48000,-16,experiment,HHHHH,4,even,38248,191515,NA,257475,2580,243503,NA,258033,2588,173850,NA,256473,258137,258572,258031,258137,Flanker Task,108,55997,119,yes,1024
90,90,469.7583333,469.7583333,black,legacy,legacy,legacy,0,incongrunet,uniform,0,undefined,0,h,0,0,0,119,0,119,0,119,0,0,0,119,119,119,119,119,Fri Sep 25 23:43:51 2020,600,The main experiment item,yes,FlankerTask.osexp,C:\Users\katri\OneDrive\Documents\Fall 2020\Flanker Test,no,mono,no,18,no,white,no,yes,768,legacy,39,79,C:/Users/katri/OneDrive/Documents/Fall 2020/Flanker Test/subject-4.csv,legacy,Lentiform Loewenfeld,3.3.3,0,S,NA,S,H,NA,S,374,NA,35659,17664,NA,374,2,legacy,1024,2,48000,-16,experiment,SSHSS,4,even,38248,191515,NA,257475,2580,243503,NA,259667,2588,173850,NA,258594,259771,260146,259665,259771,Flanker Task,108,56371,120,yes,1024
90.08264463,90.08264463,470.338843,470.338843,black,legacy,legacy,legacy,0,congruent,uniform,1,undefined,1,s,0,0,0,120,0,120,0,120,0,0,0,120,120,120,120,120,Fri Sep 25 23:43:51 2020,600,The main experiment item,yes,FlankerTask.osexp,C:\Users\katri\OneDrive\Documents\Fall 2020\Flanker Test,no,mono,no,18,no,white,no,yes,768,legacy,40,79,C:/Users/katri/OneDrive/Documents/Fall 2020/Flanker Test/subject-4.csv,legacy,Lentiform Loewenfeld,3.3.3,0,S,NA,S,H,NA,S,540,NA,35659,17664,NA,540,2,legacy,1024,2,48000,-16,experiment,SSSSS,4,even,38248,191515,NA,261172,2580,243503,NA,261732,2588,173850,NA,260170,261833,262373,261730,261833,Flanker Task,109,56911,121,yes,1024
90.16393443,90.16393443,469.7704918,469.7704918,black,legacy,legacy,legacy,0,congruent,uniform,1,undefined,1,h,0,0,0,121,0,121,0,121,0,0,0,121,121,121,121,121,Fri Sep 25 23:43:51 2020,600,The main experiment item,yes,FlankerTask.osexp,C:\Users\katri\OneDrive\Documents\Fall 2020\Flanker Test,no,mono,no,18,no,white,no,yes,768,legacy,41,79,C:/Users/katri/OneDrive/Documents/Fall 2020/Flanker Test/subject-4.csv,legacy,Lentiform Loewenfeld,3.3.3,0,H,NA,S,H,NA,H,401,NA,35659,17664,NA,401,2,legacy,1024,2,48000,-16,experiment,HHHHH,4,even,38248,191515,NA,261172,2580,243503,NA,263445,2588,173850,NA,262380,263550,263952,263443,263549,Flanker Task,110,57312,122,yes,1024
90.24390244,90.24390244,469.2601626,469.2601626,black,legacy,legacy,legacy,0,congruent,uniform,1,undefined,1,s,0,0,0,122,0,122,0,122,0,0,0,122,122,122,122,122,Fri Sep 25 23:43:51 2020,600,The main experiment item,yes,FlankerTask.osexp,C:\Users\katri\OneDrive\Documents\Fall 2020\Flanker Test,no,mono,no,18,no,white,no,yes,768,legacy,42,79,C:/Users/katri/OneDrive/Documents/Fall 2020/Flanker Test/subject-4.csv,legacy,Lentiform Loewenfeld,3.3.3,0,S,NA,S,H,NA,S,407,NA,35659,17664,NA,407,2,legacy,1024,2,48000,-16,experiment,SSSSS,4,even,38248,191515,NA,261172,2580,243503,NA,265036,2588,173850,NA,263976,265141,265549,265034,265140,Flanker Task,111,57719,123,yes,1024
90.32258065,90.32258065,469.1532258,469.1532258,black,legacy,legacy,legacy,0,congruent,uniform,1,undefined,1,s,0,0,0,123,0,123,0,123,0,0,0,123,123,123,123,123,Fri Sep 25 23:43:51 2020,600,The main experiment item,yes,FlankerTask.osexp,C:\Users\katri\OneDrive\Documents\Fall 2020\Flanker Test,no,mono,no,18,no,white,no,yes,768,legacy,43,79,C:/Users/katri/OneDrive/Documents/Fall 2020/Flanker Test/subject-4.csv,legacy,Lentiform Loewenfeld,3.3.3,0,S,NA,S,H,NA,S,456,NA,35659,17664,NA,456,2,legacy,1024,2,48000,-16,experiment,SSSSS,4,even,38248,191515,NA,261172,2580,243503,NA,266636,2588,173850,NA,265573,266741,267197,266634,266740,Flanker Task,112,58175,124,yes,1024
90.4,90.4,468.864,468.864,black,legacy,legacy,legacy,0,congruent,uniform,1,undefined,1,s,0,0,0,124,0,124,0,124,0,0,0,124,124,124,124,124,Fri Sep 25 23:43:51 2020,600,The main experiment item,yes,FlankerTask.osexp,C:\Users\katri\OneDrive\Documents\Fall 2020\Flanker Test,no,mono,no,18,no,white,no,yes,768,legacy,44,79,C:/Users/katri/OneDrive/Documents/Fall 2020/Flanker Test/subject-4.csv,legacy,Lentiform Loewenfeld,3.3.3,0,S,NA,S,H,NA,S,433,NA,35659,17664,NA,433,2,legacy,1024,2,48000,-16,experiment,SSSSS,4,even,38248,191515,NA,261172,2580,243503,NA,268266,2588,173850,NA,267205,268371,268805,268263,268370,Flanker Task,113,58608,125,yes,1024
90.47619048,90.47619048,468.6190476,468.6190476,black,legacy,legacy,legacy,0,congruent,uniform,1,undefined,1,h,0,0,0,125,0,125,0,125,0,0,0,125,125,125,125,125,Fri Sep 25 23:43:51 2020,600,The main experiment item,yes,FlankerTask.osexp,C:\Users\katri\OneDrive\Documents\Fall 2020\Flanker Test,no,mono,no,18,no,white,no,yes,768,legacy,45,79,C:/Users/katri/OneDrive/Documents/Fall 2020/Flanker Test/subject-4.csv,legacy,Lentiform Loewenfeld,3.3.3,0,H,NA,S,H,NA,H,438,NA,35659,17664,NA,438,2,legacy,1024,2,48000,-16,experiment,HHHHH,4,even,38248,191515,NA,261172,2580,243503,NA,269889,2588,173850,NA,268827,269993,270432,269887,269993,Flanker Task,114,59046,126,yes,1024
89.76377953,89.76377953,468.023622,468.023622,black,legacy,legacy,legacy,0,incongruent,uniform,0,undefined,0,s,0,0,0,126,0,126,0,126,0,0,0,126,126,126,126,126,Fri Sep 25 23:43:51 2020,600,The main experiment item,yes,FlankerTask.osexp,C:\Users\katri\OneDrive\Documents\Fall 2020\Flanker Test,no,mono,no,18,no,white,no,yes,768,legacy,46,79,C:/Users/katri/OneDrive/Documents/Fall 2020/Flanker Test/subject-4.csv,legacy,Lentiform Loewenfeld,3.3.3,0,H,NA,S,H,NA,H,393,NA,35659,17664,NA,393,2,legacy,1024,2,48000,-16,experiment,HHSHH,4,even,38248,191515,NA,261172,2580,243503,NA,271503,2588,173850,NA,270439,271608,272001,271500,271607,Flanker Task,114,59439,127,yes,1024
89.84375,89.84375,468.078125,468.078125,black,legacy,legacy,legacy,0,congruent,uniform,1,undefined,1,h,0,0,0,127,0,127,0,127,0,0,0,127,127,127,127,127,Fri Sep 25 23:43:51 2020,600,The main experiment item,yes,FlankerTask.osexp,C:\Users\katri\OneDrive\Documents\Fall 2020\Flanker Test,no,mono,no,18,no,white,no,yes,768,legacy,47,79,C:/Users/katri/OneDrive/Documents/Fall 2020/Flanker Test/subject-4.csv,legacy,Lentiform Loewenfeld,3.3.3,0,H,NA,S,H,NA,H,475,NA,35659,17664,NA,475,2,legacy,1024,2,48000,-16,experiment,HHHHH,4,even,38248,191515,NA,273005,2580,243503,NA,273565,2588,173850,NA,272004,273670,274146,273564,273669,Flanker Task,115,59914,128,yes,1024
89.92248062,89.92248062,468.620155,468.620155,black,legacy,legacy,legacy,0,incongruent,uniform,1,undefined,1,s,0,0,0,128,0,128,0,128,0,0,0,128,128,128,128,128,Fri Sep 25 23:43:51 2020,600,The main experiment item,yes,FlankerTask.osexp,C:\Users\katri\OneDrive\Documents\Fall 2020\Flanker Test,no,mono,no,18,no,white,no,yes,768,legacy,48,79,C:/Users/katri/OneDrive/Documents/Fall 2020/Flanker Test/subject-4.csv,legacy,Lentiform Loewenfeld,3.3.3,0,S,NA,S,H,NA,S,538,NA,35659,17664,NA,538,2,legacy,1024,2,48000,-16,experiment,HHSHH,4,even,38248,191515,NA,273005,2580,243503,NA,275234,2588,173850,NA,274171,275338,275876,275231,275338,Flanker Task,116,60452,129,yes,1024
90,90,469.1153846,469.1153846,black,legacy,legacy,legacy,0,incongruent,uniform,1,undefined,1,s,0,0,0,129,0,129,0,129,0,0,0,129,129,129,129,129,Fri Sep 25 23:43:51 2020,600,The main experiment item,yes,FlankerTask.osexp,C:\Users\katri\OneDrive\Documents\Fall 2020\Flanker Test,no,mono,no,18,no,white,no,yes,768,legacy,49,79,C:/Users/katri/OneDrive/Documents/Fall 2020/Flanker Test/subject-4.csv,legacy,Lentiform Loewenfeld,3.3.3,0,S,NA,S,H,NA,S,533,NA,35659,17664,NA,533,2,legacy,1024,2,48000,-16,experiment,HHSHH,4,even,38248,191515,NA,273005,2580,243503,NA,276946,2588,173850,NA,275884,277047,277581,276944,277047,Flanker Task,117,60985,130,yes,1024
90.07633588,90.07633588,470.1679389,470.1679389,black,legacy,legacy,legacy,0,incongrunet,uniform,1,undefined,1,h,0,0,0,130,0,130,0,130,0,0,0,130,130,130,130,130,Fri Sep 25 23:43:51 2020,600,The main experiment item,yes,FlankerTask.osexp,C:\Users\katri\OneDrive\Documents\Fall 2020\Flanker Test,no,mono,no,18,no,white,no,yes,768,legacy,50,79,C:/Users/katri/OneDrive/Documents/Fall 2020/Flanker Test/subject-4.csv,legacy,Lentiform Loewenfeld,3.3.3,0,H,NA,S,H,NA,H,607,NA,35659,17664,NA,607,2,legacy,1024,2,48000,-16,experiment,SSHSS,4,even,38248,191515,NA,273005,2580,243503,NA,278665,2588,173850,NA,277604,278770,279378,278663,278769,Flanker Task,118,61592,131,yes,1024
90.15151515,90.15151515,470.7272727,470.7272727,black,legacy,legacy,legacy,0,incongrunet,uniform,1,undefined,1,h,0,0,0,131,0,131,0,131,0,0,0,131,131,131,131,131,Fri Sep 25 23:43:51 2020,600,The main experiment item,yes,FlankerTask.osexp,C:\Users\katri\OneDrive\Documents\Fall 2020\Flanker Test,no,mono,no,18,no,white,no,yes,768,legacy,51,79,C:/Users/katri/OneDrive/Documents/Fall 2020/Flanker Test/subject-4.csv,legacy,Lentiform Loewenfeld,3.3.3,0,H,NA,S,H,NA,H,544,NA,35659,17664,NA,544,2,legacy,1024,2,48000,-16,experiment,SSHSS,4,even,38248,191515,NA,273005,2580,280401,NA,280961,2588,173850,NA,279400,281066,281611,280960,281066,Flanker Task,119,62136,132,yes,1024
90.22556391,90.22556391,470.6165414,470.6165414,black,legacy,legacy,legacy,0,incongrunet,uniform,1,undefined,1,h,0,0,0,132,0,132,0,132,0,0,0,132,132,132,132,132,Fri Sep 25 23:43:51 2020,600,The main experiment item,yes,FlankerTask.osexp,C:\Users\katri\OneDrive\Documents\Fall 2020\Flanker Test,no,mono,no,18,no,white,no,yes,768,legacy,52,79,C:/Users/katri/OneDrive/Documents/Fall 2020/Flanker Test/subject-4.csv,legacy,Lentiform Loewenfeld,3.3.3,0,H,NA,S,H,NA,H,456,NA,35659,17664,NA,456,2,legacy,1024,2,48000,-16,experiment,SSHSS,4,even,38248,191515,NA,273005,2580,280401,NA,282698,2588,173850,NA,281635,282802,283259,282695,282802,Flanker Task,120,62592,133,yes,1024
90.29850746,90.29850746,470.7761194,470.7761194,black,legacy,legacy,legacy,0,incongruent,uniform,1,undefined,1,s,0,0,0,133,0,133,0,133,0,0,0,133,133,133,133,133,Fri Sep 25 23:43:51 2020,600,The main experiment item,yes,FlankerTask.osexp,C:\Users\katri\OneDrive\Documents\Fall 2020\Flanker Test,no,mono,no,18,no,white,no,yes,768,legacy,53,79,C:/Users/katri/OneDrive/Documents/Fall 2020/Flanker Test/subject-4.csv,legacy,Lentiform Loewenfeld,3.3.3,0,S,NA,S,H,NA,S,492,NA,35659,17664,NA,492,2,legacy,1024,2,48000,-16,experiment,HHSHH,4,even,38248,191515,NA,273005,2580,280401,NA,284344,2588,173850,NA,283281,284449,284942,284342,284448,Flanker Task,121,63084,134,yes,1024
90.37037037,90.37037037,470.0666667,470.0666667,black,legacy,legacy,legacy,0,congruent,uniform,1,undefined,1,h,0,0,0,134,0,134,0,134,0,0,0,134,134,134,134,134,Fri Sep 25 23:43:51 2020,600,The main experiment item,yes,FlankerTask.osexp,C:\Users\katri\OneDrive\Documents\Fall 2020\Flanker Test,no,mono,no,18,no,white,no,yes,768,legacy,54,79,C:/Users/katri/OneDrive/Documents/Fall 2020/Flanker Test/subject-4.csv,legacy,Lentiform Loewenfeld,3.3.3,0,H,NA,S,H,NA,H,375,NA,35659,17664,NA,375,2,legacy,1024,2,48000,-16,experiment,HHHHH,4,even,38248,191515,NA,273005,2580,280401,NA,286024,2588,173850,NA,284964,286128,286504,286022,286128,Flanker Task,122,63459,135,yes,1024
90.44117647,90.44117647,469.5441176,469.5441176,black,legacy,legacy,legacy,0,congruent,uniform,1,undefined,1,h,0,0,0,135,0,135,0,135,0,0,0,135,135,135,135,135,Fri Sep 25 23:43:51 2020,600,The main experiment item,yes,FlankerTask.osexp,C:\Users\katri\OneDrive\Documents\Fall 2020\Flanker Test,no,mono,no,18,no,white,no,yes,768,legacy,55,79,C:/Users/katri/OneDrive/Documents/Fall 2020/Flanker Test/subject-4.csv,legacy,Lentiform Loewenfeld,3.3.3,0,H,NA,S,H,NA,H,399,NA,35659,17664,NA,399,2,legacy,1024,2,48000,-16,experiment,HHHHH,4,even,38248,191515,NA,273005,2580,280401,NA,287573,2588,173850,NA,286511,287678,288078,287571,287677,Flanker Task,123,63858,136,yes,1024
90.51094891,90.51094891,469.2262774,469.2262774,black,legacy,legacy,legacy,0,congruent,uniform,1,undefined,1,h,0,0,0,136,0,136,0,136,0,0,0,136,136,136,136,136,Fri Sep 25 23:43:51 2020,600,The main experiment item,yes,FlankerTask.osexp,C:\Users\katri\OneDrive\Documents\Fall 2020\Flanker Test,no,mono,no,18,no,white,no,yes,768,legacy,56,79,C:/Users/katri/OneDrive/Documents/Fall 2020/Flanker Test/subject-4.csv,legacy,Lentiform Loewenfeld,3.3.3,0,H,NA,S,H,NA,H,426,NA,35659,17664,NA,426,2,legacy,1024,2,48000,-16,experiment,HHHHH,4,even,38248,191515,NA,273005,2580,280401,NA,289145,2588,173850,NA,288085,289249,289676,289143,289249,Flanker Task,124,64284,137,yes,1024
90.57971014,90.57971014,469.057971,469.057971,black,legacy,legacy,legacy,0,incongrunet,uniform,1,undefined,1,h,0,0,0,137,0,137,0,137,0,0,0,137,137,137,137,137,Fri Sep 25 23:43:51 2020,600,The main experiment item,yes,FlankerTask.osexp,C:\Users\katri\OneDrive\Documents\Fall 2020\Flanker Test,no,mono,no,18,no,white,no,yes,768,legacy,57,79,C:/Users/katri/OneDrive/Documents/Fall 2020/Flanker Test/subject-4.csv,legacy,Lentiform Loewenfeld,3.3.3,0,H,NA,S,H,NA,H,446,NA,35659,17664,NA,446,2,legacy,1024,2,48000,-16,experiment,SSHSS,4,even,38248,191515,NA,273005,2580,280401,NA,290762,2588,173850,NA,289701,290867,291314,290760,290866,Flanker Task,125,64730,138,yes,1024
90.64748201,90.64748201,468.971223,468.971223,black,legacy,legacy,legacy,0,congruent,uniform,1,undefined,1,s,0,0,0,138,0,138,0,138,0,0,0,138,138,138,138,138,Fri Sep 25 23:43:51 2020,600,The main experiment item,yes,FlankerTask.osexp,C:\Users\katri\OneDrive\Documents\Fall 2020\Flanker Test,no,mono,no,18,no,white,no,yes,768,legacy,58,79,C:/Users/katri/OneDrive/Documents/Fall 2020/Flanker Test/subject-4.csv,legacy,Lentiform Loewenfeld,3.3.3,0,S,NA,S,H,NA,S,457,NA,35659,17664,NA,457,2,legacy,1024,2,48000,-16,experiment,SSSSS,4,even,38248,191515,NA,273005,2580,280401,NA,292399,2588,173850,NA,291338,292503,292961,292397,292503,Flanker Task,126,65187,139,yes,1024
90.71428571,90.71428571,468.7642857,468.7642857,black,legacy,legacy,legacy,0,incongrunet,uniform,1,undefined,1,h,0,0,0,139,0,139,0,139,0,0,0,139,139,139,139,139,Fri Sep 25 23:43:51 2020,600,The main experiment item,yes,FlankerTask.osexp,C:\Users\katri\OneDrive\Documents\Fall 2020\Flanker Test,no,mono,no,18,no,white,no,yes,768,legacy,59,79,C:/Users/katri/OneDrive/Documents/Fall 2020/Flanker Test/subject-4.csv,legacy,Lentiform Loewenfeld,3.3.3,0,H,NA,S,H,NA,H,440,NA,35659,17664,NA,440,2,legacy,1024,2,48000,-16,experiment,SSHSS,4,even,38248,191515,NA,273005,2580,280401,NA,294051,2588,173850,NA,292983,294156,294596,294049,294155,Flanker Task,127,65627,140,yes,1024
90.78014184,90.78014184,468.9219858,468.9219858,black,legacy,legacy,legacy,0,congruent,uniform,1,undefined,1,h,0,0,0,140,0,140,0,140,0,0,0,140,140,140,140,140,Fri Sep 25 23:43:51 2020,600,The main experiment item,yes,FlankerTask.osexp,C:\Users\katri\OneDrive\Documents\Fall 2020\Flanker Test,no,mono,no,18,no,white,no,yes,768,legacy,60,79,C:/Users/katri/OneDrive/Documents/Fall 2020/Flanker Test/subject-4.csv,legacy,Lentiform Loewenfeld,3.3.3,0,H,NA,S,H,NA,H,491,NA,35659,17664,NA,491,2,legacy,1024,2,48000,-16,experiment,HHHHH,4,even,38248,191515,NA,273005,2580,280401,NA,295668,2588,173850,NA,294604,295773,296265,295666,295772,Flanker Task,128,66118,141,yes,1024
90.84507042,90.84507042,468.2676056,468.2676056,black,legacy,legacy,legacy,0,incongruent,uniform,1,undefined,1,s,0,0,0,141,0,141,0,141,0,0,0,141,141,141,141,141,Fri Sep 25 23:43:51 2020,600,The main experiment item,yes,FlankerTask.osexp,C:\Users\katri\OneDrive\Documents\Fall 2020\Flanker Test,no,mono,no,18,no,white,no,yes,768,legacy,61,79,C:/Users/katri/OneDrive/Documents/Fall 2020/Flanker Test/subject-4.csv,legacy,Lentiform Loewenfeld,3.3.3,0,S,NA,S,H,NA,S,376,NA,35659,17664,NA,376,2,legacy,1024,2,48000,-16,experiment,HHSHH,4,even,38248,191515,NA,273005,2580,280401,NA,297351,2588,173850,NA,296289,297456,297833,297350,297455,Flanker Task,129,66494,142,yes,1024
90.90909091,90.90909091,468.1608392,468.1608392,black,legacy,legacy,legacy,0,incongruent,uniform,1,undefined,1,s,0,0,0,142,0,142,0,142,0,0,0,142,142,142,142,142,Fri Sep 25 23:43:51 2020,600,The main experiment item,yes,FlankerTask.osexp,C:\Users\katri\OneDrive\Documents\Fall 2020\Flanker Test,no,mono,no,18,no,white,no,yes,768,legacy,62,79,C:/Users/katri/OneDrive/Documents/Fall 2020/Flanker Test/subject-4.csv,legacy,Lentiform Loewenfeld,3.3.3,0,S,NA,S,H,NA,S,453,NA,35659,17664,NA,453,2,legacy,1024,2,48000,-16,experiment,HHSHH,4,even,38248,191515,NA,273005,2580,280401,NA,298919,2588,173850,NA,297856,299021,299475,298917,299021,Flanker Task,130,66947,143,yes,1024
90.97222222,90.97222222,467.0833333,467.0833333,black,legacy,legacy,legacy,0,incongrunet,uniform,1,undefined,1,h,0,0,0,143,0,143,0,143,0,0,0,143,143,143,143,143,Fri Sep 25 23:43:51 2020,600,The main experiment item,yes,FlankerTask.osexp,C:\Users\katri\OneDrive\Documents\Fall 2020\Flanker Test,no,mono,no,18,no,white,no,yes,768,legacy,63,79,C:/Users/katri/OneDrive/Documents/Fall 2020/Flanker Test/subject-4.csv,legacy,Lentiform Loewenfeld,3.3.3,0,H,NA,S,H,NA,H,313,NA,35659,17664,NA,313,2,legacy,1024,2,48000,-16,experiment,SSHSS,4,even,38248,191515,NA,273005,2580,280401,NA,300558,2588,173850,NA,299498,300662,300976,300556,300662,Flanker Task,131,67260,144,yes,1024
91.03448276,91.03448276,466.9586207,466.9586207,black,legacy,legacy,legacy,0,congruent,uniform,1,undefined,1,s,0,0,0,144,0,144,0,144,0,0,0,144,144,144,144,144,Fri Sep 25 23:43:51 2020,600,The main experiment item,yes,FlankerTask.osexp,C:\Users\katri\OneDrive\Documents\Fall 2020\Flanker Test,no,mono,no,18,no,white,no,yes,768,legacy,64,79,C:/Users/katri/OneDrive/Documents/Fall 2020/Flanker Test/subject-4.csv,legacy,Lentiform Loewenfeld,3.3.3,0,S,NA,S,H,NA,S,449,NA,35659,17664,NA,449,2,legacy,1024,2,48000,-16,experiment,SSSSS,4,even,38248,191515,NA,273005,2580,280401,NA,302061,2588,173850,NA,301000,302166,302616,302059,302165,Flanker Task,132,67709,145,yes,1024
91.09589041,91.09589041,466.1917808,466.1917808,black,legacy,legacy,legacy,0,congruent,uniform,1,undefined,1,h,0,0,0,145,0,145,0,145,0,0,0,145,145,145,145,145,Fri Sep 25 23:43:51 2020,600,The main experiment item,yes,FlankerTask.osexp,C:\Users\katri\OneDrive\Documents\Fall 2020\Flanker Test,no,mono,no,18,no,white,no,yes,768,legacy,65,79,C:/Users/katri/OneDrive/Documents/Fall 2020/Flanker Test/subject-4.csv,legacy,Lentiform Loewenfeld,3.3.3,0,H,NA,S,H,NA,H,355,NA,35659,17664,NA,355,2,legacy,1024,2,48000,-16,experiment,HHHHH,4,even,38248,191515,NA,273005,2580,280401,NA,303682,2588,173850,NA,302623,303787,304143,303680,303786,Flanker Task,133,68064,146,yes,1024
91.15646259,91.15646259,466.7891156,466.7891156,black,legacy,legacy,legacy,0,incongrunet,uniform,1,undefined,1,h,0,0,0,146,0,146,0,146,0,0,0,146,146,146,146,146,Fri Sep 25 23:43:51 2020,600,The main experiment item,yes,FlankerTask.osexp,C:\Users\katri\OneDrive\Documents\Fall 2020\Flanker Test,no,mono,no,18,no,white,no,yes,768,legacy,66,79,C:/Users/katri/OneDrive/Documents/Fall 2020/Flanker Test/subject-4.csv,legacy,Lentiform Loewenfeld,3.3.3,0,H,NA,S,H,NA,H,554,NA,35659,17664,NA,554,2,legacy,1024,2,48000,-16,experiment,SSHSS,4,even,38248,191515,NA,273005,2580,280401,NA,305232,2588,173850,NA,304167,305336,305891,305230,305336,Flanker Task,134,68618,147,yes,1024
90.54054054,90.54054054,466.6554054,466.6554054,black,legacy,legacy,legacy,0,congruent,uniform,0,undefined,0,s,0,0,0,147,0,147,0,147,0,0,0,147,147,147,147,147,Fri Sep 25 23:43:51 2020,600,The main experiment item,yes,FlankerTask.osexp,C:\Users\katri\OneDrive\Documents\Fall 2020\Flanker Test,no,mono,no,18,no,white,no,yes,768,legacy,67,79,C:/Users/katri/OneDrive/Documents/Fall 2020/Flanker Test/subject-4.csv,legacy,Lentiform Loewenfeld,3.3.3,0,H,NA,S,H,NA,H,447,NA,35659,17664,NA,447,2,legacy,1024,2,48000,-16,experiment,SSSSS,4,even,38248,191515,NA,273005,2580,280401,NA,306958,2588,173850,NA,305898,307059,307507,306956,307059,Flanker Task,134,69065,148,yes,1024
89.93288591,89.93288591,465.8724832,465.8724832,black,legacy,legacy,legacy,0,incongruent,uniform,0,undefined,0,s,0,0,0,148,0,148,0,148,0,0,0,148,148,148,148,148,Fri Sep 25 23:43:51 2020,600,The main experiment item,yes,FlankerTask.osexp,C:\Users\katri\OneDrive\Documents\Fall 2020\Flanker Test,no,mono,no,18,no,white,no,yes,768,legacy,68,79,C:/Users/katri/OneDrive/Documents/Fall 2020/Flanker Test/subject-4.csv,legacy,Lentiform Loewenfeld,3.3.3,0,H,NA,S,H,NA,H,350,NA,35659,17664,NA,350,2,legacy,1024,2,48000,-16,experiment,HHSHH,4,even,38248,191515,NA,308517,2580,280401,NA,309076,2588,173850,NA,307515,309180,309531,309074,309180,Flanker Task,134,69415,149,yes,1024
90,90,466,466,black,legacy,legacy,legacy,0,incongrunet,uniform,1,undefined,1,h,0,0,0,149,0,149,0,149,0,0,0,149,149,149,149,149,Fri Sep 25 23:43:51 2020,600,The main experiment item,yes,FlankerTask.osexp,C:\Users\katri\OneDrive\Documents\Fall 2020\Flanker Test,no,mono,no,18,no,white,no,yes,768,legacy,69,79,C:/Users/katri/OneDrive/Documents/Fall 2020/Flanker Test/subject-4.csv,legacy,Lentiform Loewenfeld,3.3.3,0,H,NA,S,H,NA,H,485,NA,35659,17664,NA,485,2,legacy,1024,2,48000,-16,experiment,SSHSS,4,even,38248,191515,NA,310556,2580,280401,NA,311116,2588,173850,NA,309555,311221,311707,311115,311221,Flanker Task,135,69900,150,yes,1024
90.06622517,90.06622517,465.4900662,465.4900662,black,legacy,legacy,legacy,0,incongruent,uniform,1,undefined,1,s,0,0,0,150,0,150,0,150,0,0,0,150,150,150,150,150,Fri Sep 25 23:43:51 2020,600,The main experiment item,yes,FlankerTask.osexp,C:\Users\katri\OneDrive\Documents\Fall 2020\Flanker Test,no,mono,no,18,no,white,no,yes,768,legacy,70,79,C:/Users/katri/OneDrive/Documents/Fall 2020/Flanker Test/subject-4.csv,legacy,Lentiform Loewenfeld,3.3.3,0,S,NA,S,H,NA,S,389,NA,35659,17664,NA,389,2,legacy,1024,2,48000,-16,experiment,HHSHH,4,even,38248,191515,NA,310556,2580,280401,NA,312793,2588,173850,NA,311730,312897,313287,312791,312897,Flanker Task,136,70289,151,yes,1024
90.13157895,90.13157895,464.8355263,464.8355263,black,legacy,legacy,legacy,0,congruent,uniform,1,undefined,1,h,0,0,0,151,0,151,0,151,0,0,0,151,151,151,151,151,Fri Sep 25 23:43:51 2020,600,The main experiment item,yes,FlankerTask.osexp,C:\Users\katri\OneDrive\Documents\Fall 2020\Flanker Test,no,mono,no,18,no,white,no,yes,768,legacy,71,79,C:/Users/katri/OneDrive/Documents/Fall 2020/Flanker Test/subject-4.csv,legacy,Lentiform Loewenfeld,3.3.3,0,H,NA,S,H,NA,H,366,NA,35659,17664,NA,366,2,legacy,1024,2,48000,-16,experiment,HHHHH,4,even,38248,191515,NA,310556,2580,280401,NA,314370,2588,173850,NA,313309,314475,314842,314368,314474,Flanker Task,137,70655,152,yes,1024
