"acc","accuracy","average_response_time","avg_rt","background","canvas_backend","clock_backend","color_backend","compensation","condition","coordinates","correct","correct_Instructions1","correct_Keyboard_Response","correct_response","count_ErrorFeedback","count_FasterFeedback","count_Finish","count_Fixation","count_ISI","count_Instructions1","count_Instructions2","count_Instructions3","count_Keyboard_Response","count_Logger","count_Sequence","count_Stimulus","count_block1","count_block2","count_block3","count_experiment","datetime","deadline","description","disable_garbage_collection","experiment_file","experiment_path","font_bold","font_family","font_italic","font_size","font_underline","foreground","form_clicks","fullscreen","height","keyboard_backend","live_row","live_row_block1","logfile","mouse_backend","opensesame_codename","opensesame_version","repeat_cycle","response","response_Finish","response_Instructions1","response_Instructions2","response_Instructions3","response_Keyboard_Response","response_time","response_time_Finish","response_time_Instructions1","response_time_Instructions2","response_time_Instructions3","response_time_Keyboard_Response","round_decimals","sampler_backend","sound_buf_size","sound_channels","sound_freq","sound_sample_size","start","stimulus","subject_nr","subject_parity","time_ErrorFeedback","time_FasterFeedback","time_Finish","time_Fixation","time_ISI","time_Instructions1","time_Instructions2","time_Instructions3","time_Keyboard_Response","time_Logger","time_Sequence","time_Stimulus","time_block1","time_block2","time_block3","time_experiment","title","total_correct","total_response_time","total_responses","uniform_coordinates","width"
"100","100","856","856","black","legacy","legacy","legacy","0","incongruent","uniform","1","undefined","1","h","0","0","0","0","0","0","0","0","0","0","0","0","0","0","0","0","09/25/22 21:10:01","1500","The main experiment item","yes","FlankerTask.osexp","C:/Users/saudm/OneDrive/Desktop","no","mono","no","18","no","white","no","yes","768","legacy","0","0","C:/Users/saudm/OneDrive/Desktop/MK-subject-3.csv","legacy","Lentiform Loewenfeld","3.3.12","0","h","NA","h","NA","NA","h","856","NA","42547","NA","NA","856","2","legacy","1024","2","48000","-16","experiment","SSHSS","3","odd","NA","NA","NA","44639","NA","2048","NA","NA","44741","45597","44638","44740","44595","NA","NA","2042","Flanker Task ","1","856","1","yes","1024"
"100","100","743","743","black","legacy","legacy","legacy","0","congruent","uniform","1","undefined","1","h","1","1","0","1","1","0","0","0","1","1","1","1","0","0","0","0","09/25/22 21:10:01","1500","The main experiment item","yes","FlankerTask.osexp","C:/Users/saudm/OneDrive/Desktop","no","mono","no","18","no","white","no","yes","768","legacy","1","1","C:/Users/saudm/OneDrive/Desktop/MK-subject-3.csv","legacy","Lentiform Loewenfeld","3.3.12","0","h","NA","h","NA","NA","h","630","NA","42547","NA","NA","630","2","legacy","1024","2","48000","-16","experiment","HHHHH","3","odd","NA","NA","NA","46651","45611","2048","NA","NA","46752","47383","46650","46752","44595","NA","NA","2042","Flanker Task ","2","1486","2","yes","1024"
"100","100","692.666666667","692.666666667","black","legacy","legacy","legacy","0","congruent","uniform","1","undefined","1","s","2","2","0","2","2","0","0","0","2","2","2","2","0","0","0","0","09/25/22 21:10:01","1500","The main experiment item","yes","FlankerTask.osexp","C:/Users/saudm/OneDrive/Desktop","no","mono","no","18","no","white","no","yes","768","legacy","2","2","C:/Users/saudm/OneDrive/Desktop/MK-subject-3.csv","legacy","Lentiform Loewenfeld","3.3.12","0","s","NA","h","NA","NA","s","592","NA","42547","NA","NA","592","2","legacy","1024","2","48000","-16","experiment","SSSSS","3","odd","NA","NA","NA","48441","47396","2048","NA","NA","48543","49135","48438","48543","44595","NA","NA","2042","Flanker Task ","3","2078","3","yes","1024"
"100","100","653.25","653.25","black","legacy","legacy","legacy","0","congruent","uniform","1","undefined","1","s","3","3","0","3","3","0","0","0","3","3","3","3","0","0","0","0","09/25/22 21:10:01","1500","The main experiment item","yes","FlankerTask.osexp","C:/Users/saudm/OneDrive/Desktop","no","mono","no","18","no","white","no","yes","768","legacy","3","3","C:/Users/saudm/OneDrive/Desktop/MK-subject-3.csv","legacy","Lentiform Loewenfeld","3.3.12","0","s","NA","h","NA","NA","s","535","NA","42547","NA","NA","535","2","legacy","1024","2","48000","-16","experiment","SSSSS","3","odd","NA","NA","NA","50183","49147","2048","NA","NA","50284","50820","50182","50284","44595","NA","NA","2042","Flanker Task ","4","2613","4","yes","1024"
"100","100","620.4","620.4","black","legacy","legacy","legacy","0","congruent","uniform","1","undefined","1","s","4","4","0","4","4","0","0","0","4","4","4","4","0","0","0","0","09/25/22 21:10:01","1500","The main experiment item","yes","FlankerTask.osexp","C:/Users/saudm/OneDrive/Desktop","no","mono","no","18","no","white","no","yes","768","legacy","4","4","C:/Users/saudm/OneDrive/Desktop/MK-subject-3.csv","legacy","Lentiform Loewenfeld","3.3.12","0","s","NA","h","NA","NA","s","489","NA","42547","NA","NA","489","2","legacy","1024","2","48000","-16","experiment","SSSSS","3","odd","NA","NA","NA","51869","50832","2048","NA","NA","51970","52460","51868","51970","44595","NA","NA","2042","Flanker Task ","5","3102","5","yes","1024"
"100","100","605.833333333","605.833333333","black","legacy","legacy","legacy","0","congruent","uniform","1","undefined","1","h","5","5","0","5","5","0","0","0","5","5","5","5","0","0","0","0","09/25/22 21:10:01","1500","The main experiment item","yes","FlankerTask.osexp","C:/Users/saudm/OneDrive/Desktop","no","mono","no","18","no","white","no","yes","768","legacy","5","5","C:/Users/saudm/OneDrive/Desktop/MK-subject-3.csv","legacy","Lentiform Loewenfeld","3.3.12","0","h","NA","h","NA","NA","h","533","NA","42547","NA","NA","533","2","legacy","1024","2","48000","-16","experiment","HHHHH","3","odd","NA","NA","NA","53519","52472","2048","NA","NA","53621","54154","53518","53621","44595","NA","NA","2042","Flanker Task ","6","3635","6","yes","1024"
"100","100","592.142857143","592.142857143","black","legacy","legacy","legacy","0","congruent","uniform","1","undefined","1","s","6","6","0","6","6","0","0","0","6","6","6","6","0","0","0","0","09/25/22 21:10:01","1500","The main experiment item","yes","FlankerTask.osexp","C:/Users/saudm/OneDrive/Desktop","no","mono","no","18","no","white","no","yes","768","legacy","6","6","C:/Users/saudm/OneDrive/Desktop/MK-subject-3.csv","legacy","Lentiform Loewenfeld","3.3.12","0","s","NA","h","NA","NA","s","510","NA","42547","NA","NA","510","2","legacy","1024","2","48000","-16","experiment","SSSSS","3","odd","NA","NA","NA","55202","54167","2048","NA","NA","55303","55814","55199","55303","44595","NA","NA","2042","Flanker Task ","7","4145","7","yes","1024"
"100","100","603.75","603.75","black","legacy","legacy","legacy","0","incongruent","uniform","1","undefined","1","s","7","7","0","7","7","0","0","0","7","7","7","7","0","0","0","0","09/25/22 21:10:01","1500","The main experiment item","yes","FlankerTask.osexp","C:/Users/saudm/OneDrive/Desktop","no","mono","no","18","no","white","no","yes","768","legacy","7","7","C:/Users/saudm/OneDrive/Desktop/MK-subject-3.csv","legacy","Lentiform Loewenfeld","3.3.12","0","s","NA","h","NA","NA","s","685","NA","42547","NA","NA","685","2","legacy","1024","2","48000","-16","experiment","HHSHH","3","odd","NA","NA","NA","56861","55826","2048","NA","NA","56963","57649","56860","56963","44595","NA","NA","2042","Flanker Task ","8","4830","8","yes","1024"
"100","100","592.777777778","592.777777778","black","legacy","legacy","legacy","0","congruent","uniform","1","undefined","1","s","8","8","0","8","8","0","0","0","8","8","8","8","0","0","0","0","09/25/22 21:10:01","1500","The main experiment item","yes","FlankerTask.osexp","C:/Users/saudm/OneDrive/Desktop","no","mono","no","18","no","white","no","yes","768","legacy","8","8","C:/Users/saudm/OneDrive/Desktop/MK-subject-3.csv","legacy","Lentiform Loewenfeld","3.3.12","0","s","NA","h","NA","NA","s","505","NA","42547","NA","NA","505","2","legacy","1024","2","48000","-16","experiment","SSSSS","3","odd","NA","NA","NA","58696","57661","2048","NA","NA","58799","59305","58694","58799","44595","NA","NA","2042","Flanker Task ","9","5335","9","yes","1024"
"90","90","578.6","578.6","black","legacy","legacy","legacy","0","incongruent","uniform","0","undefined","0","h","9","9","0","9","9","0","0","0","9","9","9","9","0","0","0","0","09/25/22 21:10:01","1500","The main experiment item","yes","FlankerTask.osexp","C:/Users/saudm/OneDrive/Desktop","no","mono","no","18","no","white","no","yes","768","legacy","9","9","C:/Users/saudm/OneDrive/Desktop/MK-subject-3.csv","legacy","Lentiform Loewenfeld","3.3.12","0","s","NA","h","NA","NA","s","451","NA","42547","NA","NA","451","2","legacy","1024","2","48000","-16","experiment","SSHSS","3","odd","NA","NA","NA","60342","59307","2048","NA","NA","60443","60894","60341","60443","44595","NA","NA","2042","Flanker Task ","9","5786","10","yes","1024"
"90.9090909091","90.9090909091","572.818181818","572.818181818","black","legacy","legacy","legacy","0","congruent","uniform","1","undefined","1","s","10","10","0","10","10","0","0","0","10","10","10","10","0","0","0","0","09/25/22 21:10:01","1500","The main experiment item","yes","FlankerTask.osexp","C:/Users/saudm/OneDrive/Desktop","no","mono","no","18","no","white","no","yes","768","legacy","10","10","C:/Users/saudm/OneDrive/Desktop/MK-subject-3.csv","legacy","Lentiform Loewenfeld","3.3.12","0","s","NA","h","NA","NA","s","515","NA","42547","NA","NA","515","2","legacy","1024","2","48000","-16","experiment","SSSSS","3","odd","60896","NA","NA","62453","61397","2048","NA","NA","62555","63071","62452","62555","44595","NA","NA","2042","Flanker Task ","10","6301","11","yes","1024"
"91.6666666667","91.6666666667","570.333333333","570.333333333","black","legacy","legacy","legacy","0","incongruent","uniform","1","undefined","1","h","11","11","0","11","11","0","0","0","11","11","11","11","0","0","0","0","09/25/22 21:10:01","1500","The main experiment item","yes","FlankerTask.osexp","C:/Users/saudm/OneDrive/Desktop","no","mono","no","18","no","white","no","yes","768","legacy","11","11","C:/Users/saudm/OneDrive/Desktop/MK-subject-3.csv","legacy","Lentiform Loewenfeld","3.3.12","0","h","NA","h","NA","NA","h","543","NA","42547","NA","NA","543","2","legacy","1024","2","48000","-16","experiment","SSHSS","3","odd","60896","NA","NA","64121","63083","2048","NA","NA","64222","64766","64118","64222","44595","NA","NA","2042","Flanker Task ","11","6844","12","yes","1024"
"92.3076923077","92.3076923077","567.615384615","567.615384615","black","legacy","legacy","legacy","0","congruent","uniform","1","undefined","1","h","12","12","0","12","12","0","0","0","12","12","12","12","0","0","0","0","09/25/22 21:10:01","1500","The main experiment item","yes","FlankerTask.osexp","C:/Users/saudm/OneDrive/Desktop","no","mono","no","18","no","white","no","yes","768","legacy","12","12","C:/Users/saudm/OneDrive/Desktop/MK-subject-3.csv","legacy","Lentiform Loewenfeld","3.3.12","0","h","NA","h","NA","NA","h","535","NA","42547","NA","NA","535","2","legacy","1024","2","48000","-16","experiment","HHHHH","3","odd","60896","NA","NA","65812","64778","2048","NA","NA","65913","66448","65810","65913","44595","NA","NA","2042","Flanker Task ","12","7379","13","yes","1024"
"92.8571428571","92.8571428571","560.071428571","560.071428571","black","legacy","legacy","legacy","0","congruent","uniform","1","undefined","1","h","13","13","0","13","13","0","0","0","13","13","13","13","0","0","0","0","09/25/22 21:10:01","1500","The main experiment item","yes","FlankerTask.osexp","C:/Users/saudm/OneDrive/Desktop","no","mono","no","18","no","white","no","yes","768","legacy","13","13","C:/Users/saudm/OneDrive/Desktop/MK-subject-3.csv","legacy","Lentiform Loewenfeld","3.3.12","0","h","NA","h","NA","NA","h","462","NA","42547","NA","NA","462","2","legacy","1024","2","48000","-16","experiment","HHHHH","3","odd","60896","NA","NA","67493","66460","2048","NA","NA","67595","68058","67492","67595","44595","NA","NA","2042","Flanker Task ","13","7841","14","yes","1024"
"93.3333333333","93.3333333333","554.466666667","554.466666667","black","legacy","legacy","legacy","0","congruent","uniform","1","undefined","1","s","14","14","0","14","14","0","0","0","14","14","14","14","0","0","0","0","09/25/22 21:10:01","1500","The main experiment item","yes","FlankerTask.osexp","C:/Users/saudm/OneDrive/Desktop","no","mono","no","18","no","white","no","yes","768","legacy","14","14","C:/Users/saudm/OneDrive/Desktop/MK-subject-3.csv","legacy","Lentiform Loewenfeld","3.3.12","0","s","NA","h","NA","NA","s","476","NA","42547","NA","NA","476","2","legacy","1024","2","48000","-16","experiment","SSSSS","3","odd","60896","NA","NA","69095","68061","2048","NA","NA","69197","69674","69094","69197","44595","NA","NA","2042","Flanker Task ","14","8317","15","yes","1024"
"93.75","93.75","549.4375","549.4375","black","legacy","legacy","legacy","0","congruent","uniform","1","undefined","1","s","15","15","0","15","15","0","0","0","15","15","15","15","0","0","0","0","09/25/22 21:10:01","1500","The main experiment item","yes","FlankerTask.osexp","C:/Users/saudm/OneDrive/Desktop","no","mono","no","18","no","white","no","yes","768","legacy","15","15","C:/Users/saudm/OneDrive/Desktop/MK-subject-3.csv","legacy","Lentiform Loewenfeld","3.3.12","0","s","NA","h","NA","NA","s","474","NA","42547","NA","NA","474","2","legacy","1024","2","48000","-16","experiment","SSSSS","3","odd","60896","NA","NA","70721","69686","2048","NA","NA","70823","71297","70719","70823","44595","NA","NA","2042","Flanker Task ","15","8791","16","yes","1024"
"94.1176470588","94.1176470588","545.764705882","545.764705882","black","legacy","legacy","legacy","0","congruent","uniform","1","undefined","1","s","16","16","0","16","16","0","0","0","16","16","16","16","0","0","0","0","09/25/22 21:10:01","1500","The main experiment item","yes","FlankerTask.osexp","C:/Users/saudm/OneDrive/Desktop","no","mono","no","18","no","white","no","yes","768","legacy","16","16","C:/Users/saudm/OneDrive/Desktop/MK-subject-3.csv","legacy","Lentiform Loewenfeld","3.3.12","0","s","NA","h","NA","NA","s","487","NA","42547","NA","NA","487","2","legacy","1024","2","48000","-16","experiment","SSSSS","3","odd","60896","NA","NA","72343","71310","2048","NA","NA","72444","72931","72341","72444","44595","NA","NA","2042","Flanker Task ","16","9278","17","yes","1024"
"94.4444444444","94.4444444444","548.5","548.5","black","legacy","legacy","legacy","0","incongruent","uniform","1","undefined","1","h","17","17","0","17","17","0","0","0","17","17","17","17","0","0","0","0","09/25/22 21:10:01","1500","The main experiment item","yes","FlankerTask.osexp","C:/Users/saudm/OneDrive/Desktop","no","mono","no","18","no","white","no","yes","768","legacy","17","17","C:/Users/saudm/OneDrive/Desktop/MK-subject-3.csv","legacy","Lentiform Loewenfeld","3.3.12","0","h","NA","h","NA","NA","h","595","NA","42547","NA","NA","595","2","legacy","1024","2","48000","-16","experiment","SSHSS","3","odd","60896","NA","NA","73979","72944","2048","NA","NA","74081","74676","73977","74081","44595","NA","NA","2042","Flanker Task ","17","9873","18","yes","1024"
"94.7368421053","94.7368421053","550.947368421","550.947368421","black","legacy","legacy","legacy","0","incongruent","uniform","1","undefined","1","s","18","18","0","18","18","0","0","0","18","18","18","18","0","0","0","0","09/25/22 21:10:01","1500","The main experiment item","yes","FlankerTask.osexp","C:/Users/saudm/OneDrive/Desktop","no","mono","no","18","no","white","no","yes","768","legacy","18","18","C:/Users/saudm/OneDrive/Desktop/MK-subject-3.csv","legacy","Lentiform Loewenfeld","3.3.12","0","s","NA","h","NA","NA","s","595","NA","42547","NA","NA","595","2","legacy","1024","2","48000","-16","experiment","HHSHH","3","odd","60896","NA","NA","75727","74689","2048","NA","NA","75830","76425","75725","75830","44595","NA","NA","2042","Flanker Task ","18","10468","19","yes","1024"
"95","95","552.4","552.4","black","legacy","legacy","legacy","0","congruent","uniform","1","undefined","1","s","19","19","0","19","19","0","0","0","19","19","19","19","0","0","0","0","09/25/22 21:10:01","1500","The main experiment item","yes","FlankerTask.osexp","C:/Users/saudm/OneDrive/Desktop","no","mono","no","18","no","white","no","yes","768","legacy","19","19","C:/Users/saudm/OneDrive/Desktop/MK-subject-3.csv","legacy","Lentiform Loewenfeld","3.3.12","0","s","NA","h","NA","NA","s","580","NA","42547","NA","NA","580","2","legacy","1024","2","48000","-16","experiment","SSSSS","3","odd","60896","NA","NA","77474","76438","2048","NA","NA","77577","78157","77472","77576","44595","NA","NA","2042","Flanker Task ","19","11048","20","yes","1024"
"95.2380952381","95.2380952381","560.952380952","560.952380952","black","legacy","legacy","legacy","0","incongruent","uniform","1","undefined","1","s","20","20","0","20","20","0","0","0","20","20","20","20","0","0","0","0","09/25/22 21:10:01","1500","The main experiment item","yes","FlankerTask.osexp","C:/Users/saudm/OneDrive/Desktop","no","mono","no","18","no","white","no","yes","768","legacy","20","20","C:/Users/saudm/OneDrive/Desktop/MK-subject-3.csv","legacy","Lentiform Loewenfeld","3.3.12","0","s","NA","h","NA","NA","s","732","NA","42547","NA","NA","732","2","legacy","1024","2","48000","-16","experiment","HHSHH","3","odd","60896","NA","NA","79206","78170","2048","NA","NA","79308","80040","79204","79308","44595","NA","NA","2042","Flanker Task ","20","11780","21","yes","1024"
"95.4545454545","95.4545454545","557.727272727","557.727272727","black","legacy","legacy","legacy","0","incongruent","uniform","1","undefined","1","s","21","21","0","21","21","0","0","0","21","21","21","21","0","0","0","0","09/25/22 21:10:01","1500","The main experiment item","yes","FlankerTask.osexp","C:/Users/saudm/OneDrive/Desktop","no","mono","no","18","no","white","no","yes","768","legacy","21","21","C:/Users/saudm/OneDrive/Desktop/MK-subject-3.csv","legacy","Lentiform Loewenfeld","3.3.12","0","s","NA","h","NA","NA","s","490","NA","42547","NA","NA","490","2","legacy","1024","2","48000","-16","experiment","HHSHH","3","odd","60896","NA","NA","81088","80052","2048","NA","NA","81190","81681","81086","81190","44595","NA","NA","2042","Flanker Task ","21","12270","22","yes","1024"
"95.652173913","95.652173913","557.347826087","557.347826087","black","legacy","legacy","legacy","0","incongruent","uniform","1","undefined","1","h","22","22","0","22","22","0","0","0","22","22","22","22","0","0","0","0","09/25/22 21:10:01","1500","The main experiment item","yes","FlankerTask.osexp","C:/Users/saudm/OneDrive/Desktop","no","mono","no","18","no","white","no","yes","768","legacy","22","22","C:/Users/saudm/OneDrive/Desktop/MK-subject-3.csv","legacy","Lentiform Loewenfeld","3.3.12","0","h","NA","h","NA","NA","h","549","NA","42547","NA","NA","549","2","legacy","1024","2","48000","-16","experiment","SSHSS","3","odd","60896","NA","NA","82717","81683","2048","NA","NA","82819","83369","82716","82819","44595","NA","NA","2042","Flanker Task ","22","12819","23","yes","1024"
"95.8333333333","95.8333333333","558.375","558.375","black","legacy","legacy","legacy","0","congruent","uniform","1","undefined","1","h","23","23","0","23","23","0","0","0","23","23","23","23","0","0","0","0","09/25/22 21:10:01","1500","The main experiment item","yes","FlankerTask.osexp","C:/Users/saudm/OneDrive/Desktop","no","mono","no","18","no","white","no","yes","768","legacy","23","23","C:/Users/saudm/OneDrive/Desktop/MK-subject-3.csv","legacy","Lentiform Loewenfeld","3.3.12","0","h","NA","h","NA","NA","h","582","NA","42547","NA","NA","582","2","legacy","1024","2","48000","-16","experiment","HHHHH","3","odd","60896","NA","NA","84418","83382","2048","NA","NA","84520","85102","84416","84519","44595","NA","NA","2042","Flanker Task ","23","13401","24","yes","1024"
"96","96","557.12","557.12","black","legacy","legacy","legacy","0","congruent","uniform","1","undefined","1","h","24","24","0","24","24","0","0","0","24","24","24","24","0","0","0","0","09/25/22 21:10:01","1500","The main experiment item","yes","FlankerTask.osexp","C:/Users/saudm/OneDrive/Desktop","no","mono","no","18","no","white","no","yes","768","legacy","24","24","C:/Users/saudm/OneDrive/Desktop/MK-subject-3.csv","legacy","Lentiform Loewenfeld","3.3.12","0","h","NA","h","NA","NA","h","527","NA","42547","NA","NA","527","2","legacy","1024","2","48000","-16","experiment","HHHHH","3","odd","60896","NA","NA","86141","85105","2048","NA","NA","86243","86770","86139","86243","44595","NA","NA","2042","Flanker Task ","24","13928","25","yes","1024"
"96.1538461538","96.1538461538","557.653846154","557.653846154","black","legacy","legacy","legacy","0","incongruent","uniform","1","undefined","1","s","25","25","0","25","25","0","0","0","25","25","25","25","0","0","0","0","09/25/22 21:10:01","1500","The main experiment item","yes","FlankerTask.osexp","C:/Users/saudm/OneDrive/Desktop","no","mono","no","18","no","white","no","yes","768","legacy","25","25","C:/Users/saudm/OneDrive/Desktop/MK-subject-3.csv","legacy","Lentiform Loewenfeld","3.3.12","0","s","NA","h","NA","NA","s","571","NA","42547","NA","NA","571","2","legacy","1024","2","48000","-16","experiment","HHSHH","3","odd","60896","NA","NA","87815","86778","2048","NA","NA","87918","88489","87814","87917","44595","NA","NA","2042","Flanker Task ","25","14499","26","yes","1024"
"96.2962962963","96.2962962963","557.444444444","557.444444444","black","legacy","legacy","legacy","0","congruent","uniform","1","undefined","1","h","26","26","0","26","26","0","0","0","26","26","26","26","0","0","0","0","09/25/22 21:10:01","1500","The main experiment item","yes","FlankerTask.osexp","C:/Users/saudm/OneDrive/Desktop","no","mono","no","18","no","white","no","yes","768","legacy","26","26","C:/Users/saudm/OneDrive/Desktop/MK-subject-3.csv","legacy","Lentiform Loewenfeld","3.3.12","0","h","NA","h","NA","NA","h","552","NA","42547","NA","NA","552","2","legacy","1024","2","48000","-16","experiment","HHHHH","3","odd","60896","NA","NA","89536","88501","2048","NA","NA","89638","90191","89534","89638","44595","NA","NA","2042","Flanker Task ","26","15051","27","yes","1024"
"96.4285714286","96.4285714286","559.25","559.25","black","legacy","legacy","legacy","0","incongruent","uniform","1","undefined","1","h","27","27","0","27","27","0","0","0","27","27","27","27","0","0","0","0","09/25/22 21:10:01","1500","The main experiment item","yes","FlankerTask.osexp","C:/Users/saudm/OneDrive/Desktop","no","mono","no","18","no","white","no","yes","768","legacy","27","27","C:/Users/saudm/OneDrive/Desktop/MK-subject-3.csv","legacy","Lentiform Loewenfeld","3.3.12","0","h","NA","h","NA","NA","h","608","NA","42547","NA","NA","608","2","legacy","1024","2","48000","-16","experiment","SSHSS","3","odd","60896","NA","NA","91237","90203","2048","NA","NA","91339","91947","91235","91339","44595","NA","NA","2042","Flanker Task ","27","15659","28","yes","1024"
"96.5517241379","96.5517241379","558.448275862","558.448275862","black","legacy","legacy","legacy","0","congruent","uniform","1","undefined","1","s","28","28","0","28","28","0","0","0","28","28","28","28","0","0","0","0","09/25/22 21:10:01","1500","The main experiment item","yes","FlankerTask.osexp","C:/Users/saudm/OneDrive/Desktop","no","mono","no","18","no","white","no","yes","768","legacy","28","28","C:/Users/saudm/OneDrive/Desktop/MK-subject-3.csv","legacy","Lentiform Loewenfeld","3.3.12","0","s","NA","h","NA","NA","s","536","NA","42547","NA","NA","536","2","legacy","1024","2","48000","-16","experiment","SSSSS","3","odd","60896","NA","NA","92993","91960","2048","NA","NA","93094","93631","92991","93094","44595","NA","NA","2042","Flanker Task ","28","16195","29","yes","1024"
"96.6666666667","96.6666666667","557.633333333","557.633333333","black","legacy","legacy","legacy","0","congruent","uniform","1","undefined","1","h","29","29","0","29","29","0","0","0","29","29","29","29","0","0","0","0","09/25/22 21:10:01","1500","The main experiment item","yes","FlankerTask.osexp","C:/Users/saudm/OneDrive/Desktop","no","mono","no","18","no","white","no","yes","768","legacy","29","29","C:/Users/saudm/OneDrive/Desktop/MK-subject-3.csv","legacy","Lentiform Loewenfeld","3.3.12","0","h","NA","h","NA","NA","h","534","NA","42547","NA","NA","534","2","legacy","1024","2","48000","-16","experiment","HHHHH","3","odd","60896","NA","NA","94668","93634","2048","NA","NA","94769","95304","94667","94769","44595","NA","NA","2042","Flanker Task ","29","16729","30","yes","1024"
"96.7741935484","96.7741935484","556.419354839","556.419354839","black","legacy","legacy","legacy","0","congruent","uniform","1","undefined","1","s","30","30","0","30","30","0","0","0","30","30","30","30","0","0","0","0","09/25/22 21:10:01","1500","The main experiment item","yes","FlankerTask.osexp","C:/Users/saudm/OneDrive/Desktop","no","mono","no","18","no","white","no","yes","768","legacy","30","30","C:/Users/saudm/OneDrive/Desktop/MK-subject-3.csv","legacy","Lentiform Loewenfeld","3.3.12","0","s","NA","h","NA","NA","s","520","NA","42547","NA","NA","520","2","legacy","1024","2","48000","-16","experiment","SSSSS","3","odd","60896","NA","NA","96357","95316","2048","NA","NA","96459","96980","96356","96459","44595","NA","NA","2042","Flanker Task ","30","17249","31","yes","1024"
"96.875","96.875","554.375","554.375","black","legacy","legacy","legacy","0","congruent","uniform","1","undefined","1","s","31","31","0","31","31","0","0","0","31","31","31","31","0","0","0","0","09/25/22 21:10:01","1500","The main experiment item","yes","FlankerTask.osexp","C:/Users/saudm/OneDrive/Desktop","no","mono","no","18","no","white","no","yes","768","legacy","31","31","C:/Users/saudm/OneDrive/Desktop/MK-subject-3.csv","legacy","Lentiform Loewenfeld","3.3.12","0","s","NA","h","NA","NA","s","491","NA","42547","NA","NA","491","2","legacy","1024","2","48000","-16","experiment","SSSSS","3","odd","60896","NA","NA","98018","96982","2048","NA","NA","98120","98612","98017","98120","44595","NA","NA","2042","Flanker Task ","31","17740","32","yes","1024"
"96.9696969697","96.9696969697","557.212121212","557.212121212","black","legacy","legacy","legacy","0","incongruent","uniform","1","undefined","1","s","32","32","0","32","32","0","0","0","32","32","32","32","0","0","0","0","09/25/22 21:10:01","1500","The main experiment item","yes","FlankerTask.osexp","C:/Users/saudm/OneDrive/Desktop","no","mono","no","18","no","white","no","yes","768","legacy","32","32","C:/Users/saudm/OneDrive/Desktop/MK-subject-3.csv","legacy","Lentiform Loewenfeld","3.3.12","0","s","NA","h","NA","NA","s","648","NA","42547","NA","NA","648","2","legacy","1024","2","48000","-16","experiment","HHSHH","3","odd","60896","NA","NA","99658","98624","2048","NA","NA","99760","100408","99656","99760","44595","NA","NA","2042","Flanker Task ","32","18388","33","yes","1024"
"97.0588235294","97.0588235294","554.441176471","554.441176471","black","legacy","legacy","legacy","0","incongruent","uniform","1","undefined","1","s","33","33","0","33","33","0","0","0","33","33","33","33","0","0","0","0","09/25/22 21:10:01","1500","The main experiment item","yes","FlankerTask.osexp","C:/Users/saudm/OneDrive/Desktop","no","mono","no","18","no","white","no","yes","768","legacy","33","33","C:/Users/saudm/OneDrive/Desktop/MK-subject-3.csv","legacy","Lentiform Loewenfeld","3.3.12","0","s","NA","h","NA","NA","s","463","NA","42547","NA","NA","463","2","legacy","1024","2","48000","-16","experiment","HHSHH","3","odd","60896","NA","NA","101456","100421","2048","NA","NA","101558","102022","101454","101558","44595","NA","NA","2042","Flanker Task ","33","18851","34","yes","1024"
"97.1428571429","97.1428571429","551.885714286","551.885714286","black","legacy","legacy","legacy","0","congruent","uniform","1","undefined","1","h","34","34","0","34","34","0","0","0","34","34","34","34","0","0","0","0","09/25/22 21:10:01","1500","The main experiment item","yes","FlankerTask.osexp","C:/Users/saudm/OneDrive/Desktop","no","mono","no","18","no","white","no","yes","768","legacy","34","34","C:/Users/saudm/OneDrive/Desktop/MK-subject-3.csv","legacy","Lentiform Loewenfeld","3.3.12","0","h","NA","h","NA","NA","h","465","NA","42547","NA","NA","465","2","legacy","1024","2","48000","-16","experiment","HHHHH","3","odd","60896","NA","NA","103070","102033","2048","NA","NA","103171","103636","103068","103171","44595","NA","NA","2042","Flanker Task ","34","19316","35","yes","1024"
"97.2222222222","97.2222222222","551.277777778","551.277777778","black","legacy","legacy","legacy","0","incongruent","uniform","1","undefined","1","h","35","35","0","35","35","0","0","0","35","35","35","35","0","0","0","0","09/25/22 21:10:01","1500","The main experiment item","yes","FlankerTask.osexp","C:/Users/saudm/OneDrive/Desktop","no","mono","no","18","no","white","no","yes","768","legacy","35","35","C:/Users/saudm/OneDrive/Desktop/MK-subject-3.csv","legacy","Lentiform Loewenfeld","3.3.12","0","h","NA","h","NA","NA","h","530","NA","42547","NA","NA","530","2","legacy","1024","2","48000","-16","experiment","SSHSS","3","odd","60896","NA","NA","104683","103649","2048","NA","NA","104785","105317","104682","104785","44595","NA","NA","2042","Flanker Task ","35","19846","36","yes","1024"
"97.2972972973","97.2972972973","551.918918919","551.918918919","black","legacy","legacy","legacy","0","incongruent","uniform","1","undefined","1","s","36","36","0","36","36","0","0","0","36","36","36","36","0","0","0","0","09/25/22 21:10:01","1500","The main experiment item","yes","FlankerTask.osexp","C:/Users/saudm/OneDrive/Desktop","no","mono","no","18","no","white","no","yes","768","legacy","36","36","C:/Users/saudm/OneDrive/Desktop/MK-subject-3.csv","legacy","Lentiform Loewenfeld","3.3.12","0","s","NA","h","NA","NA","s","575","NA","42547","NA","NA","575","2","legacy","1024","2","48000","-16","experiment","HHSHH","3","odd","60896","NA","NA","106362","105329","2048","NA","NA","106463","107039","106361","106463","44595","NA","NA","2042","Flanker Task ","36","20421","37","yes","1024"
"97.3684210526","97.3684210526","549.921052632","549.921052632","black","legacy","legacy","legacy","0","incongruent","uniform","1","undefined","1","s","37","37","0","37","37","0","0","0","37","37","37","37","0","0","0","0","09/25/22 21:10:01","1500","The main experiment item","yes","FlankerTask.osexp","C:/Users/saudm/OneDrive/Desktop","no","mono","no","18","no","white","no","yes","768","legacy","37","37","C:/Users/saudm/OneDrive/Desktop/MK-subject-3.csv","legacy","Lentiform Loewenfeld","3.3.12","0","s","NA","h","NA","NA","s","476","NA","42547","NA","NA","476","2","legacy","1024","2","48000","-16","experiment","HHSHH","3","odd","60896","NA","NA","108085","107051","2048","NA","NA","108186","108662","108083","108186","44595","NA","NA","2042","Flanker Task ","37","20897","38","yes","1024"
"97.4358974359","97.4358974359","548.923076923","548.923076923","black","legacy","legacy","legacy","0","congruent","uniform","1","undefined","1","h","38","38","0","38","38","0","0","0","38","38","38","38","0","0","0","0","09/25/22 21:10:01","1500","The main experiment item","yes","FlankerTask.osexp","C:/Users/saudm/OneDrive/Desktop","no","mono","no","18","no","white","no","yes","768","legacy","38","38","C:/Users/saudm/OneDrive/Desktop/MK-subject-3.csv","legacy","Lentiform Loewenfeld","3.3.12","0","h","NA","h","NA","NA","h","511","NA","42547","NA","NA","511","2","legacy","1024","2","48000","-16","experiment","HHHHH","3","odd","60896","NA","NA","109703","108665","2048","NA","NA","109805","110317","109701","109805","44595","NA","NA","2042","Flanker Task ","38","21408","39","yes","1024"
"97.5","97.5","547.6","547.6","black","legacy","legacy","legacy","0","congruent","uniform","1","undefined","1","h","39","39","0","39","39","0","0","0","39","39","39","39","0","0","0","0","09/25/22 21:10:01","1500","The main experiment item","yes","FlankerTask.osexp","C:/Users/saudm/OneDrive/Desktop","no","mono","no","18","no","white","no","yes","768","legacy","39","39","C:/Users/saudm/OneDrive/Desktop/MK-subject-3.csv","legacy","Lentiform Loewenfeld","3.3.12","0","h","NA","h","NA","NA","h","496","NA","42547","NA","NA","496","2","legacy","1024","2","48000","-16","experiment","HHHHH","3","odd","60896","NA","NA","111361","110329","2048","NA","NA","111463","111959","111359","111463","44595","NA","NA","2042","Flanker Task ","39","21904","40","yes","1024"
"97.5609756098","97.5609756098","547.292682927","547.292682927","black","legacy","legacy","legacy","0","incongruent","uniform","1","undefined","1","s","40","40","0","40","40","0","0","0","40","40","40","40","0","0","0","0","09/25/22 21:10:01","1500","The main experiment item","yes","FlankerTask.osexp","C:/Users/saudm/OneDrive/Desktop","no","mono","no","18","no","white","no","yes","768","legacy","40","40","C:/Users/saudm/OneDrive/Desktop/MK-subject-3.csv","legacy","Lentiform Loewenfeld","3.3.12","0","s","NA","h","NA","NA","s","535","NA","42547","NA","NA","535","2","legacy","1024","2","48000","-16","experiment","HHSHH","3","odd","60896","NA","NA","113005","111971","2048","NA","NA","113107","113642","113003","113107","44595","NA","NA","2042","Flanker Task ","40","22439","41","yes","1024"
"97.619047619","97.619047619","546.428571429","546.428571429","black","legacy","legacy","legacy","0","congruent","uniform","1","undefined","1","s","41","41","0","41","41","0","0","0","41","41","41","41","0","0","0","0","09/25/22 21:10:01","1500","The main experiment item","yes","FlankerTask.osexp","C:/Users/saudm/OneDrive/Desktop","no","mono","no","18","no","white","no","yes","768","legacy","41","41","C:/Users/saudm/OneDrive/Desktop/MK-subject-3.csv","legacy","Lentiform Loewenfeld","3.3.12","0","s","NA","h","NA","NA","s","511","NA","42547","NA","NA","511","2","legacy","1024","2","48000","-16","experiment","SSSSS","3","odd","60896","NA","NA","114689","113654","2048","NA","NA","114791","115302","114687","114791","44595","NA","NA","2042","Flanker Task ","41","22950","42","yes","1024"
"97.6744186047","97.6744186047","547.465116279","547.465116279","black","legacy","legacy","legacy","0","incongruent","uniform","1","undefined","1","s","42","42","0","42","42","0","0","0","42","42","42","42","0","0","0","0","09/25/22 21:10:01","1500","The main experiment item","yes","FlankerTask.osexp","C:/Users/saudm/OneDrive/Desktop","no","mono","no","18","no","white","no","yes","768","legacy","42","42","C:/Users/saudm/OneDrive/Desktop/MK-subject-3.csv","legacy","Lentiform Loewenfeld","3.3.12","0","s","NA","h","NA","NA","s","591","NA","42547","NA","NA","591","2","legacy","1024","2","48000","-16","experiment","HHSHH","3","odd","60896","NA","NA","116348","115314","2048","NA","NA","116449","117041","116346","116449","44595","NA","NA","2042","Flanker Task ","42","23541","43","yes","1024"
"97.7272727273","97.7272727273","545.772727273","545.772727273","black","legacy","legacy","legacy","0","congruent","uniform","1","undefined","1","h","43","43","0","43","43","0","0","0","43","43","43","43","0","0","0","0","09/25/22 21:10:01","1500","The main experiment item","yes","FlankerTask.osexp","C:/Users/saudm/OneDrive/Desktop","no","mono","no","18","no","white","no","yes","768","legacy","43","43","C:/Users/saudm/OneDrive/Desktop/MK-subject-3.csv","legacy","Lentiform Loewenfeld","3.3.12","0","h","NA","h","NA","NA","h","473","NA","42547","NA","NA","473","2","legacy","1024","2","48000","-16","experiment","HHHHH","3","odd","60896","NA","NA","118087","117053","2048","NA","NA","118189","118663","118086","118189","44595","NA","NA","2042","Flanker Task ","43","24014","44","yes","1024"
"97.7777777778","97.7777777778","544.888888889","544.888888889","black","legacy","legacy","legacy","0","incongruent","uniform","1","undefined","1","s","44","44","0","44","44","0","0","0","44","44","44","44","0","0","0","0","09/25/22 21:10:01","1500","The main experiment item","yes","FlankerTask.osexp","C:/Users/saudm/OneDrive/Desktop","no","mono","no","18","no","white","no","yes","768","legacy","44","44","C:/Users/saudm/OneDrive/Desktop/MK-subject-3.csv","legacy","Lentiform Loewenfeld","3.3.12","0","s","NA","h","NA","NA","s","506","NA","42547","NA","NA","506","2","legacy","1024","2","48000","-16","experiment","HHSHH","3","odd","60896","NA","NA","119698","118665","2048","NA","NA","119800","120306","119697","119800","44595","NA","NA","2042","Flanker Task ","44","24520","45","yes","1024"
"97.8260869565","97.8260869565","544.152173913","544.152173913","black","legacy","legacy","legacy","0","incongruent","uniform","1","undefined","1","h","45","45","0","45","45","0","0","0","45","45","45","45","0","0","0","0","09/25/22 21:10:01","1500","The main experiment item","yes","FlankerTask.osexp","C:/Users/saudm/OneDrive/Desktop","no","mono","no","18","no","white","no","yes","768","legacy","45","45","C:/Users/saudm/OneDrive/Desktop/MK-subject-3.csv","legacy","Lentiform Loewenfeld","3.3.12","0","h","NA","h","NA","NA","h","511","NA","42547","NA","NA","511","2","legacy","1024","2","48000","-16","experiment","SSHSS","3","odd","60896","NA","NA","121350","120318","2048","NA","NA","121452","121963","121349","121452","44595","NA","NA","2042","Flanker Task ","45","25031","46","yes","1024"
"97.8723404255","97.8723404255","544.063829787","544.063829787","black","legacy","legacy","legacy","0","incongruent","uniform","1","undefined","1","h","46","46","0","46","46","0","0","0","46","46","46","46","0","0","0","0","09/25/22 21:10:01","1500","The main experiment item","yes","FlankerTask.osexp","C:/Users/saudm/OneDrive/Desktop","no","mono","no","18","no","white","no","yes","768","legacy","46","46","C:/Users/saudm/OneDrive/Desktop/MK-subject-3.csv","legacy","Lentiform Loewenfeld","3.3.12","0","h","NA","h","NA","NA","h","540","NA","42547","NA","NA","540","2","legacy","1024","2","48000","-16","experiment","SSHSS","3","odd","60896","NA","NA","123012","121975","2048","NA","NA","123114","123655","123010","123114","44595","NA","NA","2042","Flanker Task ","46","25571","47","yes","1024"
"97.9166666667","97.9166666667","543.854166667","543.854166667","black","legacy","legacy","legacy","0","congruent","uniform","1","undefined","1","h","47","47","0","47","47","0","0","0","47","47","47","47","0","0","0","0","09/25/22 21:10:01","1500","The main experiment item","yes","FlankerTask.osexp","C:/Users/saudm/OneDrive/Desktop","no","mono","no","18","no","white","no","yes","768","legacy","47","47","C:/Users/saudm/OneDrive/Desktop/MK-subject-3.csv","legacy","Lentiform Loewenfeld","3.3.12","0","h","NA","h","NA","NA","h","534","NA","42547","NA","NA","534","2","legacy","1024","2","48000","-16","experiment","HHHHH","3","odd","60896","NA","NA","124691","123657","2048","NA","NA","124792","125326","124689","124791","44595","NA","NA","2042","Flanker Task ","47","26105","48","yes","1024"
"97.9591836735","97.9591836735","543.306122449","543.306122449","black","legacy","legacy","legacy","0","incongruent","uniform","1","undefined","1","s","48","48","0","48","48","0","0","0","48","48","48","48","0","0","0","0","09/25/22 21:10:01","1500","The main experiment item","yes","FlankerTask.osexp","C:/Users/saudm/OneDrive/Desktop","no","mono","no","18","no","white","no","yes","768","legacy","48","48","C:/Users/saudm/OneDrive/Desktop/MK-subject-3.csv","legacy","Lentiform Loewenfeld","3.3.12","0","s","NA","h","NA","NA","s","517","NA","42547","NA","NA","517","2","legacy","1024","2","48000","-16","experiment","HHSHH","3","odd","60896","NA","NA","126371","125338","2048","NA","NA","126474","126991","126370","126473","44595","NA","NA","2042","Flanker Task ","48","26622","49","yes","1024"
"98","98","543.04","543.04","black","legacy","legacy","legacy","0","incongruent","uniform","1","undefined","1","h","49","49","0","49","49","0","0","0","49","49","49","49","0","0","0","0","09/25/22 21:10:01","1500","The main experiment item","yes","FlankerTask.osexp","C:/Users/saudm/OneDrive/Desktop","no","mono","no","18","no","white","no","yes","768","legacy","49","49","C:/Users/saudm/OneDrive/Desktop/MK-subject-3.csv","legacy","Lentiform Loewenfeld","3.3.12","0","h","NA","h","NA","NA","h","530","NA","42547","NA","NA","530","2","legacy","1024","2","48000","-16","experiment","SSHSS","3","odd","60896","NA","NA","128027","126994","2048","NA","NA","128128","128659","128025","128128","44595","NA","NA","2042","Flanker Task ","49","27152","50","yes","1024"
"98.0392156863","98.0392156863","542.137254902","542.137254902","black","legacy","legacy","legacy","0","congruent","uniform","1","undefined","1","h","50","50","0","50","50","0","0","0","50","50","50","50","0","0","0","0","09/25/22 21:10:01","1500","The main experiment item","yes","FlankerTask.osexp","C:/Users/saudm/OneDrive/Desktop","no","mono","no","18","no","white","no","yes","768","legacy","50","50","C:/Users/saudm/OneDrive/Desktop/MK-subject-3.csv","legacy","Lentiform Loewenfeld","3.3.12","0","h","NA","h","NA","NA","h","497","NA","42547","NA","NA","497","2","legacy","1024","2","48000","-16","experiment","HHHHH","3","odd","60896","NA","NA","129705","128671","2048","NA","NA","129807","130305","129703","129806","44595","NA","NA","2042","Flanker Task ","50","27649","51","yes","1024"
"98.0769230769","98.0769230769","541.076923077","541.076923077","black","legacy","legacy","legacy","0","incongruent","uniform","1","undefined","1","s","51","51","0","51","51","0","0","0","51","51","51","51","0","0","0","0","09/25/22 21:10:01","1500","The main experiment item","yes","FlankerTask.osexp","C:/Users/saudm/OneDrive/Desktop","no","mono","no","18","no","white","no","yes","768","legacy","51","51","C:/Users/saudm/OneDrive/Desktop/MK-subject-3.csv","legacy","Lentiform Loewenfeld","3.3.12","0","s","NA","h","NA","NA","s","487","NA","42547","NA","NA","487","2","legacy","1024","2","48000","-16","experiment","HHSHH","3","odd","60896","NA","NA","131349","130317","2048","NA","NA","131451","131938","131348","131451","44595","NA","NA","2042","Flanker Task ","51","28136","52","yes","1024"
"98.1132075472","98.1132075472","540.433962264","540.433962264","black","legacy","legacy","legacy","0","incongruent","uniform","1","undefined","1","s","52","52","0","52","52","0","0","0","52","52","52","52","0","0","0","0","09/25/22 21:10:01","1500","The main experiment item","yes","FlankerTask.osexp","C:/Users/saudm/OneDrive/Desktop","no","mono","no","18","no","white","no","yes","768","legacy","52","52","C:/Users/saudm/OneDrive/Desktop/MK-subject-3.csv","legacy","Lentiform Loewenfeld","3.3.12","0","s","NA","h","NA","NA","s","507","NA","42547","NA","NA","507","2","legacy","1024","2","48000","-16","experiment","HHSHH","3","odd","60896","NA","NA","132985","131950","2048","NA","NA","133087","133595","132983","133087","44595","NA","NA","2042","Flanker Task ","52","28643","53","yes","1024"
"98.1481481481","98.1481481481","538.981481481","538.981481481","black","legacy","legacy","legacy","0","incongruent","uniform","1","undefined","1","h","53","53","0","53","53","0","0","0","53","53","53","53","0","0","0","0","09/25/22 21:10:01","1500","The main experiment item","yes","FlankerTask.osexp","C:/Users/saudm/OneDrive/Desktop","no","mono","no","18","no","white","no","yes","768","legacy","53","53","C:/Users/saudm/OneDrive/Desktop/MK-subject-3.csv","legacy","Lentiform Loewenfeld","3.3.12","0","h","NA","h","NA","NA","h","462","NA","42547","NA","NA","462","2","legacy","1024","2","48000","-16","experiment","SSHSS","3","odd","60896","NA","NA","134643","133607","2048","NA","NA","134744","135207","134640","134744","44595","NA","NA","2042","Flanker Task ","53","29105","54","yes","1024"
"98.1818181818","98.1818181818","538.018181818","538.018181818","black","legacy","legacy","legacy","0","incongruent","uniform","1","undefined","1","h","54","54","0","54","54","0","0","0","54","54","54","54","0","0","0","0","09/25/22 21:10:01","1500","The main experiment item","yes","FlankerTask.osexp","C:/Users/saudm/OneDrive/Desktop","no","mono","no","18","no","white","no","yes","768","legacy","54","54","C:/Users/saudm/OneDrive/Desktop/MK-subject-3.csv","legacy","Lentiform Loewenfeld","3.3.12","0","h","NA","h","NA","NA","h","486","NA","42547","NA","NA","486","2","legacy","1024","2","48000","-16","experiment","SSHSS","3","odd","60896","NA","NA","136242","135209","2048","NA","NA","136344","136830","136241","136344","44595","NA","NA","2042","Flanker Task ","54","29591","55","yes","1024"
"98.2142857143","98.2142857143","539.571428571","539.571428571","black","legacy","legacy","legacy","0","incongruent","uniform","1","undefined","1","h","55","55","0","55","55","0","0","0","55","55","55","55","0","0","0","0","09/25/22 21:10:01","1500","The main experiment item","yes","FlankerTask.osexp","C:/Users/saudm/OneDrive/Desktop","no","mono","no","18","no","white","no","yes","768","legacy","55","55","C:/Users/saudm/OneDrive/Desktop/MK-subject-3.csv","legacy","Lentiform Loewenfeld","3.3.12","0","h","NA","h","NA","NA","h","625","NA","42547","NA","NA","625","2","legacy","1024","2","48000","-16","experiment","SSHSS","3","odd","60896","NA","NA","137864","136832","2048","NA","NA","137965","138590","137863","137965","44595","NA","NA","2042","Flanker Task ","55","30216","56","yes","1024"
"96.4912280702","96.4912280702","537.736842105","537.736842105","black","legacy","legacy","legacy","0","incongruent","uniform","0","undefined","0","h","56","56","0","56","56","0","0","0","56","56","56","56","0","0","0","0","09/25/22 21:10:01","1500","The main experiment item","yes","FlankerTask.osexp","C:/Users/saudm/OneDrive/Desktop","no","mono","no","18","no","white","no","yes","768","legacy","56","56","C:/Users/saudm/OneDrive/Desktop/MK-subject-3.csv","legacy","Lentiform Loewenfeld","3.3.12","0","s","NA","h","NA","NA","s","435","NA","42547","NA","NA","435","2","legacy","1024","2","48000","-16","experiment","SSHSS","3","odd","60896","NA","NA","139626","138593","2048","NA","NA","139729","140165","139625","139729","44595","NA","NA","2042","Flanker Task ","55","30651","57","yes","1024"
"96.5517241379","96.5517241379","536.637931034","536.637931034","black","legacy","legacy","legacy","0","congruent","uniform","1","undefined","1","h","57","57","0","57","57","0","0","0","57","57","57","57","0","0","0","0","09/25/22 21:10:01","1500","The main experiment item","yes","FlankerTask.osexp","C:/Users/saudm/OneDrive/Desktop","no","mono","no","18","no","white","no","yes","768","legacy","57","57","C:/Users/saudm/OneDrive/Desktop/MK-subject-3.csv","legacy","Lentiform Loewenfeld","3.3.12","0","h","NA","h","NA","NA","h","474","NA","42547","NA","NA","474","2","legacy","1024","2","48000","-16","experiment","HHHHH","3","odd","140167","NA","NA","141700","140668","2048","NA","NA","141802","142276","141697","141802","44595","NA","NA","2042","Flanker Task ","56","31125","58","yes","1024"
"96.6101694915","96.6101694915","535.881355932","535.881355932","black","legacy","legacy","legacy","0","incongruent","uniform","1","undefined","1","s","58","58","0","58","58","0","0","0","58","58","58","58","0","0","0","0","09/25/22 21:10:01","1500","The main experiment item","yes","FlankerTask.osexp","C:/Users/saudm/OneDrive/Desktop","no","mono","no","18","no","white","no","yes","768","legacy","58","58","C:/Users/saudm/OneDrive/Desktop/MK-subject-3.csv","legacy","Lentiform Loewenfeld","3.3.12","0","s","NA","h","NA","NA","s","492","NA","42547","NA","NA","492","2","legacy","1024","2","48000","-16","experiment","HHSHH","3","odd","140167","NA","NA","143346","142288","2048","NA","NA","143447","143939","143344","143447","44595","NA","NA","2042","Flanker Task ","57","31617","59","yes","1024"
"96.6666666667","96.6666666667","534.95","534.95","black","legacy","legacy","legacy","0","congruent","uniform","1","undefined","1","s","59","59","0","59","59","0","0","0","59","59","59","59","0","0","0","0","09/25/22 21:10:01","1500","The main experiment item","yes","FlankerTask.osexp","C:/Users/saudm/OneDrive/Desktop","no","mono","no","18","no","white","no","yes","768","legacy","59","59","C:/Users/saudm/OneDrive/Desktop/MK-subject-3.csv","legacy","Lentiform Loewenfeld","3.3.12","0","s","NA","h","NA","NA","s","480","NA","42547","NA","NA","480","2","legacy","1024","2","48000","-16","experiment","SSSSS","3","odd","140167","NA","NA","144986","143951","2048","NA","NA","145087","145569","144984","145087","44595","NA","NA","2042","Flanker Task ","58","32097","60","yes","1024"
"96.7213114754","96.7213114754","534.508196721","534.508196721","black","legacy","legacy","legacy","0","congruent","uniform","1","undefined","1","h","60","60","0","60","60","0","0","0","60","60","60","60","0","0","0","0","09/25/22 21:10:01","1500","The main experiment item","yes","FlankerTask.osexp","C:/Users/saudm/OneDrive/Desktop","no","mono","no","18","no","white","no","yes","768","legacy","60","60","C:/Users/saudm/OneDrive/Desktop/MK-subject-3.csv","legacy","Lentiform Loewenfeld","3.3.12","0","h","NA","h","NA","NA","h","508","NA","42547","NA","NA","508","2","legacy","1024","2","48000","-16","experiment","HHHHH","3","odd","140167","NA","NA","146624","145581","2048","NA","NA","146726","147234","146622","146726","44595","NA","NA","2042","Flanker Task ","59","32605","61","yes","1024"
"96.7741935484","96.7741935484","532.790322581","532.790322581","black","legacy","legacy","legacy","0","congruent","uniform","1","undefined","1","h","61","61","0","61","61","0","0","0","61","61","61","61","0","0","0","0","09/25/22 21:10:01","1500","The main experiment item","yes","FlankerTask.osexp","C:/Users/saudm/OneDrive/Desktop","no","mono","no","18","no","white","no","yes","768","legacy","61","61","C:/Users/saudm/OneDrive/Desktop/MK-subject-3.csv","legacy","Lentiform Loewenfeld","3.3.12","0","h","NA","h","NA","NA","h","428","NA","42547","NA","NA","428","2","legacy","1024","2","48000","-16","experiment","HHHHH","3","odd","140167","NA","NA","148283","147247","2048","NA","NA","148383","148812","148281","148383","44595","NA","NA","2042","Flanker Task ","60","33033","62","yes","1024"
"96.8253968254","96.8253968254","533.777777778","533.777777778","black","legacy","legacy","legacy","0","congruent","uniform","1","undefined","1","h","62","62","0","62","62","0","0","0","62","62","62","62","0","0","0","0","09/25/22 21:10:01","1500","The main experiment item","yes","FlankerTask.osexp","C:/Users/saudm/OneDrive/Desktop","no","mono","no","18","no","white","no","yes","768","legacy","62","62","C:/Users/saudm/OneDrive/Desktop/MK-subject-3.csv","legacy","Lentiform Loewenfeld","3.3.12","0","h","NA","h","NA","NA","h","595","NA","42547","NA","NA","595","2","legacy","1024","2","48000","-16","experiment","HHHHH","3","odd","140167","NA","NA","149861","148824","2048","NA","NA","149963","150558","149859","149963","44595","NA","NA","2042","Flanker Task ","61","33628","63","yes","1024"
"96.875","96.875","532.46875","532.46875","black","legacy","legacy","legacy","0","congruent","uniform","1","undefined","1","h","63","63","0","63","63","0","0","0","63","63","63","63","0","0","0","0","09/25/22 21:10:01","1500","The main experiment item","yes","FlankerTask.osexp","C:/Users/saudm/OneDrive/Desktop","no","mono","no","18","no","white","no","yes","768","legacy","63","63","C:/Users/saudm/OneDrive/Desktop/MK-subject-3.csv","legacy","Lentiform Loewenfeld","3.3.12","0","h","NA","h","NA","NA","h","450","NA","42547","NA","NA","450","2","legacy","1024","2","48000","-16","experiment","HHHHH","3","odd","140167","NA","NA","151606","150570","2048","NA","NA","151708","152159","151604","151708","44595","NA","NA","2042","Flanker Task ","62","34078","64","yes","1024"
"96.9230769231","96.9230769231","532.446153846","532.446153846","black","legacy","legacy","legacy","0","incongruent","uniform","1","undefined","1","h","64","64","0","64","64","0","0","0","64","64","64","64","0","0","0","0","09/25/22 21:10:01","1500","The main experiment item","yes","FlankerTask.osexp","C:/Users/saudm/OneDrive/Desktop","no","mono","no","18","no","white","no","yes","768","legacy","64","64","C:/Users/saudm/OneDrive/Desktop/MK-subject-3.csv","legacy","Lentiform Loewenfeld","3.3.12","0","h","NA","h","NA","NA","h","531","NA","42547","NA","NA","531","2","legacy","1024","2","48000","-16","experiment","SSHSS","3","odd","140167","NA","NA","153216","152172","2048","NA","NA","153319","153850","153213","153319","44595","NA","NA","2042","Flanker Task ","63","34609","65","yes","1024"
"96.9696969697","96.9696969697","533.151515152","533.151515152","black","legacy","legacy","legacy","0","incongruent","uniform","1","undefined","1","s","65","65","0","65","65","0","0","0","65","65","65","65","0","0","0","0","09/25/22 21:10:01","1500","The main experiment item","yes","FlankerTask.osexp","C:/Users/saudm/OneDrive/Desktop","no","mono","no","18","no","white","no","yes","768","legacy","65","65","C:/Users/saudm/OneDrive/Desktop/MK-subject-3.csv","legacy","Lentiform Loewenfeld","3.3.12","0","s","NA","h","NA","NA","s","579","NA","42547","NA","NA","579","2","legacy","1024","2","48000","-16","experiment","HHSHH","3","odd","140167","NA","NA","154899","153863","2048","NA","NA","155000","155579","154897","155000","44595","NA","NA","2042","Flanker Task ","64","35188","66","yes","1024"
"97.0149253731","97.0149253731","534","534","black","legacy","legacy","legacy","0","incongruent","uniform","1","undefined","1","s","66","66","0","66","66","0","0","0","66","66","66","66","0","0","0","0","09/25/22 21:10:01","1500","The main experiment item","yes","FlankerTask.osexp","C:/Users/saudm/OneDrive/Desktop","no","mono","no","18","no","white","no","yes","768","legacy","66","66","C:/Users/saudm/OneDrive/Desktop/MK-subject-3.csv","legacy","Lentiform Loewenfeld","3.3.12","0","s","NA","h","NA","NA","s","590","NA","42547","NA","NA","590","2","legacy","1024","2","48000","-16","experiment","HHSHH","3","odd","140167","NA","NA","156624","155591","2048","NA","NA","156726","157317","156624","156726","44595","NA","NA","2042","Flanker Task ","65","35778","67","yes","1024"
"97.0588235294","97.0588235294","533.5","533.5","black","legacy","legacy","legacy","0","incongruent","uniform","1","undefined","1","h","67","67","0","67","67","0","0","0","67","67","67","67","0","0","0","0","09/25/22 21:10:01","1500","The main experiment item","yes","FlankerTask.osexp","C:/Users/saudm/OneDrive/Desktop","no","mono","no","18","no","white","no","yes","768","legacy","67","67","C:/Users/saudm/OneDrive/Desktop/MK-subject-3.csv","legacy","Lentiform Loewenfeld","3.3.12","0","h","NA","h","NA","NA","h","500","NA","42547","NA","NA","500","2","legacy","1024","2","48000","-16","experiment","SSHSS","3","odd","140167","NA","NA","158363","157329","2048","NA","NA","158465","158966","158361","158464","44595","NA","NA","2042","Flanker Task ","66","36278","68","yes","1024"
"97.1014492754","97.1014492754","533.47826087","533.47826087","black","legacy","legacy","legacy","0","congruent","uniform","1","undefined","1","s","68","68","0","68","68","0","0","0","68","68","68","68","0","0","0","0","09/25/22 21:10:01","1500","The main experiment item","yes","FlankerTask.osexp","C:/Users/saudm/OneDrive/Desktop","no","mono","no","18","no","white","no","yes","768","legacy","68","68","C:/Users/saudm/OneDrive/Desktop/MK-subject-3.csv","legacy","Lentiform Loewenfeld","3.3.12","0","s","NA","h","NA","NA","s","532","NA","42547","NA","NA","532","2","legacy","1024","2","48000","-16","experiment","SSSSS","3","odd","140167","NA","NA","160016","158978","2048","NA","NA","160118","160651","160013","160118","44595","NA","NA","2042","Flanker Task ","67","36810","69","yes","1024"
"97.1428571429","97.1428571429","534.671428571","534.671428571","black","legacy","legacy","legacy","0","congruent","uniform","1","undefined","1","s","69","69","0","69","69","0","0","0","69","69","69","69","0","0","0","0","09/25/22 21:10:01","1500","The main experiment item","yes","FlankerTask.osexp","C:/Users/saudm/OneDrive/Desktop","no","mono","no","18","no","white","no","yes","768","legacy","69","69","C:/Users/saudm/OneDrive/Desktop/MK-subject-3.csv","legacy","Lentiform Loewenfeld","3.3.12","0","s","NA","h","NA","NA","s","617","NA","42547","NA","NA","617","2","legacy","1024","2","48000","-16","experiment","SSSSS","3","odd","140167","NA","NA","161696","160663","2048","NA","NA","161797","162416","161694","161797","44595","NA","NA","2042","Flanker Task ","68","37427","70","yes","1024"
"97.1830985915","97.1830985915","533.788732394","533.788732394","black","legacy","legacy","legacy","0","congruent","uniform","1","undefined","1","h","70","70","0","70","70","0","0","0","70","70","70","70","0","0","0","0","09/25/22 21:10:01","1500","The main experiment item","yes","FlankerTask.osexp","C:/Users/saudm/OneDrive/Desktop","no","mono","no","18","no","white","no","yes","768","legacy","70","70","C:/Users/saudm/OneDrive/Desktop/MK-subject-3.csv","legacy","Lentiform Loewenfeld","3.3.12","0","h","NA","h","NA","NA","h","472","NA","42547","NA","NA","472","2","legacy","1024","2","48000","-16","experiment","HHHHH","3","odd","140167","NA","NA","163462","162428","2048","NA","NA","163563","164036","163461","163563","44595","NA","NA","2042","Flanker Task ","69","37899","71","yes","1024"
"97.2222222222","97.2222222222","535.208333333","535.208333333","black","legacy","legacy","legacy","0","congruent","uniform","1","undefined","1","s","71","71","0","71","71","0","0","0","71","71","71","71","0","0","0","0","09/25/22 21:10:01","1500","The main experiment item","yes","FlankerTask.osexp","C:/Users/saudm/OneDrive/Desktop","no","mono","no","18","no","white","no","yes","768","legacy","71","71","C:/Users/saudm/OneDrive/Desktop/MK-subject-3.csv","legacy","Lentiform Loewenfeld","3.3.12","0","s","NA","h","NA","NA","s","636","NA","42547","NA","NA","636","2","legacy","1024","2","48000","-16","experiment","SSSSS","3","odd","140167","NA","NA","165079","164048","2048","NA","NA","165182","165818","165078","165181","44595","NA","NA","2042","Flanker Task ","70","38535","72","yes","1024"
"97.2602739726","97.2602739726","535.273972603","535.273972603","black","legacy","legacy","legacy","0","incongruent","uniform","1","undefined","1","h","72","72","0","72","72","0","0","0","72","72","72","72","0","0","0","0","09/25/22 21:10:01","1500","The main experiment item","yes","FlankerTask.osexp","C:/Users/saudm/OneDrive/Desktop","no","mono","no","18","no","white","no","yes","768","legacy","72","72","C:/Users/saudm/OneDrive/Desktop/MK-subject-3.csv","legacy","Lentiform Loewenfeld","3.3.12","0","h","NA","h","NA","NA","h","540","NA","42547","NA","NA","540","2","legacy","1024","2","48000","-16","experiment","SSHSS","3","odd","140167","NA","NA","166866","165830","2048","NA","NA","166967","167508","166864","166967","44595","NA","NA","2042","Flanker Task ","71","39075","73","yes","1024"
"97.2972972973","97.2972972973","535.864864865","535.864864865","black","legacy","legacy","legacy","0","congruent","uniform","1","undefined","1","s","73","73","0","73","73","0","0","0","73","73","73","73","0","0","0","0","09/25/22 21:10:01","1500","The main experiment item","yes","FlankerTask.osexp","C:/Users/saudm/OneDrive/Desktop","no","mono","no","18","no","white","no","yes","768","legacy","73","73","C:/Users/saudm/OneDrive/Desktop/MK-subject-3.csv","legacy","Lentiform Loewenfeld","3.3.12","0","s","NA","h","NA","NA","s","579","NA","42547","NA","NA","579","2","legacy","1024","2","48000","-16","experiment","SSSSS","3","odd","140167","NA","NA","168553","167520","2048","NA","NA","168654","169234","168551","168654","44595","NA","NA","2042","Flanker Task ","72","39654","74","yes","1024"
"97.3333333333","97.3333333333","537.786666667","537.786666667","black","legacy","legacy","legacy","0","incongruent","uniform","1","undefined","1","s","74","74","0","74","74","0","0","0","74","74","74","74","0","0","0","0","09/25/22 21:10:01","1500","The main experiment item","yes","FlankerTask.osexp","C:/Users/saudm/OneDrive/Desktop","no","mono","no","18","no","white","no","yes","768","legacy","74","74","C:/Users/saudm/OneDrive/Desktop/MK-subject-3.csv","legacy","Lentiform Loewenfeld","3.3.12","0","s","NA","h","NA","NA","s","680","NA","42547","NA","NA","680","2","legacy","1024","2","48000","-16","experiment","HHSHH","3","odd","140167","NA","NA","170279","169246","2048","NA","NA","170381","171062","170277","170381","44595","NA","NA","2042","Flanker Task ","73","40334","75","yes","1024"
"97.3684210526","97.3684210526","537.565789474","537.565789474","black","legacy","legacy","legacy","0","incongruent","uniform","1","undefined","1","h","75","75","0","75","75","0","0","0","75","75","75","75","0","0","0","0","09/25/22 21:10:01","1500","The main experiment item","yes","FlankerTask.osexp","C:/Users/saudm/OneDrive/Desktop","no","mono","no","18","no","white","no","yes","768","legacy","75","75","C:/Users/saudm/OneDrive/Desktop/MK-subject-3.csv","legacy","Lentiform Loewenfeld","3.3.12","0","h","NA","h","NA","NA","h","521","NA","42547","NA","NA","521","2","legacy","1024","2","48000","-16","experiment","SSHSS","3","odd","140167","NA","NA","172110","171074","2048","NA","NA","172212","172733","172109","172212","44595","NA","NA","2042","Flanker Task ","74","40855","76","yes","1024"
"97.4025974026","97.4025974026","537.103896104","537.103896104","black","legacy","legacy","legacy","0","incongruent","uniform","1","undefined","1","h","76","76","0","76","76","0","0","0","76","76","76","76","0","0","0","0","09/25/22 21:10:01","1500","The main experiment item","yes","FlankerTask.osexp","C:/Users/saudm/OneDrive/Desktop","no","mono","no","18","no","white","no","yes","768","legacy","76","76","C:/Users/saudm/OneDrive/Desktop/MK-subject-3.csv","legacy","Lentiform Loewenfeld","3.3.12","0","h","NA","h","NA","NA","h","502","NA","42547","NA","NA","502","2","legacy","1024","2","48000","-16","experiment","SSHSS","3","odd","140167","NA","NA","173769","172736","2048","NA","NA","173871","174373","173768","173871","44595","NA","NA","2042","Flanker Task ","75","41357","77","yes","1024"
"97.4358974359","97.4358974359","536.858974359","536.858974359","black","legacy","legacy","legacy","0","incongruent","uniform","1","undefined","1","h","77","77","0","77","77","0","0","0","77","77","77","77","0","0","0","0","09/25/22 21:10:01","1500","The main experiment item","yes","FlankerTask.osexp","C:/Users/saudm/OneDrive/Desktop","no","mono","no","18","no","white","no","yes","768","legacy","77","77","C:/Users/saudm/OneDrive/Desktop/MK-subject-3.csv","legacy","Lentiform Loewenfeld","3.3.12","0","h","NA","h","NA","NA","h","518","NA","42547","NA","NA","518","2","legacy","1024","2","48000","-16","experiment","SSHSS","3","odd","140167","NA","NA","175419","174386","2048","NA","NA","175521","176039","175418","175521","44595","NA","NA","2042","Flanker Task ","76","41875","78","yes","1024"
"97.4683544304","97.4683544304","536.367088608","536.367088608","black","legacy","legacy","legacy","0","congruent","uniform","1","undefined","1","s","78","78","0","78","78","0","0","0","78","78","78","78","0","0","0","0","09/25/22 21:10:01","1500","The main experiment item","yes","FlankerTask.osexp","C:/Users/saudm/OneDrive/Desktop","no","mono","no","18","no","white","no","yes","768","legacy","78","78","C:/Users/saudm/OneDrive/Desktop/MK-subject-3.csv","legacy","Lentiform Loewenfeld","3.3.12","0","s","NA","h","NA","NA","s","498","NA","42547","NA","NA","498","2","legacy","1024","2","48000","-16","experiment","SSSSS","3","odd","140167","NA","NA","177087","176051","2048","NA","NA","177189","177688","177085","177189","44595","NA","NA","2042","Flanker Task ","77","42373","79","yes","1024"
"97.5","97.5","536.3875","536.3875","black","legacy","legacy","legacy","0","incongruent","uniform","1","undefined","1","s","79","79","0","79","79","0","0","0","79","79","79","79","0","0","0","0","09/25/22 21:10:01","1500","The main experiment item","yes","FlankerTask.osexp","C:/Users/saudm/OneDrive/Desktop","no","mono","no","18","no","white","no","yes","768","legacy","79","79","C:/Users/saudm/OneDrive/Desktop/MK-subject-3.csv","legacy","Lentiform Loewenfeld","3.3.12","0","s","NA","h","NA","NA","s","538","NA","42547","NA","NA","538","2","legacy","1024","2","48000","-16","experiment","HHSHH","3","odd","140167","NA","NA","178733","177700","2048","NA","NA","178834","179373","178731","178834","44595","NA","NA","2042","Flanker Task ","78","42911","80","yes","1024"
"97.5308641975","97.5308641975","537.049382716","537.049382716","black","legacy","legacy","legacy","0","incongruent","uniform","1","undefined","1","s","80","80","0","80","80","0","0","0","80","80","80","80","0","0","0","0","09/25/22 21:10:01","600","The main experiment item","yes","FlankerTask.osexp","C:/Users/saudm/OneDrive/Desktop","no","mono","no","18","no","white","no","yes","768","legacy","0","79","C:/Users/saudm/OneDrive/Desktop/MK-subject-3.csv","legacy","Lentiform Loewenfeld","3.3.12","0","s","NA","h","h","NA","s","590","NA","42547","23262","NA","590","2","legacy","1024","2","48000","-16","experiment","HHSHH","3","odd","140167","NA","NA","203690","179385","2048","180392","NA","203792","204382","203689","203792","44595","203654","NA","2042","Flanker Task ","79","43501","81","yes","1024"
"97.5609756098","97.5609756098","536.317073171","536.317073171","black","legacy","legacy","legacy","0","incongruent","uniform","1","undefined","1","h","81","81","0","81","81","0","0","0","81","81","81","81","0","0","0","0","09/25/22 21:10:01","600","The main experiment item","yes","FlankerTask.osexp","C:/Users/saudm/OneDrive/Desktop","no","mono","no","18","no","white","no","yes","768","legacy","1","79","C:/Users/saudm/OneDrive/Desktop/MK-subject-3.csv","legacy","Lentiform Loewenfeld","3.3.12","0","h","NA","h","h","NA","h","477","NA","42547","23262","NA","477","2","legacy","1024","2","48000","-16","experiment","SSHSS","3","odd","140167","NA","NA","205431","204394","2048","180392","NA","205533","206011","205429","205533","44595","203654","NA","2042","Flanker Task ","80","43978","82","yes","1024"
"97.5903614458","97.5903614458","535.746987952","535.746987952","black","legacy","legacy","legacy","0","congruent","uniform","1","undefined","1","h","82","82","0","82","82","0","0","0","82","82","82","82","0","0","0","0","09/25/22 21:10:01","600","The main experiment item","yes","FlankerTask.osexp","C:/Users/saudm/OneDrive/Desktop","no","mono","no","18","no","white","no","yes","768","legacy","2","79","C:/Users/saudm/OneDrive/Desktop/MK-subject-3.csv","legacy","Lentiform Loewenfeld","3.3.12","0","h","NA","h","h","NA","h","489","NA","42547","23262","NA","489","2","legacy","1024","2","48000","-16","experiment","HHHHH","3","odd","140167","NA","NA","207058","206022","2048","180392","NA","207160","207650","207055","207160","44595","203654","NA","2042","Flanker Task ","81","44467","83","yes","1024"
"97.619047619","97.619047619","535.05952381","535.05952381","black","legacy","legacy","legacy","0","congruent","uniform","1","undefined","1","s","83","83","0","83","83","0","0","0","83","83","83","83","0","0","0","0","09/25/22 21:10:01","600","The main experiment item","yes","FlankerTask.osexp","C:/Users/saudm/OneDrive/Desktop","no","mono","no","18","no","white","no","yes","768","legacy","3","79","C:/Users/saudm/OneDrive/Desktop/MK-subject-3.csv","legacy","Lentiform Loewenfeld","3.3.12","0","s","NA","h","h","NA","s","478","NA","42547","23262","NA","478","2","legacy","1024","2","48000","-16","experiment","SSSSS","3","odd","140167","NA","NA","208697","207663","2048","180392","NA","208799","209278","208695","208799","44595","203654","NA","2042","Flanker Task ","82","44945","84","yes","1024"
"96.4705882353","96.4705882353","533.811764706","533.811764706","black","legacy","legacy","legacy","0","incongruent","uniform","0","undefined","0","h","84","84","0","84","84","0","0","0","84","84","84","84","0","0","0","0","09/25/22 21:10:01","600","The main experiment item","yes","FlankerTask.osexp","C:/Users/saudm/OneDrive/Desktop","no","mono","no","18","no","white","no","yes","768","legacy","4","79","C:/Users/saudm/OneDrive/Desktop/MK-subject-3.csv","legacy","Lentiform Loewenfeld","3.3.12","0","s","NA","h","h","NA","s","429","NA","42547","23262","NA","429","2","legacy","1024","2","48000","-16","experiment","SSHSS","3","odd","140167","NA","NA","210328","209289","2048","180392","NA","210430","210860","210326","210430","44595","203654","NA","2042","Flanker Task ","82","45374","85","yes","1024"
"96.511627907","96.511627907","532.895348837","532.895348837","black","legacy","legacy","legacy","0","incongruent","uniform","1","undefined","1","h","85","85","0","85","85","0","0","0","85","85","85","85","0","0","0","0","09/25/22 21:10:01","600","The main experiment item","yes","FlankerTask.osexp","C:/Users/saudm/OneDrive/Desktop","no","mono","no","18","no","white","no","yes","768","legacy","5","79","C:/Users/saudm/OneDrive/Desktop/MK-subject-3.csv","legacy","Lentiform Loewenfeld","3.3.12","0","h","NA","h","h","NA","h","455","NA","42547","23262","NA","455","2","legacy","1024","2","48000","-16","experiment","SSHSS","3","odd","210862","NA","NA","212397","211363","2048","180392","NA","212498","212954","212395","212498","44595","203654","NA","2042","Flanker Task ","83","45829","86","yes","1024"
"96.5517241379","96.5517241379","531.643678161","531.643678161","black","legacy","legacy","legacy","0","congruent","uniform","1","undefined","1","h","86","86","0","86","86","0","0","0","86","86","86","86","0","0","0","0","09/25/22 21:10:01","600","The main experiment item","yes","FlankerTask.osexp","C:/Users/saudm/OneDrive/Desktop","no","mono","no","18","no","white","no","yes","768","legacy","6","79","C:/Users/saudm/OneDrive/Desktop/MK-subject-3.csv","legacy","Lentiform Loewenfeld","3.3.12","0","h","NA","h","h","NA","h","424","NA","42547","23262","NA","424","2","legacy","1024","2","48000","-16","experiment","HHHHH","3","odd","210862","NA","NA","214005","212966","2048","180392","NA","214107","214531","214003","214107","44595","203654","NA","2042","Flanker Task ","84","46253","87","yes","1024"
"96.5909090909","96.5909090909","530.363636364","530.363636364","black","legacy","legacy","legacy","0","congruent","uniform","1","undefined","1","h","87","87","0","87","87","0","0","0","87","87","87","87","0","0","0","0","09/25/22 21:10:01","600","The main experiment item","yes","FlankerTask.osexp","C:/Users/saudm/OneDrive/Desktop","no","mono","no","18","no","white","no","yes","768","legacy","7","79","C:/Users/saudm/OneDrive/Desktop/MK-subject-3.csv","legacy","Lentiform Loewenfeld","3.3.12","0","h","NA","h","h","NA","h","419","NA","42547","23262","NA","419","2","legacy","1024","2","48000","-16","experiment","HHHHH","3","odd","210862","NA","NA","215577","214544","2048","180392","NA","215678","216098","215574","215678","44595","203654","NA","2042","Flanker Task ","85","46672","88","yes","1024"
"96.6292134831","96.6292134831","528.876404494","528.876404494","black","legacy","legacy","legacy","0","congruent","uniform","1","undefined","1","h","88","88","0","88","88","0","0","0","88","88","88","88","0","0","0","0","09/25/22 21:10:01","600","The main experiment item","yes","FlankerTask.osexp","C:/Users/saudm/OneDrive/Desktop","no","mono","no","18","no","white","no","yes","768","legacy","8","79","C:/Users/saudm/OneDrive/Desktop/MK-subject-3.csv","legacy","Lentiform Loewenfeld","3.3.12","0","h","NA","h","h","NA","h","398","NA","42547","23262","NA","398","2","legacy","1024","2","48000","-16","experiment","HHHHH","3","odd","210862","NA","NA","217144","216109","2048","180392","NA","217246","217645","217143","217245","44595","203654","NA","2042","Flanker Task ","86","47070","89","yes","1024"
"96.6666666667","96.6666666667","527.577777778","527.577777778","black","legacy","legacy","legacy","0","congruent","uniform","1","undefined","1","s","89","89","0","89","89","0","0","0","89","89","89","89","0","0","0","0","09/25/22 21:10:01","600","The main experiment item","yes","FlankerTask.osexp","C:/Users/saudm/OneDrive/Desktop","no","mono","no","18","no","white","no","yes","768","legacy","9","79","C:/Users/saudm/OneDrive/Desktop/MK-subject-3.csv","legacy","Lentiform Loewenfeld","3.3.12","0","s","NA","h","h","NA","s","412","NA","42547","23262","NA","412","2","legacy","1024","2","48000","-16","experiment","SSSSS","3","odd","210862","NA","NA","218687","217649","2048","180392","NA","218789","219201","218685","218789","44595","203654","NA","2042","Flanker Task ","87","47482","90","yes","1024"
"96.7032967033","96.7032967033","527.494505495","527.494505495","black","legacy","legacy","legacy","0","incongruent","uniform","1","undefined","1","s","90","90","0","90","90","0","0","0","90","90","90","90","0","0","0","0","09/25/22 21:10:01","600","The main experiment item","yes","FlankerTask.osexp","C:/Users/saudm/OneDrive/Desktop","no","mono","no","18","no","white","no","yes","768","legacy","10","79","C:/Users/saudm/OneDrive/Desktop/MK-subject-3.csv","legacy","Lentiform Loewenfeld","3.3.12","0","s","NA","h","h","NA","s","520","NA","42547","23262","NA","520","2","legacy","1024","2","48000","-16","experiment","HHSHH","3","odd","210862","NA","NA","220245","219213","2048","180392","NA","220346","220867","220244","220346","44595","203654","NA","2042","Flanker Task ","88","48002","91","yes","1024"
"96.7391304348","96.7391304348","526.836956522","526.836956522","black","legacy","legacy","legacy","0","congruent","uniform","1","undefined","1","h","91","91","0","91","91","0","0","0","91","91","91","91","0","0","0","0","09/25/22 21:10:01","600","The main experiment item","yes","FlankerTask.osexp","C:/Users/saudm/OneDrive/Desktop","no","mono","no","18","no","white","no","yes","768","legacy","11","79","C:/Users/saudm/OneDrive/Desktop/MK-subject-3.csv","legacy","Lentiform Loewenfeld","3.3.12","0","h","NA","h","h","NA","h","467","NA","42547","23262","NA","467","2","legacy","1024","2","48000","-16","experiment","HHHHH","3","odd","210862","NA","NA","221914","220879","2048","180392","NA","222016","222484","221912","222016","44595","203654","NA","2042","Flanker Task ","89","48469","92","yes","1024"
"96.7741935484","96.7741935484","525.849462366","525.849462366","black","legacy","legacy","legacy","0","congruent","uniform","1","undefined","1","s","92","92","0","92","92","0","0","0","92","92","92","92","0","0","0","0","09/25/22 21:10:01","600","The main experiment item","yes","FlankerTask.osexp","C:/Users/saudm/OneDrive/Desktop","no","mono","no","18","no","white","no","yes","768","legacy","12","79","C:/Users/saudm/OneDrive/Desktop/MK-subject-3.csv","legacy","Lentiform Loewenfeld","3.3.12","0","s","NA","h","h","NA","s","435","NA","42547","23262","NA","435","2","legacy","1024","2","48000","-16","experiment","SSSSS","3","odd","210862","NA","NA","223529","222496","2048","180392","NA","223631","224068","223528","223631","44595","203654","NA","2042","Flanker Task ","90","48904","93","yes","1024"
"96.8085106383","96.8085106383","526.021276596","526.021276596","black","legacy","legacy","legacy","0","incongruent","uniform","1","undefined","1","s","93","93","0","93","93","0","0","0","93","93","93","93","0","0","0","0","09/25/22 21:10:01","600","The main experiment item","yes","FlankerTask.osexp","C:/Users/saudm/OneDrive/Desktop","no","mono","no","18","no","white","no","yes","768","legacy","13","79","C:/Users/saudm/OneDrive/Desktop/MK-subject-3.csv","legacy","Lentiform Loewenfeld","3.3.12","0","s","NA","h","h","NA","s","542","NA","42547","23262","NA","542","2","legacy","1024","2","48000","-16","experiment","HHSHH","3","odd","210862","NA","NA","225113","224080","2048","180392","NA","225215","225758","225110","225215","44595","203654","NA","2042","Flanker Task ","91","49446","94","yes","1024"
"96.8421052632","96.8421052632","525.631578947","525.631578947","black","legacy","legacy","legacy","0","congruent","uniform","1","undefined","1","s","94","94","0","94","94","0","0","0","94","94","94","94","0","0","0","0","09/25/22 21:10:01","600","The main experiment item","yes","FlankerTask.osexp","C:/Users/saudm/OneDrive/Desktop","no","mono","no","18","no","white","no","yes","768","legacy","14","79","C:/Users/saudm/OneDrive/Desktop/MK-subject-3.csv","legacy","Lentiform Loewenfeld","3.3.12","0","s","NA","h","h","NA","s","489","NA","42547","23262","NA","489","2","legacy","1024","2","48000","-16","experiment","SSSSS","3","odd","210862","NA","NA","226806","225770","2048","180392","NA","226909","227399","226804","226908","44595","203654","NA","2042","Flanker Task ","92","49935","95","yes","1024"
"96.875","96.875","525.25","525.25","black","legacy","legacy","legacy","0","incongruent","uniform","1","undefined","1","h","95","95","0","95","95","0","0","0","95","95","95","95","0","0","0","0","09/25/22 21:10:01","600","The main experiment item","yes","FlankerTask.osexp","C:/Users/saudm/OneDrive/Desktop","no","mono","no","18","no","white","no","yes","768","legacy","15","79","C:/Users/saudm/OneDrive/Desktop/MK-subject-3.csv","legacy","Lentiform Loewenfeld","3.3.12","0","h","NA","h","h","NA","h","489","NA","42547","23262","NA","489","2","legacy","1024","2","48000","-16","experiment","SSHSS","3","odd","210862","NA","NA","228444","227412","2048","180392","NA","228546","229036","228443","228546","44595","203654","NA","2042","Flanker Task ","93","50424","96","yes","1024"
"96.9072164948","96.9072164948","524.072164948","524.072164948","black","legacy","legacy","legacy","0","congruent","uniform","1","undefined","1","h","96","96","0","96","96","0","0","0","96","96","96","96","0","0","0","0","09/25/22 21:10:01","600","The main experiment item","yes","FlankerTask.osexp","C:/Users/saudm/OneDrive/Desktop","no","mono","no","18","no","white","no","yes","768","legacy","16","79","C:/Users/saudm/OneDrive/Desktop/MK-subject-3.csv","legacy","Lentiform Loewenfeld","3.3.12","0","h","NA","h","h","NA","h","411","NA","42547","23262","NA","411","2","legacy","1024","2","48000","-16","experiment","HHHHH","3","odd","210862","NA","NA","230082","229048","2048","180392","NA","230183","230594","230078","230183","44595","203654","NA","2042","Flanker Task ","94","50835","97","yes","1024"
"96.9387755102","96.9387755102","524.102040816","524.102040816","black","legacy","legacy","legacy","0","congruent","uniform","1","undefined","1","s","97","97","0","97","97","0","0","0","97","97","97","97","0","0","0","0","09/25/22 21:10:01","600","The main experiment item","yes","FlankerTask.osexp","C:/Users/saudm/OneDrive/Desktop","no","mono","no","18","no","white","no","yes","768","legacy","17","79","C:/Users/saudm/OneDrive/Desktop/MK-subject-3.csv","legacy","Lentiform Loewenfeld","3.3.12","0","s","NA","h","h","NA","s","527","NA","42547","23262","NA","527","2","legacy","1024","2","48000","-16","experiment","SSSSS","3","odd","210862","NA","NA","231640","230606","2048","180392","NA","231740","232268","231638","231740","44595","203654","NA","2042","Flanker Task ","95","51362","98","yes","1024"
"96.9696969697","96.9696969697","522.949494949","522.949494949","black","legacy","legacy","legacy","0","congruent","uniform","1","undefined","1","s","98","98","0","98","98","0","0","0","98","98","98","98","0","0","0","0","09/25/22 21:10:01","600","The main experiment item","yes","FlankerTask.osexp","C:/Users/saudm/OneDrive/Desktop","no","mono","no","18","no","white","no","yes","768","legacy","18","79","C:/Users/saudm/OneDrive/Desktop/MK-subject-3.csv","legacy","Lentiform Loewenfeld","3.3.12","0","s","NA","h","h","NA","s","410","NA","42547","23262","NA","410","2","legacy","1024","2","48000","-16","experiment","SSSSS","3","odd","210862","NA","NA","233317","232280","2048","180392","NA","233419","233831","233315","233419","44595","203654","NA","2042","Flanker Task ","96","51772","99","yes","1024"
"97","97","521.62","521.62","black","legacy","legacy","legacy","0","congruent","uniform","1","undefined","1","s","99","99","0","99","99","0","0","0","99","99","99","99","0","0","0","0","09/25/22 21:10:01","600","The main experiment item","yes","FlankerTask.osexp","C:/Users/saudm/OneDrive/Desktop","no","mono","no","18","no","white","no","yes","768","legacy","19","79","C:/Users/saudm/OneDrive/Desktop/MK-subject-3.csv","legacy","Lentiform Loewenfeld","3.3.12","0","s","NA","h","h","NA","s","390","NA","42547","23262","NA","390","2","legacy","1024","2","48000","-16","experiment","SSSSS","3","odd","210862","NA","NA","234865","233833","2048","180392","NA","234967","235358","234864","234967","44595","203654","NA","2042","Flanker Task ","97","52162","100","yes","1024"
"97.0297029703","97.0297029703","521.772277228","521.772277228","black","legacy","legacy","legacy","0","incongruent","uniform","1","undefined","1","s","100","100","0","100","100","0","0","0","100","100","100","100","0","0","0","0","09/25/22 21:10:01","600","The main experiment item","yes","FlankerTask.osexp","C:/Users/saudm/OneDrive/Desktop","no","mono","no","18","no","white","no","yes","768","legacy","20","79","C:/Users/saudm/OneDrive/Desktop/MK-subject-3.csv","legacy","Lentiform Loewenfeld","3.3.12","0","s","NA","h","h","NA","s","537","NA","42547","23262","NA","537","2","legacy","1024","2","48000","-16","experiment","HHSHH","3","odd","210862","NA","NA","236404","235370","2048","180392","NA","236506","237044","236402","236506","44595","203654","NA","2042","Flanker Task ","98","52699","101","yes","1024"
"97.0588235294","97.0588235294","520.568627451","520.568627451","black","legacy","legacy","legacy","0","congruent","uniform","1","undefined","1","s","101","101","0","101","101","0","0","0","101","101","101","101","0","0","0","0","09/25/22 21:10:01","600","The main experiment item","yes","FlankerTask.osexp","C:/Users/saudm/OneDrive/Desktop","no","mono","no","18","no","white","no","yes","768","legacy","21","79","C:/Users/saudm/OneDrive/Desktop/MK-subject-3.csv","legacy","Lentiform Loewenfeld","3.3.12","0","s","NA","h","h","NA","s","399","NA","42547","23262","NA","399","2","legacy","1024","2","48000","-16","experiment","SSSSS","3","odd","210862","NA","NA","238089","237056","2048","180392","NA","238191","238591","238088","238191","44595","203654","NA","2042","Flanker Task ","99","53098","102","yes","1024"
"97.0873786408","97.0873786408","521.844660194","521.844660194","black","legacy","legacy","legacy","0","incongruent","uniform","1","undefined","1","s","102","102","0","102","102","0","0","0","102","102","102","102","0","0","0","0","09/25/22 21:10:01","600","The main experiment item","yes","FlankerTask.osexp","C:/Users/saudm/OneDrive/Desktop","no","mono","no","18","no","white","no","yes","768","legacy","22","79","C:/Users/saudm/OneDrive/Desktop/MK-subject-3.csv","legacy","Lentiform Loewenfeld","3.3.12","0","s","NA","h","h","NA","s","652","NA","42547","23262","NA","652","2","legacy","1024","2","48000","-16","experiment","HHSHH","3","odd","210862","NA","NA","239637","238603","2048","180392","NA","239739","240391","239635","239739","44595","203654","NA","2042","Flanker Task ","100","53750","103","yes","1024"
"96.1538461538","96.1538461538","520.519230769","520.519230769","black","legacy","legacy","legacy","0","incongruent","uniform","0","undefined","0","h","103","103","0","103","103","0","0","0","103","103","103","103","0","0","0","0","09/25/22 21:10:01","600","The main experiment item","yes","FlankerTask.osexp","C:/Users/saudm/OneDrive/Desktop","no","mono","no","18","no","white","no","yes","768","legacy","23","79","C:/Users/saudm/OneDrive/Desktop/MK-subject-3.csv","legacy","Lentiform Loewenfeld","3.3.12","0","s","NA","h","h","NA","s","384","NA","42547","23262","NA","384","2","legacy","1024","2","48000","-16","experiment","SSHSS","3","odd","210862","240403","NA","241941","240904","2048","180392","NA","242042","242428","241938","242042","44595","203654","NA","2042","Flanker Task ","100","54134","104","yes","1024"
"96.1904761905","96.1904761905","520.076190476","520.076190476","black","legacy","legacy","legacy","0","congruent","uniform","1","undefined","1","s","104","104","0","104","104","0","0","0","104","104","104","104","0","0","0","0","09/25/22 21:10:01","600","The main experiment item","yes","FlankerTask.osexp","C:/Users/saudm/OneDrive/Desktop","no","mono","no","18","no","white","no","yes","768","legacy","24","79","C:/Users/saudm/OneDrive/Desktop/MK-subject-3.csv","legacy","Lentiform Loewenfeld","3.3.12","0","s","NA","h","h","NA","s","474","NA","42547","23262","NA","474","2","legacy","1024","2","48000","-16","experiment","SSSSS","3","odd","242440","240403","NA","243973","242941","2048","180392","NA","244074","244549","243972","244074","44595","203654","NA","2042","Flanker Task ","101","54608","105","yes","1024"
"96.2264150943","96.2264150943","520.481132075","520.481132075","black","legacy","legacy","legacy","0","incongruent","uniform","1","undefined","1","s","105","105","0","105","105","0","0","0","105","105","105","105","0","0","0","0","09/25/22 21:10:01","600","The main experiment item","yes","FlankerTask.osexp","C:/Users/saudm/OneDrive/Desktop","no","mono","no","18","no","white","no","yes","768","legacy","25","79","C:/Users/saudm/OneDrive/Desktop/MK-subject-3.csv","legacy","Lentiform Loewenfeld","3.3.12","0","s","NA","h","h","NA","s","563","NA","42547","23262","NA","563","2","legacy","1024","2","48000","-16","experiment","HHSHH","3","odd","242440","240403","NA","245597","244561","2048","180392","NA","245698","246261","245595","245698","44595","203654","NA","2042","Flanker Task ","102","55171","106","yes","1024"
"96.261682243","96.261682243","520.205607477","520.205607477","black","legacy","legacy","legacy","0","incongruent","uniform","1","undefined","1","h","106","106","0","106","106","0","0","0","106","106","106","106","0","0","0","0","09/25/22 21:10:01","600","The main experiment item","yes","FlankerTask.osexp","C:/Users/saudm/OneDrive/Desktop","no","mono","no","18","no","white","no","yes","768","legacy","26","79","C:/Users/saudm/OneDrive/Desktop/MK-subject-3.csv","legacy","Lentiform Loewenfeld","3.3.12","0","h","NA","h","h","NA","h","491","NA","42547","23262","NA","491","2","legacy","1024","2","48000","-16","experiment","SSHSS","3","odd","242440","240403","NA","247306","246272","2048","180392","NA","247407","247899","247305","247407","44595","203654","NA","2042","Flanker Task ","103","55662","107","yes","1024"
"96.2962962963","96.2962962963","519.833333333","519.833333333","black","legacy","legacy","legacy","0","incongruent","uniform","1","undefined","1","s","107","107","0","107","107","0","0","0","107","107","107","107","0","0","0","0","09/25/22 21:10:01","600","The main experiment item","yes","FlankerTask.osexp","C:/Users/saudm/OneDrive/Desktop","no","mono","no","18","no","white","no","yes","768","legacy","27","79","C:/Users/saudm/OneDrive/Desktop/MK-subject-3.csv","legacy","Lentiform Loewenfeld","3.3.12","0","s","NA","h","h","NA","s","480","NA","42547","23262","NA","480","2","legacy","1024","2","48000","-16","experiment","HHSHH","3","odd","242440","240403","NA","248944","247911","2048","180392","NA","249045","249525","248942","249045","44595","203654","NA","2042","Flanker Task ","104","56142","108","yes","1024"
"96.3302752294","96.3302752294","519.412844037","519.412844037","black","legacy","legacy","legacy","0","congruent","uniform","1","undefined","1","s","108","108","0","108","108","0","0","0","108","108","108","108","0","0","0","0","09/25/22 21:10:01","600","The main experiment item","yes","FlankerTask.osexp","C:/Users/saudm/OneDrive/Desktop","no","mono","no","18","no","white","no","yes","768","legacy","28","79","C:/Users/saudm/OneDrive/Desktop/MK-subject-3.csv","legacy","Lentiform Loewenfeld","3.3.12","0","s","NA","h","h","NA","s","474","NA","42547","23262","NA","474","2","legacy","1024","2","48000","-16","experiment","SSSSS","3","odd","242440","240403","NA","250570","249537","2048","180392","NA","250671","251146","250567","250671","44595","203654","NA","2042","Flanker Task ","105","56616","109","yes","1024"
"96.3636363636","96.3636363636","520.445454545","520.445454545","black","legacy","legacy","legacy","0","congruent","uniform","1","undefined","1","h","109","109","0","109","109","0","0","0","109","109","109","109","0","0","0","0","09/25/22 21:10:01","600","The main experiment item","yes","FlankerTask.osexp","C:/Users/saudm/OneDrive/Desktop","no","mono","no","18","no","white","no","yes","768","legacy","29","79","C:/Users/saudm/OneDrive/Desktop/MK-subject-3.csv","legacy","Lentiform Loewenfeld","3.3.12","0","h","NA","h","h","NA","h","633","NA","42547","23262","NA","633","2","legacy","1024","2","48000","-16","experiment","HHHHH","3","odd","242440","240403","NA","252190","251158","2048","180392","NA","252292","252926","252189","252292","44595","203654","NA","2042","Flanker Task ","106","57249","110","yes","1024"
"96.3963963964","96.3963963964","521.405405405","521.405405405","black","legacy","legacy","legacy","0","incongruent","uniform","1","undefined","1","h","110","110","0","110","110","0","0","0","110","110","110","110","0","0","0","0","09/25/22 21:10:01","600","The main experiment item","yes","FlankerTask.osexp","C:/Users/saudm/OneDrive/Desktop","no","mono","no","18","no","white","no","yes","768","legacy","30","79","C:/Users/saudm/OneDrive/Desktop/MK-subject-3.csv","legacy","Lentiform Loewenfeld","3.3.12","0","h","NA","h","h","NA","h","627","NA","42547","23262","NA","627","2","legacy","1024","2","48000","-16","experiment","SSHSS","3","odd","242440","252938","NA","254476","253439","2048","180392","NA","254577","255205","254475","254577","44595","203654","NA","2042","Flanker Task ","107","57876","111","yes","1024"
"95.5357142857","95.5357142857","520.419642857","520.419642857","black","legacy","legacy","legacy","0","incongruent","uniform","0","undefined","0","h","111","111","0","111","111","0","0","0","111","111","111","111","0","0","0","0","09/25/22 21:10:01","600","The main experiment item","yes","FlankerTask.osexp","C:/Users/saudm/OneDrive/Desktop","no","mono","no","18","no","white","no","yes","768","legacy","31","79","C:/Users/saudm/OneDrive/Desktop/MK-subject-3.csv","legacy","Lentiform Loewenfeld","3.3.12","0","s","NA","h","h","NA","s","411","NA","42547","23262","NA","411","2","legacy","1024","2","48000","-16","experiment","SSHSS","3","odd","242440","255217","NA","256749","255717","2048","180392","NA","256851","257263","256748","256851","44595","203654","NA","2042","Flanker Task ","107","58287","112","yes","1024"
"95.5752212389","95.5752212389","520.557522124","520.557522124","black","legacy","legacy","legacy","0","incongruent","uniform","1","undefined","1","s","112","112","0","112","112","0","0","0","112","112","112","112","0","0","0","0","09/25/22 21:10:01","600","The main experiment item","yes","FlankerTask.osexp","C:/Users/saudm/OneDrive/Desktop","no","mono","no","18","no","white","no","yes","768","legacy","32","79","C:/Users/saudm/OneDrive/Desktop/MK-subject-3.csv","legacy","Lentiform Loewenfeld","3.3.12","0","s","NA","h","h","NA","s","536","NA","42547","23262","NA","536","2","legacy","1024","2","48000","-16","experiment","HHSHH","3","odd","257274","255217","NA","258807","257775","2048","180392","NA","258909","259446","258806","258909","44595","203654","NA","2042","Flanker Task ","108","58823","113","yes","1024"
"95.6140350877","95.6140350877","520.570175439","520.570175439","black","legacy","legacy","legacy","0","incongruent","uniform","1","undefined","1","s","113","113","0","113","113","0","0","0","113","113","113","113","0","0","0","0","09/25/22 21:10:01","600","The main experiment item","yes","FlankerTask.osexp","C:/Users/saudm/OneDrive/Desktop","no","mono","no","18","no","white","no","yes","768","legacy","33","79","C:/Users/saudm/OneDrive/Desktop/MK-subject-3.csv","legacy","Lentiform Loewenfeld","3.3.12","0","s","NA","h","h","NA","s","522","NA","42547","23262","NA","522","2","legacy","1024","2","48000","-16","experiment","HHSHH","3","odd","257274","255217","NA","260496","259458","2048","180392","NA","260597","261119","260493","260596","44595","203654","NA","2042","Flanker Task ","109","59345","114","yes","1024"
"94.7826086957","94.7826086957","519.773913043","519.773913043","black","legacy","legacy","legacy","0","incongruent","uniform","0","undefined","0","h","114","114","0","114","114","0","0","0","114","114","114","114","0","0","0","0","09/25/22 21:10:01","600","The main experiment item","yes","FlankerTask.osexp","C:/Users/saudm/OneDrive/Desktop","no","mono","no","18","no","white","no","yes","768","legacy","34","79","C:/Users/saudm/OneDrive/Desktop/MK-subject-3.csv","legacy","Lentiform Loewenfeld","3.3.12","0","s","NA","h","h","NA","s","429","NA","42547","23262","NA","429","2","legacy","1024","2","48000","-16","experiment","SSHSS","3","odd","257274","255217","NA","262166","261131","2048","180392","NA","262268","262698","262164","262268","44595","203654","NA","2042","Flanker Task ","109","59774","115","yes","1024"
"94.8275862069","94.8275862069","520","520","black","legacy","legacy","legacy","0","incongruent","uniform","1","undefined","1","s","115","115","0","115","115","0","0","0","115","115","115","115","0","0","0","0","09/25/22 21:10:01","600","The main experiment item","yes","FlankerTask.osexp","C:/Users/saudm/OneDrive/Desktop","no","mono","no","18","no","white","no","yes","768","legacy","35","79","C:/Users/saudm/OneDrive/Desktop/MK-subject-3.csv","legacy","Lentiform Loewenfeld","3.3.12","0","s","NA","h","h","NA","s","546","NA","42547","23262","NA","546","2","legacy","1024","2","48000","-16","experiment","HHSHH","3","odd","262710","255217","NA","264244","263211","2048","180392","NA","264345","264891","264243","264344","44595","203654","NA","2042","Flanker Task ","110","60320","116","yes","1024"
"94.8717948718","94.8717948718","519.769230769","519.769230769","black","legacy","legacy","legacy","0","congruent","uniform","1","undefined","1","s","116","116","0","116","116","0","0","0","116","116","116","116","0","0","0","0","09/25/22 21:10:01","600","The main experiment item","yes","FlankerTask.osexp","C:/Users/saudm/OneDrive/Desktop","no","mono","no","18","no","white","no","yes","768","legacy","36","79","C:/Users/saudm/OneDrive/Desktop/MK-subject-3.csv","legacy","Lentiform Loewenfeld","3.3.12","0","s","NA","h","h","NA","s","493","NA","42547","23262","NA","493","2","legacy","1024","2","48000","-16","experiment","SSSSS","3","odd","262710","255217","NA","265946","264903","2048","180392","NA","266049","266543","265944","266048","44595","203654","NA","2042","Flanker Task ","111","60813","117","yes","1024"
"94.9152542373","94.9152542373","518.957627119","518.957627119","black","legacy","legacy","legacy","0","congruent","uniform","1","undefined","1","s","117","117","0","117","117","0","0","0","117","117","117","117","0","0","0","0","09/25/22 21:10:01","600","The main experiment item","yes","FlankerTask.osexp","C:/Users/saudm/OneDrive/Desktop","no","mono","no","18","no","white","no","yes","768","legacy","37","79","C:/Users/saudm/OneDrive/Desktop/MK-subject-3.csv","legacy","Lentiform Loewenfeld","3.3.12","0","s","NA","h","h","NA","s","424","NA","42547","23262","NA","424","2","legacy","1024","2","48000","-16","experiment","SSSSS","3","odd","262710","255217","NA","267592","266556","2048","180392","NA","267693","268117","267590","267693","44595","203654","NA","2042","Flanker Task ","112","61237","118","yes","1024"
"94.9579831933","94.9579831933","519.18487395","519.18487395","black","legacy","legacy","legacy","0","congruent","uniform","1","undefined","1","h","118","118","0","118","118","0","0","0","118","118","118","118","0","0","0","0","09/25/22 21:10:01","600","The main experiment item","yes","FlankerTask.osexp","C:/Users/saudm/OneDrive/Desktop","no","mono","no","18","no","white","no","yes","768","legacy","38","79","C:/Users/saudm/OneDrive/Desktop/MK-subject-3.csv","legacy","Lentiform Loewenfeld","3.3.12","0","h","NA","h","h","NA","h","546","NA","42547","23262","NA","546","2","legacy","1024","2","48000","-16","experiment","HHHHH","3","odd","262710","255217","NA","269157","268121","2048","180392","NA","269259","269807","269155","269259","44595","203654","NA","2042","Flanker Task ","113","61783","119","yes","1024"
"95","95","518.983333333","518.983333333","black","legacy","legacy","legacy","0","incongruent","uniform","1","undefined","1","s","119","119","0","119","119","0","0","0","119","119","119","119","0","0","0","0","09/25/22 21:10:01","600","The main experiment item","yes","FlankerTask.osexp","C:/Users/saudm/OneDrive/Desktop","no","mono","no","18","no","white","no","yes","768","legacy","39","79","C:/Users/saudm/OneDrive/Desktop/MK-subject-3.csv","legacy","Lentiform Loewenfeld","3.3.12","0","s","NA","h","h","NA","s","495","NA","42547","23262","NA","495","2","legacy","1024","2","48000","-16","experiment","HHSHH","3","odd","262710","255217","NA","270853","269819","2048","180392","NA","270955","271450","270852","270955","44595","203654","NA","2042","Flanker Task ","114","62278","120","yes","1024"
"95.041322314","95.041322314","518.719008264","518.719008264","black","legacy","legacy","legacy","0","congruent","uniform","1","undefined","1","h","120","120","0","120","120","0","0","0","120","120","120","120","0","0","0","0","09/25/22 21:10:01","600","The main experiment item","yes","FlankerTask.osexp","C:/Users/saudm/OneDrive/Desktop","no","mono","no","18","no","white","no","yes","768","legacy","40","79","C:/Users/saudm/OneDrive/Desktop/MK-subject-3.csv","legacy","Lentiform Loewenfeld","3.3.12","0","h","NA","h","h","NA","h","487","NA","42547","23262","NA","487","2","legacy","1024","2","48000","-16","experiment","HHHHH","3","odd","262710","255217","NA","272497","271462","2048","180392","NA","272599","273087","272496","272599","44595","203654","NA","2042","Flanker Task ","115","62765","121","yes","1024"
"95.0819672131","95.0819672131","518.655737705","518.655737705","black","legacy","legacy","legacy","0","incongruent","uniform","1","undefined","1","h","121","121","0","121","121","0","0","0","121","121","121","121","0","0","0","0","09/25/22 21:10:01","600","The main experiment item","yes","FlankerTask.osexp","C:/Users/saudm/OneDrive/Desktop","no","mono","no","18","no","white","no","yes","768","legacy","41","79","C:/Users/saudm/OneDrive/Desktop/MK-subject-3.csv","legacy","Lentiform Loewenfeld","3.3.12","0","h","NA","h","h","NA","h","511","NA","42547","23262","NA","511","2","legacy","1024","2","48000","-16","experiment","SSHSS","3","odd","262710","255217","NA","274133","273099","2048","180392","NA","274235","274748","274132","274235","44595","203654","NA","2042","Flanker Task ","116","63276","122","yes","1024"
"95.1219512195","95.1219512195","518.300813008","518.300813008","black","legacy","legacy","legacy","0","congruent","uniform","1","undefined","1","h","122","122","0","122","122","0","0","0","122","122","122","122","0","0","0","0","09/25/22 21:10:01","600","The main experiment item","yes","FlankerTask.osexp","C:/Users/saudm/OneDrive/Desktop","no","mono","no","18","no","white","no","yes","768","legacy","42","79","C:/Users/saudm/OneDrive/Desktop/MK-subject-3.csv","legacy","Lentiform Loewenfeld","3.3.12","0","h","NA","h","h","NA","h","475","NA","42547","23262","NA","475","2","legacy","1024","2","48000","-16","experiment","HHHHH","3","odd","262710","255217","NA","275793","274760","2048","180392","NA","275896","276372","275792","275896","44595","203654","NA","2042","Flanker Task ","117","63751","123","yes","1024"
