"acc","accuracy","average_response_time","avg_rt","background","canvas_backend","clock_backend","color_backend","condition","correct","correct_instructions1","correct_keyboard_response","correct_response","count_ISI","count_block1","count_block2","count_block3","count_errorFeedback","count_experiment","count_faster","count_finish","count_fixatiom","count_instructions1","count_instructions2","count_instructions3","count_keyboard_response","count_logger","count_sequence","count_stimulus","datetime","deadline","description","disable_garbage_collection","experiment_file","experiment_path","font_bold","font_family","font_italic","font_size","font_underline","foreground","form_clicks","fullscreen","height","keyboard_backend","live_row","live_row_block1","logfile","mouse_backend","opensesame_codename","opensesame_version","repeat_cycle","response","response_finish","response_instructions1","response_instructions2","response_instructions3","response_keyboard_response","response_time","response_time_finish","response_time_instructions1","response_time_instructions2","response_time_instructions3","response_time_keyboard_response","round_decimals","sampler_backend","sound_buf_size","sound_channels","sound_freq","sound_sample_size","start","stimulus","subject_nr","subject_parity","time_ISI","time_block1","time_block2","time_block3","time_errorFeedback","time_experiment","time_faster","time_finish","time_fixatiom","time_instructions1","time_instructions2","time_instructions3","time_keyboard_response","time_logger","time_sequence","time_stimulus","title","total_correct","total_response_time","total_responses","width"
"100","100","739","739","black","psycho","psycho","psycho","incongruent","1","undefined","1","h","0","0","0","0","0","0","0","0","0","0","0","0","0","0","0","0","Sun Sep 17 15:50:54 2023","1500","The main experiment item","True","Flankertask.osexp","/Users/xaleyelyse/Desktop","False","mono","False","18","no","white","no","yes","768","psycho","0","0","/Users/xaleyelyse/Downloads/xwsubject-1.csv","psycho","Melodramatic Milgram","4.0.5","0","h","NA","s","NA","NA","h","739.4897710037185","NA","51868.98840199865","NA","NA","739.4897710037185","2","psycho","1024","2","48000","-16","experiment","SSHSS","1","odd","NA","55567.40831199568","NA","NA","NA","3633.1986139994115","NA","NA","55639.07735599787","3681.248751003295","NA","NA","55746.65041100525","56488.27832299867","55616.25929000729","55746.33644100686","Flanker task","1","739.4897710037185","1","1024"
"100","100","647","647","black","psycho","psycho","psycho","congruent","1","undefined","1","h","1","0","0","0","1","0","1","0","1","0","0","0","1","1","1","1","Sun Sep 17 15:50:54 2023","1500","The main experiment item","True","Flankertask.osexp","/Users/xaleyelyse/Desktop","False","mono","False","18","no","white","no","yes","768","psycho","1","1","/Users/xaleyelyse/Downloads/xwsubject-1.csv","psycho","Melodramatic Milgram","4.0.5","0","h","NA","s","NA","NA","h","556.2373169959756","NA","51868.98840199865","NA","NA","556.2373169959756","2","psycho","1024","2","48000","-16","experiment","HHHHH","1","odd","56495.152179995785","55567.40831199568","NA","NA","NA","3633.1986139994115","NA","NA","57545.13245000271","3681.248751003295","NA","NA","57652.86177300732","58214.18686599645","57533.476826996775","57652.49112500169","Flanker task","2","1295.727087999694","2","1024"
"100","100","582","582","black","psycho","psycho","psycho","congruent","1","undefined","1","s","2","0","0","0","2","0","2","0","2","0","0","0","2","2","2","2","Sun Sep 17 15:50:54 2023","1500","The main experiment item","True","Flankertask.osexp","/Users/xaleyelyse/Desktop","False","mono","False","18","no","white","no","yes","768","psycho","2","2","/Users/xaleyelyse/Downloads/xwsubject-1.csv","psycho","Melodramatic Milgram","4.0.5","0","s","NA","s","NA","NA","s","451.46526700409595","NA","51868.98840199865","NA","NA","451.46526700409595","2","psycho","1024","2","48000","-16","experiment","SSSSS","1","odd","58221.08606400434","55567.40831199568","NA","NA","NA","3633.1986139994115","NA","NA","59270.88977000676","3681.248751003295","NA","NA","59377.639968995936","59831.13001199672","59259.28078099969","59377.354716008995","Flanker task","3","1747.19235500379","3","1024"
"100","100","537","537","black","psycho","psycho","psycho","congruent","1","undefined","1","s","3","0","0","0","3","0","3","0","3","0","0","0","3","3","3","3","Sun Sep 17 15:50:54 2023","1500","The main experiment item","True","Flankertask.osexp","/Users/xaleyelyse/Desktop","False","mono","False","18","no","white","no","yes","768","psycho","3","3","/Users/xaleyelyse/Downloads/xwsubject-1.csv","psycho","Melodramatic Milgram","4.0.5","0","s","NA","s","NA","NA","s","401.7750079947291","NA","51868.98840199865","NA","NA","401.7750079947291","2","psycho","1024","2","48000","-16","experiment","SSSSS","1","odd","59836.071429002914","55567.40831199568","NA","NA","NA","3633.1986139994115","NA","NA","60892.555512997205","3681.248751003295","NA","NA","60998.21452400647","61401.954311004374","60880.00682200072","60997.09944099595","Flanker task","4","2148.967362998519","4","1024"
"100","100","535","535","black","psycho","psycho","psycho","incongruent","1","undefined","1","h","4","0","0","0","4","0","4","0","4","0","0","0","4","4","4","4","Sun Sep 17 15:50:54 2023","1500","The main experiment item","True","Flankertask.osexp","/Users/xaleyelyse/Desktop","False","mono","False","18","no","white","no","yes","768","psycho","4","4","/Users/xaleyelyse/Downloads/xwsubject-1.csv","psycho","Melodramatic Milgram","4.0.5","0","h","NA","s","NA","NA","h","529.3512799980817","NA","51868.98840199865","NA","NA","529.3512799980817","2","psycho","1024","2","48000","-16","experiment","SSHSS","1","odd","61410.58934699686","55567.40831199568","NA","NA","NA","3633.1986139994115","NA","NA","62467.66747599759","3681.248751003295","NA","NA","62573.64675399731","63104.90538300655","62453.33627400396","62572.5120230054","Flanker task","5","2678.318642996601","5","1024"
"100","100","524","524","black","psycho","psycho","psycho","congruent","1","undefined","1","h","5","0","0","0","5","0","5","0","5","0","0","0","5","5","5","5","Sun Sep 17 15:50:54 2023","1500","The main experiment item","True","Flankertask.osexp","/Users/xaleyelyse/Desktop","False","mono","False","18","no","white","no","yes","768","psycho","5","5","/Users/xaleyelyse/Downloads/xwsubject-1.csv","psycho","Melodramatic Milgram","4.0.5","0","h","NA","s","NA","NA","h","468.7178720050724","NA","51868.98840199865","NA","NA","468.7178720050724","2","psycho","1024","2","48000","-16","experiment","HHHHH","1","odd","63109.8473900056","55567.40831199568","NA","NA","NA","3633.1986139994115","NA","NA","64160.71873399778","3681.248751003295","NA","NA","64267.9468330025","64738.732733996585","64148.13295399654","64267.589092007256","Flanker task","6","3147.0365150016733","6","1024"
"100","100","511","511","black","psycho","psycho","psycho","incongruent","1","undefined","1","h","6","0","0","0","6","0","6","0","6","0","0","0","6","6","6","6","Sun Sep 17 15:50:54 2023","1500","The main experiment item","True","Flankertask.osexp","/Users/xaleyelyse/Desktop","False","mono","False","18","no","white","no","yes","768","psycho","6","6","/Users/xaleyelyse/Downloads/xwsubject-1.csv","psycho","Melodramatic Milgram","4.0.5","0","h","NA","s","NA","NA","h","435.7381090085255","NA","51868.98840199865","NA","NA","435.7381090085255","2","psycho","1024","2","48000","-16","experiment","SSHSS","1","odd","64743.5715150059","55567.40831199568","NA","NA","NA","3633.1986139994115","NA","NA","65795.26464700757","3681.248751003295","NA","NA","65901.82376699522","66339.67709299759","65781.00471200014","65900.7949270017","Flanker task","7","3582.7746240101987","7","1024"
"100","100","512","512","black","psycho","psycho","psycho","incongruent","1","undefined","1","h","7","0","0","0","7","0","7","0","7","0","0","0","7","7","7","7","Sun Sep 17 15:50:54 2023","1500","The main experiment item","True","Flankertask.osexp","/Users/xaleyelyse/Desktop","False","mono","False","18","no","white","no","yes","768","psycho","7","7","/Users/xaleyelyse/Downloads/xwsubject-1.csv","psycho","Melodramatic Milgram","4.0.5","0","h","NA","s","NA","NA","h","519.8040639952524","NA","51868.98840199865","NA","NA","519.8040639952524","2","psycho","1024","2","48000","-16","experiment","SSHSS","1","odd","66344.81912200863","55567.40831199568","NA","NA","NA","3633.1986139994115","NA","NA","67395.07067900558","3681.248751003295","NA","NA","67500.86675200146","68022.67135700095","67383.42564200866","67499.74928199663","Flanker task","8","4102.578688005451","8","1024"
"100","100","500","500","black","psycho","psycho","psycho","congruent","1","undefined","1","h","8","0","0","0","8","0","8","0","8","0","0","0","8","8","8","8","Sun Sep 17 15:50:54 2023","1500","The main experiment item","True","Flankertask.osexp","/Users/xaleyelyse/Desktop","False","mono","False","18","no","white","no","yes","768","psycho","8","8","/Users/xaleyelyse/Downloads/xwsubject-1.csv","psycho","Melodramatic Milgram","4.0.5","0","h","NA","s","NA","NA","h","405.7509809936164","NA","51868.98840199865","NA","NA","405.7509809936164","2","psycho","1024","2","48000","-16","experiment","HHHHH","1","odd","68029.36590700119","55567.40831199568","NA","NA","NA","3633.1986139994115","NA","NA","69079.22513299854","3681.248751003295","NA","NA","69185.93097000849","69593.77879199747","69066.34946500708","69184.8152839957","Flanker task","9","4508.3296689990675","9","1024"
"100","100","492","492","black","psycho","psycho","psycho","congruent","1","undefined","1","s","9","0","0","0","9","0","9","0","9","0","0","0","9","9","9","9","Sun Sep 17 15:50:54 2023","1500","The main experiment item","True","Flankertask.osexp","/Users/xaleyelyse/Desktop","False","mono","False","18","no","white","no","yes","768","psycho","9","9","/Users/xaleyelyse/Downloads/xwsubject-1.csv","psycho","Melodramatic Milgram","4.0.5","0","s","NA","s","NA","NA","s","414.9443979986245","NA","51868.98840199865","NA","NA","414.9443979986245","2","psycho","1024","2","48000","-16","experiment","SSSSS","1","odd","69598.38966399548","55567.40831199568","NA","NA","NA","3633.1986139994115","NA","NA","70653.61941599986","3681.248751003295","NA","NA","70760.427583009","71177.38727999676","70641.3819330046","70760.11512099649","Flanker task","10","4923.274066997692","10","1024"
"100","100","488","488","black","psycho","psycho","psycho","congruent","1","undefined","1","h","10","0","0","0","10","0","10","0","10","0","0","0","10","10","10","10","Sun Sep 17 15:50:54 2023","1500","The main experiment item","True","Flankertask.osexp","/Users/xaleyelyse/Desktop","False","mono","False","18","no","white","no","yes","768","psycho","10","10","/Users/xaleyelyse/Downloads/xwsubject-1.csv","psycho","Melodramatic Milgram","4.0.5","0","h","NA","s","NA","NA","h","446.9259550096467","NA","51868.98840199865","NA","NA","446.9259550096467","2","psycho","1024","2","48000","-16","experiment","HHHHH","1","odd","71182.2456719965","55567.40831199568","NA","NA","NA","3633.1986139994115","NA","NA","72233.46501300693","3681.248751003295","NA","NA","72339.45222799957","72788.43244400923","72220.57713099639","72338.17936500418","Flanker task","11","5370.200022007339","11","1024"
"100","100","486","486","black","psycho","psycho","psycho","incongruent","1","undefined","1","s","11","0","0","0","11","0","11","0","11","0","0","0","11","11","11","11","Sun Sep 17 15:50:54 2023","1500","The main experiment item","True","Flankertask.osexp","/Users/xaleyelyse/Desktop","False","mono","False","18","no","white","no","yes","768","psycho","11","11","/Users/xaleyelyse/Downloads/xwsubject-1.csv","psycho","Melodramatic Milgram","4.0.5","0","s","NA","s","NA","NA","s","472.8975929901935","NA","51868.98840199865","NA","NA","472.8975929901935","2","psycho","1024","2","48000","-16","experiment","HHSHH","1","odd","72793.0585389986","55567.40831199568","NA","NA","NA","3633.1986139994115","NA","NA","73843.54582100059","3681.248751003295","NA","NA","73950.24961400486","74425.10274899541","73831.80518199515","73949.93928300391","Flanker task","12","5843.097614997532","12","1024"
"100","100","480","480","black","psycho","psycho","psycho","congruent","1","undefined","1","h","12","0","0","0","12","0","12","0","12","0","0","0","12","12","12","12","Sun Sep 17 15:50:54 2023","1500","The main experiment item","True","Flankertask.osexp","/Users/xaleyelyse/Desktop","False","mono","False","18","no","white","no","yes","768","psycho","12","12","/Users/xaleyelyse/Downloads/xwsubject-1.csv","psycho","Melodramatic Milgram","4.0.5","0","h","NA","s","NA","NA","h","402.13681300519966","NA","51868.98840199865","NA","NA","402.13681300519966","2","psycho","1024","2","48000","-16","experiment","HHHHH","1","odd","74430.13788599637","55567.40831199568","NA","NA","NA","3633.1986139994115","NA","NA","75491.87789700227","3681.248751003295","NA","NA","75599.14053299872","76003.31595900934","75474.08468100184","75598.78719500557","Flanker task","13","6245.234428002732","13","1024"
"100","100","474","474","black","psycho","psycho","psycho","incongruent","1","undefined","1","h","13","0","0","0","13","0","13","0","13","0","0","0","13","13","13","13","Sun Sep 17 15:50:54 2023","1500","The main experiment item","True","Flankertask.osexp","/Users/xaleyelyse/Desktop","False","mono","False","18","no","white","no","yes","768","psycho","13","13","/Users/xaleyelyse/Downloads/xwsubject-1.csv","psycho","Melodramatic Milgram","4.0.5","0","h","NA","s","NA","NA","h","391.60351900500245","NA","51868.98840199865","NA","NA","391.60351900500245","2","psycho","1024","2","48000","-16","experiment","SSHSS","1","odd","76008.219233001","55567.40831199568","NA","NA","NA","3633.1986139994115","NA","NA","77058.85503500758","3681.248751003295","NA","NA","77165.57840700261","77559.0719650063","77046.28548400069","77165.22178299783","Flanker task","14","6636.837947007734","14","1024"
"100","100","470","470","black","psycho","psycho","psycho","congruent","1","undefined","1","s","14","0","0","0","14","0","14","0","14","0","0","0","14","14","14","14","Sun Sep 17 15:50:54 2023","1500","The main experiment item","True","Flankertask.osexp","/Users/xaleyelyse/Desktop","False","mono","False","18","no","white","no","yes","768","psycho","14","14","/Users/xaleyelyse/Downloads/xwsubject-1.csv","psycho","Melodramatic Milgram","4.0.5","0","s","NA","s","NA","NA","s","415.6824940000661","NA","51868.98840199865","NA","NA","415.6824940000661","2","psycho","1024","2","48000","-16","experiment","SSSSS","1","odd","77564.0201549977","55567.40831199568","NA","NA","NA","3633.1986139994115","NA","NA","78615.3327350039","3681.248751003295","NA","NA","78723.55999700085","79141.15304700681","78601.94466800021","78722.91399400274","Flanker task","15","7052.5204410078","15","1024"
"100","100","472","472","black","psycho","psycho","psycho","incongruent","1","undefined","1","s","15","0","0","0","15","0","15","0","15","0","0","0","15","15","15","15","Sun Sep 17 15:50:54 2023","1500","The main experiment item","True","Flankertask.osexp","/Users/xaleyelyse/Desktop","False","mono","False","18","no","white","no","yes","768","psycho","15","15","/Users/xaleyelyse/Downloads/xwsubject-1.csv","psycho","Melodramatic Milgram","4.0.5","0","s","NA","s","NA","NA","s","505.13917799980845","NA","51868.98840199865","NA","NA","505.13917799980845","2","psycho","1024","2","48000","-16","experiment","HHSHH","1","odd","79146.15482899535","55567.40831199568","NA","NA","NA","3633.1986139994115","NA","NA","80197.9178830079","3681.248751003295","NA","NA","80305.05400100083","80812.15783600055","80184.79118100367","80303.75903200184","Flanker task","16","7557.659619007609","16","1024"
"100","100","472","472","black","psycho","psycho","psycho","incongruent","1","undefined","1","s","16","0","0","0","16","0","16","0","16","0","0","0","16","16","16","16","Sun Sep 17 15:50:54 2023","1500","The main experiment item","True","Flankertask.osexp","/Users/xaleyelyse/Desktop","False","mono","False","18","no","white","no","yes","768","psycho","16","16","/Users/xaleyelyse/Downloads/xwsubject-1.csv","psycho","Melodramatic Milgram","4.0.5","0","s","NA","s","NA","NA","s","466.48610099509824","NA","51868.98840199865","NA","NA","466.48610099509824","2","psycho","1024","2","48000","-16","experiment","HHSHH","1","odd","80817.38820100145","55567.40831199568","NA","NA","NA","3633.1986139994115","NA","NA","81869.39376599912","3681.248751003295","NA","NA","81976.63424100028","82445.21182600874","81856.06099800498","81976.16538099828","Flanker task","17","8024.145720002707","17","1024"
"100","100","470","470","black","psycho","psycho","psycho","congruent","1","undefined","1","s","17","0","0","0","17","0","17","0","17","0","0","0","17","17","17","17","Sun Sep 17 15:50:54 2023","1500","The main experiment item","True","Flankertask.osexp","/Users/xaleyelyse/Desktop","False","mono","False","18","no","white","no","yes","768","psycho","17","17","/Users/xaleyelyse/Downloads/xwsubject-1.csv","psycho","Melodramatic Milgram","4.0.5","0","s","NA","s","NA","NA","s","449.00876499013975","NA","51868.98840199865","NA","NA","449.00876499013975","2","psycho","1024","2","48000","-16","experiment","SSSSS","1","odd","82449.58125700941","55567.40831199568","NA","NA","NA","3633.1986139994115","NA","NA","83500.49319800746","3681.248751003295","NA","NA","83606.98164900532","84057.68886800797","83487.52920200059","83606.67048199684","Flanker task","18","8473.154484992847","18","1024"
"100","100","470","470","black","psycho","psycho","psycho","incongruent","1","undefined","1","h","18","0","0","0","18","0","18","0","18","0","0","0","18","18","18","18","Sun Sep 17 15:50:54 2023","1500","The main experiment item","True","Flankertask.osexp","/Users/xaleyelyse/Desktop","False","mono","False","18","no","white","no","yes","768","psycho","18","18","/Users/xaleyelyse/Downloads/xwsubject-1.csv","psycho","Melodramatic Milgram","4.0.5","0","h","NA","s","NA","NA","h","471.98971699981485","NA","51868.98840199865","NA","NA","471.98971699981485","2","psycho","1024","2","48000","-16","experiment","SSHSS","1","odd","84063.64140300138","55567.40831199568","NA","NA","NA","3633.1986139994115","NA","NA","85115.67327599914","3681.248751003295","NA","NA","85224.70140599762","85698.78124300158","85102.56724900682","85224.40691600787","Flanker task","19","8945.144201992662","19","1024"
"100","100","466","466","black","psycho","psycho","psycho","congruent","1","undefined","1","s","19","0","0","0","19","0","19","0","19","0","0","0","19","19","19","19","Sun Sep 17 15:50:54 2023","1500","The main experiment item","True","Flankertask.osexp","/Users/xaleyelyse/Desktop","False","mono","False","18","no","white","no","yes","768","psycho","19","19","/Users/xaleyelyse/Downloads/xwsubject-1.csv","psycho","Melodramatic Milgram","4.0.5","0","s","NA","s","NA","NA","s","384.34820900147315","NA","51868.98840199865","NA","NA","384.34820900147315","2","psycho","1024","2","48000","-16","experiment","SSSSS","1","odd","85704.09375500458","55567.40831199568","NA","NA","NA","3633.1986139994115","NA","NA","86752.76029300585","3681.248751003295","NA","NA","86858.84523599816","87245.03757200728","86741.0749480041","86857.71886800649","Flanker task","20","9329.492410994135","20","1024"
"100","100","464","464","black","psycho","psycho","psycho","congruent","1","undefined","1","h","20","0","0","0","20","0","20","0","20","0","0","0","20","20","20","20","Sun Sep 17 15:50:54 2023","1500","The main experiment item","True","Flankertask.osexp","/Users/xaleyelyse/Desktop","False","mono","False","18","no","white","no","yes","768","psycho","20","20","/Users/xaleyelyse/Downloads/xwsubject-1.csv","psycho","Melodramatic Milgram","4.0.5","0","h","NA","s","NA","NA","h","434.8805909976363","NA","51868.98840199865","NA","NA","434.8805909976363","2","psycho","1024","2","48000","-16","experiment","HHHHH","1","odd","87249.94501999754","55567.40831199568","NA","NA","NA","3633.1986139994115","NA","NA","88300.47554400517","3681.248751003295","NA","NA","88406.09847000451","88842.96444400388","88287.8949809965","88404.96573099517","Flanker task","21","9764.373001991771","21","1024"
"100","100","466","466","black","psycho","psycho","psycho","incongruent","1","undefined","1","h","21","0","0","0","21","0","21","0","21","0","0","0","21","21","21","21","Sun Sep 17 15:50:54 2023","1500","The main experiment item","True","Flankertask.osexp","/Users/xaleyelyse/Desktop","False","mono","False","18","no","white","no","yes","768","psycho","21","21","/Users/xaleyelyse/Downloads/xwsubject-1.csv","psycho","Melodramatic Milgram","4.0.5","0","h","NA","s","NA","NA","h","500.2328729897272","NA","51868.98840199865","NA","NA","500.2328729897272","2","psycho","1024","2","48000","-16","experiment","SSHSS","1","odd","88847.94888799661","55567.40831199568","NA","NA","NA","3633.1986139994115","NA","NA","89899.2910359957","3681.248751003295","NA","NA","90007.49633200758","90509.74112100084","89887.36042400706","90007.22442600818","Flanker task","22","10264.605874981498","22","1024"
"100","100","470","470","black","psycho","psycho","psycho","incongruent","1","undefined","1","s","22","0","0","0","22","0","22","0","22","0","0","0","22","22","22","22","Sun Sep 17 15:50:54 2023","1500","The main experiment item","True","Flankertask.osexp","/Users/xaleyelyse/Desktop","False","mono","False","18","no","white","no","yes","768","psycho","22","22","/Users/xaleyelyse/Downloads/xwsubject-1.csv","psycho","Melodramatic Milgram","4.0.5","0","s","NA","s","NA","NA","s","550.1480199891375","NA","51868.98840199865","NA","NA","550.1480199891375","2","psycho","1024","2","48000","-16","experiment","HHSHH","1","odd","90515.39427600801","55567.40831199568","NA","NA","NA","3633.1986139994115","NA","NA","91567.56929399853","3681.248751003295","NA","NA","91673.2309640065","92225.31635299674","91556.05457100319","91672.12127700623","Flanker task","23","10814.753894970636","23","1024"
"100","100","471","471","black","psycho","psycho","psycho","incongruent","1","undefined","1","s","23","0","0","0","23","0","23","0","23","0","0","0","23","23","23","23","Sun Sep 17 15:50:54 2023","1500","The main experiment item","True","Flankertask.osexp","/Users/xaleyelyse/Desktop","False","mono","False","18","no","white","no","yes","768","psycho","23","23","/Users/xaleyelyse/Downloads/xwsubject-1.csv","psycho","Melodramatic Milgram","4.0.5","0","s","NA","s","NA","NA","s","491.13867100095376","NA","51868.98840199865","NA","NA","491.13867100095376","2","psycho","1024","2","48000","-16","experiment","HHSHH","1","odd","92230.07683899777","55567.40831199568","NA","NA","NA","3633.1986139994115","NA","NA","93279.70578199893","3681.248751003295","NA","NA","93386.40220300294","93879.61423200613","93268.46478100924","93386.08479799586","Flanker task","24","11305.89256597159","24","1024"
"100","100","468","468","black","psycho","psycho","psycho","congruent","1","undefined","1","s","24","0","0","0","24","0","24","0","24","0","0","0","24","24","24","24","Sun Sep 17 15:50:54 2023","1500","The main experiment item","True","Flankertask.osexp","/Users/xaleyelyse/Desktop","False","mono","False","18","no","white","no","yes","768","psycho","24","24","/Users/xaleyelyse/Downloads/xwsubject-1.csv","psycho","Melodramatic Milgram","4.0.5","0","s","NA","s","NA","NA","s","415.24905400001444","NA","51868.98840199865","NA","NA","415.24905400001444","2","psycho","1024","2","48000","-16","experiment","SSSSS","1","odd","93884.01423899631","55567.40831199568","NA","NA","NA","3633.1986139994115","NA","NA","94934.31306199636","3681.248751003295","NA","NA","95040.234650005","95457.46102600242","94921.86106799636","95039.11701400648","Flanker task","25","11721.141619971604","25","1024"
"100","100","469","469","black","psycho","psycho","psycho","congruent","1","undefined","1","h","25","0","0","0","25","0","25","0","25","0","0","0","25","25","25","25","Sun Sep 17 15:50:54 2023","1500","The main experiment item","True","Flankertask.osexp","/Users/xaleyelyse/Desktop","False","mono","False","18","no","white","no","yes","768","psycho","25","25","/Users/xaleyelyse/Downloads/xwsubject-1.csv","psycho","Melodramatic Milgram","4.0.5","0","h","NA","s","NA","NA","h","474.97913699771743","NA","51868.98840199865","NA","NA","474.97913699771743","2","psycho","1024","2","48000","-16","experiment","HHHHH","1","odd","95463.00474900636","55567.40831199568","NA","NA","NA","3633.1986139994115","NA","NA","96518.02040899929","3681.248751003295","NA","NA","96624.58386900835","97101.58702300396","96505.34149899613","96624.27602600656","Flanker task","26","12196.120756969322","26","1024"
"100","100","468","468","black","psycho","psycho","psycho","congruent","1","undefined","1","s","26","0","0","0","26","0","26","0","26","0","0","0","26","26","26","26","Sun Sep 17 15:50:54 2023","1500","The main experiment item","True","Flankertask.osexp","/Users/xaleyelyse/Desktop","False","mono","False","18","no","white","no","yes","768","psycho","26","26","/Users/xaleyelyse/Downloads/xwsubject-1.csv","psycho","Melodramatic Milgram","4.0.5","0","s","NA","s","NA","NA","s","461.91152100800537","NA","51868.98840199865","NA","NA","461.91152100800537","2","psycho","1024","2","48000","-16","experiment","SSSSS","1","odd","97110.07053499634","55567.40831199568","NA","NA","NA","3633.1986139994115","NA","NA","98160.12318299909","3681.248751003295","NA","NA","98267.55977599532","98731.73394300102","98147.54605200142","98266.34897300391","Flanker task","27","12658.032277977327","27","1024"
"100","100","470","470","black","psycho","psycho","psycho","incongruent","1","undefined","1","s","27","0","0","0","27","0","27","0","27","0","0","0","27","27","27","27","Sun Sep 17 15:50:54 2023","1500","The main experiment item","True","Flankertask.osexp","/Users/xaleyelyse/Desktop","False","mono","False","18","no","white","no","yes","768","psycho","27","27","/Users/xaleyelyse/Downloads/xwsubject-1.csv","psycho","Melodramatic Milgram","4.0.5","0","s","NA","s","NA","NA","s","510.99020898982417","NA","51868.98840199865","NA","NA","510.99020898982417","2","psycho","1024","2","48000","-16","experiment","HHSHH","1","odd","98735.84269899584","55567.40831199568","NA","NA","NA","3633.1986139994115","NA","NA","99790.11636800715","3681.248751003295","NA","NA","99896.55802100606","100409.58333200251","99777.43377300794","99896.27814599953","Flanker task","28","13169.022486967151","28","1024"
"100","100","474","474","black","psycho","psycho","psycho","incongruent","1","undefined","1","h","28","0","0","0","28","0","28","0","28","0","0","0","28","28","28","28","Sun Sep 17 15:50:54 2023","1500","The main experiment item","True","Flankertask.osexp","/Users/xaleyelyse/Desktop","False","mono","False","18","no","white","no","yes","768","psycho","28","28","/Users/xaleyelyse/Downloads/xwsubject-1.csv","psycho","Melodramatic Milgram","4.0.5","0","h","NA","s","NA","NA","h","582.8144890110707","NA","51868.98840199865","NA","NA","582.8144890110707","2","psycho","1024","2","48000","-16","experiment","SSHSS","1","odd","100415.2394529956","55567.40831199568","NA","NA","NA","3633.1986139994115","NA","NA","101466.05941600865","3681.248751003295","NA","NA","101573.51030199789","102158.2396379963","101454.68510100909","101572.3690080049","Flanker task","29","13751.836975978222","29","1024"
"100","100","473","473","black","psycho","psycho","psycho","incongruent","1","undefined","1","h","29","0","0","0","29","0","29","0","29","0","0","0","29","29","29","29","Sun Sep 17 15:50:54 2023","1500","The main experiment item","True","Flankertask.osexp","/Users/xaleyelyse/Desktop","False","mono","False","18","no","white","no","yes","768","psycho","29","29","/Users/xaleyelyse/Downloads/xwsubject-1.csv","psycho","Melodramatic Milgram","4.0.5","0","h","NA","s","NA","NA","h","454.55704400956165","NA","51868.98840199865","NA","NA","454.55704400956165","2","psycho","1024","2","48000","-16","experiment","SSHSS","1","odd","102163.8151799998","55567.40831199568","NA","NA","NA","3633.1986139994115","NA","NA","103214.07983500103","3681.248751003295","NA","NA","103320.6945139973","103777.32951000507","103201.64682400355","103320.38022400229","Flanker task","30","14206.394019987783","30","1024"
"100","100","472","472","black","psycho","psycho","psycho","congruent","1","undefined","1","s","30","0","0","0","30","0","30","0","30","0","0","0","30","30","30","30","Sun Sep 17 15:50:54 2023","1500","The main experiment item","True","Flankertask.osexp","/Users/xaleyelyse/Desktop","False","mono","False","18","no","white","no","yes","768","psycho","30","30","/Users/xaleyelyse/Downloads/xwsubject-1.csv","psycho","Melodramatic Milgram","4.0.5","0","s","NA","s","NA","NA","s","455.44796300237067","NA","51868.98840199865","NA","NA","455.44796300237067","2","psycho","1024","2","48000","-16","experiment","SSSSS","1","odd","103782.44798000378","55567.40831199568","NA","NA","NA","3633.1986139994115","NA","NA","104832.05020699825","3681.248751003295","NA","NA","104938.73389200598","105396.21203500428","104819.06127699767","104937.9913090088","Flanker task","31","14661.841982990154","31","1024"
"100","100","474","474","black","psycho","psycho","psycho","incongruent","1","undefined","1","s","31","0","0","0","31","0","31","0","31","0","0","0","31","31","31","31","Sun Sep 17 15:50:54 2023","1500","The main experiment item","True","Flankertask.osexp","/Users/xaleyelyse/Desktop","False","mono","False","18","no","white","no","yes","768","psycho","31","31","/Users/xaleyelyse/Downloads/xwsubject-1.csv","psycho","Melodramatic Milgram","4.0.5","0","s","NA","s","NA","NA","s","508.62158299423754","NA","51868.98840199865","NA","NA","508.62158299423754","2","psycho","1024","2","48000","-16","experiment","HHSHH","1","odd","105401.47217799677","55567.40831199568","NA","NA","NA","3633.1986139994115","NA","NA","106450.71135999751","3681.248751003295","NA","NA","106556.78886800888","107067.43523600744","106439.5254120027","106555.69438599923","Flanker task","32","15170.463565984392","32","1024"
"100","100","473","473","black","psycho","psycho","psycho","incongruent","1","undefined","1","s","32","0","0","0","32","0","32","0","32","0","0","0","32","32","32","32","Sun Sep 17 15:50:54 2023","1500","The main experiment item","True","Flankertask.osexp","/Users/xaleyelyse/Desktop","False","mono","False","18","no","white","no","yes","768","psycho","32","32","/Users/xaleyelyse/Downloads/xwsubject-1.csv","psycho","Melodramatic Milgram","4.0.5","0","s","NA","s","NA","NA","s","441.55008099914994","NA","51868.98840199865","NA","NA","441.55008099914994","2","psycho","1024","2","48000","-16","experiment","HHSHH","1","odd","107076.57335999829","55567.40831199568","NA","NA","NA","3633.1986139994115","NA","NA","108127.42221300141","3681.248751003295","NA","NA","108234.48444400856","108678.17457100318","108115.7152710075","108234.18064400903","Flanker task","33","15612.013646983542","33","1024"
"100","100","473","473","black","psycho","psycho","psycho","incongruent","1","undefined","1","h","33","0","0","0","33","0","33","0","33","0","0","0","33","33","33","33","Sun Sep 17 15:50:54 2023","1500","The main experiment item","True","Flankertask.osexp","/Users/xaleyelyse/Desktop","False","mono","False","18","no","white","no","yes","768","psycho","33","33","/Users/xaleyelyse/Downloads/xwsubject-1.csv","psycho","Melodramatic Milgram","4.0.5","0","h","NA","s","NA","NA","h","498.36051199235953","NA","51868.98840199865","NA","NA","498.36051199235953","2","psycho","1024","2","48000","-16","experiment","SSHSS","1","odd","108683.25600599928","55567.40831199568","NA","NA","NA","3633.1986139994115","NA","NA","109740.93331600307","3681.248751003295","NA","NA","109846.7112990038","110346.98943900003","109725.70776099747","109845.5801789969","Flanker task","34","16110.374158975901","34","1024"
"100","100","476","476","black","psycho","psycho","psycho","congruent","1","undefined","1","s","34","0","0","0","34","0","34","0","34","0","0","0","34","34","34","34","Sun Sep 17 15:50:54 2023","1500","The main experiment item","True","Flankertask.osexp","/Users/xaleyelyse/Desktop","False","mono","False","18","no","white","no","yes","768","psycho","34","34","/Users/xaleyelyse/Downloads/xwsubject-1.csv","psycho","Melodramatic Milgram","4.0.5","0","s","NA","s","NA","NA","s","578.1491179950535","NA","51868.98840199865","NA","NA","578.1491179950535","2","psycho","1024","2","48000","-16","experiment","SSSSS","1","odd","110351.87622399826","55567.40831199568","NA","NA","NA","3633.1986139994115","NA","NA","111400.38465100224","3681.248751003295","NA","NA","111506.89453500672","112087.09220400488","111389.24232100544","111506.63249500212","Flanker task","35","16688.523276970955","35","1024"
"100","100","483","483","black","psycho","psycho","psycho","incongruent","1","undefined","1","s","35","0","0","0","35","0","35","0","35","0","0","0","35","35","35","35","Sun Sep 17 15:50:54 2023","1500","The main experiment item","True","Flankertask.osexp","/Users/xaleyelyse/Desktop","False","mono","False","18","no","white","no","yes","768","psycho","35","35","/Users/xaleyelyse/Downloads/xwsubject-1.csv","psycho","Melodramatic Milgram","4.0.5","0","s","NA","s","NA","NA","s","714.7124049952254","NA","51868.98840199865","NA","NA","714.7124049952254","2","psycho","1024","2","48000","-16","experiment","HHSHH","1","odd","112091.98409899545","55567.40831199568","NA","NA","NA","3633.1986139994115","NA","NA","113141.46818399604","3681.248751003295","NA","NA","113247.2465900064","113964.0188379999","113129.36289599747","113246.12389299728","Flanker task","36","17403.23568196618","36","1024"
"100","100","481","481","black","psycho","psycho","psycho","congruent","1","undefined","1","h","36","0","0","0","36","0","36","0","36","0","0","0","36","36","36","36","Sun Sep 17 15:50:54 2023","1500","The main experiment item","True","Flankertask.osexp","/Users/xaleyelyse/Desktop","False","mono","False","18","no","white","no","yes","768","psycho","36","36","/Users/xaleyelyse/Downloads/xwsubject-1.csv","psycho","Melodramatic Milgram","4.0.5","0","h","NA","s","NA","NA","h","429.40874700434506","NA","51868.98840199865","NA","NA","429.40874700434506","2","psycho","1024","2","48000","-16","experiment","HHHHH","1","odd","113969.0681790089","55567.40831199568","NA","NA","NA","3633.1986139994115","NA","NA","115023.47704699787","3681.248751003295","NA","NA","115129.09467700229","115560.45134599844","115011.32386899553","115127.90248400415","Flanker task","37","17832.644428970525","37","1024"
"100","100","480","480","black","psycho","psycho","psycho","congruent","1","undefined","1","h","37","0","0","0","37","0","37","0","37","0","0","0","37","37","37","37","Sun Sep 17 15:50:54 2023","1500","The main experiment item","True","Flankertask.osexp","/Users/xaleyelyse/Desktop","False","mono","False","18","no","white","no","yes","768","psycho","37","37","/Users/xaleyelyse/Downloads/xwsubject-1.csv","psycho","Melodramatic Milgram","4.0.5","0","h","NA","s","NA","NA","h","437.42665799800307","NA","51868.98840199865","NA","NA","437.42665799800307","2","psycho","1024","2","48000","-16","experiment","HHHHH","1","odd","115565.26253500488","55567.40831199568","NA","NA","NA","3633.1986139994115","NA","NA","116621.38812099874","3681.248751003295","NA","NA","116728.05325700028","117167.64416100341","116609.97655100073","116726.32574100862","Flanker task","38","18270.071086968528","38","1024"
"97","97","479","479","black","psycho","psycho","psycho","incongruent","0","undefined","0","h","38","0","0","0","38","0","38","0","38","0","0","0","38","38","38","38","Sun Sep 17 15:50:54 2023","1500","The main experiment item","True","Flankertask.osexp","/Users/xaleyelyse/Desktop","False","mono","False","18","no","white","no","yes","768","psycho","38","38","/Users/xaleyelyse/Downloads/xwsubject-1.csv","psycho","Melodramatic Milgram","4.0.5","0","s","NA","s","NA","NA","s","423.5799759917427","NA","51868.98840199865","NA","NA","423.5799759917427","2","psycho","1024","2","48000","-16","experiment","SSHSS","1","odd","117176.7632120027","55567.40831199568","NA","NA","NA","3633.1986139994115","NA","NA","118228.3009649982","3681.248751003295","NA","NA","118335.80088500457","118761.43775400124","118216.0773259966","118334.6228050068","Flanker task","38","18693.65106296027","39","1024"
"97","97","481","481","black","psycho","psycho","psycho","incongruent","1","undefined","1","s","39","0","0","0","39","0","39","0","39","0","0","0","39","39","39","39","Sun Sep 17 15:50:54 2023","1500","The main experiment item","True","Flankertask.osexp","/Users/xaleyelyse/Desktop","False","mono","False","18","no","white","no","yes","768","psycho","39","39","/Users/xaleyelyse/Downloads/xwsubject-1.csv","psycho","Melodramatic Milgram","4.0.5","0","s","NA","s","NA","NA","s","547.3484090034617","NA","51868.98840199865","NA","NA","547.3484090034617","2","psycho","1024","2","48000","-16","experiment","HHSHH","1","odd","119274.0143740084","55567.40831199568","NA","NA","118766.70627300336","3633.1986139994115","NA","NA","120326.17285499873","3681.248751003295","NA","NA","120434.17194100039","120983.5650830064","120313.57216699689","120433.7226839998","Flanker task","39","19240.999471963733","40","1024"
"97","97","481","481","black","psycho","psycho","psycho","incongruent","1","undefined","1","h","40","0","0","0","40","0","40","0","40","0","0","0","40","40","40","40","Sun Sep 17 15:50:54 2023","1500","The main experiment item","True","Flankertask.osexp","/Users/xaleyelyse/Desktop","False","mono","False","18","no","white","no","yes","768","psycho","40","40","/Users/xaleyelyse/Downloads/xwsubject-1.csv","psycho","Melodramatic Milgram","4.0.5","0","h","NA","s","NA","NA","h","518.6122860031901","NA","51868.98840199865","NA","NA","518.6122860031901","2","psycho","1024","2","48000","-16","experiment","SSHSS","1","odd","120989.29232600494","55567.40831199568","NA","NA","118766.70627300336","3633.1986139994115","NA","NA","122043.47114599659","3681.248751003295","NA","NA","122150.81137900415","122671.67774200789","122030.16580900294","122150.36601600877","Flanker task","40","19759.611757966923","41","1024"
"97","97","480","480","black","psycho","psycho","psycho","incongruent","1","undefined","1","h","41","0","0","0","41","0","41","0","41","0","0","0","41","41","41","41","Sun Sep 17 15:50:54 2023","1500","The main experiment item","True","Flankertask.osexp","/Users/xaleyelyse/Desktop","False","mono","False","18","no","white","no","yes","768","psycho","41","41","/Users/xaleyelyse/Downloads/xwsubject-1.csv","psycho","Melodramatic Milgram","4.0.5","0","h","NA","s","NA","NA","h","411.70391500054393","NA","51868.98840199865","NA","NA","411.70391500054393","2","psycho","1024","2","48000","-16","experiment","SSHSS","1","odd","122676.52250100218","55567.40831199568","NA","NA","118766.70627300336","3633.1986139994115","NA","NA","123727.97680800431","3681.248751003295","NA","NA","123834.61014700879","124248.58321499778","123713.8515090046","123834.33502700063","Flanker task","41","20171.315672967467","42","1024"
"97","97","478","478","black","psycho","psycho","psycho","congruent","1","undefined","1","h","42","0","0","0","42","0","42","0","42","0","0","0","42","42","42","42","Sun Sep 17 15:50:54 2023","1500","The main experiment item","True","Flankertask.osexp","/Users/xaleyelyse/Desktop","False","mono","False","18","no","white","no","yes","768","psycho","42","42","/Users/xaleyelyse/Downloads/xwsubject-1.csv","psycho","Melodramatic Milgram","4.0.5","0","h","NA","s","NA","NA","h","396.48244899581186","NA","51868.98840199865","NA","NA","396.48244899581186","2","psycho","1024","2","48000","-16","experiment","HHHHH","1","odd","124254.38046100317","55567.40831199568","NA","NA","118766.70627300336","3633.1986139994115","NA","NA","125309.07144100638","3681.248751003295","NA","NA","125415.8664340066","125814.3566469953","125295.16284199781","125415.55291300756","Flanker task","42","20567.79812196328","43","1024"
"97","97","476","476","black","psycho","psycho","psycho","incongruent","1","undefined","1","h","43","0","0","0","43","0","43","0","43","0","0","0","43","43","43","43","Sun Sep 17 15:50:54 2023","1500","The main experiment item","True","Flankertask.osexp","/Users/xaleyelyse/Desktop","False","mono","False","18","no","white","no","yes","768","psycho","43","43","/Users/xaleyelyse/Downloads/xwsubject-1.csv","psycho","Melodramatic Milgram","4.0.5","0","h","NA","s","NA","NA","h","388.8852909876732","NA","51868.98840199865","NA","NA","388.8852909876732","2","psycho","1024","2","48000","-16","experiment","SSHSS","1","odd","125819.64159500785","55567.40831199568","NA","NA","118766.70627300336","3633.1986139994115","NA","NA","126872.49153800076","3681.248751003295","NA","NA","126977.98746400804","127369.19900099747","126858.65685500903","126976.8774289987","Flanker task","43","20956.68341295095","44","1024"
"97","97","475","475","black","psycho","psycho","psycho","incongruent","1","undefined","1","h","44","0","0","0","44","0","44","0","44","0","0","0","44","44","44","44","Sun Sep 17 15:50:54 2023","1500","The main experiment item","True","Flankertask.osexp","/Users/xaleyelyse/Desktop","False","mono","False","18","no","white","no","yes","768","psycho","44","44","/Users/xaleyelyse/Downloads/xwsubject-1.csv","psycho","Melodramatic Milgram","4.0.5","0","h","NA","s","NA","NA","h","423.5584190028021","NA","51868.98840199865","NA","NA","423.5584190028021","2","psycho","1024","2","48000","-16","experiment","SSHSS","1","odd","127374.24150999868","55567.40831199568","NA","NA","118766.70627300336","3633.1986139994115","NA","NA","128430.9355209989","3681.248751003295","NA","NA","128537.51943800307","128963.31347299565","128418.47768300795","128537.21638400748","Flanker task","44","21380.241831953754","45","1024"
"97","97","474","474","black","psycho","psycho","psycho","congruent","1","undefined","1","s","45","0","0","0","45","0","45","0","45","0","0","0","45","45","45","45","Sun Sep 17 15:50:54 2023","1500","The main experiment item","True","Flankertask.osexp","/Users/xaleyelyse/Desktop","False","mono","False","18","no","white","no","yes","768","psycho","45","45","/Users/xaleyelyse/Downloads/xwsubject-1.csv","psycho","Melodramatic Milgram","4.0.5","0","s","NA","s","NA","NA","s","447.41121301194653","NA","51868.98840199865","NA","NA","447.41121301194653","2","psycho","1024","2","48000","-16","experiment","SSSSS","1","odd","128970.4822269996","55567.40831199568","NA","NA","118766.70627300336","3633.1986139994115","NA","NA","130024.54841900908","3681.248751003295","NA","NA","130130.73907399666","130580.26953000808","130010.8743620076","130129.62701299693","Flanker task","45","21827.6530449657","46","1024"
"97","97","474","474","black","psycho","psycho","psycho","congruent","1","undefined","1","h","46","0","0","0","46","0","46","0","46","0","0","0","46","46","46","46","Sun Sep 17 15:50:54 2023","1500","The main experiment item","True","Flankertask.osexp","/Users/xaleyelyse/Desktop","False","mono","False","18","no","white","no","yes","768","psycho","46","46","/Users/xaleyelyse/Downloads/xwsubject-1.csv","psycho","Melodramatic Milgram","4.0.5","0","h","NA","s","NA","NA","h","470.19712399924174","NA","51868.98840199865","NA","NA","470.19712399924174","2","psycho","1024","2","48000","-16","experiment","HHHHH","1","odd","130585.85055700678","55567.40831199568","NA","NA","118766.70627300336","3633.1986139994115","NA","NA","131641.29084300657","3681.248751003295","NA","NA","131748.75018199964","132221.14049900847","131627.46219600376","131748.30391800788","Flanker task","46","22297.850168964942","47","1024"
"97","97","473","473","black","psycho","psycho","psycho","congruent","1","undefined","1","s","47","0","0","0","47","0","47","0","47","0","0","0","47","47","47","47","Sun Sep 17 15:50:54 2023","1500","The main experiment item","True","Flankertask.osexp","/Users/xaleyelyse/Desktop","False","mono","False","18","no","white","no","yes","768","psycho","47","47","/Users/xaleyelyse/Downloads/xwsubject-1.csv","psycho","Melodramatic Milgram","4.0.5","0","s","NA","s","NA","NA","s","438.14176399610005","NA","51868.98840199865","NA","NA","438.14176399610005","2","psycho","1024","2","48000","-16","experiment","SSSSS","1","odd","132226.15407100238","55567.40831199568","NA","NA","118766.70627300336","3633.1986139994115","NA","NA","133277.30724100547","3681.248751003295","NA","NA","133384.77566100482","133825.13066400134","133265.55170600477","133383.6720899999","Flanker task","47","22735.991932961042","48","1024"
"97","97","473","473","black","psycho","psycho","psycho","incongruent","1","undefined","1","h","48","0","0","0","48","0","48","0","48","0","0","0","48","48","48","48","Sun Sep 17 15:50:54 2023","1500","The main experiment item","True","Flankertask.osexp","/Users/xaleyelyse/Desktop","False","mono","False","18","no","white","no","yes","768","psycho","48","48","/Users/xaleyelyse/Downloads/xwsubject-1.csv","psycho","Melodramatic Milgram","4.0.5","0","h","NA","s","NA","NA","h","458.830877993023","NA","51868.98840199865","NA","NA","458.830877993023","2","psycho","1024","2","48000","-16","experiment","SSHSS","1","odd","133829.96087500942","55567.40831199568","NA","NA","118766.70627300336","3633.1986139994115","NA","NA","134884.74941800814","3681.248751003295","NA","NA","134991.86927200935","135453.02958099637","134872.68090300495","134991.30863600294","Flanker task","48","23194.822810954065","49","1024"
"98","98","474","474","black","psycho","psycho","psycho","incongruent","1","undefined","1","s","49","0","0","0","49","0","49","0","49","0","0","0","49","49","49","49","Sun Sep 17 15:50:54 2023","1500","The main experiment item","True","Flankertask.osexp","/Users/xaleyelyse/Desktop","False","mono","False","18","no","white","no","yes","768","psycho","49","49","/Users/xaleyelyse/Downloads/xwsubject-1.csv","psycho","Melodramatic Milgram","4.0.5","0","s","NA","s","NA","NA","s","511.7499680054607","NA","51868.98840199865","NA","NA","511.7499680054607","2","psycho","1024","2","48000","-16","experiment","HHSHH","1","odd","135457.72085600765","55567.40831199568","NA","NA","118766.70627300336","3633.1986139994115","NA","NA","136510.27904600778","3681.248751003295","NA","NA","136616.99702400074","137131.23821000045","136496.9142600021","136615.7571040094","Flanker task","49","23706.572778959526","50","1024"
"98","98","473","473","black","psycho","psycho","psycho","incongruent","1","undefined","1","s","50","0","0","0","50","0","50","0","50","0","0","0","50","50","50","50","Sun Sep 17 15:50:54 2023","1500","The main experiment item","True","Flankertask.osexp","/Users/xaleyelyse/Desktop","False","mono","False","18","no","white","no","yes","768","psycho","50","50","/Users/xaleyelyse/Downloads/xwsubject-1.csv","psycho","Melodramatic Milgram","4.0.5","0","s","NA","s","NA","NA","s","461.36297899647616","NA","51868.98840199865","NA","NA","461.36297899647616","2","psycho","1024","2","48000","-16","experiment","HHSHH","1","odd","137136.6387290036","55567.40831199568","NA","NA","118766.70627300336","3633.1986139994115","NA","NA","138190.53364900174","3681.248751003295","NA","NA","138296.28922700067","138759.6889060078","138175.5201670021","138295.16365400923","Flanker task","50","24167.935757956002","51","1024"
"98","98","474","474","black","psycho","psycho","psycho","incongruent","1","undefined","1","h","51","0","0","0","51","0","51","0","51","0","0","0","51","51","51","51","Sun Sep 17 15:50:54 2023","1500","The main experiment item","True","Flankertask.osexp","/Users/xaleyelyse/Desktop","False","mono","False","18","no","white","no","yes","768","psycho","51","51","/Users/xaleyelyse/Downloads/xwsubject-1.csv","psycho","Melodramatic Milgram","4.0.5","0","h","NA","s","NA","NA","h","485.0855440017767","NA","51868.98840199865","NA","NA","485.0855440017767","2","psycho","1024","2","48000","-16","experiment","SSHSS","1","odd","138764.64811900223","55567.40831199568","NA","NA","118766.70627300336","3633.1986139994115","NA","NA","139824.5178250072","3681.248751003295","NA","NA","139930.97677800688","140417.99919400364","139813.69010399794","139930.69514000672","Flanker task","51","24653.02130195778","52","1024"
"98","98","471","471","black","psycho","psycho","psycho","incongruent","1","undefined","1","s","52","0","0","0","52","0","52","0","52","0","0","0","52","52","52","52","Sun Sep 17 15:50:54 2023","1500","The main experiment item","True","Flankertask.osexp","/Users/xaleyelyse/Desktop","False","mono","False","18","no","white","no","yes","768","psycho","52","52","/Users/xaleyelyse/Downloads/xwsubject-1.csv","psycho","Melodramatic Milgram","4.0.5","0","s","NA","s","NA","NA","s","346.0178600071231","NA","51868.98840199865","NA","NA","346.0178600071231","2","psycho","1024","2","48000","-16","experiment","HHSHH","1","odd","140425.4803329968","55567.40831199568","NA","NA","118766.70627300336","3633.1986139994115","NA","NA","141476.9236239954","3681.248751003295","NA","NA","141583.57503300067","141931.9295919995","141465.09038300428","141583.29497299565","Flanker task","52","24999.0391619649","53","1024"
"98","98","471","471","black","psycho","psycho","psycho","congruent","1","undefined","1","h","53","0","0","0","53","0","53","0","53","0","0","0","53","53","53","53","Sun Sep 17 15:50:54 2023","1500","The main experiment item","True","Flankertask.osexp","/Users/xaleyelyse/Desktop","False","mono","False","18","no","white","no","yes","768","psycho","53","53","/Users/xaleyelyse/Downloads/xwsubject-1.csv","psycho","Melodramatic Milgram","4.0.5","0","h","NA","s","NA","NA","h","443.2779149938142","NA","51868.98840199865","NA","NA","443.2779149938142","2","psycho","1024","2","48000","-16","experiment","HHHHH","1","odd","141938.0797460035","55567.40831199568","NA","NA","118766.70627300336","3633.1986139994115","NA","NA","142992.76067200117","3681.248751003295","NA","NA","143099.11153200665","143544.49041000044","142981.66894199676","143097.95080700133","Flanker task","53","25442.317076958716","54","1024"
"98","98","471","471","black","psycho","psycho","psycho","incongruent","1","undefined","1","h","54","0","0","0","54","0","54","0","54","0","0","0","54","54","54","54","Sun Sep 17 15:50:54 2023","1500","The main experiment item","True","Flankertask.osexp","/Users/xaleyelyse/Desktop","False","mono","False","18","no","white","no","yes","768","psycho","54","54","/Users/xaleyelyse/Downloads/xwsubject-1.csv","psycho","Melodramatic Milgram","4.0.5","0","h","NA","s","NA","NA","h","499.6146060002502","NA","51868.98840199865","NA","NA","499.6146060002502","2","psycho","1024","2","48000","-16","experiment","SSHSS","1","odd","143549.23074399994","55567.40831199568","NA","NA","118766.70627300336","3633.1986139994115","NA","NA","144602.59392599983","3681.248751003295","NA","NA","144709.48576899536","145211.3146400079","144588.28863600502","144709.0398690052","Flanker task","54","25941.931682958966","55","1024"
"98","98","472","472","black","psycho","psycho","psycho","incongruent","1","undefined","1","s","55","0","0","0","55","0","55","0","55","0","0","0","55","55","55","55","Sun Sep 17 15:50:54 2023","1500","The main experiment item","True","Flankertask.osexp","/Users/xaleyelyse/Desktop","False","mono","False","18","no","white","no","yes","768","psycho","55","55","/Users/xaleyelyse/Downloads/xwsubject-1.csv","psycho","Melodramatic Milgram","4.0.5","0","s","NA","s","NA","NA","s","542.371468996862","NA","51868.98840199865","NA","NA","542.371468996862","2","psycho","1024","2","48000","-16","experiment","HHSHH","1","odd","145218.32336799707","55567.40831199568","NA","NA","118766.70627300336","3633.1986139994115","NA","NA","146270.0279240089","3681.248751003295","NA","NA","146377.0723839989","146921.61881100037","146257.78523700137","146376.72111600114","Flanker task","55","26484.303151955828","56","1024"
"98","98","472","472","black","psycho","psycho","psycho","congruent","1","undefined","1","h","56","0","0","0","56","0","56","0","56","0","0","0","56","56","56","56","Sun Sep 17 15:50:54 2023","1500","The main experiment item","True","Flankertask.osexp","/Users/xaleyelyse/Desktop","False","mono","False","18","no","white","no","yes","768","psycho","56","56","/Users/xaleyelyse/Downloads/xwsubject-1.csv","psycho","Melodramatic Milgram","4.0.5","0","h","NA","s","NA","NA","h","447.22088900743984","NA","51868.98840199865","NA","NA","447.22088900743984","2","psycho","1024","2","48000","-16","experiment","HHHHH","1","odd","146926.48382899642","55567.40831199568","NA","NA","118766.70627300336","3633.1986139994115","NA","NA","147981.69682500884","3681.248751003295","NA","NA","148089.93828800158","148539.25554400485","147967.81140800158","148089.6716730058","Flanker task","56","26931.524040963268","57","1024"
"98","98","472","472","black","psycho","psycho","psycho","congruent","1","undefined","1","h","57","0","0","0","57","0","57","0","57","0","0","0","57","57","57","57","Sun Sep 17 15:50:54 2023","1500","The main experiment item","True","Flankertask.osexp","/Users/xaleyelyse/Desktop","False","mono","False","18","no","white","no","yes","768","psycho","57","57","/Users/xaleyelyse/Downloads/xwsubject-1.csv","psycho","Melodramatic Milgram","4.0.5","0","h","NA","s","NA","NA","h","470.91350599657744","NA","51868.98840199865","NA","NA","470.91350599657744","2","psycho","1024","2","48000","-16","experiment","HHHHH","1","odd","148544.33309500746","55567.40831199568","NA","NA","118766.70627300336","3633.1986139994115","NA","NA","149596.2508149969","3681.248751003295","NA","NA","149703.31567800895","150176.34873000497","149583.6396119994","149702.95971700398","Flanker task","57","27402.437546959845","58","1024"
"98","98","472","472","black","psycho","psycho","psycho","incongruent","1","undefined","1","s","58","0","0","0","58","0","58","0","58","0","0","0","58","58","58","58","Sun Sep 17 15:50:54 2023","1500","The main experiment item","True","Flankertask.osexp","/Users/xaleyelyse/Desktop","False","mono","False","18","no","white","no","yes","768","psycho","58","58","/Users/xaleyelyse/Downloads/xwsubject-1.csv","psycho","Melodramatic Milgram","4.0.5","0","s","NA","s","NA","NA","s","458.22132100875024","NA","51868.98840199865","NA","NA","458.22132100875024","2","psycho","1024","2","48000","-16","experiment","HHSHH","1","odd","150181.22981600754","55567.40831199568","NA","NA","118766.70627300336","3633.1986139994115","NA","NA","151231.1505730031","3681.248751003295","NA","NA","151336.93401599885","151797.48016799567","151218.8674890058","151335.7982410089","Flanker task","58","27860.658867968596","59","1024"
"98","98","471","471","black","psycho","psycho","psycho","congruent","1","undefined","1","h","59","0","0","0","59","0","59","0","59","0","0","0","59","59","59","59","Sun Sep 17 15:50:54 2023","1500","The main experiment item","True","Flankertask.osexp","/Users/xaleyelyse/Desktop","False","mono","False","18","no","white","no","yes","768","psycho","59","59","/Users/xaleyelyse/Downloads/xwsubject-1.csv","psycho","Melodramatic Milgram","4.0.5","0","h","NA","s","NA","NA","h","443.9105500059668","NA","51868.98840199865","NA","NA","443.9105500059668","2","psycho","1024","2","48000","-16","experiment","HHHHH","1","odd","151802.45021299925","55567.40831199568","NA","NA","118766.70627300336","3633.1986139994115","NA","NA","152860.50452200288","3681.248751003295","NA","NA","152966.68695600238","153413.18218300876","152847.94876399974","152965.59431700734","Flanker task","59","28304.569417974562","60","1024"
"98","98","471","471","black","psycho","psycho","psycho","congruent","1","undefined","1","h","60","0","0","0","60","0","60","0","60","0","0","0","60","60","60","60","Sun Sep 17 15:50:54 2023","1500","The main experiment item","True","Flankertask.osexp","/Users/xaleyelyse/Desktop","False","mono","False","18","no","white","no","yes","768","psycho","60","60","/Users/xaleyelyse/Downloads/xwsubject-1.csv","psycho","Melodramatic Milgram","4.0.5","0","h","NA","s","NA","NA","h","437.5302459957311","NA","51868.98840199865","NA","NA","437.5302459957311","2","psycho","1024","2","48000","-16","experiment","HHHHH","1","odd","153418.4207369981","55567.40831199568","NA","NA","118766.70627300336","3633.1986139994115","NA","NA","154474.90809700685","3681.248751003295","NA","NA","154582.03889800643","155022.07428700058","154462.9278890061","154580.93070500763","Flanker task","60","28742.099663970293","61","1024"
"98","98","470","470","black","psycho","psycho","psycho","incongruent","1","undefined","1","s","61","0","0","0","61","0","61","0","61","0","0","0","61","61","61","61","Sun Sep 17 15:50:54 2023","1500","The main experiment item","True","Flankertask.osexp","/Users/xaleyelyse/Desktop","False","mono","False","18","no","white","no","yes","768","psycho","61","61","/Users/xaleyelyse/Downloads/xwsubject-1.csv","psycho","Melodramatic Milgram","4.0.5","0","s","NA","s","NA","NA","s","439.4138829957228","NA","51868.98840199865","NA","NA","439.4138829957228","2","psycho","1024","2","48000","-16","experiment","HHSHH","1","odd","155028.3290780062","55567.40831199568","NA","NA","118766.70627300336","3633.1986139994115","NA","NA","156078.7929299986","3681.248751003295","NA","NA","156185.4010560055","156627.16576299863","156066.93620000442","156185.09079499927","Flanker task","61","29181.513546966016","62","1024"
"98","98","472","472","black","psycho","psycho","psycho","congruent","1","undefined","1","s","62","0","0","0","62","0","62","0","62","0","0","0","62","62","62","62","Sun Sep 17 15:50:54 2023","1500","The main experiment item","True","Flankertask.osexp","/Users/xaleyelyse/Desktop","False","mono","False","18","no","white","no","yes","768","psycho","62","62","/Users/xaleyelyse/Downloads/xwsubject-1.csv","psycho","Melodramatic Milgram","4.0.5","0","s","NA","s","NA","NA","s","595.0226260029012","NA","51868.98840199865","NA","NA","595.0226260029012","2","psycho","1024","2","48000","-16","experiment","SSSSS","1","odd","156631.87760399887","55567.40831199568","NA","NA","118766.70627300336","3633.1986139994115","NA","NA","157688.1608709955","3681.248751003295","NA","NA","157793.83539399714","158391.44615300756","157674.93071100034","157792.6706970029","Flanker task","62","29776.536172968918","63","1024"
"98","98","473","473","black","psycho","psycho","psycho","incongruent","1","undefined","1","s","63","0","0","0","63","0","63","0","63","0","0","0","63","63","63","63","Sun Sep 17 15:50:54 2023","1500","The main experiment item","True","Flankertask.osexp","/Users/xaleyelyse/Desktop","False","mono","False","18","no","white","no","yes","768","psycho","63","63","/Users/xaleyelyse/Downloads/xwsubject-1.csv","psycho","Melodramatic Milgram","4.0.5","0","s","NA","s","NA","NA","s","552.2838799952297","NA","51868.98840199865","NA","NA","552.2838799952297","2","psycho","1024","2","48000","-16","experiment","HHSHH","1","odd","158396.57546000672","55567.40831199568","NA","NA","118766.70627300336","3633.1986139994115","NA","NA","159446.79123800597","3681.248751003295","NA","NA","159553.6531329999","160108.08849599562","159434.79084600403","159553.28369799827","Flanker task","63","30328.820052964147","64","1024"
"98","98","473","473","black","psycho","psycho","psycho","incongruent","1","undefined","1","h","64","0","0","0","64","0","64","0","64","0","0","0","64","64","64","64","Sun Sep 17 15:50:54 2023","1500","The main experiment item","True","Flankertask.osexp","/Users/xaleyelyse/Desktop","False","mono","False","18","no","white","no","yes","768","psycho","64","64","/Users/xaleyelyse/Downloads/xwsubject-1.csv","psycho","Melodramatic Milgram","4.0.5","0","h","NA","s","NA","NA","h","466.67916800652165","NA","51868.98840199865","NA","NA","466.67916800652165","2","psycho","1024","2","48000","-16","experiment","SSHSS","1","odd","160113.57405899616","55567.40831199568","NA","NA","118766.70627300336","3633.1986139994115","NA","NA","161165.29834200628","3681.248751003295","NA","NA","161273.75151999877","161742.8214600077","161153.5064369964","161273.44279299723","Flanker task","64","30795.49922097067","65","1024"
"98","98","473","473","black","psycho","psycho","psycho","congruent","1","undefined","1","s","65","0","0","0","65","0","65","0","65","0","0","0","65","65","65","65","Sun Sep 17 15:50:54 2023","1500","The main experiment item","True","Flankertask.osexp","/Users/xaleyelyse/Desktop","False","mono","False","18","no","white","no","yes","768","psycho","65","65","/Users/xaleyelyse/Downloads/xwsubject-1.csv","psycho","Melodramatic Milgram","4.0.5","0","s","NA","s","NA","NA","s","454.2226719931932","NA","51868.98840199865","NA","NA","454.2226719931932","2","psycho","1024","2","48000","-16","experiment","SSSSS","1","odd","161750.2314910089","55567.40831199568","NA","NA","118766.70627300336","3633.1986139994115","NA","NA","162803.28290299803","3681.248751003295","NA","NA","162910.42137400655","163366.7444300081","162791.82743000274","162909.97941000387","Flanker task","65","31249.721892963862","66","1024"
"98","98","473","473","black","psycho","psycho","psycho","congruent","1","undefined","1","h","66","0","0","0","66","0","66","0","66","0","0","0","66","66","66","66","Sun Sep 17 15:50:54 2023","1500","The main experiment item","True","Flankertask.osexp","/Users/xaleyelyse/Desktop","False","mono","False","18","no","white","no","yes","768","psycho","66","66","/Users/xaleyelyse/Downloads/xwsubject-1.csv","psycho","Melodramatic Milgram","4.0.5","0","h","NA","s","NA","NA","h","447.54360799561255","NA","51868.98840199865","NA","NA","447.54360799561255","2","psycho","1024","2","48000","-16","experiment","HHHHH","1","odd","163375.75180800923","55567.40831199568","NA","NA","118766.70627300336","3633.1986139994115","NA","NA","164427.00911400607","3681.248751003295","NA","NA","164533.70048600482","164983.63986199547","164414.77345200838","164533.38359700865","Flanker task","66","31697.265500959475","67","1024"
"98","98","472","472","black","psycho","psycho","psycho","congruent","1","undefined","1","h","67","0","0","0","67","0","67","0","67","0","0","0","67","67","67","67","Sun Sep 17 15:50:54 2023","1500","The main experiment item","True","Flankertask.osexp","/Users/xaleyelyse/Desktop","False","mono","False","18","no","white","no","yes","768","psycho","67","67","/Users/xaleyelyse/Downloads/xwsubject-1.csv","psycho","Melodramatic Milgram","4.0.5","0","h","NA","s","NA","NA","h","434.9421779916156","NA","51868.98840199865","NA","NA","434.9421779916156","2","psycho","1024","2","48000","-16","experiment","HHHHH","1","odd","164992.26140300743","55567.40831199568","NA","NA","118766.70627300336","3633.1986139994115","NA","NA","166043.8816179958","3681.248751003295","NA","NA","166150.45936600654","166587.62007200858","166031.46775100322","166150.1723179972","Flanker task","67","32132.20767895109","68","1024"
"98","98","471","471","black","psycho","psycho","psycho","congruent","1","undefined","1","s","68","0","0","0","68","0","68","0","68","0","0","0","68","68","68","68","Sun Sep 17 15:50:54 2023","1500","The main experiment item","True","Flankertask.osexp","/Users/xaleyelyse/Desktop","False","mono","False","18","no","white","no","yes","768","psycho","68","68","/Users/xaleyelyse/Downloads/xwsubject-1.csv","psycho","Melodramatic Milgram","4.0.5","0","s","NA","s","NA","NA","s","418.58526099531446","NA","51868.98840199865","NA","NA","418.58526099531446","2","psycho","1024","2","48000","-16","experiment","SSSSS","1","odd","166595.09111200168","55567.40831199568","NA","NA","118766.70627300336","3633.1986139994115","NA","NA","167647.63613700052","3681.248751003295","NA","NA","167754.92942900746","168175.6145429972","167636.7871810071","167754.24777100852","Flanker task","68","32550.792939946405","69","1024"
"98","98","472","472","black","psycho","psycho","psycho","congruent","1","undefined","1","h","69","0","0","0","69","0","69","0","69","0","0","0","69","69","69","69","Sun Sep 17 15:50:54 2023","1500","The main experiment item","True","Flankertask.osexp","/Users/xaleyelyse/Desktop","False","mono","False","18","no","white","no","yes","768","psycho","69","69","/Users/xaleyelyse/Downloads/xwsubject-1.csv","psycho","Melodramatic Milgram","4.0.5","0","h","NA","s","NA","NA","h","514.6531279897317","NA","51868.98840199865","NA","NA","514.6531279897317","2","psycho","1024","2","48000","-16","experiment","HHHHH","1","odd","168182.94409199734","55567.40831199568","NA","NA","118766.70627300336","3633.1986139994115","NA","NA","169232.76208799507","3681.248751003295","NA","NA","169339.83584200905","169856.5431629977","169222.38065600686","169339.5833060058","Flanker task","69","33065.44606793614","70","1024"
"98","98","473","473","black","psycho","psycho","psycho","incongruent","1","undefined","1","s","70","0","0","0","70","0","70","0","70","0","0","0","70","70","70","70","Sun Sep 17 15:50:54 2023","1500","The main experiment item","True","Flankertask.osexp","/Users/xaleyelyse/Desktop","False","mono","False","18","no","white","no","yes","768","psycho","70","70","/Users/xaleyelyse/Downloads/xwsubject-1.csv","psycho","Melodramatic Milgram","4.0.5","0","s","NA","s","NA","NA","s","530.5465580022428","NA","51868.98840199865","NA","NA","530.5465580022428","2","psycho","1024","2","48000","-16","experiment","HHSHH","1","odd","169861.6585599957","55567.40831199568","NA","NA","118766.70627300336","3633.1986139994115","NA","NA","170917.90706600295","3681.248751003295","NA","NA","171023.62801600248","171556.49734300096","170906.94551100023","171022.43918999739","Flanker task","70","33595.99262593838","71","1024"
"98","98","473","473","black","psycho","psycho","psycho","incongruent","1","undefined","1","h","71","0","0","0","71","0","71","0","71","0","0","0","71","71","71","71","Sun Sep 17 15:50:54 2023","1500","The main experiment item","True","Flankertask.osexp","/Users/xaleyelyse/Desktop","False","mono","False","18","no","white","no","yes","768","psycho","71","71","/Users/xaleyelyse/Downloads/xwsubject-1.csv","psycho","Melodramatic Milgram","4.0.5","0","h","NA","s","NA","NA","h","495.2255569951376","NA","51868.98840199865","NA","NA","495.2255569951376","2","psycho","1024","2","48000","-16","experiment","SSHSS","1","odd","171562.74803700217","55567.40831199568","NA","NA","118766.70627300336","3633.1986139994115","NA","NA","172619.15918800514","3681.248751003295","NA","NA","172726.5859580075","173224.09103199607","172607.81318400404","172725.3925910045","Flanker task","71","34091.21818293352","72","1024"
"98","98","472","472","black","psycho","psycho","psycho","congruent","1","undefined","1","s","72","0","0","0","72","0","72","0","72","0","0","0","72","72","72","72","Sun Sep 17 15:50:54 2023","1500","The main experiment item","True","Flankertask.osexp","/Users/xaleyelyse/Desktop","False","mono","False","18","no","white","no","yes","768","psycho","72","72","/Users/xaleyelyse/Downloads/xwsubject-1.csv","psycho","Melodramatic Milgram","4.0.5","0","s","NA","s","NA","NA","s","421.49621598946396","NA","51868.98840199865","NA","NA","421.49621598946396","2","psycho","1024","2","48000","-16","experiment","SSSSS","1","odd","173229.0521840041","55567.40831199568","NA","NA","118766.70627300336","3633.1986139994115","NA","NA","174280.5086330045","3681.248751003295","NA","NA","174388.67323900922","174812.68361100229","174268.02526100073","174388.02867400227","Flanker task","72","34512.71439892298","73","1024"
"98","98","473","473","black","psycho","psycho","psycho","incongruent","1","undefined","1","s","73","0","0","0","73","0","73","0","73","0","0","0","73","73","73","73","Sun Sep 17 15:50:54 2023","1500","The main experiment item","True","Flankertask.osexp","/Users/xaleyelyse/Desktop","False","mono","False","18","no","white","no","yes","768","psycho","73","73","/Users/xaleyelyse/Downloads/xwsubject-1.csv","psycho","Melodramatic Milgram","4.0.5","0","s","NA","s","NA","NA","s","496.1368170042988","NA","51868.98840199865","NA","NA","496.1368170042988","2","psycho","1024","2","48000","-16","experiment","HHSHH","1","odd","174817.8432690038","55567.40831199568","NA","NA","118766.70627300336","3633.1986139994115","NA","NA","175870.2246890025","3681.248751003295","NA","NA","175977.051423004","176475.84508900763","175858.54160800227","175976.74280499632","Flanker task","73","35008.85121592728","74","1024"
"98","98","472","472","black","psycho","psycho","psycho","congruent","1","undefined","1","s","74","0","0","0","74","0","74","0","74","0","0","0","74","74","74","74","Sun Sep 17 15:50:54 2023","1500","The main experiment item","True","Flankertask.osexp","/Users/xaleyelyse/Desktop","False","mono","False","18","no","white","no","yes","768","psycho","74","74","/Users/xaleyelyse/Downloads/xwsubject-1.csv","psycho","Melodramatic Milgram","4.0.5","0","s","NA","s","NA","NA","s","441.1408529995242","NA","51868.98840199865","NA","NA","441.1408529995242","2","psycho","1024","2","48000","-16","experiment","SSSSS","1","odd","176481.54822499782","55567.40831199568","NA","NA","118766.70627300336","3633.1986139994115","NA","NA","177532.36590500455","3681.248751003295","NA","NA","177639.92896099808","178083.30127100635","177521.139924007","177638.66567000514","Flanker task","74","35449.992068926804","75","1024"
"98","98","472","472","black","psycho","psycho","psycho","congruent","1","undefined","1","h","75","0","0","0","75","0","75","0","75","0","0","0","75","75","75","75","Sun Sep 17 15:50:54 2023","1500","The main experiment item","True","Flankertask.osexp","/Users/xaleyelyse/Desktop","False","mono","False","18","no","white","no","yes","768","psycho","75","75","/Users/xaleyelyse/Downloads/xwsubject-1.csv","psycho","Melodramatic Milgram","4.0.5","0","h","NA","s","NA","NA","h","482.3427020019153","NA","51868.98840199865","NA","NA","482.3427020019153","2","psycho","1024","2","48000","-16","experiment","HHHHH","1","odd","178092.36152700032","55567.40831199568","NA","NA","118766.70627300336","3633.1986139994115","NA","NA","179147.32185500907","3681.248751003295","NA","NA","179254.77314800082","179739.2623420019","179135.89868400595","179254.14207900758","Flanker task","75","35932.33477092872","76","1024"
"98","98","471","471","black","psycho","psycho","psycho","incongruent","1","undefined","1","s","76","0","0","0","76","0","76","0","76","0","0","0","76","76","76","76","Sun Sep 17 15:50:54 2023","1500","The main experiment item","True","Flankertask.osexp","/Users/xaleyelyse/Desktop","False","mono","False","18","no","white","no","yes","768","psycho","76","76","/Users/xaleyelyse/Downloads/xwsubject-1.csv","psycho","Melodramatic Milgram","4.0.5","0","s","NA","s","NA","NA","s","409.26396900613327","NA","51868.98840199865","NA","NA","409.26396900613327","2","psycho","1024","2","48000","-16","experiment","HHSHH","1","odd","179744.95036700682","55567.40831199568","NA","NA","118766.70627300336","3633.1986139994115","NA","NA","180795.98805999558","3681.248751003295","NA","NA","180901.59550099634","181313.35420699907","180784.0202130028","180900.4766440048","Flanker task","76","36341.59873993485","77","1024"
"98","98","471","471","black","psycho","psycho","psycho","congruent","1","undefined","1","s","77","0","0","0","77","0","77","0","77","0","0","0","77","77","77","77","Sun Sep 17 15:50:54 2023","1500","The main experiment item","True","Flankertask.osexp","/Users/xaleyelyse/Desktop","False","mono","False","18","no","white","no","yes","768","psycho","77","77","/Users/xaleyelyse/Downloads/xwsubject-1.csv","psycho","Melodramatic Milgram","4.0.5","0","s","NA","s","NA","NA","s","457.0283479988575","NA","51868.98840199865","NA","NA","457.0283479988575","2","psycho","1024","2","48000","-16","experiment","SSSSS","1","odd","181320.23118999496","55567.40831199568","NA","NA","118766.70627300336","3633.1986139994115","NA","NA","182373.05974900664","3681.248751003295","NA","NA","182478.73909800546","182938.1101100007","182358.46836700512","182477.64565100078","Flanker task","77","36798.62708793371","78","1024"
"98","98","471","471","black","psycho","psycho","psycho","congruent","1","undefined","1","s","78","0","0","0","78","0","78","0","78","0","0","0","78","78","78","78","Sun Sep 17 15:50:54 2023","1500","The main experiment item","True","Flankertask.osexp","/Users/xaleyelyse/Desktop","False","mono","False","18","no","white","no","yes","768","psycho","78","78","/Users/xaleyelyse/Downloads/xwsubject-1.csv","psycho","Melodramatic Milgram","4.0.5","0","s","NA","s","NA","NA","s","418.72570899431594","NA","51868.98840199865","NA","NA","418.72570899431594","2","psycho","1024","2","48000","-16","experiment","SSSSS","1","odd","182943.0788000027","55567.40831199568","NA","NA","118766.70627300336","3633.1986139994115","NA","NA","183998.10369100305","3681.248751003295","NA","NA","184103.92493300606","184525.21474700188","183984.56368800544","184102.72350799642","Flanker task","78","37217.352796928026","79","1024"
"98","98","469","469","black","psycho","psycho","psycho","congruent","1","undefined","1","s","79","0","0","0","79","0","79","0","79","0","0","0","79","79","79","79","Sun Sep 17 15:50:54 2023","1500","The main experiment item","True","Flankertask.osexp","/Users/xaleyelyse/Desktop","False","mono","False","18","no","white","no","yes","768","psycho","79","79","/Users/xaleyelyse/Downloads/xwsubject-1.csv","psycho","Melodramatic Milgram","4.0.5","0","s","NA","s","NA","NA","s","371.8524629948661","NA","51868.98840199865","NA","NA","371.8524629948661","2","psycho","1024","2","48000","-16","experiment","SSSSS","1","odd","184529.99967499636","55567.40831199568","NA","NA","118766.70627300336","3633.1986139994115","NA","NA","185581.2866339984","3681.248751003295","NA","NA","185688.77738200536","186063.09667900496","185567.11341100163","185688.21129700518","Flanker task","79","37589.20525992289","80","1024"
"98","98","470","470","black","psycho","psycho","psycho","congruent","1","undefined","1","h","80","0","0","0","80","0","80","0","80","0","0","0","80","80","80","80","Sun Sep 17 15:50:54 2023","600","The main experiment item","True","Flankertask.osexp","/Users/xaleyelyse/Desktop","False","mono","False","18","no","white","no","yes","768","psycho","0","79","/Users/xaleyelyse/Downloads/xwsubject-1.csv","psycho","Melodramatic Milgram","4.0.5","0","h","NA","s","h","NA","h","482.5621080090059","NA","51868.98840199865","9530.219651991501","NA","482.5621080090059","2","psycho","1024","2","48000","-16","experiment","HHHHH","1","odd","186070.181410003","55567.40831199568","196617.0793150086","NA","118766.70627300336","3633.1986139994115","NA","NA","196676.80056199606","3681.248751003295","187084.6784690075","NA","196783.77174699563","197268.50114000263","196659.15583699825","196783.46235399658","Flanker task","80","38071.7673679319","81","1024"
"98","98","469","469","black","psycho","psycho","psycho","congruent","1","undefined","1","h","81","0","0","0","81","0","81","0","81","0","0","0","81","81","81","81","Sun Sep 17 15:50:54 2023","600","The main experiment item","True","Flankertask.osexp","/Users/xaleyelyse/Desktop","False","mono","False","18","no","white","no","yes","768","psycho","1","79","/Users/xaleyelyse/Downloads/xwsubject-1.csv","psycho","Melodramatic Milgram","4.0.5","0","h","NA","s","h","NA","h","457.19553899834864","NA","51868.98840199865","9530.219651991501","NA","457.19553899834864","2","psycho","1024","2","48000","-16","experiment","HHHHH","1","odd","197273.3717890078","55567.40831199568","196617.0793150086","NA","118766.70627300336","3633.1986139994115","NA","NA","198324.13452000765","3681.248751003295","187084.6784690075","NA","198430.96055700153","198890.4493029986","198310.5389150005","198430.65075100458","Flanker task","81","38528.96290693025","82","1024"
"98","98","469","469","black","psycho","psycho","psycho","congruent","1","undefined","1","s","82","0","0","0","82","0","82","0","82","0","0","0","82","82","82","82","Sun Sep 17 15:50:54 2023","600","The main experiment item","True","Flankertask.osexp","/Users/xaleyelyse/Desktop","False","mono","False","18","no","white","no","yes","768","psycho","2","79","/Users/xaleyelyse/Downloads/xwsubject-1.csv","psycho","Melodramatic Milgram","4.0.5","0","s","NA","s","h","NA","s","425.79565799678676","NA","51868.98840199865","9530.219651991501","NA","425.79565799678676","2","psycho","1024","2","48000","-16","experiment","SSSSS","1","odd","198895.46768499713","55567.40831199568","196617.0793150086","NA","118766.70627300336","3633.1986139994115","NA","NA","199946.50760899822","3681.248751003295","187084.6784690075","NA","200052.37368200324","200480.69103600574","199932.91906699596","200051.05202899722","Flanker task","82","38954.75856492703","83","1024"
"98","98","467","467","black","psycho","psycho","psycho","congruent","1","undefined","1","s","83","0","0","0","83","0","83","0","83","0","0","0","83","83","83","83","Sun Sep 17 15:50:54 2023","600","The main experiment item","True","Flankertask.osexp","/Users/xaleyelyse/Desktop","False","mono","False","18","no","white","no","yes","768","psycho","3","79","/Users/xaleyelyse/Downloads/xwsubject-1.csv","psycho","Melodramatic Milgram","4.0.5","0","s","NA","s","h","NA","s","339.61210399866104","NA","51868.98840199865","9530.219651991501","NA","339.61210399866104","2","psycho","1024","2","48000","-16","experiment","SSSSS","1","odd","200484.91215599643","55567.40831199568","196617.0793150086","NA","118766.70627300336","3633.1986139994115","NA","NA","201536.1946720077","3681.248751003295","187084.6784690075","NA","201644.29494700744","201986.0793090047","201522.4506789964","201643.93816600204","Flanker task","83","39294.370668925694","84","1024"
"98","98","467","467","black","psycho","psycho","psycho","incongruent","1","undefined","1","h","84","0","0","0","84","0","84","0","84","0","0","0","84","84","84","84","Sun Sep 17 15:50:54 2023","600","The main experiment item","True","Flankertask.osexp","/Users/xaleyelyse/Desktop","False","mono","False","18","no","white","no","yes","768","psycho","4","79","/Users/xaleyelyse/Downloads/xwsubject-1.csv","psycho","Melodramatic Milgram","4.0.5","0","h","NA","s","h","NA","h","474.98080899822526","NA","51868.98840199865","9530.219651991501","NA","474.98080899822526","2","psycho","1024","2","48000","-16","experiment","SSHSS","1","odd","201991.397632999","55567.40831199568","196617.0793150086","NA","118766.70627300336","3633.1986139994115","NA","NA","203042.71889099618","3681.248751003295","187084.6784690075","NA","203148.9483780024","203626.16600899491","203031.6426310019","203147.83778000856","Flanker task","84","39769.35147792392","85","1024"
"98","98","467","467","black","psycho","psycho","psycho","incongruent","1","undefined","1","h","85","0","0","0","85","0","85","0","85","0","0","0","85","85","85","85","Sun Sep 17 15:50:54 2023","600","The main experiment item","True","Flankertask.osexp","/Users/xaleyelyse/Desktop","False","mono","False","18","no","white","no","yes","768","psycho","5","79","/Users/xaleyelyse/Downloads/xwsubject-1.csv","psycho","Melodramatic Milgram","4.0.5","0","h","NA","s","h","NA","h","431.60434800665826","NA","51868.98840199865","9530.219651991501","NA","431.60434800665826","2","psycho","1024","2","48000","-16","experiment","SSHSS","1","odd","203631.79288999527","55567.40831199568","196617.0793150086","NA","118766.70627300336","3633.1986139994115","NA","NA","204687.55047299783","3681.248751003295","187084.6784690075","NA","204793.26453999965","205227.04777000763","204674.43386600644","204792.1233800007","Flanker task","85","40200.95582593058","86","1024"
"98","98","466","466","black","psycho","psycho","psycho","congruent","1","undefined","1","h","86","0","0","0","86","0","86","0","86","0","0","0","86","86","86","86","Sun Sep 17 15:50:54 2023","600","The main experiment item","True","Flankertask.osexp","/Users/xaleyelyse/Desktop","False","mono","False","18","no","white","no","yes","768","psycho","6","79","/Users/xaleyelyse/Downloads/xwsubject-1.csv","psycho","Melodramatic Milgram","4.0.5","0","h","NA","s","h","NA","h","389.07170700258575","NA","51868.98840199865","9530.219651991501","NA","389.07170700258575","2","psycho","1024","2","48000","-16","experiment","HHHHH","1","odd","205232.59403499833","55567.40831199568","196617.0793150086","NA","118766.70627300336","3633.1986139994115","NA","NA","206289.2936749995","3681.248751003295","187084.6784690075","NA","206395.7269770035","206787.01473200636","206277.52502899966","206395.44703499996","Flanker task","86","40590.02753293316","87","1024"
"98","98","465","465","black","psycho","psycho","psycho","incongruent","1","undefined","1","s","87","0","0","0","87","0","87","0","87","0","0","0","87","87","87","87","Sun Sep 17 15:50:54 2023","600","The main experiment item","True","Flankertask.osexp","/Users/xaleyelyse/Desktop","False","mono","False","18","no","white","no","yes","768","psycho","7","79","/Users/xaleyelyse/Downloads/xwsubject-1.csv","psycho","Melodramatic Milgram","4.0.5","0","s","NA","s","h","NA","s","407.9853230068693","NA","51868.98840199865","9530.219651991501","NA","407.9853230068693","2","psycho","1024","2","48000","-16","experiment","HHSHH","1","odd","206792.28214400064","55567.40831199568","196617.0793150086","NA","118766.70627300336","3633.1986139994115","NA","NA","207845.00929199567","3681.248751003295","187084.6784690075","NA","207951.5859999956","208361.92828700587","207833.57633500418","207951.26632699976","Flanker task","87","40998.01285594003","88","1024"
"98","98","465","465","black","psycho","psycho","psycho","incongruent","1","undefined","1","s","88","0","0","0","88","0","88","0","88","0","0","0","88","88","88","88","Sun Sep 17 15:50:54 2023","600","The main experiment item","True","Flankertask.osexp","/Users/xaleyelyse/Desktop","False","mono","False","18","no","white","no","yes","768","psycho","8","79","/Users/xaleyelyse/Downloads/xwsubject-1.csv","psycho","Melodramatic Milgram","4.0.5","0","s","NA","s","h","NA","s","415.7842380082002","NA","51868.98840199865","9530.219651991501","NA","415.7842380082002","2","psycho","1024","2","48000","-16","experiment","HHSHH","1","odd","208366.8502119981","55567.40831199568","196617.0793150086","NA","118766.70627300336","3633.1986139994115","NA","NA","209422.4864340067","3681.248751003295","187084.6784690075","NA","209528.12642599747","209946.02529599797","209409.84236499935","209526.9866949966","Flanker task","88","41413.79709394823","89","1024"
"98","98","465","465","black","psycho","psycho","psycho","congruent","1","undefined","1","h","89","0","0","0","89","0","89","0","89","0","0","0","89","89","89","89","Sun Sep 17 15:50:54 2023","600","The main experiment item","True","Flankertask.osexp","/Users/xaleyelyse/Desktop","False","mono","False","18","no","white","no","yes","768","psycho","9","79","/Users/xaleyelyse/Downloads/xwsubject-1.csv","psycho","Melodramatic Milgram","4.0.5","0","h","NA","s","h","NA","h","451.5352360031102","NA","51868.98840199865","9530.219651991501","NA","451.5352360031102","2","psycho","1024","2","48000","-16","experiment","HHHHH","1","odd","209951.41778100515","55567.40831199568","196617.0793150086","NA","118766.70627300336","3633.1986139994115","NA","NA","211000.36877399543","3681.248751003295","187084.6784690075","NA","211106.04196900385","211559.7428320034","210988.91354800435","211104.893953001","Flanker task","89","41865.33232995134","90","1024"
"98","98","465","465","black","psycho","psycho","psycho","incongruent","1","undefined","1","h","90","0","0","0","90","0","90","0","90","0","0","0","90","90","90","90","Sun Sep 17 15:50:54 2023","600","The main experiment item","True","Flankertask.osexp","/Users/xaleyelyse/Desktop","False","mono","False","18","no","white","no","yes","768","psycho","10","79","/Users/xaleyelyse/Downloads/xwsubject-1.csv","psycho","Melodramatic Milgram","4.0.5","0","h","NA","s","h","NA","h","500.5467199953273","NA","51868.98840199865","9530.219651991501","NA","500.5467199953273","2","psycho","1024","2","48000","-16","experiment","SSHSS","1","odd","211564.4926219975","55567.40831199568","196617.0793150086","NA","118766.70627300336","3633.1986139994115","NA","NA","212615.5017669953","3681.248751003295","187084.6784690075","NA","212721.89212300873","213224.65341100178","212603.005159006","212721.6082859959","Flanker task","90","42365.87904994667","91","1024"
"98","98","465","465","black","psycho","psycho","psycho","congruent","1","undefined","1","h","91","0","0","0","91","0","91","0","91","0","0","0","91","91","91","91","Sun Sep 17 15:50:54 2023","600","The main experiment item","True","Flankertask.osexp","/Users/xaleyelyse/Desktop","False","mono","False","18","no","white","no","yes","768","psycho","11","79","/Users/xaleyelyse/Downloads/xwsubject-1.csv","psycho","Melodramatic Milgram","4.0.5","0","h","NA","s","h","NA","h","473.9885559974937","NA","51868.98840199865","9530.219651991501","NA","473.9885559974937","2","psycho","1024","2","48000","-16","experiment","HHHHH","1","odd","213229.93373099598","55567.40831199568","196617.0793150086","NA","118766.70627300336","3633.1986139994115","NA","NA","214280.1136939961","3681.248751003295","187084.6784690075","NA","214387.5463680015","214863.6741359951","214267.56811099767","214386.33995300916","Flanker task","91","42839.867605944164","92","1024"
"98","98","465","465","black","psycho","psycho","psycho","congruent","1","undefined","1","s","92","0","0","0","92","0","92","0","92","0","0","0","92","92","92","92","Sun Sep 17 15:50:54 2023","600","The main experiment item","True","Flankertask.osexp","/Users/xaleyelyse/Desktop","False","mono","False","18","no","white","no","yes","768","psycho","12","79","/Users/xaleyelyse/Downloads/xwsubject-1.csv","psycho","Melodramatic Milgram","4.0.5","0","s","NA","s","h","NA","s","450.6917049875483","NA","51868.98840199865","9530.219651991501","NA","450.6917049875483","2","psycho","1024","2","48000","-16","experiment","SSSSS","1","odd","214869.09061799815","55567.40831199568","196617.0793150086","NA","118766.70627300336","3633.1986139994115","NA","NA","215918.7790989963","3681.248751003295","187084.6784690075","NA","216024.4963340083","216477.35297700274","215907.01423700375","216023.3910800016","Flanker task","92","43290.55931093171","93","1024"
"98","98","465","465","black","psycho","psycho","psycho","incongruent","1","undefined","1","h","93","0","0","0","93","0","93","0","93","0","0","0","93","93","93","93","Sun Sep 17 15:50:54 2023","600","The main experiment item","True","Flankertask.osexp","/Users/xaleyelyse/Desktop","False","mono","False","18","no","white","no","yes","768","psycho","13","79","/Users/xaleyelyse/Downloads/xwsubject-1.csv","psycho","Melodramatic Milgram","4.0.5","0","h","NA","s","h","NA","h","506.33176701376215","NA","51868.98840199865","9530.219651991501","NA","506.33176701376215","2","psycho","1024","2","48000","-16","experiment","SSHSS","1","odd","216482.4582059955","55567.40831199568","196617.0793150086","NA","118766.70627300336","3633.1986139994115","NA","NA","217531.53156100598","3681.248751003295","187084.6784690075","NA","217637.79047099524","218146.42320699932","217519.8270480032","217636.52306899894","Flanker task","93","43796.891077945475","94","1024"
"98","98","466","466","black","psycho","psycho","psycho","congruent","1","undefined","1","h","94","0","0","0","94","0","94","0","94","0","0","0","94","94","94","94","Sun Sep 17 15:50:54 2023","600","The main experiment item","True","Flankertask.osexp","/Users/xaleyelyse/Desktop","False","mono","False","18","no","white","no","yes","768","psycho","14","79","/Users/xaleyelyse/Downloads/xwsubject-1.csv","psycho","Melodramatic Milgram","4.0.5","0","h","NA","s","h","NA","h","491.38428500737064","NA","51868.98840199865","9530.219651991501","NA","491.38428500737064","2","psycho","1024","2","48000","-16","experiment","HHHHH","1","odd","218151.59331999894","55567.40831199568","196617.0793150086","NA","118766.70627300336","3633.1986139994115","NA","NA","219200.50242400612","3681.248751003295","187084.6784690075","NA","219308.27444999886","219802.2461829969","219188.9910500031","219307.9665289988","Flanker task","94","44288.275362952845","95","1024"
"98","98","465","465","black","psycho","psycho","psycho","congruent","1","undefined","1","s","95","0","0","0","95","0","95","0","95","0","0","0","95","95","95","95","Sun Sep 17 15:50:54 2023","600","The main experiment item","True","Flankertask.osexp","/Users/xaleyelyse/Desktop","False","mono","False","18","no","white","no","yes","768","psycho","15","79","/Users/xaleyelyse/Downloads/xwsubject-1.csv","psycho","Melodramatic Milgram","4.0.5","0","s","NA","s","h","NA","s","427.26990599476267","NA","51868.98840199865","9530.219651991501","NA","427.26990599476267","2","psycho","1024","2","48000","-16","experiment","SSSSS","1","odd","219807.0922790066","55567.40831199568","196617.0793150086","NA","118766.70627300336","3633.1986139994115","NA","NA","220858.71707300248","3681.248751003295","187084.6784690075","NA","220965.74414300267","221395.8187340031","220845.69832100533","220965.4364099988","Flanker task","95","44715.54526894761","96","1024"
"98","98","467","467","black","psycho","psycho","psycho","incongruent","1","undefined","1","s","96","0","0","0","96","0","96","0","96","0","0","0","96","96","96","96","Sun Sep 17 15:50:54 2023","600","The main experiment item","True","Flankertask.osexp","/Users/xaleyelyse/Desktop","False","mono","False","18","no","white","no","yes","768","psycho","16","79","/Users/xaleyelyse/Downloads/xwsubject-1.csv","psycho","Melodramatic Milgram","4.0.5","0","s","NA","s","h","NA","s","604.787098011002","NA","51868.98840199865","9530.219651991501","NA","604.787098011002","2","psycho","1024","2","48000","-16","experiment","HHSHH","1","odd","221400.4476990085","55567.40831199568","196617.0793150086","NA","118766.70627300336","3633.1986139994115","NA","NA","222449.32276500913","3681.248751003295","187084.6784690075","NA","222555.21536299784","223162.25509200012","222438.20540199522","222554.13232999854","Flanker task","96","45320.33236695861","97","1024"
"98","98","471","471","black","psycho","psycho","psycho","congruent","1","undefined","1","s","97","0","0","0","97","0","97","0","97","0","0","0","97","97","97","97","Sun Sep 17 15:50:54 2023","600","The main experiment item","True","Flankertask.osexp","/Users/xaleyelyse/Desktop","False","mono","False","18","no","white","no","yes","768","psycho","17","79","/Users/xaleyelyse/Downloads/xwsubject-1.csv","psycho","Melodramatic Milgram","4.0.5","0","s","NA","s","h","NA","s","918.0874609883176","NA","51868.98840199865","9530.219651991501","NA","918.0874609883176","2","psycho","1024","2","48000","-16","experiment","SSSSS","1","odd","223676.87639700307","55567.40831199568","196617.0793150086","NA","118766.70627300336","3633.1986139994115","223172.4279320042","NA","224726.8815270072","3681.248751003295","187084.6784690075","NA","224834.04105700902","225754.5012019982","224714.43292200274","224832.8150340094","Flanker task","97","46238.41982794693","98","1024"
"98","98","472","472","black","psycho","psycho","psycho","incongruent","1","undefined","1","h","98","0","0","0","98","0","98","0","98","0","0","0","98","98","98","98","Sun Sep 17 15:50:54 2023","600","The main experiment item","True","Flankertask.osexp","/Users/xaleyelyse/Desktop","False","mono","False","18","no","white","no","yes","768","psycho","18","79","/Users/xaleyelyse/Downloads/xwsubject-1.csv","psycho","Melodramatic Milgram","4.0.5","0","h","NA","s","h","NA","h","522.4738640099531","NA","51868.98840199865","9530.219651991501","NA","522.4738640099531","2","psycho","1024","2","48000","-16","experiment","SSHSS","1","odd","226268.4020440065","55567.40831199568","196617.0793150086","NA","118766.70627300336","3633.1986139994115","225762.05267300247","NA","227320.65592199797","3681.248751003295","187084.6784690075","NA","227427.246938998","227951.9078410085","227309.4334339985","227426.93734199565","Flanker task","98","46760.89369195688","99","1024"
"99","99","471","471","black","psycho","psycho","psycho","congruent","1","undefined","1","s","99","0","0","0","99","0","99","0","99","0","0","0","99","99","99","99","Sun Sep 17 15:50:54 2023","600","The main experiment item","True","Flankertask.osexp","/Users/xaleyelyse/Desktop","False","mono","False","18","no","white","no","yes","768","psycho","19","79","/Users/xaleyelyse/Downloads/xwsubject-1.csv","psycho","Melodramatic Milgram","4.0.5","0","s","NA","s","h","NA","s","353.6782410083106","NA","51868.98840199865","9530.219651991501","NA","353.6782410083106","2","psycho","1024","2","48000","-16","experiment","SSSSS","1","odd","227957.07675600715","55567.40831199568","196617.0793150086","NA","118766.70627300336","3633.1986139994115","225762.05267300247","NA","229007.3966320051","3681.248751003295","187084.6784690075","NA","229113.09973799507","229469.07734300476","228994.83308799972","229111.96829599794","Flanker task","99","47114.57193296519","100","1024"
"99","99","472","472","black","psycho","psycho","psycho","incongruent","1","undefined","1","s","100","0","0","0","100","0","100","0","100","0","0","0","100","100","100","100","Sun Sep 17 15:50:54 2023","600","The main experiment item","True","Flankertask.osexp","/Users/xaleyelyse/Desktop","False","mono","False","18","no","white","no","yes","768","psycho","20","79","/Users/xaleyelyse/Downloads/xwsubject-1.csv","psycho","Melodramatic Milgram","4.0.5","0","s","NA","s","h","NA","s","597.351073010941","NA","51868.98840199865","9530.219651991501","NA","597.351073010941","2","psycho","1024","2","48000","-16","experiment","HHSHH","1","odd","229474.59628000797","55567.40831199568","196617.0793150086","NA","118766.70627300336","3633.1986139994115","225762.05267300247","NA","230525.3124870069","3681.248751003295","187084.6784690075","NA","230631.3598639972","231231.03537000134","230512.42714800173","230630.23060599517","Flanker task","100","47711.92300597613","101","1024"
"99","99","471","471","black","psycho","psycho","psycho","incongruent","1","undefined","1","h","101","0","0","0","101","0","101","0","101","0","0","0","101","101","101","101","Sun Sep 17 15:50:54 2023","600","The main experiment item","True","Flankertask.osexp","/Users/xaleyelyse/Desktop","False","mono","False","18","no","white","no","yes","768","psycho","21","79","/Users/xaleyelyse/Downloads/xwsubject-1.csv","psycho","Melodramatic Milgram","4.0.5","0","h","NA","s","h","NA","h","381.8516430037562","NA","51868.98840199865","9530.219651991501","NA","381.8516430037562","2","psycho","1024","2","48000","-16","experiment","SSHSS","1","odd","231236.50353500852","55567.40831199568","196617.0793150086","NA","118766.70627300336","3633.1986139994115","225762.05267300247","NA","232289.34714999923","3681.248751003295","187084.6784690075","NA","232395.84378400468","232779.88658500544","232278.69392999855","232395.56352200452","Flanker task","101","48093.77464897989","102","1024"
"99","99","470","470","black","psycho","psycho","psycho","incongruent","1","undefined","1","s","102","0","0","0","102","0","102","0","102","0","0","0","102","102","102","102","Sun Sep 17 15:50:54 2023","600","The main experiment item","True","Flankertask.osexp","/Users/xaleyelyse/Desktop","False","mono","False","18","no","white","no","yes","768","psycho","22","79","/Users/xaleyelyse/Downloads/xwsubject-1.csv","psycho","Melodramatic Milgram","4.0.5","0","s","NA","s","h","NA","s","377.3691929964116","NA","51868.98840199865","9530.219651991501","NA","377.3691929964116","2","psycho","1024","2","48000","-16","experiment","HHSHH","1","odd","232785.05571400456","55567.40831199568","196617.0793150086","NA","118766.70627300336","3633.1986139994115","225762.05267300247","NA","233833.90023899847","3681.248751003295","187084.6784690075","NA","233940.21798500034","234319.84489799652","233822.5623199978","233939.905221996","Flanker task","102","48471.1438419763","103","1024"
"99","99","469","469","black","psycho","psycho","psycho","congruent","1","undefined","1","h","103","0","0","0","103","0","103","0","103","0","0","0","103","103","103","103","Sun Sep 17 15:50:54 2023","600","The main experiment item","True","Flankertask.osexp","/Users/xaleyelyse/Desktop","False","mono","False","18","no","white","no","yes","768","psycho","23","79","/Users/xaleyelyse/Downloads/xwsubject-1.csv","psycho","Melodramatic Milgram","4.0.5","0","h","NA","s","h","NA","h","403.42524799052626","NA","51868.98840199865","9530.219651991501","NA","403.42524799052626","2","psycho","1024","2","48000","-16","experiment","HHHHH","1","odd","234324.9967830052","55567.40831199568","196617.0793150086","NA","118766.70627300336","3633.1986139994115","225762.05267300247","NA","235373.28828300815","3681.248751003295","187084.6784690075","NA","235479.0438390046","235884.7392010066","235362.0419719955","235477.9676830076","Flanker task","103","48874.569089966826","104","1024"
"99","99","469","469","black","psycho","psycho","psycho","congruent","1","undefined","1","h","104","0","0","0","104","0","104","0","104","0","0","0","104","104","104","104","Sun Sep 17 15:50:54 2023","600","The main experiment item","True","Flankertask.osexp","/Users/xaleyelyse/Desktop","False","mono","False","18","no","white","no","yes","768","psycho","24","79","/Users/xaleyelyse/Downloads/xwsubject-1.csv","psycho","Melodramatic Milgram","4.0.5","0","h","NA","s","h","NA","h","425.88540600263514","NA","51868.98840199865","9530.219651991501","NA","425.88540600263514","2","psycho","1024","2","48000","-16","experiment","HHHHH","1","odd","235889.86424700124","55567.40831199568","196617.0793150086","NA","118766.70627300336","3633.1986139994115","225762.05267300247","NA","236938.77058199723","3681.248751003295","187084.6784690075","NA","237045.47314600495","237473.70504900755","236927.40027300897","237045.1622420078","Flanker task","104","49300.45449596946","105","1024"
"99","99","469","469","black","psycho","psycho","psycho","incongruent","1","undefined","1","h","105","0","0","0","105","0","105","0","105","0","0","0","105","105","105","105","Sun Sep 17 15:50:54 2023","600","The main experiment item","True","Flankertask.osexp","/Users/xaleyelyse/Desktop","False","mono","False","18","no","white","no","yes","768","psycho","25","79","/Users/xaleyelyse/Downloads/xwsubject-1.csv","psycho","Melodramatic Milgram","4.0.5","0","h","NA","s","h","NA","h","480.9647079964634","NA","51868.98840199865","9530.219651991501","NA","480.9647079964634","2","psycho","1024","2","48000","-16","experiment","SSHSS","1","odd","237478.8291260047","55567.40831199568","196617.0793150086","NA","118766.70627300336","3633.1986139994115","225762.05267300247","NA","238529.51691400085","3681.248751003295","187084.6784690075","NA","238636.21213000442","239119.40843499906","238516.80076000048","238635.90891900822","Flanker task","105","49781.419203965925","106","1024"
"98","98","468","468","black","psycho","psycho","psycho","incongruent","0","undefined","0","h","106","0","0","0","106","0","106","0","106","0","0","0","106","106","106","106","Sun Sep 17 15:50:54 2023","600","The main experiment item","True","Flankertask.osexp","/Users/xaleyelyse/Desktop","False","mono","False","18","no","white","no","yes","768","psycho","26","79","/Users/xaleyelyse/Downloads/xwsubject-1.csv","psycho","Melodramatic Milgram","4.0.5","0","s","NA","s","h","NA","s","366.7838419933105","NA","51868.98840199865","9530.219651991501","NA","366.7838419933105","2","psycho","1024","2","48000","-16","experiment","SSHSS","1","odd","239125.0191059953","55567.40831199568","196617.0793150086","NA","118766.70627300336","3633.1986139994115","225762.05267300247","NA","240176.00089400366","3681.248751003295","187084.6784690075","NA","240282.5954870059","240651.76846200484","240162.1941580088","240282.28697300074","Flanker task","105","50148.203045959235","107","1024"
