acc,accuracy,average_response_time,avg_rt,background,canvas_backend,clock_backend,color_backend,compensation,condition,coordinates,correct,correct_Instructions1,correct_keyboardresponse,correct_response,count_Block1,count_Block2,count_Finish,count_Fixation,count_ISI,count_Instructions1,count_Instructions2,count_Instructions3,count_Sequence,count_Stimulus,count_block3,count_errorFeedback,count_experiment,count_faster,count_getting_started,count_keyboardresponse,count_logger,count_welcome,datetime,deadline,description,disable_garbage_collection,experiment_file,experiment_path,font_bold,font_family,font_italic,font_size,font_underline,foreground,form_clicks,fullscreen,height,keyboard_backend,live_row,live_row_Block1,logfile,mouse_backend,opensesame_codename,opensesame_version,repeat_cycle,response,response_Finish,response_Instructions1,response_Instructions2,response_Instructions3,response_keyboardresponse,response_time,response_time_Finish,response_time_Instructions1,response_time_Instructions2,response_time_Instructions3,response_time_keyboardresponse,response_time_welcome,response_welcome,round_decimals,sampler_backend,sound_buf_size,sound_channels,sound_freq,sound_sample_size,start,stimulus,subject_nr,subject_parity,time_Block1,time_Block2,time_Finish,time_Fixation,time_ISI,time_Instructions1,time_Instructions2,time_Instructions3,time_Sequence,time_Stimulus,time_block3,time_errorFeedback,time_experiment,time_faster,time_getting_started,time_keyboardresponse,time_logger,time_welcome,title,total_correct,total_response_time,total_responses,uniform_coordinates,width
100,100,1433,1433,#000000,legacy,legacy,legacy,0,congruent,uniform,1,undefined,1,h,0,0,0,0,0,0,0,0,0,0,0,0,0,0,NA,0,0,NA,9/25/2021 19:49,1500,The main experiment item,yes,Lab21TestFlankerTask.osexp,C:\Users\mmcel\OneDrive\GRAD SCHOOL\fall 2021\Advanced Quant,no,mono,no,18,no,#ffffff,no,yes,768,legacy,0,0,C:/Users/mmcel/OneDrive/GRAD SCHOOL/fall 2021/Advanced Quant/MM-Subject-3.csv,legacy,Lentiform Loewenfeld,3.3.9,0,h,NA,s,NA,NA,h,1433,NA,11891,NA,NA,1433,NA,NA,2,legacy,1024,2,48000,-16,experiment,HHHHH,3,odd,14220,NA,NA,14302,NA,2328,NA,NA,14300,14406,NA,NA,2324,NA,NA,14407,15841,NA,Lab 2.1 Test Flanker Task,1,1433,1,yes,1024
50,50,991.5,991.5,#000000,legacy,legacy,legacy,0,incongruent,uniform,0,undefined,0,h,0,0,0,1,1,0,0,0,1,1,0,1,0,1,NA,1,1,NA,9/25/2021 19:49,1500,The main experiment item,yes,Lab21TestFlankerTask.osexp,C:\Users\mmcel\OneDrive\GRAD SCHOOL\fall 2021\Advanced Quant,no,mono,no,18,no,#ffffff,no,yes,768,legacy,1,1,C:/Users/mmcel/OneDrive/GRAD SCHOOL/fall 2021/Advanced Quant/MM-Subject-3.csv,legacy,Lentiform Loewenfeld,3.3.9,0,s,NA,s,NA,NA,s,550,NA,11891,NA,NA,550,NA,NA,2,legacy,1024,2,48000,-16,experiment,SSHSS,3,odd,14220,NA,NA,17001,15927,2328,NA,NA,16999,17106,NA,NA,2324,NA,NA,17106,17657,NA,Lab 2.1 Test Flanker Task,1,1983,2,yes,1024
33.33333333,33.33333333,856,856,#000000,legacy,legacy,legacy,0,incongruent,uniform,0,undefined,0,s,0,0,0,2,2,0,0,0,2,2,0,2,0,2,NA,2,2,NA,9/25/2021 19:49,1500,The main experiment item,yes,Lab21TestFlankerTask.osexp,C:\Users\mmcel\OneDrive\GRAD SCHOOL\fall 2021\Advanced Quant,no,mono,no,18,no,#ffffff,no,yes,768,legacy,2,2,C:/Users/mmcel/OneDrive/GRAD SCHOOL/fall 2021/Advanced Quant/MM-Subject-3.csv,legacy,Lentiform Loewenfeld,3.3.9,0,h,NA,s,NA,NA,h,585,NA,11891,NA,NA,585,NA,NA,2,legacy,1024,2,48000,-16,experiment,HHSHH,3,odd,14220,NA,NA,19289,18198,2328,NA,NA,19286,19393,NA,17695,2324,NA,NA,19393,19979,NA,Lab 2.1 Test Flanker Task,1,2568,3,yes,1024
50,50,854.5,854.5,#000000,legacy,legacy,legacy,0,incongruent,uniform,1,undefined,1,h,0,0,0,3,3,0,0,0,3,3,0,3,0,3,NA,3,3,NA,9/25/2021 19:49,1500,The main experiment item,yes,Lab21TestFlankerTask.osexp,C:\Users\mmcel\OneDrive\GRAD SCHOOL\fall 2021\Advanced Quant,no,mono,no,18,no,#ffffff,no,yes,768,legacy,3,3,C:/Users/mmcel/OneDrive/GRAD SCHOOL/fall 2021/Advanced Quant/MM-Subject-3.csv,legacy,Lentiform Loewenfeld,3.3.9,0,h,NA,s,NA,NA,h,850,NA,11891,NA,NA,850,NA,NA,2,legacy,1024,2,48000,-16,experiment,SSHSS,3,odd,14220,NA,NA,21612,20531,2328,NA,NA,21610,21713,NA,20026,2324,NA,NA,21713,22563,NA,Lab 2.1 Test Flanker Task,2,3418,4,yes,1024
60,60,807.4,807.4,#000000,legacy,legacy,legacy,0,incongruent,uniform,1,undefined,1,s,0,0,0,4,4,0,0,0,4,4,0,4,0,4,NA,4,4,NA,9/25/2021 19:49,1500,The main experiment item,yes,Lab21TestFlankerTask.osexp,C:\Users\mmcel\OneDrive\GRAD SCHOOL\fall 2021\Advanced Quant,no,mono,no,18,no,#ffffff,no,yes,768,legacy,4,4,C:/Users/mmcel/OneDrive/GRAD SCHOOL/fall 2021/Advanced Quant/MM-Subject-3.csv,legacy,Lentiform Loewenfeld,3.3.9,0,s,NA,s,NA,NA,s,619,NA,11891,NA,NA,619,NA,NA,2,legacy,1024,2,48000,-16,experiment,HHSHH,3,odd,14220,NA,NA,23723,22617,2328,NA,NA,23720,23824,NA,20026,2324,NA,NA,23824,24444,NA,Lab 2.1 Test Flanker Task,3,4037,5,yes,1024
50,50,761.8333333,761.8333333,#000000,legacy,legacy,legacy,0,congruent,uniform,0,undefined,0,s,0,0,0,5,5,0,0,0,5,5,0,5,0,5,NA,5,5,NA,9/25/2021 19:49,1500,The main experiment item,yes,Lab21TestFlankerTask.osexp,C:\Users\mmcel\OneDrive\GRAD SCHOOL\fall 2021\Advanced Quant,no,mono,no,18,no,#ffffff,no,yes,768,legacy,5,5,C:/Users/mmcel/OneDrive/GRAD SCHOOL/fall 2021/Advanced Quant/MM-Subject-3.csv,legacy,Lentiform Loewenfeld,3.3.9,0,h,NA,s,NA,NA,h,534,NA,11891,NA,NA,534,NA,NA,2,legacy,1024,2,48000,-16,experiment,SSSSS,3,odd,14220,NA,NA,25597,24493,2328,NA,NA,25595,25701,NA,20026,2324,NA,NA,25701,26236,NA,Lab 2.1 Test Flanker Task,3,4571,6,yes,1024
57.14285714,57.14285714,786.7142857,786.7142857,#000000,legacy,legacy,legacy,0,congruent,uniform,1,undefined,1,h,0,0,0,6,6,0,0,0,6,6,0,6,0,6,NA,6,6,NA,9/25/2021 19:49,1500,The main experiment item,yes,Lab21TestFlankerTask.osexp,C:\Users\mmcel\OneDrive\GRAD SCHOOL\fall 2021\Advanced Quant,no,mono,no,18,no,#ffffff,no,yes,768,legacy,6,6,C:/Users/mmcel/OneDrive/GRAD SCHOOL/fall 2021/Advanced Quant/MM-Subject-3.csv,legacy,Lentiform Loewenfeld,3.3.9,0,h,NA,s,NA,NA,h,936,NA,11891,NA,NA,936,NA,NA,2,legacy,1024,2,48000,-16,experiment,HHHHH,3,odd,14220,NA,NA,27896,26790,2328,NA,NA,27894,28001,NA,26286,2324,NA,NA,28002,28938,NA,Lab 2.1 Test Flanker Task,4,5507,7,yes,1024
62.5,62.5,806,806,#000000,legacy,legacy,legacy,0,congruent,uniform,1,undefined,1,s,0,0,0,7,7,0,0,0,7,7,0,7,0,7,NA,7,7,NA,9/25/2021 19:49,1500,The main experiment item,yes,Lab21TestFlankerTask.osexp,C:\Users\mmcel\OneDrive\GRAD SCHOOL\fall 2021\Advanced Quant,no,mono,no,18,no,#ffffff,no,yes,768,legacy,7,7,C:/Users/mmcel/OneDrive/GRAD SCHOOL/fall 2021/Advanced Quant/MM-Subject-3.csv,legacy,Lentiform Loewenfeld,3.3.9,0,s,NA,s,NA,NA,s,941,NA,11891,NA,NA,941,NA,NA,2,legacy,1024,2,48000,-16,experiment,SSSSS,3,odd,14220,NA,NA,30065,28982,2328,NA,NA,30063,30168,NA,26286,2324,NA,NA,30168,31109,NA,Lab 2.1 Test Flanker Task,5,6448,8,yes,1024
66.66666667,66.66666667,803,803,#000000,legacy,legacy,legacy,0,incongruent,uniform,1,undefined,1,h,0,0,0,8,8,0,0,0,8,8,0,8,0,8,NA,8,8,NA,9/25/2021 19:49,1500,The main experiment item,yes,Lab21TestFlankerTask.osexp,C:\Users\mmcel\OneDrive\GRAD SCHOOL\fall 2021\Advanced Quant,no,mono,no,18,no,#ffffff,no,yes,768,legacy,8,8,C:/Users/mmcel/OneDrive/GRAD SCHOOL/fall 2021/Advanced Quant/MM-Subject-3.csv,legacy,Lentiform Loewenfeld,3.3.9,0,h,NA,s,NA,NA,h,779,NA,11891,NA,NA,779,NA,NA,2,legacy,1024,2,48000,-16,experiment,SSHSS,3,odd,14220,NA,NA,32231,31137,2328,NA,NA,32228,32335,NA,26286,2324,NA,NA,32335,33115,NA,Lab 2.1 Test Flanker Task,6,7227,9,yes,1024
70,70,793.8,793.8,#000000,legacy,legacy,legacy,0,congruent,uniform,1,undefined,1,h,0,0,0,9,9,0,0,0,9,9,0,9,0,9,NA,9,9,NA,9/25/2021 19:49,1500,The main experiment item,yes,Lab21TestFlankerTask.osexp,C:\Users\mmcel\OneDrive\GRAD SCHOOL\fall 2021\Advanced Quant,no,mono,no,18,no,#ffffff,no,yes,768,legacy,9,9,C:/Users/mmcel/OneDrive/GRAD SCHOOL/fall 2021/Advanced Quant/MM-Subject-3.csv,legacy,Lentiform Loewenfeld,3.3.9,0,h,NA,s,NA,NA,h,711,NA,11891,NA,NA,711,NA,NA,2,legacy,1024,2,48000,-16,experiment,HHHHH,3,odd,14220,NA,NA,34246,33160,2328,NA,NA,34243,34349,NA,26286,2324,NA,NA,34349,35061,NA,Lab 2.1 Test Flanker Task,7,7938,10,yes,1024
72.72727273,72.72727273,794.2727273,794.2727273,#000000,legacy,legacy,legacy,0,incongruent,uniform,1,undefined,1,h,0,0,0,10,10,0,0,0,10,10,0,10,0,10,NA,10,10,NA,9/25/2021 19:49,1500,The main experiment item,yes,Lab21TestFlankerTask.osexp,C:\Users\mmcel\OneDrive\GRAD SCHOOL\fall 2021\Advanced Quant,no,mono,no,18,no,#ffffff,no,yes,768,legacy,10,10,C:/Users/mmcel/OneDrive/GRAD SCHOOL/fall 2021/Advanced Quant/MM-Subject-3.csv,legacy,Lentiform Loewenfeld,3.3.9,0,h,NA,s,NA,NA,h,799,NA,11891,NA,NA,799,NA,NA,2,legacy,1024,2,48000,-16,experiment,SSHSS,3,odd,14220,NA,NA,36206,35116,2328,NA,NA,36204,36307,NA,26286,2324,NA,NA,36307,37107,NA,Lab 2.1 Test Flanker Task,8,8737,11,yes,1024
75,75,777.75,777.75,#000000,legacy,legacy,legacy,0,congruent,uniform,1,undefined,1,s,0,0,0,11,11,0,0,0,11,11,0,11,0,11,NA,11,11,NA,9/25/2021 19:49,1500,The main experiment item,yes,Lab21TestFlankerTask.osexp,C:\Users\mmcel\OneDrive\GRAD SCHOOL\fall 2021\Advanced Quant,no,mono,no,18,no,#ffffff,no,yes,768,legacy,11,11,C:/Users/mmcel/OneDrive/GRAD SCHOOL/fall 2021/Advanced Quant/MM-Subject-3.csv,legacy,Lentiform Loewenfeld,3.3.9,0,s,NA,s,NA,NA,s,596,NA,11891,NA,NA,596,NA,NA,2,legacy,1024,2,48000,-16,experiment,SSSSS,3,odd,14220,NA,NA,38219,37127,2328,NA,NA,38216,38323,NA,26286,2324,NA,NA,38323,38919,NA,Lab 2.1 Test Flanker Task,9,9333,12,yes,1024
76.92307692,76.92307692,765.7692308,765.7692308,#000000,legacy,legacy,legacy,0,congruent,uniform,1,undefined,1,h,0,0,0,12,12,0,0,0,12,12,0,12,0,12,NA,12,12,NA,9/25/2021 19:49,1500,The main experiment item,yes,Lab21TestFlankerTask.osexp,C:\Users\mmcel\OneDrive\GRAD SCHOOL\fall 2021\Advanced Quant,no,mono,no,18,no,#ffffff,no,yes,768,legacy,12,12,C:/Users/mmcel/OneDrive/GRAD SCHOOL/fall 2021/Advanced Quant/MM-Subject-3.csv,legacy,Lentiform Loewenfeld,3.3.9,0,h,NA,s,NA,NA,h,622,NA,11891,NA,NA,622,NA,NA,2,legacy,1024,2,48000,-16,experiment,HHHHH,3,odd,14220,NA,NA,40080,38974,2328,NA,NA,40077,40183,NA,26286,2324,NA,NA,40183,40806,NA,Lab 2.1 Test Flanker Task,10,9955,13,yes,1024
78.57142857,78.57142857,777.5714286,777.5714286,#000000,legacy,legacy,legacy,0,incongruent,uniform,1,undefined,1,s,0,0,0,13,13,0,0,0,13,13,0,13,0,13,NA,13,13,NA,9/25/2021 19:49,1500,The main experiment item,yes,Lab21TestFlankerTask.osexp,C:\Users\mmcel\OneDrive\GRAD SCHOOL\fall 2021\Advanced Quant,no,mono,no,18,no,#ffffff,no,yes,768,legacy,13,13,C:/Users/mmcel/OneDrive/GRAD SCHOOL/fall 2021/Advanced Quant/MM-Subject-3.csv,legacy,Lentiform Loewenfeld,3.3.9,0,s,NA,s,NA,NA,s,931,NA,11891,NA,NA,931,NA,NA,2,legacy,1024,2,48000,-16,experiment,HHSHH,3,odd,14220,NA,NA,41933,40849,2328,NA,NA,41930,42037,NA,26286,2324,NA,NA,42038,42970,NA,Lab 2.1 Test Flanker Task,11,10886,14,yes,1024
80,80,778.7333333,778.7333333,#000000,legacy,legacy,legacy,0,incongruent,uniform,1,undefined,1,s,0,0,0,14,14,0,0,0,14,14,0,14,0,14,NA,14,14,NA,9/25/2021 19:49,1500,The main experiment item,yes,Lab21TestFlankerTask.osexp,C:\Users\mmcel\OneDrive\GRAD SCHOOL\fall 2021\Advanced Quant,no,mono,no,18,no,#ffffff,no,yes,768,legacy,14,14,C:/Users/mmcel/OneDrive/GRAD SCHOOL/fall 2021/Advanced Quant/MM-Subject-3.csv,legacy,Lentiform Loewenfeld,3.3.9,0,s,NA,s,NA,NA,s,795,NA,11891,NA,NA,795,NA,NA,2,legacy,1024,2,48000,-16,experiment,HHSHH,3,odd,14220,NA,NA,44114,43020,2328,NA,NA,44112,44218,NA,26286,2324,NA,NA,44218,45013,NA,Lab 2.1 Test Flanker Task,12,11681,15,yes,1024
81.25,81.25,772.125,772.125,#000000,legacy,legacy,legacy,0,incongruent,uniform,1,undefined,1,s,0,0,0,15,15,0,0,0,15,15,0,15,0,15,NA,15,15,NA,9/25/2021 19:49,1500,The main experiment item,yes,Lab21TestFlankerTask.osexp,C:\Users\mmcel\OneDrive\GRAD SCHOOL\fall 2021\Advanced Quant,no,mono,no,18,no,#ffffff,no,yes,768,legacy,15,15,C:/Users/mmcel/OneDrive/GRAD SCHOOL/fall 2021/Advanced Quant/MM-Subject-3.csv,legacy,Lentiform Loewenfeld,3.3.9,0,s,NA,s,NA,NA,s,673,NA,11891,NA,NA,673,NA,NA,2,legacy,1024,2,48000,-16,experiment,HHSHH,3,odd,14220,NA,NA,46149,45064,2328,NA,NA,46147,46253,NA,26286,2324,NA,NA,46253,46927,NA,Lab 2.1 Test Flanker Task,13,12354,16,yes,1024
82.35294118,82.35294118,757.2941176,757.2941176,#000000,legacy,legacy,legacy,0,incongruent,uniform,1,undefined,1,s,0,0,0,16,16,0,0,0,16,16,0,16,0,16,NA,16,16,NA,9/25/2021 19:49,1500,The main experiment item,yes,Lab21TestFlankerTask.osexp,C:\Users\mmcel\OneDrive\GRAD SCHOOL\fall 2021\Advanced Quant,no,mono,no,18,no,#ffffff,no,yes,768,legacy,16,16,C:/Users/mmcel/OneDrive/GRAD SCHOOL/fall 2021/Advanced Quant/MM-Subject-3.csv,legacy,Lentiform Loewenfeld,3.3.9,0,s,NA,s,NA,NA,s,520,NA,11891,NA,NA,520,NA,NA,2,legacy,1024,2,48000,-16,experiment,HHSHH,3,odd,14220,NA,NA,48041,46949,2328,NA,NA,48038,48142,NA,26286,2324,NA,NA,48142,48662,NA,Lab 2.1 Test Flanker Task,14,12874,17,yes,1024
83.33333333,83.33333333,741.1666667,741.1666667,#000000,legacy,legacy,legacy,0,congruent,uniform,1,undefined,1,s,0,0,0,17,17,0,0,0,17,17,0,17,0,17,NA,17,17,NA,9/25/2021 19:49,1500,The main experiment item,yes,Lab21TestFlankerTask.osexp,C:\Users\mmcel\OneDrive\GRAD SCHOOL\fall 2021\Advanced Quant,no,mono,no,18,no,#ffffff,no,yes,768,legacy,17,17,C:/Users/mmcel/OneDrive/GRAD SCHOOL/fall 2021/Advanced Quant/MM-Subject-3.csv,legacy,Lentiform Loewenfeld,3.3.9,0,s,NA,s,NA,NA,s,467,NA,11891,NA,NA,467,NA,NA,2,legacy,1024,2,48000,-16,experiment,SSSSS,3,odd,14220,NA,NA,49823,48720,2328,NA,NA,49821,49927,NA,26286,2324,NA,NA,49927,50395,NA,Lab 2.1 Test Flanker Task,15,13341,18,yes,1024
84.21052632,84.21052632,740.1052632,740.1052632,#000000,legacy,legacy,legacy,0,incongruent,uniform,1,undefined,1,s,0,0,0,18,18,0,0,0,18,18,0,18,0,18,NA,18,18,NA,9/25/2021 19:49,1500,The main experiment item,yes,Lab21TestFlankerTask.osexp,C:\Users\mmcel\OneDrive\GRAD SCHOOL\fall 2021\Advanced Quant,no,mono,no,18,no,#ffffff,no,yes,768,legacy,18,18,C:/Users/mmcel/OneDrive/GRAD SCHOOL/fall 2021/Advanced Quant/MM-Subject-3.csv,legacy,Lentiform Loewenfeld,3.3.9,0,s,NA,s,NA,NA,s,721,NA,11891,NA,NA,721,NA,NA,2,legacy,1024,2,48000,-16,experiment,HHSHH,3,odd,14220,NA,NA,51536,50438,2328,NA,NA,51534,51640,NA,26286,2324,NA,NA,51640,52361,NA,Lab 2.1 Test Flanker Task,16,14062,19,yes,1024
85,85,726.65,726.65,#000000,legacy,legacy,legacy,0,congruent,uniform,1,undefined,1,s,0,0,0,19,19,0,0,0,19,19,0,19,0,19,NA,19,19,NA,9/25/2021 19:49,1500,The main experiment item,yes,Lab21TestFlankerTask.osexp,C:\Users\mmcel\OneDrive\GRAD SCHOOL\fall 2021\Advanced Quant,no,mono,no,18,no,#ffffff,no,yes,768,legacy,19,19,C:/Users/mmcel/OneDrive/GRAD SCHOOL/fall 2021/Advanced Quant/MM-Subject-3.csv,legacy,Lentiform Loewenfeld,3.3.9,0,s,NA,s,NA,NA,s,471,NA,11891,NA,NA,471,NA,NA,2,legacy,1024,2,48000,-16,experiment,SSSSS,3,odd,14220,NA,NA,53475,52394,2328,NA,NA,53472,53578,NA,26286,2324,NA,NA,53578,54050,NA,Lab 2.1 Test Flanker Task,17,14533,20,yes,1024
85.71428571,85.71428571,715.5238095,715.5238095,#000000,legacy,legacy,legacy,0,congruent,uniform,1,undefined,1,h,0,0,0,20,20,0,0,0,20,20,0,20,0,20,NA,20,20,NA,9/25/2021 19:49,1500,The main experiment item,yes,Lab21TestFlankerTask.osexp,C:\Users\mmcel\OneDrive\GRAD SCHOOL\fall 2021\Advanced Quant,no,mono,no,18,no,#ffffff,no,yes,768,legacy,20,20,C:/Users/mmcel/OneDrive/GRAD SCHOOL/fall 2021/Advanced Quant/MM-Subject-3.csv,legacy,Lentiform Loewenfeld,3.3.9,0,h,NA,s,NA,NA,h,493,NA,11891,NA,NA,493,NA,NA,2,legacy,1024,2,48000,-16,experiment,HHHHH,3,odd,14220,NA,NA,55181,54094,2328,NA,NA,55179,55284,NA,26286,2324,NA,NA,55284,55778,NA,Lab 2.1 Test Flanker Task,18,15026,21,yes,1024
86.36363636,86.36363636,704.3636364,704.3636364,#000000,legacy,legacy,legacy,0,congruent,uniform,1,undefined,1,h,0,0,0,21,21,0,0,0,21,21,0,21,0,21,NA,21,21,NA,9/25/2021 19:49,1500,The main experiment item,yes,Lab21TestFlankerTask.osexp,C:\Users\mmcel\OneDrive\GRAD SCHOOL\fall 2021\Advanced Quant,no,mono,no,18,no,#ffffff,no,yes,768,legacy,21,21,C:/Users/mmcel/OneDrive/GRAD SCHOOL/fall 2021/Advanced Quant/MM-Subject-3.csv,legacy,Lentiform Loewenfeld,3.3.9,0,h,NA,s,NA,NA,h,470,NA,11891,NA,NA,470,NA,NA,2,legacy,1024,2,48000,-16,experiment,HHHHH,3,odd,14220,NA,NA,56888,55794,2328,NA,NA,56885,56993,NA,26286,2324,NA,NA,56994,57464,NA,Lab 2.1 Test Flanker Task,19,15496,22,yes,1024
82.60869565,82.60869565,693.6521739,693.6521739,#000000,legacy,legacy,legacy,0,incongruent,uniform,0,undefined,0,h,0,0,0,22,22,0,0,0,22,22,0,22,0,22,NA,22,22,NA,9/25/2021 19:49,1500,The main experiment item,yes,Lab21TestFlankerTask.osexp,C:\Users\mmcel\OneDrive\GRAD SCHOOL\fall 2021\Advanced Quant,no,mono,no,18,no,#ffffff,no,yes,768,legacy,22,22,C:/Users/mmcel/OneDrive/GRAD SCHOOL/fall 2021/Advanced Quant/MM-Subject-3.csv,legacy,Lentiform Loewenfeld,3.3.9,0,s,NA,s,NA,NA,s,458,NA,11891,NA,NA,458,NA,NA,2,legacy,1024,2,48000,-16,experiment,SSHSS,3,odd,14220,NA,NA,58628,57534,2328,NA,NA,58625,58732,NA,26286,2324,NA,NA,58732,59191,NA,Lab 2.1 Test Flanker Task,19,15954,23,yes,1024
83.33333333,83.33333333,692.5833333,692.5833333,#000000,legacy,legacy,legacy,0,congruent,uniform,1,undefined,1,h,0,0,0,23,23,0,0,0,23,23,0,23,0,23,NA,23,23,NA,9/25/2021 19:49,1500,The main experiment item,yes,Lab21TestFlankerTask.osexp,C:\Users\mmcel\OneDrive\GRAD SCHOOL\fall 2021\Advanced Quant,no,mono,no,18,no,#ffffff,no,yes,768,legacy,23,23,C:/Users/mmcel/OneDrive/GRAD SCHOOL/fall 2021/Advanced Quant/MM-Subject-3.csv,legacy,Lentiform Loewenfeld,3.3.9,0,h,NA,s,NA,NA,h,668,NA,11891,NA,NA,668,NA,NA,2,legacy,1024,2,48000,-16,experiment,HHHHH,3,odd,14220,NA,NA,60825,59743,2328,NA,NA,60823,60927,NA,59238,2324,NA,NA,60928,61596,NA,Lab 2.1 Test Flanker Task,20,16622,24,yes,1024
84,84,695.92,695.92,#000000,legacy,legacy,legacy,0,incongruent,uniform,1,undefined,1,h,0,0,0,24,24,0,0,0,24,24,0,24,0,24,NA,24,24,NA,9/25/2021 19:49,1500,The main experiment item,yes,Lab21TestFlankerTask.osexp,C:\Users\mmcel\OneDrive\GRAD SCHOOL\fall 2021\Advanced Quant,no,mono,no,18,no,#ffffff,no,yes,768,legacy,24,24,C:/Users/mmcel/OneDrive/GRAD SCHOOL/fall 2021/Advanced Quant/MM-Subject-3.csv,legacy,Lentiform Loewenfeld,3.3.9,0,h,NA,s,NA,NA,h,776,NA,11891,NA,NA,776,NA,NA,2,legacy,1024,2,48000,-16,experiment,SSHSS,3,odd,14220,NA,NA,62734,61650,2328,NA,NA,62732,62838,NA,59238,2324,NA,NA,62838,63614,NA,Lab 2.1 Test Flanker Task,21,17398,25,yes,1024
84.61538462,84.61538462,695.7307692,695.7307692,#000000,legacy,legacy,legacy,0,incongruent,uniform,1,undefined,1,h,0,0,0,25,25,0,0,0,25,25,0,25,0,25,NA,25,25,NA,9/25/2021 19:49,1500,The main experiment item,yes,Lab21TestFlankerTask.osexp,C:\Users\mmcel\OneDrive\GRAD SCHOOL\fall 2021\Advanced Quant,no,mono,no,18,no,#ffffff,no,yes,768,legacy,25,25,C:/Users/mmcel/OneDrive/GRAD SCHOOL/fall 2021/Advanced Quant/MM-Subject-3.csv,legacy,Lentiform Loewenfeld,3.3.9,0,h,NA,s,NA,NA,h,691,NA,11891,NA,NA,691,NA,NA,2,legacy,1024,2,48000,-16,experiment,SSHSS,3,odd,14220,NA,NA,64738,63661,2328,NA,NA,64736,64843,NA,59238,2324,NA,NA,64843,65535,NA,Lab 2.1 Test Flanker Task,22,18089,26,yes,1024
81.48148148,81.48148148,686.8148148,686.8148148,#000000,legacy,legacy,legacy,0,incongruent,uniform,0,undefined,0,s,0,0,0,26,26,0,0,0,26,26,0,26,0,26,NA,26,26,NA,9/25/2021 19:49,1500,The main experiment item,yes,Lab21TestFlankerTask.osexp,C:\Users\mmcel\OneDrive\GRAD SCHOOL\fall 2021\Advanced Quant,no,mono,no,18,no,#ffffff,no,yes,768,legacy,26,26,C:/Users/mmcel/OneDrive/GRAD SCHOOL/fall 2021/Advanced Quant/MM-Subject-3.csv,legacy,Lentiform Loewenfeld,3.3.9,0,h,NA,s,NA,NA,h,455,NA,11891,NA,NA,455,NA,NA,2,legacy,1024,2,48000,-16,experiment,HHSHH,3,odd,14220,NA,NA,66686,65586,2328,NA,NA,66684,66791,NA,59238,2324,NA,NA,66791,67246,NA,Lab 2.1 Test Flanker Task,22,18544,27,yes,1024
82.14285714,82.14285714,693.2142857,693.2142857,#000000,legacy,legacy,legacy,0,congruent,uniform,1,undefined,1,s,0,0,0,27,27,0,0,0,27,27,0,27,0,27,NA,27,27,NA,9/25/2021 19:49,1500,The main experiment item,yes,Lab21TestFlankerTask.osexp,C:\Users\mmcel\OneDrive\GRAD SCHOOL\fall 2021\Advanced Quant,no,mono,no,18,no,#ffffff,no,yes,768,legacy,27,27,C:/Users/mmcel/OneDrive/GRAD SCHOOL/fall 2021/Advanced Quant/MM-Subject-3.csv,legacy,Lentiform Loewenfeld,3.3.9,0,s,NA,s,NA,NA,s,866,NA,11891,NA,NA,866,NA,NA,2,legacy,1024,2,48000,-16,experiment,SSSSS,3,odd,14220,NA,NA,68878,67775,2328,NA,NA,68876,68982,NA,67273,2324,NA,NA,68983,69849,NA,Lab 2.1 Test Flanker Task,23,19410,28,yes,1024
82.75862069,82.75862069,694.7931034,694.7931034,#000000,legacy,legacy,legacy,0,congruent,uniform,1,undefined,1,h,0,0,0,28,28,0,0,0,28,28,0,28,0,28,NA,28,28,NA,9/25/2021 19:49,1500,The main experiment item,yes,Lab21TestFlankerTask.osexp,C:\Users\mmcel\OneDrive\GRAD SCHOOL\fall 2021\Advanced Quant,no,mono,no,18,no,#ffffff,no,yes,768,legacy,28,28,C:/Users/mmcel/OneDrive/GRAD SCHOOL/fall 2021/Advanced Quant/MM-Subject-3.csv,legacy,Lentiform Loewenfeld,3.3.9,0,h,NA,s,NA,NA,h,739,NA,11891,NA,NA,739,NA,NA,2,legacy,1024,2,48000,-16,experiment,HHHHH,3,odd,14220,NA,NA,70989,69897,2328,NA,NA,70987,71093,NA,67273,2324,NA,NA,71094,71833,NA,Lab 2.1 Test Flanker Task,24,20149,29,yes,1024
83.33333333,83.33333333,697.5666667,697.5666667,#000000,legacy,legacy,legacy,0,incongruent,uniform,1,undefined,1,s,0,0,0,29,29,0,0,0,29,29,0,29,0,29,NA,29,29,NA,9/25/2021 19:49,1500,The main experiment item,yes,Lab21TestFlankerTask.osexp,C:\Users\mmcel\OneDrive\GRAD SCHOOL\fall 2021\Advanced Quant,no,mono,no,18,no,#ffffff,no,yes,768,legacy,29,29,C:/Users/mmcel/OneDrive/GRAD SCHOOL/fall 2021/Advanced Quant/MM-Subject-3.csv,legacy,Lentiform Loewenfeld,3.3.9,0,s,NA,s,NA,NA,s,778,NA,11891,NA,NA,778,NA,NA,2,legacy,1024,2,48000,-16,experiment,HHSHH,3,odd,14220,NA,NA,72987,71888,2328,NA,NA,72984,73088,NA,67273,2324,NA,NA,73088,73867,NA,Lab 2.1 Test Flanker Task,25,20927,30,yes,1024
83.87096774,83.87096774,693.3870968,693.3870968,#000000,legacy,legacy,legacy,0,congruent,uniform,1,undefined,1,s,0,0,0,30,30,0,0,0,30,30,0,30,0,30,NA,30,30,NA,9/25/2021 19:49,1500,The main experiment item,yes,Lab21TestFlankerTask.osexp,C:\Users\mmcel\OneDrive\GRAD SCHOOL\fall 2021\Advanced Quant,no,mono,no,18,no,#ffffff,no,yes,768,legacy,30,30,C:/Users/mmcel/OneDrive/GRAD SCHOOL/fall 2021/Advanced Quant/MM-Subject-3.csv,legacy,Lentiform Loewenfeld,3.3.9,0,s,NA,s,NA,NA,s,568,NA,11891,NA,NA,568,NA,NA,2,legacy,1024,2,48000,-16,experiment,SSSSS,3,odd,14220,NA,NA,75028,73920,2328,NA,NA,75026,75129,NA,67273,2324,NA,NA,75129,75698,NA,Lab 2.1 Test Flanker Task,26,21495,31,yes,1024
84.375,84.375,694.25,694.25,#000000,legacy,legacy,legacy,0,congruent,uniform,1,undefined,1,h,0,0,0,31,31,0,0,0,31,31,0,31,0,31,NA,31,31,NA,9/25/2021 19:49,1500,The main experiment item,yes,Lab21TestFlankerTask.osexp,C:\Users\mmcel\OneDrive\GRAD SCHOOL\fall 2021\Advanced Quant,no,mono,no,18,no,#ffffff,no,yes,768,legacy,31,31,C:/Users/mmcel/OneDrive/GRAD SCHOOL/fall 2021/Advanced Quant/MM-Subject-3.csv,legacy,Lentiform Loewenfeld,3.3.9,0,h,NA,s,NA,NA,h,721,NA,11891,NA,NA,721,NA,NA,2,legacy,1024,2,48000,-16,experiment,HHHHH,3,odd,14220,NA,NA,76828,75751,2328,NA,NA,76826,76933,NA,67273,2324,NA,NA,76933,77655,NA,Lab 2.1 Test Flanker Task,27,22216,32,yes,1024
84.84848485,84.84848485,692.5454545,692.5454545,#000000,legacy,legacy,legacy,0,incongruent,uniform,1,undefined,1,h,0,0,0,32,32,0,0,0,32,32,0,32,0,32,NA,32,32,NA,9/25/2021 19:49,1500,The main experiment item,yes,Lab21TestFlankerTask.osexp,C:\Users\mmcel\OneDrive\GRAD SCHOOL\fall 2021\Advanced Quant,no,mono,no,18,no,#ffffff,no,yes,768,legacy,32,32,C:/Users/mmcel/OneDrive/GRAD SCHOOL/fall 2021/Advanced Quant/MM-Subject-3.csv,legacy,Lentiform Loewenfeld,3.3.9,0,h,NA,s,NA,NA,h,638,NA,11891,NA,NA,638,NA,NA,2,legacy,1024,2,48000,-16,experiment,SSHSS,3,odd,14220,NA,NA,78808,77709,2328,NA,NA,78805,78912,NA,67273,2324,NA,NA,78912,79550,NA,Lab 2.1 Test Flanker Task,28,22854,33,yes,1024
85.29411765,85.29411765,694,694,#000000,legacy,legacy,legacy,0,incongruent,uniform,1,undefined,1,s,0,0,0,33,33,0,0,0,33,33,0,33,0,33,NA,33,33,NA,9/25/2021 19:49,1500,The main experiment item,yes,Lab21TestFlankerTask.osexp,C:\Users\mmcel\OneDrive\GRAD SCHOOL\fall 2021\Advanced Quant,no,mono,no,18,no,#ffffff,no,yes,768,legacy,33,33,C:/Users/mmcel/OneDrive/GRAD SCHOOL/fall 2021/Advanced Quant/MM-Subject-3.csv,legacy,Lentiform Loewenfeld,3.3.9,0,s,NA,s,NA,NA,s,742,NA,11891,NA,NA,742,NA,NA,2,legacy,1024,2,48000,-16,experiment,HHSHH,3,odd,14220,NA,NA,80700,79606,2328,NA,NA,80698,80803,NA,67273,2324,NA,NA,80803,81546,NA,Lab 2.1 Test Flanker Task,29,23596,34,yes,1024
82.85714286,82.85714286,717.0285714,717.0285714,#000000,legacy,legacy,legacy,0,incongruent,uniform,0,undefined,0,s,0,0,0,34,34,0,0,0,34,34,0,34,0,34,NA,34,34,NA,9/25/2021 19:49,1500,The main experiment item,yes,Lab21TestFlankerTask.osexp,C:\Users\mmcel\OneDrive\GRAD SCHOOL\fall 2021\Advanced Quant,no,mono,no,18,no,#ffffff,no,yes,768,legacy,34,34,C:/Users/mmcel/OneDrive/GRAD SCHOOL/fall 2021/Advanced Quant/MM-Subject-3.csv,legacy,Lentiform Loewenfeld,3.3.9,0,None,NA,s,NA,NA,None,1500,NA,11891,NA,NA,1500,NA,NA,2,legacy,1024,2,48000,-16,experiment,HHSHH,3,odd,14220,NA,NA,82690,81596,2328,NA,NA,82688,82796,NA,67273,2324,NA,NA,82796,84296,NA,Lab 2.1 Test Flanker Task,29,25096,35,yes,1024
83.33333333,83.33333333,715.4444444,715.4444444,#000000,legacy,legacy,legacy,0,incongruent,uniform,1,undefined,1,s,0,0,0,35,35,0,0,0,35,35,0,35,0,35,NA,35,35,NA,9/25/2021 19:49,1500,The main experiment item,yes,Lab21TestFlankerTask.osexp,C:\Users\mmcel\OneDrive\GRAD SCHOOL\fall 2021\Advanced Quant,no,mono,no,18,no,#ffffff,no,yes,768,legacy,35,35,C:/Users/mmcel/OneDrive/GRAD SCHOOL/fall 2021/Advanced Quant/MM-Subject-3.csv,legacy,Lentiform Loewenfeld,3.3.9,0,s,NA,s,NA,NA,s,660,NA,11891,NA,NA,660,NA,NA,2,legacy,1024,2,48000,-16,experiment,HHSHH,3,odd,14220,NA,NA,85954,84856,2328,NA,NA,85951,86058,NA,84352,2324,NA,NA,86058,86718,NA,Lab 2.1 Test Flanker Task,30,25756,36,yes,1024
83.78378378,83.78378378,713.5945946,713.5945946,#000000,legacy,legacy,legacy,0,congruent,uniform,1,undefined,1,s,0,0,0,36,36,0,0,0,36,36,0,36,0,36,NA,36,36,NA,9/25/2021 19:49,1500,The main experiment item,yes,Lab21TestFlankerTask.osexp,C:\Users\mmcel\OneDrive\GRAD SCHOOL\fall 2021\Advanced Quant,no,mono,no,18,no,#ffffff,no,yes,768,legacy,36,36,C:/Users/mmcel/OneDrive/GRAD SCHOOL/fall 2021/Advanced Quant/MM-Subject-3.csv,legacy,Lentiform Loewenfeld,3.3.9,0,s,NA,s,NA,NA,s,647,NA,11891,NA,NA,647,NA,NA,2,legacy,1024,2,48000,-16,experiment,SSSSS,3,odd,14220,NA,NA,87867,86774,2328,NA,NA,87864,87972,NA,84352,2324,NA,NA,87973,88620,NA,Lab 2.1 Test Flanker Task,31,26403,37,yes,1024
84.21052632,84.21052632,709.6315789,709.6315789,#000000,legacy,legacy,legacy,0,congruent,uniform,1,undefined,1,s,0,0,0,37,37,0,0,0,37,37,0,37,0,37,NA,37,37,NA,9/25/2021 19:49,1500,The main experiment item,yes,Lab21TestFlankerTask.osexp,C:\Users\mmcel\OneDrive\GRAD SCHOOL\fall 2021\Advanced Quant,no,mono,no,18,no,#ffffff,no,yes,768,legacy,37,37,C:/Users/mmcel/OneDrive/GRAD SCHOOL/fall 2021/Advanced Quant/MM-Subject-3.csv,legacy,Lentiform Loewenfeld,3.3.9,0,s,NA,s,NA,NA,s,563,NA,11891,NA,NA,563,NA,NA,2,legacy,1024,2,48000,-16,experiment,SSSSS,3,odd,14220,NA,NA,89717,88640,2328,NA,NA,89714,89822,NA,84352,2324,NA,NA,89822,90386,NA,Lab 2.1 Test Flanker Task,32,26966,38,yes,1024
84.61538462,84.61538462,708.5128205,708.5128205,#000000,legacy,legacy,legacy,0,incongruent,uniform,1,undefined,1,h,0,0,0,38,38,0,0,0,38,38,0,38,0,38,NA,38,38,NA,9/25/2021 19:49,1500,The main experiment item,yes,Lab21TestFlankerTask.osexp,C:\Users\mmcel\OneDrive\GRAD SCHOOL\fall 2021\Advanced Quant,no,mono,no,18,no,#ffffff,no,yes,768,legacy,38,38,C:/Users/mmcel/OneDrive/GRAD SCHOOL/fall 2021/Advanced Quant/MM-Subject-3.csv,legacy,Lentiform Loewenfeld,3.3.9,0,h,NA,s,NA,NA,h,666,NA,11891,NA,NA,666,NA,NA,2,legacy,1024,2,48000,-16,experiment,SSHSS,3,odd,14220,NA,NA,91535,90441,2328,NA,NA,91532,91636,NA,84352,2324,NA,NA,91636,92303,NA,Lab 2.1 Test Flanker Task,33,27632,39,yes,1024
85,85,704.825,704.825,#000000,legacy,legacy,legacy,0,congruent,uniform,1,undefined,1,h,0,0,0,39,39,0,0,0,39,39,0,39,0,39,NA,39,39,NA,9/25/2021 19:49,1500,The main experiment item,yes,Lab21TestFlankerTask.osexp,C:\Users\mmcel\OneDrive\GRAD SCHOOL\fall 2021\Advanced Quant,no,mono,no,18,no,#ffffff,no,yes,768,legacy,39,39,C:/Users/mmcel/OneDrive/GRAD SCHOOL/fall 2021/Advanced Quant/MM-Subject-3.csv,legacy,Lentiform Loewenfeld,3.3.9,0,h,NA,s,NA,NA,h,561,NA,11891,NA,NA,561,NA,NA,2,legacy,1024,2,48000,-16,experiment,HHHHH,3,odd,14220,NA,NA,93437,92352,2328,NA,NA,93435,93541,NA,84352,2324,NA,NA,93541,94103,NA,Lab 2.1 Test Flanker Task,34,28193,40,yes,1024
85.36585366,85.36585366,703.6097561,703.6097561,#000000,legacy,legacy,legacy,0,incongruent,uniform,1,undefined,1,h,0,0,0,40,40,0,0,0,40,40,0,40,0,40,NA,40,40,NA,9/25/2021 19:49,1500,The main experiment item,yes,Lab21TestFlankerTask.osexp,C:\Users\mmcel\OneDrive\GRAD SCHOOL\fall 2021\Advanced Quant,no,mono,no,18,no,#ffffff,no,yes,768,legacy,40,40,C:/Users/mmcel/OneDrive/GRAD SCHOOL/fall 2021/Advanced Quant/MM-Subject-3.csv,legacy,Lentiform Loewenfeld,3.3.9,0,h,NA,s,NA,NA,h,655,NA,11891,NA,NA,655,NA,NA,2,legacy,1024,2,48000,-16,experiment,SSHSS,3,odd,14220,NA,NA,95233,94151,2328,NA,NA,95231,95335,NA,84352,2324,NA,NA,95335,95990,NA,Lab 2.1 Test Flanker Task,35,28848,41,yes,1024
85.71428571,85.71428571,703.6190476,703.6190476,#000000,legacy,legacy,legacy,0,incongruent,uniform,1,undefined,1,s,0,0,0,41,41,0,0,0,41,41,0,41,0,41,NA,41,41,NA,9/25/2021 19:49,1500,The main experiment item,yes,Lab21TestFlankerTask.osexp,C:\Users\mmcel\OneDrive\GRAD SCHOOL\fall 2021\Advanced Quant,no,mono,no,18,no,#ffffff,no,yes,768,legacy,41,41,C:/Users/mmcel/OneDrive/GRAD SCHOOL/fall 2021/Advanced Quant/MM-Subject-3.csv,legacy,Lentiform Loewenfeld,3.3.9,0,s,NA,s,NA,NA,s,704,NA,11891,NA,NA,704,NA,NA,2,legacy,1024,2,48000,-16,experiment,HHSHH,3,odd,14220,NA,NA,97137,96042,2328,NA,NA,97135,97242,NA,84352,2324,NA,NA,97242,97947,NA,Lab 2.1 Test Flanker Task,36,29552,42,yes,1024
86.04651163,86.04651163,703.6744186,703.6744186,#000000,legacy,legacy,legacy,0,congruent,uniform,1,undefined,1,s,0,0,0,42,42,0,0,0,42,42,0,42,0,42,NA,42,42,NA,9/25/2021 19:49,1500,The main experiment item,yes,Lab21TestFlankerTask.osexp,C:\Users\mmcel\OneDrive\GRAD SCHOOL\fall 2021\Advanced Quant,no,mono,no,18,no,#ffffff,no,yes,768,legacy,42,42,C:/Users/mmcel/OneDrive/GRAD SCHOOL/fall 2021/Advanced Quant/MM-Subject-3.csv,legacy,Lentiform Loewenfeld,3.3.9,0,s,NA,s,NA,NA,s,706,NA,11891,NA,NA,706,NA,NA,2,legacy,1024,2,48000,-16,experiment,SSSSS,3,odd,14220,NA,NA,99092,97997,2328,NA,NA,99090,99196,NA,84352,2324,NA,NA,99196,99903,NA,Lab 2.1 Test Flanker Task,37,30258,43,yes,1024
86.36363636,86.36363636,708.3181818,708.3181818,#000000,legacy,legacy,legacy,0,congruent,uniform,1,undefined,1,h,0,0,0,43,43,0,0,0,43,43,0,43,0,43,NA,43,43,NA,9/25/2021 19:49,1500,The main experiment item,yes,Lab21TestFlankerTask.osexp,C:\Users\mmcel\OneDrive\GRAD SCHOOL\fall 2021\Advanced Quant,no,mono,no,18,no,#ffffff,no,yes,768,legacy,43,43,C:/Users/mmcel/OneDrive/GRAD SCHOOL/fall 2021/Advanced Quant/MM-Subject-3.csv,legacy,Lentiform Loewenfeld,3.3.9,0,h,NA,s,NA,NA,h,908,NA,11891,NA,NA,908,NA,NA,2,legacy,1024,2,48000,-16,experiment,HHHHH,3,odd,14220,NA,NA,101018,99930,2328,NA,NA,101016,101119,NA,84352,2324,NA,NA,101119,102028,NA,Lab 2.1 Test Flanker Task,38,31166,44,yes,1024
86.66666667,86.66666667,705.4444444,705.4444444,#000000,legacy,legacy,legacy,0,congruent,uniform,1,undefined,1,s,0,0,0,44,44,0,0,0,44,44,0,44,0,44,NA,44,44,NA,9/25/2021 19:49,1500,The main experiment item,yes,Lab21TestFlankerTask.osexp,C:\Users\mmcel\OneDrive\GRAD SCHOOL\fall 2021\Advanced Quant,no,mono,no,18,no,#ffffff,no,yes,768,legacy,44,44,C:/Users/mmcel/OneDrive/GRAD SCHOOL/fall 2021/Advanced Quant/MM-Subject-3.csv,legacy,Lentiform Loewenfeld,3.3.9,0,s,NA,s,NA,NA,s,579,NA,11891,NA,NA,579,NA,NA,2,legacy,1024,2,48000,-16,experiment,SSSSS,3,odd,14220,NA,NA,103166,102074,2328,NA,NA,103163,103270,NA,84352,2324,NA,NA,103270,103850,NA,Lab 2.1 Test Flanker Task,39,31745,45,yes,1024
86.95652174,86.95652174,699.9347826,699.9347826,#000000,legacy,legacy,legacy,0,congruent,uniform,1,undefined,1,h,0,0,0,45,45,0,0,0,45,45,0,45,0,45,NA,45,45,NA,9/25/2021 19:49,1500,The main experiment item,yes,Lab21TestFlankerTask.osexp,C:\Users\mmcel\OneDrive\GRAD SCHOOL\fall 2021\Advanced Quant,no,mono,no,18,no,#ffffff,no,yes,768,legacy,45,45,C:/Users/mmcel/OneDrive/GRAD SCHOOL/fall 2021/Advanced Quant/MM-Subject-3.csv,legacy,Lentiform Loewenfeld,3.3.9,0,h,NA,s,NA,NA,h,452,NA,11891,NA,NA,452,NA,NA,2,legacy,1024,2,48000,-16,experiment,HHHHH,3,odd,14220,NA,NA,104979,103896,2328,NA,NA,104976,105083,NA,84352,2324,NA,NA,105083,105536,NA,Lab 2.1 Test Flanker Task,40,32197,46,yes,1024
87.23404255,87.23404255,694.7446809,694.7446809,#000000,legacy,legacy,legacy,0,incongruent,uniform,1,undefined,1,s,0,0,0,46,46,0,0,0,46,46,0,46,0,46,NA,46,46,NA,9/25/2021 19:49,1500,The main experiment item,yes,Lab21TestFlankerTask.osexp,C:\Users\mmcel\OneDrive\GRAD SCHOOL\fall 2021\Advanced Quant,no,mono,no,18,no,#ffffff,no,yes,768,legacy,46,46,C:/Users/mmcel/OneDrive/GRAD SCHOOL/fall 2021/Advanced Quant/MM-Subject-3.csv,legacy,Lentiform Loewenfeld,3.3.9,0,s,NA,s,NA,NA,s,456,NA,11891,NA,NA,456,NA,NA,2,legacy,1024,2,48000,-16,experiment,HHSHH,3,odd,14220,NA,NA,106666,105586,2328,NA,NA,106663,106771,NA,84352,2324,NA,NA,106771,107228,NA,Lab 2.1 Test Flanker Task,41,32653,47,yes,1024
87.5,87.5,697.1875,697.1875,#000000,legacy,legacy,legacy,0,incongruent,uniform,1,undefined,1,h,0,0,0,47,47,0,0,0,47,47,0,47,0,47,NA,47,47,NA,9/25/2021 19:49,1500,The main experiment item,yes,Lab21TestFlankerTask.osexp,C:\Users\mmcel\OneDrive\GRAD SCHOOL\fall 2021\Advanced Quant,no,mono,no,18,no,#ffffff,no,yes,768,legacy,47,47,C:/Users/mmcel/OneDrive/GRAD SCHOOL/fall 2021/Advanced Quant/MM-Subject-3.csv,legacy,Lentiform Loewenfeld,3.3.9,0,h,NA,s,NA,NA,h,812,NA,11891,NA,NA,812,NA,NA,2,legacy,1024,2,48000,-16,experiment,SSHSS,3,odd,14220,NA,NA,108354,107252,2328,NA,NA,108351,108455,NA,84352,2324,NA,NA,108455,109267,NA,Lab 2.1 Test Flanker Task,42,33465,48,yes,1024
87.75510204,87.75510204,695.6326531,695.6326531,#000000,legacy,legacy,legacy,0,incongruent,uniform,1,undefined,1,h,0,0,0,48,48,0,0,0,48,48,0,48,0,48,NA,48,48,NA,9/25/2021 19:49,1500,The main experiment item,yes,Lab21TestFlankerTask.osexp,C:\Users\mmcel\OneDrive\GRAD SCHOOL\fall 2021\Advanced Quant,no,mono,no,18,no,#ffffff,no,yes,768,legacy,48,48,C:/Users/mmcel/OneDrive/GRAD SCHOOL/fall 2021/Advanced Quant/MM-Subject-3.csv,legacy,Lentiform Loewenfeld,3.3.9,0,h,NA,s,NA,NA,h,621,NA,11891,NA,NA,621,NA,NA,2,legacy,1024,2,48000,-16,experiment,SSHSS,3,odd,14220,NA,NA,110429,109322,2328,NA,NA,110426,110530,NA,84352,2324,NA,NA,110530,111152,NA,Lab 2.1 Test Flanker Task,43,34086,49,yes,1024
86,86,691.74,691.74,#000000,legacy,legacy,legacy,0,incongruent,uniform,0,undefined,0,s,0,0,0,49,49,0,0,0,49,49,0,49,0,49,NA,49,49,NA,9/25/2021 19:49,1500,The main experiment item,yes,Lab21TestFlankerTask.osexp,C:\Users\mmcel\OneDrive\GRAD SCHOOL\fall 2021\Advanced Quant,no,mono,no,18,no,#ffffff,no,yes,768,legacy,49,49,C:/Users/mmcel/OneDrive/GRAD SCHOOL/fall 2021/Advanced Quant/MM-Subject-3.csv,legacy,Lentiform Loewenfeld,3.3.9,0,h,NA,s,NA,NA,h,501,NA,11891,NA,NA,501,NA,NA,2,legacy,1024,2,48000,-16,experiment,HHSHH,3,odd,14220,NA,NA,112268,111174,2328,NA,NA,112266,112370,NA,84352,2324,NA,NA,112371,112872,NA,Lab 2.1 Test Flanker Task,43,34587,50,yes,1024
86.2745098,86.2745098,694.4313725,694.4313725,#000000,legacy,legacy,legacy,0,congruent,uniform,1,undefined,1,s,0,0,0,50,50,0,0,0,50,50,0,50,0,50,NA,50,50,NA,9/25/2021 19:49,1500,The main experiment item,yes,Lab21TestFlankerTask.osexp,C:\Users\mmcel\OneDrive\GRAD SCHOOL\fall 2021\Advanced Quant,no,mono,no,18,no,#ffffff,no,yes,768,legacy,50,50,C:/Users/mmcel/OneDrive/GRAD SCHOOL/fall 2021/Advanced Quant/MM-Subject-3.csv,legacy,Lentiform Loewenfeld,3.3.9,0,s,NA,s,NA,NA,s,829,NA,11891,NA,NA,829,NA,NA,2,legacy,1024,2,48000,-16,experiment,SSSSS,3,odd,14220,NA,NA,114548,113458,2328,NA,NA,114546,114649,NA,112956,2324,NA,NA,114649,115479,NA,Lab 2.1 Test Flanker Task,44,35416,51,yes,1024
86.53846154,86.53846154,693.9038462,693.9038462,#000000,legacy,legacy,legacy,0,incongruent,uniform,1,undefined,1,h,0,0,0,51,51,0,0,0,51,51,0,51,0,51,NA,51,51,NA,9/25/2021 19:49,1500,The main experiment item,yes,Lab21TestFlankerTask.osexp,C:\Users\mmcel\OneDrive\GRAD SCHOOL\fall 2021\Advanced Quant,no,mono,no,18,no,#ffffff,no,yes,768,legacy,51,51,C:/Users/mmcel/OneDrive/GRAD SCHOOL/fall 2021/Advanced Quant/MM-Subject-3.csv,legacy,Lentiform Loewenfeld,3.3.9,0,h,NA,s,NA,NA,h,667,NA,11891,NA,NA,667,NA,NA,2,legacy,1024,2,48000,-16,experiment,SSHSS,3,odd,14220,NA,NA,116637,115555,2328,NA,NA,116635,116739,NA,112956,2324,NA,NA,116739,117407,NA,Lab 2.1 Test Flanker Task,45,36083,52,yes,1024
86.79245283,86.79245283,692.5283019,692.5283019,#000000,legacy,legacy,legacy,0,incongruent,uniform,1,undefined,1,h,0,0,0,52,52,0,0,0,52,52,0,52,0,52,NA,52,52,NA,9/25/2021 19:49,1500,The main experiment item,yes,Lab21TestFlankerTask.osexp,C:\Users\mmcel\OneDrive\GRAD SCHOOL\fall 2021\Advanced Quant,no,mono,no,18,no,#ffffff,no,yes,768,legacy,52,52,C:/Users/mmcel/OneDrive/GRAD SCHOOL/fall 2021/Advanced Quant/MM-Subject-3.csv,legacy,Lentiform Loewenfeld,3.3.9,0,h,NA,s,NA,NA,h,621,NA,11891,NA,NA,621,NA,NA,2,legacy,1024,2,48000,-16,experiment,SSHSS,3,odd,14220,NA,NA,118528,117430,2328,NA,NA,118526,118631,NA,112956,2324,NA,NA,118631,119253,NA,Lab 2.1 Test Flanker Task,46,36704,53,yes,1024
87.03703704,87.03703704,688.2592593,688.2592593,#000000,legacy,legacy,legacy,0,incongruent,uniform,1,undefined,1,h,0,0,0,53,53,0,0,0,53,53,0,53,0,53,NA,53,53,NA,9/25/2021 19:49,1500,The main experiment item,yes,Lab21TestFlankerTask.osexp,C:\Users\mmcel\OneDrive\GRAD SCHOOL\fall 2021\Advanced Quant,no,mono,no,18,no,#ffffff,no,yes,768,legacy,53,53,C:/Users/mmcel/OneDrive/GRAD SCHOOL/fall 2021/Advanced Quant/MM-Subject-3.csv,legacy,Lentiform Loewenfeld,3.3.9,0,h,NA,s,NA,NA,h,462,NA,11891,NA,NA,462,NA,NA,2,legacy,1024,2,48000,-16,experiment,SSHSS,3,odd,14220,NA,NA,120389,119296,2328,NA,NA,120387,120493,NA,112956,2324,NA,NA,120493,120956,NA,Lab 2.1 Test Flanker Task,47,37166,54,yes,1024
87.27272727,87.27272727,688.3818182,688.3818182,#000000,legacy,legacy,legacy,0,congruent,uniform,1,undefined,1,s,0,0,0,54,54,0,0,0,54,54,0,54,0,54,NA,54,54,NA,9/25/2021 19:49,1500,The main experiment item,yes,Lab21TestFlankerTask.osexp,C:\Users\mmcel\OneDrive\GRAD SCHOOL\fall 2021\Advanced Quant,no,mono,no,18,no,#ffffff,no,yes,768,legacy,54,54,C:/Users/mmcel/OneDrive/GRAD SCHOOL/fall 2021/Advanced Quant/MM-Subject-3.csv,legacy,Lentiform Loewenfeld,3.3.9,0,s,NA,s,NA,NA,s,695,NA,11891,NA,NA,695,NA,NA,2,legacy,1024,2,48000,-16,experiment,SSSSS,3,odd,14220,NA,NA,122100,121009,2328,NA,NA,122097,122204,NA,112956,2324,NA,NA,122204,122900,NA,Lab 2.1 Test Flanker Task,48,37861,55,yes,1024
87.5,87.5,684.1785714,684.1785714,#000000,legacy,legacy,legacy,0,congruent,uniform,1,undefined,1,s,0,0,0,55,55,0,0,0,55,55,0,55,0,55,NA,55,55,NA,9/25/2021 19:49,1500,The main experiment item,yes,Lab21TestFlankerTask.osexp,C:\Users\mmcel\OneDrive\GRAD SCHOOL\fall 2021\Advanced Quant,no,mono,no,18,no,#ffffff,no,yes,768,legacy,55,55,C:/Users/mmcel/OneDrive/GRAD SCHOOL/fall 2021/Advanced Quant/MM-Subject-3.csv,legacy,Lentiform Loewenfeld,3.3.9,0,s,NA,s,NA,NA,s,453,NA,11891,NA,NA,453,NA,NA,2,legacy,1024,2,48000,-16,experiment,SSSSS,3,odd,14220,NA,NA,124045,122953,2328,NA,NA,124043,124150,NA,112956,2324,NA,NA,124150,124604,NA,Lab 2.1 Test Flanker Task,49,38314,56,yes,1024
87.71929825,87.71929825,679.9298246,679.9298246,#000000,legacy,legacy,legacy,0,congruent,uniform,1,undefined,1,s,0,0,0,56,56,0,0,0,56,56,0,56,0,56,NA,56,56,NA,9/25/2021 19:49,1500,The main experiment item,yes,Lab21TestFlankerTask.osexp,C:\Users\mmcel\OneDrive\GRAD SCHOOL\fall 2021\Advanced Quant,no,mono,no,18,no,#ffffff,no,yes,768,legacy,56,56,C:/Users/mmcel/OneDrive/GRAD SCHOOL/fall 2021/Advanced Quant/MM-Subject-3.csv,legacy,Lentiform Loewenfeld,3.3.9,0,s,NA,s,NA,NA,s,442,NA,11891,NA,NA,442,NA,NA,2,legacy,1024,2,48000,-16,experiment,SSSSS,3,odd,14220,NA,NA,125729,124657,2328,NA,NA,125727,125833,NA,112956,2324,NA,NA,125833,126276,NA,Lab 2.1 Test Flanker Task,50,38756,57,yes,1024
87.93103448,87.93103448,675.3275862,675.3275862,#000000,legacy,legacy,legacy,0,congruent,uniform,1,undefined,1,s,0,0,0,57,57,0,0,0,57,57,0,57,0,57,NA,57,57,NA,9/25/2021 19:49,1500,The main experiment item,yes,Lab21TestFlankerTask.osexp,C:\Users\mmcel\OneDrive\GRAD SCHOOL\fall 2021\Advanced Quant,no,mono,no,18,no,#ffffff,no,yes,768,legacy,57,57,C:/Users/mmcel/OneDrive/GRAD SCHOOL/fall 2021/Advanced Quant/MM-Subject-3.csv,legacy,Lentiform Loewenfeld,3.3.9,0,s,NA,s,NA,NA,s,413,NA,11891,NA,NA,413,NA,NA,2,legacy,1024,2,48000,-16,experiment,SSSSS,3,odd,14220,NA,NA,127446,126356,2328,NA,NA,127443,127550,NA,112956,2324,NA,NA,127550,127964,NA,Lab 2.1 Test Flanker Task,51,39169,58,yes,1024
88.13559322,88.13559322,673.779661,673.779661,#000000,legacy,legacy,legacy,0,incongruent,uniform,1,undefined,1,h,0,0,0,58,58,0,0,0,58,58,0,58,0,58,NA,58,58,NA,9/25/2021 19:49,1500,The main experiment item,yes,Lab21TestFlankerTask.osexp,C:\Users\mmcel\OneDrive\GRAD SCHOOL\fall 2021\Advanced Quant,no,mono,no,18,no,#ffffff,no,yes,768,legacy,58,58,C:/Users/mmcel/OneDrive/GRAD SCHOOL/fall 2021/Advanced Quant/MM-Subject-3.csv,legacy,Lentiform Loewenfeld,3.3.9,0,h,NA,s,NA,NA,h,584,NA,11891,NA,NA,584,NA,NA,2,legacy,1024,2,48000,-16,experiment,SSHSS,3,odd,14220,NA,NA,129101,128012,2328,NA,NA,129099,129205,NA,112956,2324,NA,NA,129205,129790,NA,Lab 2.1 Test Flanker Task,52,39753,59,yes,1024
88.33333333,88.33333333,671.7166667,671.7166667,#000000,legacy,legacy,legacy,0,congruent,uniform,1,undefined,1,h,0,0,0,59,59,0,0,0,59,59,0,59,0,59,NA,59,59,NA,9/25/2021 19:49,1500,The main experiment item,yes,Lab21TestFlankerTask.osexp,C:\Users\mmcel\OneDrive\GRAD SCHOOL\fall 2021\Advanced Quant,no,mono,no,18,no,#ffffff,no,yes,768,legacy,59,59,C:/Users/mmcel/OneDrive/GRAD SCHOOL/fall 2021/Advanced Quant/MM-Subject-3.csv,legacy,Lentiform Loewenfeld,3.3.9,0,h,NA,s,NA,NA,h,550,NA,11891,NA,NA,550,NA,NA,2,legacy,1024,2,48000,-16,experiment,HHHHH,3,odd,14220,NA,NA,130932,129845,2328,NA,NA,130929,131037,NA,112956,2324,NA,NA,131037,131587,NA,Lab 2.1 Test Flanker Task,53,40303,60,yes,1024
88.52459016,88.52459016,671.852459,671.852459,#000000,legacy,legacy,legacy,0,incongruent,uniform,1,undefined,1,h,0,0,0,60,60,0,0,0,60,60,0,60,0,60,NA,60,60,NA,9/25/2021 19:49,1500,The main experiment item,yes,Lab21TestFlankerTask.osexp,C:\Users\mmcel\OneDrive\GRAD SCHOOL\fall 2021\Advanced Quant,no,mono,no,18,no,#ffffff,no,yes,768,legacy,60,60,C:/Users/mmcel/OneDrive/GRAD SCHOOL/fall 2021/Advanced Quant/MM-Subject-3.csv,legacy,Lentiform Loewenfeld,3.3.9,0,h,NA,s,NA,NA,h,680,NA,11891,NA,NA,680,NA,NA,2,legacy,1024,2,48000,-16,experiment,SSHSS,3,odd,14220,NA,NA,132745,131656,2328,NA,NA,132743,132849,NA,112956,2324,NA,NA,132849,133529,NA,Lab 2.1 Test Flanker Task,54,40983,61,yes,1024
88.70967742,88.70967742,671.7741935,671.7741935,#000000,legacy,legacy,legacy,0,incongruent,uniform,1,undefined,1,h,0,0,0,61,61,0,0,0,61,61,0,61,0,61,NA,61,61,NA,9/25/2021 19:49,1500,The main experiment item,yes,Lab21TestFlankerTask.osexp,C:\Users\mmcel\OneDrive\GRAD SCHOOL\fall 2021\Advanced Quant,no,mono,no,18,no,#ffffff,no,yes,768,legacy,61,61,C:/Users/mmcel/OneDrive/GRAD SCHOOL/fall 2021/Advanced Quant/MM-Subject-3.csv,legacy,Lentiform Loewenfeld,3.3.9,0,h,NA,s,NA,NA,h,667,NA,11891,NA,NA,667,NA,NA,2,legacy,1024,2,48000,-16,experiment,SSHSS,3,odd,14220,NA,NA,134671,133576,2328,NA,NA,134669,134775,NA,112956,2324,NA,NA,134775,135443,NA,Lab 2.1 Test Flanker Task,55,41650,62,yes,1024
88.88888889,88.88888889,669.8095238,669.8095238,#000000,legacy,legacy,legacy,0,congruent,uniform,1,undefined,1,s,0,0,0,62,62,0,0,0,62,62,0,62,0,62,NA,62,62,NA,9/25/2021 19:49,1500,The main experiment item,yes,Lab21TestFlankerTask.osexp,C:\Users\mmcel\OneDrive\GRAD SCHOOL\fall 2021\Advanced Quant,no,mono,no,18,no,#ffffff,no,yes,768,legacy,62,62,C:/Users/mmcel/OneDrive/GRAD SCHOOL/fall 2021/Advanced Quant/MM-Subject-3.csv,legacy,Lentiform Loewenfeld,3.3.9,0,s,NA,s,NA,NA,s,548,NA,11891,NA,NA,548,NA,NA,2,legacy,1024,2,48000,-16,experiment,SSSSS,3,odd,14220,NA,NA,136575,135498,2328,NA,NA,136573,136679,NA,112956,2324,NA,NA,136679,137228,NA,Lab 2.1 Test Flanker Task,56,42198,63,yes,1024
89.0625,89.0625,667.46875,667.46875,#000000,legacy,legacy,legacy,0,congruent,uniform,1,undefined,1,h,0,0,0,63,63,0,0,0,63,63,0,63,0,63,NA,63,63,NA,9/25/2021 19:49,1500,The main experiment item,yes,Lab21TestFlankerTask.osexp,C:\Users\mmcel\OneDrive\GRAD SCHOOL\fall 2021\Advanced Quant,no,mono,no,18,no,#ffffff,no,yes,768,legacy,63,63,C:/Users/mmcel/OneDrive/GRAD SCHOOL/fall 2021/Advanced Quant/MM-Subject-3.csv,legacy,Lentiform Loewenfeld,3.3.9,0,h,NA,s,NA,NA,h,520,NA,11891,NA,NA,520,NA,NA,2,legacy,1024,2,48000,-16,experiment,HHHHH,3,odd,14220,NA,NA,138379,137281,2328,NA,NA,138377,138483,NA,112956,2324,NA,NA,138484,139005,NA,Lab 2.1 Test Flanker Task,57,42718,64,yes,1024
89.23076923,89.23076923,672.6307692,672.6307692,#000000,legacy,legacy,legacy,0,incongruent,uniform,1,undefined,1,s,0,0,0,64,64,0,0,0,64,64,0,64,0,64,NA,64,64,NA,9/25/2021 19:49,1500,The main experiment item,yes,Lab21TestFlankerTask.osexp,C:\Users\mmcel\OneDrive\GRAD SCHOOL\fall 2021\Advanced Quant,no,mono,no,18,no,#ffffff,no,yes,768,legacy,64,64,C:/Users/mmcel/OneDrive/GRAD SCHOOL/fall 2021/Advanced Quant/MM-Subject-3.csv,legacy,Lentiform Loewenfeld,3.3.9,0,s,NA,s,NA,NA,s,1003,NA,11891,NA,NA,1003,NA,NA,2,legacy,1024,2,48000,-16,experiment,HHSHH,3,odd,14220,NA,NA,140157,139054,2328,NA,NA,140154,140258,NA,112956,2324,NA,NA,140258,141262,NA,Lab 2.1 Test Flanker Task,58,43721,65,yes,1024
89.39393939,89.39393939,670.4545455,670.4545455,#000000,legacy,legacy,legacy,0,congruent,uniform,1,undefined,1,h,0,0,0,65,65,0,0,0,65,65,0,65,0,65,NA,65,65,NA,9/25/2021 19:49,1500,The main experiment item,yes,Lab21TestFlankerTask.osexp,C:\Users\mmcel\OneDrive\GRAD SCHOOL\fall 2021\Advanced Quant,no,mono,no,18,no,#ffffff,no,yes,768,legacy,65,65,C:/Users/mmcel/OneDrive/GRAD SCHOOL/fall 2021/Advanced Quant/MM-Subject-3.csv,legacy,Lentiform Loewenfeld,3.3.9,0,h,NA,s,NA,NA,h,529,NA,11891,NA,NA,529,NA,NA,2,legacy,1024,2,48000,-16,experiment,HHHHH,3,odd,14220,NA,NA,142406,141309,2328,NA,NA,142404,142507,NA,112956,2324,NA,NA,142507,143037,NA,Lab 2.1 Test Flanker Task,59,44250,66,yes,1024
89.55223881,89.55223881,666.4925373,666.4925373,#000000,legacy,legacy,legacy,0,congruent,uniform,1,undefined,1,h,0,0,0,66,66,0,0,0,66,66,0,66,0,66,NA,66,66,NA,9/25/2021 19:49,1500,The main experiment item,yes,Lab21TestFlankerTask.osexp,C:\Users\mmcel\OneDrive\GRAD SCHOOL\fall 2021\Advanced Quant,no,mono,no,18,no,#ffffff,no,yes,768,legacy,66,66,C:/Users/mmcel/OneDrive/GRAD SCHOOL/fall 2021/Advanced Quant/MM-Subject-3.csv,legacy,Lentiform Loewenfeld,3.3.9,0,h,NA,s,NA,NA,h,405,NA,11891,NA,NA,405,NA,NA,2,legacy,1024,2,48000,-16,experiment,HHHHH,3,odd,14220,NA,NA,144178,143087,2328,NA,NA,144175,144282,NA,112956,2324,NA,NA,144282,144688,NA,Lab 2.1 Test Flanker Task,60,44655,67,yes,1024
89.70588235,89.70588235,664.2647059,664.2647059,#000000,legacy,legacy,legacy,0,incongruent,uniform,1,undefined,1,h,0,0,0,67,67,0,0,0,67,67,0,67,0,67,NA,67,67,NA,9/25/2021 19:49,1500,The main experiment item,yes,Lab21TestFlankerTask.osexp,C:\Users\mmcel\OneDrive\GRAD SCHOOL\fall 2021\Advanced Quant,no,mono,no,18,no,#ffffff,no,yes,768,legacy,67,67,C:/Users/mmcel/OneDrive/GRAD SCHOOL/fall 2021/Advanced Quant/MM-Subject-3.csv,legacy,Lentiform Loewenfeld,3.3.9,0,h,NA,s,NA,NA,h,515,NA,11891,NA,NA,515,NA,NA,2,legacy,1024,2,48000,-16,experiment,SSHSS,3,odd,14220,NA,NA,145827,144731,2328,NA,NA,145824,145931,NA,112956,2324,NA,NA,145931,146447,NA,Lab 2.1 Test Flanker Task,61,45170,68,yes,1024
89.85507246,89.85507246,661.5362319,661.5362319,#000000,legacy,legacy,legacy,0,congruent,uniform,1,undefined,1,h,0,0,0,68,68,0,0,0,68,68,0,68,0,68,NA,68,68,NA,9/25/2021 19:49,1500,The main experiment item,yes,Lab21TestFlankerTask.osexp,C:\Users\mmcel\OneDrive\GRAD SCHOOL\fall 2021\Advanced Quant,no,mono,no,18,no,#ffffff,no,yes,768,legacy,68,68,C:/Users/mmcel/OneDrive/GRAD SCHOOL/fall 2021/Advanced Quant/MM-Subject-3.csv,legacy,Lentiform Loewenfeld,3.3.9,0,h,NA,s,NA,NA,h,476,NA,11891,NA,NA,476,NA,NA,2,legacy,1024,2,48000,-16,experiment,HHHHH,3,odd,14220,NA,NA,147586,146501,2328,NA,NA,147583,147690,NA,112956,2324,NA,NA,147691,148168,NA,Lab 2.1 Test Flanker Task,62,45646,69,yes,1024
90,90,663.1142857,663.1142857,#000000,legacy,legacy,legacy,0,congruent,uniform,1,undefined,1,s,0,0,0,69,69,0,0,0,69,69,0,69,0,69,NA,69,69,NA,9/25/2021 19:49,1500,The main experiment item,yes,Lab21TestFlankerTask.osexp,C:\Users\mmcel\OneDrive\GRAD SCHOOL\fall 2021\Advanced Quant,no,mono,no,18,no,#ffffff,no,yes,768,legacy,69,69,C:/Users/mmcel/OneDrive/GRAD SCHOOL/fall 2021/Advanced Quant/MM-Subject-3.csv,legacy,Lentiform Loewenfeld,3.3.9,0,s,NA,s,NA,NA,s,772,NA,11891,NA,NA,772,NA,NA,2,legacy,1024,2,48000,-16,experiment,SSSSS,3,odd,14220,NA,NA,149264,148188,2328,NA,NA,149262,149368,NA,112956,2324,NA,NA,149368,150141,NA,Lab 2.1 Test Flanker Task,63,46418,70,yes,1024
90.14084507,90.14084507,659.9014085,659.9014085,#000000,legacy,legacy,legacy,0,congruent,uniform,1,undefined,1,s,0,0,0,70,70,0,0,0,70,70,0,70,0,70,NA,70,70,NA,9/25/2021 19:49,1500,The main experiment item,yes,Lab21TestFlankerTask.osexp,C:\Users\mmcel\OneDrive\GRAD SCHOOL\fall 2021\Advanced Quant,no,mono,no,18,no,#ffffff,no,yes,768,legacy,70,70,C:/Users/mmcel/OneDrive/GRAD SCHOOL/fall 2021/Advanced Quant/MM-Subject-3.csv,legacy,Lentiform Loewenfeld,3.3.9,0,s,NA,s,NA,NA,s,435,NA,11891,NA,NA,435,NA,NA,2,legacy,1024,2,48000,-16,experiment,SSSSS,3,odd,14220,NA,NA,151285,150188,2328,NA,NA,151283,151386,NA,112956,2324,NA,NA,151386,151822,NA,Lab 2.1 Test Flanker Task,64,46853,71,yes,1024
90.27777778,90.27777778,659.25,659.25,#000000,legacy,legacy,legacy,0,incongruent,uniform,1,undefined,1,h,0,0,0,71,71,0,0,0,71,71,0,71,0,71,NA,71,71,NA,9/25/2021 19:49,1500,The main experiment item,yes,Lab21TestFlankerTask.osexp,C:\Users\mmcel\OneDrive\GRAD SCHOOL\fall 2021\Advanced Quant,no,mono,no,18,no,#ffffff,no,yes,768,legacy,71,71,C:/Users/mmcel/OneDrive/GRAD SCHOOL/fall 2021/Advanced Quant/MM-Subject-3.csv,legacy,Lentiform Loewenfeld,3.3.9,0,h,NA,s,NA,NA,h,613,NA,11891,NA,NA,613,NA,NA,2,legacy,1024,2,48000,-16,experiment,SSHSS,3,odd,14220,NA,NA,152969,151876,2328,NA,NA,152967,153073,NA,112956,2324,NA,NA,153073,153687,NA,Lab 2.1 Test Flanker Task,65,47466,72,yes,1024
90.4109589,90.4109589,660.3150685,660.3150685,#000000,legacy,legacy,legacy,0,congruent,uniform,1,undefined,1,h,0,0,0,72,72,0,0,0,72,72,0,72,0,72,NA,72,72,NA,9/25/2021 19:49,1500,The main experiment item,yes,Lab21TestFlankerTask.osexp,C:\Users\mmcel\OneDrive\GRAD SCHOOL\fall 2021\Advanced Quant,no,mono,no,18,no,#ffffff,no,yes,768,legacy,72,72,C:/Users/mmcel/OneDrive/GRAD SCHOOL/fall 2021/Advanced Quant/MM-Subject-3.csv,legacy,Lentiform Loewenfeld,3.3.9,0,h,NA,s,NA,NA,h,737,NA,11891,NA,NA,737,NA,NA,2,legacy,1024,2,48000,-16,experiment,HHHHH,3,odd,14220,NA,NA,154879,153782,2328,NA,NA,154877,154984,NA,112956,2324,NA,NA,154984,155722,NA,Lab 2.1 Test Flanker Task,66,48203,73,yes,1024
90.54054054,90.54054054,658.5540541,658.5540541,#000000,legacy,legacy,legacy,0,congruent,uniform,1,undefined,1,h,0,0,0,73,73,0,0,0,73,73,0,73,0,73,NA,73,73,NA,9/25/2021 19:49,1500,The main experiment item,yes,Lab21TestFlankerTask.osexp,C:\Users\mmcel\OneDrive\GRAD SCHOOL\fall 2021\Advanced Quant,no,mono,no,18,no,#ffffff,no,yes,768,legacy,73,73,C:/Users/mmcel/OneDrive/GRAD SCHOOL/fall 2021/Advanced Quant/MM-Subject-3.csv,legacy,Lentiform Loewenfeld,3.3.9,0,h,NA,s,NA,NA,h,530,NA,11891,NA,NA,530,NA,NA,2,legacy,1024,2,48000,-16,experiment,HHHHH,3,odd,14220,NA,NA,156873,155780,2328,NA,NA,156871,156977,NA,112956,2324,NA,NA,156977,157508,NA,Lab 2.1 Test Flanker Task,67,48733,74,yes,1024
90.66666667,90.66666667,658.5066667,658.5066667,#000000,legacy,legacy,legacy,0,incongruent,uniform,1,undefined,1,s,0,0,0,74,74,0,0,0,74,74,0,74,0,74,NA,74,74,NA,9/25/2021 19:49,1500,The main experiment item,yes,Lab21TestFlankerTask.osexp,C:\Users\mmcel\OneDrive\GRAD SCHOOL\fall 2021\Advanced Quant,no,mono,no,18,no,#ffffff,no,yes,768,legacy,74,74,C:/Users/mmcel/OneDrive/GRAD SCHOOL/fall 2021/Advanced Quant/MM-Subject-3.csv,legacy,Lentiform Loewenfeld,3.3.9,0,s,NA,s,NA,NA,s,655,NA,11891,NA,NA,655,NA,NA,2,legacy,1024,2,48000,-16,experiment,HHSHH,3,odd,14220,NA,NA,158637,157532,2328,NA,NA,158634,158742,NA,112956,2324,NA,NA,158742,159398,NA,Lab 2.1 Test Flanker Task,68,49388,75,yes,1024
90.78947368,90.78947368,657.9605263,657.9605263,#000000,legacy,legacy,legacy,0,incongruent,uniform,1,undefined,1,s,0,0,0,75,75,0,0,0,75,75,0,75,0,75,NA,75,75,NA,9/25/2021 19:49,1500,The main experiment item,yes,Lab21TestFlankerTask.osexp,C:\Users\mmcel\OneDrive\GRAD SCHOOL\fall 2021\Advanced Quant,no,mono,no,18,no,#ffffff,no,yes,768,legacy,75,75,C:/Users/mmcel/OneDrive/GRAD SCHOOL/fall 2021/Advanced Quant/MM-Subject-3.csv,legacy,Lentiform Loewenfeld,3.3.9,0,s,NA,s,NA,NA,s,617,NA,11891,NA,NA,617,NA,NA,2,legacy,1024,2,48000,-16,experiment,HHSHH,3,odd,14220,NA,NA,160533,159447,2328,NA,NA,160531,160638,NA,112956,2324,NA,NA,160638,161257,NA,Lab 2.1 Test Flanker Task,69,50005,76,yes,1024
90.90909091,90.90909091,656.1298701,656.1298701,#000000,legacy,legacy,legacy,0,congruent,uniform,1,undefined,1,h,0,0,0,76,76,0,0,0,76,76,0,76,0,76,NA,76,76,NA,9/25/2021 19:49,1500,The main experiment item,yes,Lab21TestFlankerTask.osexp,C:\Users\mmcel\OneDrive\GRAD SCHOOL\fall 2021\Advanced Quant,no,mono,no,18,no,#ffffff,no,yes,768,legacy,76,76,C:/Users/mmcel/OneDrive/GRAD SCHOOL/fall 2021/Advanced Quant/MM-Subject-3.csv,legacy,Lentiform Loewenfeld,3.3.9,0,h,NA,s,NA,NA,h,517,NA,11891,NA,NA,517,NA,NA,2,legacy,1024,2,48000,-16,experiment,HHHHH,3,odd,14220,NA,NA,162405,161314,2328,NA,NA,162402,162509,NA,112956,2324,NA,NA,162509,163026,NA,Lab 2.1 Test Flanker Task,70,50522,77,yes,1024
89.74358974,89.74358974,653.7564103,653.7564103,#000000,legacy,legacy,legacy,0,incongruent,uniform,0,undefined,0,s,0,0,0,77,77,0,0,0,77,77,0,77,0,77,NA,77,77,NA,9/25/2021 19:49,1500,The main experiment item,yes,Lab21TestFlankerTask.osexp,C:\Users\mmcel\OneDrive\GRAD SCHOOL\fall 2021\Advanced Quant,no,mono,no,18,no,#ffffff,no,yes,768,legacy,77,77,C:/Users/mmcel/OneDrive/GRAD SCHOOL/fall 2021/Advanced Quant/MM-Subject-3.csv,legacy,Lentiform Loewenfeld,3.3.9,0,h,NA,s,NA,NA,h,471,NA,11891,NA,NA,471,NA,NA,2,legacy,1024,2,48000,-16,experiment,HHSHH,3,odd,14220,NA,NA,164160,163080,2328,NA,NA,164158,164261,NA,112956,2324,NA,NA,164261,164733,NA,Lab 2.1 Test Flanker Task,70,50993,78,yes,1024
89.87341772,89.87341772,655,655,#000000,legacy,legacy,legacy,0,congruent,uniform,1,undefined,1,s,0,0,0,78,78,0,0,0,78,78,0,78,0,78,NA,78,78,NA,9/25/2021 19:49,1500,The main experiment item,yes,Lab21TestFlankerTask.osexp,C:\Users\mmcel\OneDrive\GRAD SCHOOL\fall 2021\Advanced Quant,no,mono,no,18,no,#ffffff,no,yes,768,legacy,78,78,C:/Users/mmcel/OneDrive/GRAD SCHOOL/fall 2021/Advanced Quant/MM-Subject-3.csv,legacy,Lentiform Loewenfeld,3.3.9,0,s,NA,s,NA,NA,s,752,NA,11891,NA,NA,752,NA,NA,2,legacy,1024,2,48000,-16,experiment,SSSSS,3,odd,14220,NA,NA,166369,165281,2328,NA,NA,166366,166473,NA,164777,2324,NA,NA,166473,167226,NA,Lab 2.1 Test Flanker Task,71,51745,79,yes,1024
90,90,655.125,655.125,#000000,legacy,legacy,legacy,0,incongruent,uniform,1,undefined,1,s,0,0,0,79,79,0,0,0,79,79,0,79,0,79,NA,79,79,NA,9/25/2021 19:49,1500,The main experiment item,yes,Lab21TestFlankerTask.osexp,C:\Users\mmcel\OneDrive\GRAD SCHOOL\fall 2021\Advanced Quant,no,mono,no,18,no,#ffffff,no,yes,768,legacy,79,79,C:/Users/mmcel/OneDrive/GRAD SCHOOL/fall 2021/Advanced Quant/MM-Subject-3.csv,legacy,Lentiform Loewenfeld,3.3.9,0,s,NA,s,NA,NA,s,665,NA,11891,NA,NA,665,NA,NA,2,legacy,1024,2,48000,-16,experiment,HHSHH,3,odd,14220,NA,NA,168352,167277,2328,NA,NA,168350,168456,NA,164777,2324,NA,NA,168456,169122,NA,Lab 2.1 Test Flanker Task,72,52410,80,yes,1024
90.12345679,90.12345679,654.3580247,654.3580247,#000000,legacy,legacy,legacy,0,congruent,uniform,1,undefined,1,h,0,0,0,80,80,0,0,0,80,80,0,80,0,80,NA,80,80,NA,9/25/2021 19:49,600,The main experiment item,yes,Lab21TestFlankerTask.osexp,C:\Users\mmcel\OneDrive\GRAD SCHOOL\fall 2021\Advanced Quant,no,mono,no,18,no,#ffffff,no,yes,768,legacy,0,79,C:/Users/mmcel/OneDrive/GRAD SCHOOL/fall 2021/Advanced Quant/MM-Subject-3.csv,legacy,Lentiform Loewenfeld,3.3.9,0,h,NA,s,h,NA,h,593,NA,11891,80551,NA,593,NA,NA,2,legacy,1024,2,48000,-16,experiment,HHHHH,3,odd,14220,250759,NA,250838,169169,2328,170206,NA,250836,250939,NA,164777,2324,NA,NA,250939,251533,NA,Lab 2.1 Test Flanker Task,73,53003,81,yes,1024
90.24390244,90.24390244,651.8414634,651.8414634,#000000,legacy,legacy,legacy,0,congruent,uniform,1,undefined,1,s,0,0,0,81,81,0,0,0,81,81,0,81,0,81,NA,81,81,NA,9/25/2021 19:49,600,The main experiment item,yes,Lab21TestFlankerTask.osexp,C:\Users\mmcel\OneDrive\GRAD SCHOOL\fall 2021\Advanced Quant,no,mono,no,18,no,#ffffff,no,yes,768,legacy,1,79,C:/Users/mmcel/OneDrive/GRAD SCHOOL/fall 2021/Advanced Quant/MM-Subject-3.csv,legacy,Lentiform Loewenfeld,3.3.9,0,s,NA,s,h,NA,s,448,NA,11891,80551,NA,448,NA,NA,2,legacy,1024,2,48000,-16,experiment,SSSSS,3,odd,14220,250759,NA,252686,251584,2328,170206,NA,252684,252792,NA,164777,2324,NA,NA,252793,253242,NA,Lab 2.1 Test Flanker Task,74,53451,82,yes,1024
90.36144578,90.36144578,649.0481928,649.0481928,#000000,legacy,legacy,legacy,0,congruent,uniform,1,undefined,1,s,0,0,0,82,82,0,0,0,82,82,0,82,0,82,NA,82,82,NA,9/25/2021 19:49,600,The main experiment item,yes,Lab21TestFlankerTask.osexp,C:\Users\mmcel\OneDrive\GRAD SCHOOL\fall 2021\Advanced Quant,no,mono,no,18,no,#ffffff,no,yes,768,legacy,2,79,C:/Users/mmcel/OneDrive/GRAD SCHOOL/fall 2021/Advanced Quant/MM-Subject-3.csv,legacy,Lentiform Loewenfeld,3.3.9,0,s,NA,s,h,NA,s,420,NA,11891,80551,NA,420,NA,NA,2,legacy,1024,2,48000,-16,experiment,SSSSS,3,odd,14220,250759,NA,254375,253284,2328,170206,NA,254373,254478,NA,164777,2324,NA,NA,254478,254899,NA,Lab 2.1 Test Flanker Task,75,53871,83,yes,1024
89.28571429,89.28571429,646.2738095,646.2738095,#000000,legacy,legacy,legacy,0,incongruent,uniform,0,undefined,0,s,0,0,0,83,83,0,0,0,83,83,0,83,0,83,NA,83,83,NA,9/25/2021 19:49,600,The main experiment item,yes,Lab21TestFlankerTask.osexp,C:\Users\mmcel\OneDrive\GRAD SCHOOL\fall 2021\Advanced Quant,no,mono,no,18,no,#ffffff,no,yes,768,legacy,3,79,C:/Users/mmcel/OneDrive/GRAD SCHOOL/fall 2021/Advanced Quant/MM-Subject-3.csv,legacy,Lentiform Loewenfeld,3.3.9,0,h,NA,s,h,NA,h,416,NA,11891,80551,NA,416,NA,NA,2,legacy,1024,2,48000,-16,experiment,HHSHH,3,odd,14220,250759,NA,256048,254948,2328,170206,NA,256046,256153,NA,164777,2324,NA,NA,256154,256571,NA,Lab 2.1 Test Flanker Task,75,54287,84,yes,1024
88.23529412,88.23529412,644.9529412,644.9529412,#000000,legacy,legacy,legacy,0,incongruent,uniform,0,undefined,0,s,0,0,0,84,84,0,0,0,84,84,0,84,0,84,NA,84,84,NA,9/25/2021 19:49,600,The main experiment item,yes,Lab21TestFlankerTask.osexp,C:\Users\mmcel\OneDrive\GRAD SCHOOL\fall 2021\Advanced Quant,no,mono,no,18,no,#ffffff,no,yes,768,legacy,4,79,C:/Users/mmcel/OneDrive/GRAD SCHOOL/fall 2021/Advanced Quant/MM-Subject-3.csv,legacy,Lentiform Loewenfeld,3.3.9,0,h,NA,s,h,NA,h,534,NA,11891,80551,NA,534,NA,NA,2,legacy,1024,2,48000,-16,experiment,HHSHH,3,odd,14220,250759,NA,258204,257124,2328,170206,NA,258201,258308,NA,256618,2324,NA,NA,258308,258843,NA,Lab 2.1 Test Flanker Task,75,54821,85,yes,1024
88.37209302,88.37209302,645.8372093,645.8372093,#000000,legacy,legacy,legacy,0,incongruent,uniform,1,undefined,1,s,0,0,0,85,85,0,0,0,85,85,0,85,0,85,NA,85,85,NA,9/25/2021 19:49,600,The main experiment item,yes,Lab21TestFlankerTask.osexp,C:\Users\mmcel\OneDrive\GRAD SCHOOL\fall 2021\Advanced Quant,no,mono,no,18,no,#ffffff,no,yes,768,legacy,5,79,C:/Users/mmcel/OneDrive/GRAD SCHOOL/fall 2021/Advanced Quant/MM-Subject-3.csv,legacy,Lentiform Loewenfeld,3.3.9,0,s,NA,s,h,NA,s,721,NA,11891,80551,NA,721,NA,NA,2,legacy,1024,2,48000,-16,experiment,HHSHH,3,odd,14220,250759,NA,260495,259406,2328,170206,NA,260492,260599,NA,258903,2324,NA,NA,260600,261323,NA,Lab 2.1 Test Flanker Task,76,55542,86,yes,1024
88.50574713,88.50574713,646.8850575,646.8850575,#000000,legacy,legacy,legacy,0,incongruent,uniform,1,undefined,1,s,0,0,0,86,86,0,0,0,86,86,0,86,0,86,NA,86,86,NA,9/25/2021 19:49,600,The main experiment item,yes,Lab21TestFlankerTask.osexp,C:\Users\mmcel\OneDrive\GRAD SCHOOL\fall 2021\Advanced Quant,no,mono,no,18,no,#ffffff,no,yes,768,legacy,6,79,C:/Users/mmcel/OneDrive/GRAD SCHOOL/fall 2021/Advanced Quant/MM-Subject-3.csv,legacy,Lentiform Loewenfeld,3.3.9,0,s,NA,s,h,NA,s,737,NA,11891,80551,NA,737,NA,NA,2,legacy,1024,2,48000,-16,experiment,HHSHH,3,odd,14220,250759,NA,262987,261892,2328,170206,NA,262985,263091,NA,258903,2324,261385,NA,263091,263829,NA,Lab 2.1 Test Flanker Task,77,56279,87,yes,1024
88.63636364,88.63636364,642.9090909,642.9090909,#000000,legacy,legacy,legacy,0,incongruent,uniform,1,undefined,1,s,0,0,0,87,87,0,0,0,87,87,0,87,0,87,NA,87,87,NA,9/25/2021 19:49,600,The main experiment item,yes,Lab21TestFlankerTask.osexp,C:\Users\mmcel\OneDrive\GRAD SCHOOL\fall 2021\Advanced Quant,no,mono,no,18,no,#ffffff,no,yes,768,legacy,7,79,C:/Users/mmcel/OneDrive/GRAD SCHOOL/fall 2021/Advanced Quant/MM-Subject-3.csv,legacy,Lentiform Loewenfeld,3.3.9,0,s,NA,s,h,NA,s,297,NA,11891,80551,NA,297,NA,NA,2,legacy,1024,2,48000,-16,experiment,HHSHH,3,odd,14220,250759,NA,265481,264398,2328,170206,NA,265479,265585,NA,258903,2324,263893,NA,265585,265883,NA,Lab 2.1 Test Flanker Task,78,56576,88,yes,1024
88.76404494,88.76404494,642.5730337,642.5730337,#000000,legacy,legacy,legacy,0,incongruent,uniform,1,undefined,1,s,0,0,0,88,88,0,0,0,88,88,0,88,0,88,NA,88,88,NA,9/25/2021 19:49,600,The main experiment item,yes,Lab21TestFlankerTask.osexp,C:\Users\mmcel\OneDrive\GRAD SCHOOL\fall 2021\Advanced Quant,no,mono,no,18,no,#ffffff,no,yes,768,legacy,8,79,C:/Users/mmcel/OneDrive/GRAD SCHOOL/fall 2021/Advanced Quant/MM-Subject-3.csv,legacy,Lentiform Loewenfeld,3.3.9,0,s,NA,s,h,NA,s,613,NA,11891,80551,NA,613,NA,NA,2,legacy,1024,2,48000,-16,experiment,HHSHH,3,odd,14220,250759,NA,267038,265949,2328,170206,NA,267035,267139,NA,258903,2324,263893,NA,267139,267754,NA,Lab 2.1 Test Flanker Task,79,57189,89,yes,1024
88.88888889,88.88888889,642.1333333,642.1333333,#000000,legacy,legacy,legacy,0,congruent,uniform,1,undefined,1,s,0,0,0,89,89,0,0,0,89,89,0,89,0,89,NA,89,89,NA,9/25/2021 19:49,600,The main experiment item,yes,Lab21TestFlankerTask.osexp,C:\Users\mmcel\OneDrive\GRAD SCHOOL\fall 2021\Advanced Quant,no,mono,no,18,no,#ffffff,no,yes,768,legacy,9,79,C:/Users/mmcel/OneDrive/GRAD SCHOOL/fall 2021/Advanced Quant/MM-Subject-3.csv,legacy,Lentiform Loewenfeld,3.3.9,0,s,NA,s,h,NA,s,603,NA,11891,80551,NA,603,NA,NA,2,legacy,1024,2,48000,-16,experiment,SSSSS,3,odd,14220,250759,NA,269350,268273,2328,170206,NA,269348,269452,NA,258903,2324,267772,NA,269452,270056,NA,Lab 2.1 Test Flanker Task,80,57792,90,yes,1024
89.01098901,89.01098901,640.1648352,640.1648352,#000000,legacy,legacy,legacy,0,incongruent,uniform,1,undefined,1,h,0,0,0,90,90,0,0,0,90,90,0,90,0,90,NA,90,90,NA,9/25/2021 19:49,600,The main experiment item,yes,Lab21TestFlankerTask.osexp,C:\Users\mmcel\OneDrive\GRAD SCHOOL\fall 2021\Advanced Quant,no,mono,no,18,no,#ffffff,no,yes,768,legacy,10,79,C:/Users/mmcel/OneDrive/GRAD SCHOOL/fall 2021/Advanced Quant/MM-Subject-3.csv,legacy,Lentiform Loewenfeld,3.3.9,0,h,NA,s,h,NA,h,463,NA,11891,80551,NA,463,NA,NA,2,legacy,1024,2,48000,-16,experiment,SSHSS,3,odd,14220,250759,NA,271697,270619,2328,170206,NA,271695,271801,NA,258903,2324,270116,NA,271801,272265,NA,Lab 2.1 Test Flanker Task,81,58255,91,yes,1024
89.13043478,89.13043478,637.7717391,637.7717391,#000000,legacy,legacy,legacy,0,congruent,uniform,1,undefined,1,h,0,0,0,91,91,0,0,0,91,91,0,91,0,91,NA,91,91,NA,9/25/2021 19:49,600,The main experiment item,yes,Lab21TestFlankerTask.osexp,C:\Users\mmcel\OneDrive\GRAD SCHOOL\fall 2021\Advanced Quant,no,mono,no,18,no,#ffffff,no,yes,768,legacy,11,79,C:/Users/mmcel/OneDrive/GRAD SCHOOL/fall 2021/Advanced Quant/MM-Subject-3.csv,legacy,Lentiform Loewenfeld,3.3.9,0,h,NA,s,h,NA,h,420,NA,11891,80551,NA,420,NA,NA,2,legacy,1024,2,48000,-16,experiment,HHHHH,3,odd,14220,250759,NA,273374,272294,2328,170206,NA,273371,273478,NA,258903,2324,270116,NA,273478,273899,NA,Lab 2.1 Test Flanker Task,82,58675,92,yes,1024
89.24731183,89.24731183,635.4301075,635.4301075,#000000,legacy,legacy,legacy,0,congruent,uniform,1,undefined,1,h,0,0,0,92,92,0,0,0,92,92,0,92,0,92,NA,92,92,NA,9/25/2021 19:49,600,The main experiment item,yes,Lab21TestFlankerTask.osexp,C:\Users\mmcel\OneDrive\GRAD SCHOOL\fall 2021\Advanced Quant,no,mono,no,18,no,#ffffff,no,yes,768,legacy,12,79,C:/Users/mmcel/OneDrive/GRAD SCHOOL/fall 2021/Advanced Quant/MM-Subject-3.csv,legacy,Lentiform Loewenfeld,3.3.9,0,h,NA,s,h,NA,h,420,NA,11891,80551,NA,420,NA,NA,2,legacy,1024,2,48000,-16,experiment,HHHHH,3,odd,14220,250759,NA,275067,273963,2328,170206,NA,275065,275170,NA,258903,2324,270116,NA,275172,275593,NA,Lab 2.1 Test Flanker Task,83,59095,93,yes,1024
89.36170213,89.36170213,636.1808511,636.1808511,#000000,legacy,legacy,legacy,0,incongruent,uniform,1,undefined,1,h,0,0,0,93,93,0,0,0,93,93,0,93,0,93,NA,93,93,NA,9/25/2021 19:49,600,The main experiment item,yes,Lab21TestFlankerTask.osexp,C:\Users\mmcel\OneDrive\GRAD SCHOOL\fall 2021\Advanced Quant,no,mono,no,18,no,#ffffff,no,yes,768,legacy,13,79,C:/Users/mmcel/OneDrive/GRAD SCHOOL/fall 2021/Advanced Quant/MM-Subject-3.csv,legacy,Lentiform Loewenfeld,3.3.9,0,h,NA,s,h,NA,h,706,NA,11891,80551,NA,706,NA,NA,2,legacy,1024,2,48000,-16,experiment,SSHSS,3,odd,14220,250759,NA,276723,275638,2328,170206,NA,276721,276827,NA,258903,2324,270116,NA,276827,277534,NA,Lab 2.1 Test Flanker Task,84,59801,94,yes,1024
89.47368421,89.47368421,633.9473684,633.9473684,#000000,legacy,legacy,legacy,0,incongruent,uniform,1,undefined,1,h,0,0,0,94,94,0,0,0,94,94,0,94,0,94,NA,94,94,NA,9/25/2021 19:49,600,The main experiment item,yes,Lab21TestFlankerTask.osexp,C:\Users\mmcel\OneDrive\GRAD SCHOOL\fall 2021\Advanced Quant,no,mono,no,18,no,#ffffff,no,yes,768,legacy,14,79,C:/Users/mmcel/OneDrive/GRAD SCHOOL/fall 2021/Advanced Quant/MM-Subject-3.csv,legacy,Lentiform Loewenfeld,3.3.9,0,h,NA,s,h,NA,h,424,NA,11891,80551,NA,424,NA,NA,2,legacy,1024,2,48000,-16,experiment,SSHSS,3,odd,14220,250759,NA,279194,278097,2328,170206,NA,279191,279298,NA,258903,2324,277594,NA,279298,279723,NA,Lab 2.1 Test Flanker Task,85,60225,95,yes,1024
88.54166667,88.54166667,632.09375,632.09375,#000000,legacy,legacy,legacy,0,congruent,uniform,0,undefined,0,s,0,0,0,95,95,0,0,0,95,95,0,95,0,95,NA,95,95,NA,9/25/2021 19:49,600,The main experiment item,yes,Lab21TestFlankerTask.osexp,C:\Users\mmcel\OneDrive\GRAD SCHOOL\fall 2021\Advanced Quant,no,mono,no,18,no,#ffffff,no,yes,768,legacy,15,79,C:/Users/mmcel/OneDrive/GRAD SCHOOL/fall 2021/Advanced Quant/MM-Subject-3.csv,legacy,Lentiform Loewenfeld,3.3.9,0,h,NA,s,h,NA,h,456,NA,11891,80551,NA,456,NA,NA,2,legacy,1024,2,48000,-16,experiment,SSSSS,3,odd,14220,250759,NA,280947,279850,2328,170206,NA,280944,281051,NA,258903,2324,277594,NA,281051,281508,NA,Lab 2.1 Test Flanker Task,85,60681,96,yes,1024
88.65979381,88.65979381,632.3814433,632.3814433,#000000,legacy,legacy,legacy,0,congruent,uniform,1,undefined,1,s,0,0,0,96,96,0,0,0,96,96,0,96,0,96,NA,96,96,NA,9/25/2021 19:49,600,The main experiment item,yes,Lab21TestFlankerTask.osexp,C:\Users\mmcel\OneDrive\GRAD SCHOOL\fall 2021\Advanced Quant,no,mono,no,18,no,#ffffff,no,yes,768,legacy,16,79,C:/Users/mmcel/OneDrive/GRAD SCHOOL/fall 2021/Advanced Quant/MM-Subject-3.csv,legacy,Lentiform Loewenfeld,3.3.9,0,s,NA,s,h,NA,s,660,NA,11891,80551,NA,660,NA,NA,2,legacy,1024,2,48000,-16,experiment,SSSSS,3,odd,14220,250759,NA,283154,282064,2328,170206,NA,283151,283258,NA,281561,2324,277594,NA,283258,283919,NA,Lab 2.1 Test Flanker Task,86,61341,97,yes,1024
88.7755102,88.7755102,630.5714286,630.5714286,#000000,legacy,legacy,legacy,0,congruent,uniform,1,undefined,1,s,0,0,0,97,97,0,0,0,97,97,0,97,0,97,NA,97,97,NA,9/25/2021 19:49,600,The main experiment item,yes,Lab21TestFlankerTask.osexp,C:\Users\mmcel\OneDrive\GRAD SCHOOL\fall 2021\Advanced Quant,no,mono,no,18,no,#ffffff,no,yes,768,legacy,17,79,C:/Users/mmcel/OneDrive/GRAD SCHOOL/fall 2021/Advanced Quant/MM-Subject-3.csv,legacy,Lentiform Loewenfeld,3.3.9,0,s,NA,s,h,NA,s,455,NA,11891,80551,NA,455,NA,NA,2,legacy,1024,2,48000,-16,experiment,SSSSS,3,odd,14220,250759,NA,285549,284455,2328,170206,NA,285547,285653,NA,281561,2324,283950,NA,285653,286109,NA,Lab 2.1 Test Flanker Task,87,61796,98,yes,1024
88.88888889,88.88888889,628.3737374,628.3737374,#000000,legacy,legacy,legacy,0,congruent,uniform,1,undefined,1,s,0,0,0,98,98,0,0,0,98,98,0,98,0,98,NA,98,98,NA,9/25/2021 19:49,600,The main experiment item,yes,Lab21TestFlankerTask.osexp,C:\Users\mmcel\OneDrive\GRAD SCHOOL\fall 2021\Advanced Quant,no,mono,no,18,no,#ffffff,no,yes,768,legacy,18,79,C:/Users/mmcel/OneDrive/GRAD SCHOOL/fall 2021/Advanced Quant/MM-Subject-3.csv,legacy,Lentiform Loewenfeld,3.3.9,0,s,NA,s,h,NA,s,413,NA,11891,80551,NA,413,NA,NA,2,legacy,1024,2,48000,-16,experiment,SSSSS,3,odd,14220,250759,NA,287251,286156,2328,170206,NA,287249,287352,NA,281561,2324,283950,NA,287352,287766,NA,Lab 2.1 Test Flanker Task,88,62209,99,yes,1024
88,88,626.47,626.47,#000000,legacy,legacy,legacy,0,incongruent,uniform,0,undefined,0,h,0,0,0,99,99,0,0,0,99,99,0,99,0,99,NA,99,99,NA,9/25/2021 19:49,600,The main experiment item,yes,Lab21TestFlankerTask.osexp,C:\Users\mmcel\OneDrive\GRAD SCHOOL\fall 2021\Advanced Quant,no,mono,no,18,no,#ffffff,no,yes,768,legacy,19,79,C:/Users/mmcel/OneDrive/GRAD SCHOOL/fall 2021/Advanced Quant/MM-Subject-3.csv,legacy,Lentiform Loewenfeld,3.3.9,0,s,NA,s,h,NA,s,438,NA,11891,80551,NA,438,NA,NA,2,legacy,1024,2,48000,-16,experiment,SSHSS,3,odd,14220,250759,NA,288917,287832,2328,170206,NA,288914,289018,NA,281561,2324,283950,NA,289018,289457,NA,Lab 2.1 Test Flanker Task,88,62647,100,yes,1024
88.11881188,88.11881188,627.6237624,627.6237624,#000000,legacy,legacy,legacy,0,incongruent,uniform,1,undefined,1,s,0,0,0,100,100,0,0,0,100,100,0,100,0,100,NA,100,100,NA,9/25/2021 19:49,600,The main experiment item,yes,Lab21TestFlankerTask.osexp,C:\Users\mmcel\OneDrive\GRAD SCHOOL\fall 2021\Advanced Quant,no,mono,no,18,no,#ffffff,no,yes,768,legacy,20,79,C:/Users/mmcel/OneDrive/GRAD SCHOOL/fall 2021/Advanced Quant/MM-Subject-3.csv,legacy,Lentiform Loewenfeld,3.3.9,0,s,NA,s,h,NA,s,743,NA,11891,80551,NA,743,NA,NA,2,legacy,1024,2,48000,-16,experiment,HHSHH,3,odd,14220,250759,NA,291083,289986,2328,170206,NA,291080,291188,NA,289484,2324,283950,NA,291188,291932,NA,Lab 2.1 Test Flanker Task,89,63390,101,yes,1024
87.25490196,87.25490196,626.8137255,626.8137255,#000000,legacy,legacy,legacy,0,incongruent,uniform,0,undefined,0,h,0,0,0,101,101,0,0,0,101,101,0,101,0,101,NA,101,101,NA,9/25/2021 19:49,600,The main experiment item,yes,Lab21TestFlankerTask.osexp,C:\Users\mmcel\OneDrive\GRAD SCHOOL\fall 2021\Advanced Quant,no,mono,no,18,no,#ffffff,no,yes,768,legacy,21,79,C:/Users/mmcel/OneDrive/GRAD SCHOOL/fall 2021/Advanced Quant/MM-Subject-3.csv,legacy,Lentiform Loewenfeld,3.3.9,0,s,NA,s,h,NA,s,545,NA,11891,80551,NA,545,NA,NA,2,legacy,1024,2,48000,-16,experiment,SSHSS,3,odd,14220,250759,NA,293576,292473,2328,170206,NA,293574,293680,NA,289484,2324,291968,NA,293680,294226,NA,Lab 2.1 Test Flanker Task,89,63935,102,yes,1024
87.37864078,87.37864078,625.8834951,625.8834951,#000000,legacy,legacy,legacy,0,congruent,uniform,1,undefined,1,s,0,0,0,102,102,0,0,0,102,102,0,102,0,102,NA,102,102,NA,9/25/2021 19:49,600,The main experiment item,yes,Lab21TestFlankerTask.osexp,C:\Users\mmcel\OneDrive\GRAD SCHOOL\fall 2021\Advanced Quant,no,mono,no,18,no,#ffffff,no,yes,768,legacy,22,79,C:/Users/mmcel/OneDrive/GRAD SCHOOL/fall 2021/Advanced Quant/MM-Subject-3.csv,legacy,Lentiform Loewenfeld,3.3.9,0,s,NA,s,h,NA,s,531,NA,11891,80551,NA,531,NA,NA,2,legacy,1024,2,48000,-16,experiment,SSSSS,3,odd,14220,250759,NA,295848,294767,2328,170206,NA,295845,295951,NA,294264,2324,291968,NA,295951,296483,NA,Lab 2.1 Test Flanker Task,90,64466,103,yes,1024
87.5,87.5,624.8173077,624.8173077,#000000,legacy,legacy,legacy,0,congruent,uniform,1,undefined,1,h,0,0,0,103,103,0,0,0,103,103,0,103,0,103,NA,103,103,NA,9/25/2021 19:49,600,The main experiment item,yes,Lab21TestFlankerTask.osexp,C:\Users\mmcel\OneDrive\GRAD SCHOOL\fall 2021\Advanced Quant,no,mono,no,18,no,#ffffff,no,yes,768,legacy,23,79,C:/Users/mmcel/OneDrive/GRAD SCHOOL/fall 2021/Advanced Quant/MM-Subject-3.csv,legacy,Lentiform Loewenfeld,3.3.9,0,h,NA,s,h,NA,h,515,NA,11891,80551,NA,515,NA,NA,2,legacy,1024,2,48000,-16,experiment,HHHHH,3,odd,14220,250759,NA,297658,296553,2328,170206,NA,297656,297764,NA,294264,2324,291968,NA,297764,298280,NA,Lab 2.1 Test Flanker Task,91,64981,104,yes,1024
87.61904762,87.61904762,623.8761905,623.8761905,#000000,legacy,legacy,legacy,0,incongruent,uniform,1,undefined,1,h,0,0,0,104,104,0,0,0,104,104,0,104,0,104,NA,104,104,NA,9/25/2021 19:49,600,The main experiment item,yes,Lab21TestFlankerTask.osexp,C:\Users\mmcel\OneDrive\GRAD SCHOOL\fall 2021\Advanced Quant,no,mono,no,18,no,#ffffff,no,yes,768,legacy,24,79,C:/Users/mmcel/OneDrive/GRAD SCHOOL/fall 2021/Advanced Quant/MM-Subject-3.csv,legacy,Lentiform Loewenfeld,3.3.9,0,h,NA,s,h,NA,h,526,NA,11891,80551,NA,526,NA,NA,2,legacy,1024,2,48000,-16,experiment,SSHSS,3,odd,14220,250759,NA,299422,298340,2328,170206,NA,299420,299526,NA,294264,2324,291968,NA,299526,300053,NA,Lab 2.1 Test Flanker Task,92,65507,105,yes,1024
87.73584906,87.73584906,622.0849057,622.0849057,#000000,legacy,legacy,legacy,0,incongruent,uniform,1,undefined,1,h,0,0,0,105,105,0,0,0,105,105,0,105,0,105,NA,105,105,NA,9/25/2021 19:49,600,The main experiment item,yes,Lab21TestFlankerTask.osexp,C:\Users\mmcel\OneDrive\GRAD SCHOOL\fall 2021\Advanced Quant,no,mono,no,18,no,#ffffff,no,yes,768,legacy,25,79,C:/Users/mmcel/OneDrive/GRAD SCHOOL/fall 2021/Advanced Quant/MM-Subject-3.csv,legacy,Lentiform Loewenfeld,3.3.9,0,h,NA,s,h,NA,h,434,NA,11891,80551,NA,434,NA,NA,2,legacy,1024,2,48000,-16,experiment,SSHSS,3,odd,14220,250759,NA,301202,300106,2328,170206,NA,301198,301306,NA,294264,2324,291968,NA,301306,301741,NA,Lab 2.1 Test Flanker Task,93,65941,106,yes,1024
87.85046729,87.85046729,620.7196262,620.7196262,#000000,legacy,legacy,legacy,0,congruent,uniform,1,undefined,1,s,0,0,0,106,106,0,0,0,106,106,0,106,0,106,NA,106,106,NA,9/25/2021 19:49,600,The main experiment item,yes,Lab21TestFlankerTask.osexp,C:\Users\mmcel\OneDrive\GRAD SCHOOL\fall 2021\Advanced Quant,no,mono,no,18,no,#ffffff,no,yes,768,legacy,26,79,C:/Users/mmcel/OneDrive/GRAD SCHOOL/fall 2021/Advanced Quant/MM-Subject-3.csv,legacy,Lentiform Loewenfeld,3.3.9,0,s,NA,s,h,NA,s,476,NA,11891,80551,NA,476,NA,NA,2,legacy,1024,2,48000,-16,experiment,SSSSS,3,odd,14220,250759,NA,302892,301798,2328,170206,NA,302890,302997,NA,294264,2324,291968,NA,302997,303474,NA,Lab 2.1 Test Flanker Task,94,66417,107,yes,1024
87.96296296,87.96296296,619,619,#000000,legacy,legacy,legacy,0,congruent,uniform,1,undefined,1,s,0,0,0,107,107,0,0,0,107,107,0,107,0,107,NA,107,107,NA,9/25/2021 19:49,600,The main experiment item,yes,Lab21TestFlankerTask.osexp,C:\Users\mmcel\OneDrive\GRAD SCHOOL\fall 2021\Advanced Quant,no,mono,no,18,no,#ffffff,no,yes,768,legacy,27,79,C:/Users/mmcel/OneDrive/GRAD SCHOOL/fall 2021/Advanced Quant/MM-Subject-3.csv,legacy,Lentiform Loewenfeld,3.3.9,0,s,NA,s,h,NA,s,435,NA,11891,80551,NA,435,NA,NA,2,legacy,1024,2,48000,-16,experiment,SSSSS,3,odd,14220,250759,NA,304614,303528,2328,170206,NA,304612,304718,NA,294264,2324,291968,NA,304718,305154,NA,Lab 2.1 Test Flanker Task,95,66852,108,yes,1024
88.0733945,88.0733945,617.6880734,617.6880734,#000000,legacy,legacy,legacy,0,congruent,uniform,1,undefined,1,h,0,0,0,108,108,0,0,0,108,108,0,108,0,108,NA,108,108,NA,9/25/2021 19:49,600,The main experiment item,yes,Lab21TestFlankerTask.osexp,C:\Users\mmcel\OneDrive\GRAD SCHOOL\fall 2021\Advanced Quant,no,mono,no,18,no,#ffffff,no,yes,768,legacy,28,79,C:/Users/mmcel/OneDrive/GRAD SCHOOL/fall 2021/Advanced Quant/MM-Subject-3.csv,legacy,Lentiform Loewenfeld,3.3.9,0,h,NA,s,h,NA,h,476,NA,11891,80551,NA,476,NA,NA,2,legacy,1024,2,48000,-16,experiment,HHHHH,3,odd,14220,250759,NA,306272,305184,2328,170206,NA,306270,306376,NA,294264,2324,291968,NA,306376,306853,NA,Lab 2.1 Test Flanker Task,96,67328,109,yes,1024
88.18181818,88.18181818,615.8727273,615.8727273,#000000,legacy,legacy,legacy,0,congruent,uniform,1,undefined,1,h,0,0,0,109,109,0,0,0,109,109,0,109,0,109,NA,109,109,NA,9/25/2021 19:49,600,The main experiment item,yes,Lab21TestFlankerTask.osexp,C:\Users\mmcel\OneDrive\GRAD SCHOOL\fall 2021\Advanced Quant,no,mono,no,18,no,#ffffff,no,yes,768,legacy,29,79,C:/Users/mmcel/OneDrive/GRAD SCHOOL/fall 2021/Advanced Quant/MM-Subject-3.csv,legacy,Lentiform Loewenfeld,3.3.9,0,h,NA,s,h,NA,h,418,NA,11891,80551,NA,418,NA,NA,2,legacy,1024,2,48000,-16,experiment,HHHHH,3,odd,14220,250759,NA,307997,306918,2328,170206,NA,307994,308101,NA,294264,2324,291968,NA,308102,308521,NA,Lab 2.1 Test Flanker Task,97,67746,110,yes,1024
88.28828829,88.28828829,615.5765766,615.5765766,#000000,legacy,legacy,legacy,0,incongruent,uniform,1,undefined,1,s,0,0,0,110,110,0,0,0,110,110,0,110,0,110,NA,110,110,NA,9/25/2021 19:49,600,The main experiment item,yes,Lab21TestFlankerTask.osexp,C:\Users\mmcel\OneDrive\GRAD SCHOOL\fall 2021\Advanced Quant,no,mono,no,18,no,#ffffff,no,yes,768,legacy,30,79,C:/Users/mmcel/OneDrive/GRAD SCHOOL/fall 2021/Advanced Quant/MM-Subject-3.csv,legacy,Lentiform Loewenfeld,3.3.9,0,s,NA,s,h,NA,s,583,NA,11891,80551,NA,583,NA,NA,2,legacy,1024,2,48000,-16,experiment,HHSHH,3,odd,14220,250759,NA,309689,308588,2328,170206,NA,309686,309790,NA,294264,2324,291968,NA,309790,310374,NA,Lab 2.1 Test Flanker Task,98,68329,111,yes,1024
87.5,87.5,613.3214286,613.3214286,#000000,legacy,legacy,legacy,0,incongruent,uniform,0,undefined,0,s,0,0,0,111,111,0,0,0,111,111,0,111,0,111,NA,111,111,NA,9/25/2021 19:49,600,The main experiment item,yes,Lab21TestFlankerTask.osexp,C:\Users\mmcel\OneDrive\GRAD SCHOOL\fall 2021\Advanced Quant,no,mono,no,18,no,#ffffff,no,yes,768,legacy,31,79,C:/Users/mmcel/OneDrive/GRAD SCHOOL/fall 2021/Advanced Quant/MM-Subject-3.csv,legacy,Lentiform Loewenfeld,3.3.9,0,h,NA,s,h,NA,h,363,NA,11891,80551,NA,363,NA,NA,2,legacy,1024,2,48000,-16,experiment,HHSHH,3,odd,14220,250759,NA,311524,310429,2328,170206,NA,311522,311628,NA,294264,2324,291968,NA,311628,311992,NA,Lab 2.1 Test Flanker Task,98,68692,112,yes,1024
87.61061947,87.61061947,612.9646018,612.9646018,#000000,legacy,legacy,legacy,0,congruent,uniform,1,undefined,1,h,0,0,0,112,112,0,0,0,112,112,0,112,0,112,NA,112,112,NA,9/25/2021 19:49,600,The main experiment item,yes,Lab21TestFlankerTask.osexp,C:\Users\mmcel\OneDrive\GRAD SCHOOL\fall 2021\Advanced Quant,no,mono,no,18,no,#ffffff,no,yes,768,legacy,32,79,C:/Users/mmcel/OneDrive/GRAD SCHOOL/fall 2021/Advanced Quant/MM-Subject-3.csv,legacy,Lentiform Loewenfeld,3.3.9,0,h,NA,s,h,NA,h,573,NA,11891,80551,NA,573,NA,NA,2,legacy,1024,2,48000,-16,experiment,HHHHH,3,odd,14220,250759,NA,313638,312558,2328,170206,NA,313635,313743,NA,312054,2324,291968,NA,313744,314318,NA,Lab 2.1 Test Flanker Task,99,69265,113,yes,1024
87.71929825,87.71929825,611.3157895,611.3157895,#000000,legacy,legacy,legacy,0,congruent,uniform,1,undefined,1,h,0,0,0,113,113,0,0,0,113,113,0,113,0,113,NA,113,113,NA,9/25/2021 19:49,600,The main experiment item,yes,Lab21TestFlankerTask.osexp,C:\Users\mmcel\OneDrive\GRAD SCHOOL\fall 2021\Advanced Quant,no,mono,no,18,no,#ffffff,no,yes,768,legacy,33,79,C:/Users/mmcel/OneDrive/GRAD SCHOOL/fall 2021/Advanced Quant/MM-Subject-3.csv,legacy,Lentiform Loewenfeld,3.3.9,0,h,NA,s,h,NA,h,425,NA,11891,80551,NA,425,NA,NA,2,legacy,1024,2,48000,-16,experiment,HHHHH,3,odd,14220,250759,NA,315477,314376,2328,170206,NA,315476,315578,NA,312054,2324,291968,NA,315578,316004,NA,Lab 2.1 Test Flanker Task,100,69690,114,yes,1024
87.82608696,87.82608696,609.5043478,609.5043478,#000000,legacy,legacy,legacy,0,congruent,uniform,1,undefined,1,h,0,0,0,114,114,0,0,0,114,114,0,114,0,114,NA,114,114,NA,9/25/2021 19:49,600,The main experiment item,yes,Lab21TestFlankerTask.osexp,C:\Users\mmcel\OneDrive\GRAD SCHOOL\fall 2021\Advanced Quant,no,mono,no,18,no,#ffffff,no,yes,768,legacy,34,79,C:/Users/mmcel/OneDrive/GRAD SCHOOL/fall 2021/Advanced Quant/MM-Subject-3.csv,legacy,Lentiform Loewenfeld,3.3.9,0,h,NA,s,h,NA,h,403,NA,11891,80551,NA,403,NA,NA,2,legacy,1024,2,48000,-16,experiment,HHHHH,3,odd,14220,250759,NA,317110,316029,2328,170206,NA,317108,317211,NA,312054,2324,291968,NA,317211,317615,NA,Lab 2.1 Test Flanker Task,101,70093,115,yes,1024
87.93103448,87.93103448,608.0689655,608.0689655,#000000,legacy,legacy,legacy,0,incongruent,uniform,1,undefined,1,s,0,0,0,115,115,0,0,0,115,115,0,115,0,115,NA,115,115,NA,9/25/2021 19:49,600,The main experiment item,yes,Lab21TestFlankerTask.osexp,C:\Users\mmcel\OneDrive\GRAD SCHOOL\fall 2021\Advanced Quant,no,mono,no,18,no,#ffffff,no,yes,768,legacy,35,79,C:/Users/mmcel/OneDrive/GRAD SCHOOL/fall 2021/Advanced Quant/MM-Subject-3.csv,legacy,Lentiform Loewenfeld,3.3.9,0,s,NA,s,h,NA,s,443,NA,11891,80551,NA,443,NA,NA,2,legacy,1024,2,48000,-16,experiment,HHSHH,3,odd,14220,250759,NA,318745,317673,2328,170206,NA,318743,318850,NA,312054,2324,291968,NA,318850,319294,NA,Lab 2.1 Test Flanker Task,102,70536,116,yes,1024
88.03418803,88.03418803,609,609,#000000,legacy,legacy,legacy,0,congruent,uniform,1,undefined,1,s,0,0,0,116,116,0,0,0,116,116,0,116,0,116,NA,116,116,NA,9/25/2021 19:49,600,The main experiment item,yes,Lab21TestFlankerTask.osexp,C:\Users\mmcel\OneDrive\GRAD SCHOOL\fall 2021\Advanced Quant,no,mono,no,18,no,#ffffff,no,yes,768,legacy,36,79,C:/Users/mmcel/OneDrive/GRAD SCHOOL/fall 2021/Advanced Quant/MM-Subject-3.csv,legacy,Lentiform Loewenfeld,3.3.9,0,s,NA,s,h,NA,s,717,NA,11891,80551,NA,717,NA,NA,2,legacy,1024,2,48000,-16,experiment,SSSSS,3,odd,14220,250759,NA,320413,319330,2328,170206,NA,320410,320518,NA,312054,2324,291968,NA,320518,321238,NA,Lab 2.1 Test Flanker Task,103,71253,117,yes,1024
88.13559322,88.13559322,608.8305085,608.8305085,#000000,legacy,legacy,legacy,0,incongruent,uniform,1,undefined,1,s,0,0,0,117,117,0,0,0,117,117,0,117,0,117,NA,117,117,NA,9/25/2021 19:49,600,The main experiment item,yes,Lab21TestFlankerTask.osexp,C:\Users\mmcel\OneDrive\GRAD SCHOOL\fall 2021\Advanced Quant,no,mono,no,18,no,#ffffff,no,yes,768,legacy,37,79,C:/Users/mmcel/OneDrive/GRAD SCHOOL/fall 2021/Advanced Quant/MM-Subject-3.csv,legacy,Lentiform Loewenfeld,3.3.9,0,s,NA,s,h,NA,s,589,NA,11891,80551,NA,589,NA,NA,2,legacy,1024,2,48000,-16,experiment,HHSHH,3,odd,14220,250759,NA,322899,321805,2328,170206,NA,322897,323004,NA,312054,2324,321300,NA,323004,323594,NA,Lab 2.1 Test Flanker Task,104,71842,118,yes,1024
88.23529412,88.23529412,607.4369748,607.4369748,#000000,legacy,legacy,legacy,0,congruent,uniform,1,undefined,1,s,0,0,0,118,118,0,0,0,118,118,0,118,0,118,NA,118,118,NA,9/25/2021 19:49,600,The main experiment item,yes,Lab21TestFlankerTask.osexp,C:\Users\mmcel\OneDrive\GRAD SCHOOL\fall 2021\Advanced Quant,no,mono,no,18,no,#ffffff,no,yes,768,legacy,38,79,C:/Users/mmcel/OneDrive/GRAD SCHOOL/fall 2021/Advanced Quant/MM-Subject-3.csv,legacy,Lentiform Loewenfeld,3.3.9,0,s,NA,s,h,NA,s,443,NA,11891,80551,NA,443,NA,NA,2,legacy,1024,2,48000,-16,experiment,SSSSS,3,odd,14220,250759,NA,324735,323655,2328,170206,NA,324733,324839,NA,312054,2324,321300,NA,324840,325284,NA,Lab 2.1 Test Flanker Task,105,72285,119,yes,1024
88.33333333,88.33333333,606.6666667,606.6666667,#000000,legacy,legacy,legacy,0,incongruent,uniform,1,undefined,1,s,0,0,0,119,119,0,0,0,119,119,0,119,0,119,NA,119,119,NA,9/25/2021 19:49,600,The main experiment item,yes,Lab21TestFlankerTask.osexp,C:\Users\mmcel\OneDrive\GRAD SCHOOL\fall 2021\Advanced Quant,no,mono,no,18,no,#ffffff,no,yes,768,legacy,39,79,C:/Users/mmcel/OneDrive/GRAD SCHOOL/fall 2021/Advanced Quant/MM-Subject-3.csv,legacy,Lentiform Loewenfeld,3.3.9,0,s,NA,s,h,NA,s,515,NA,11891,80551,NA,515,NA,NA,2,legacy,1024,2,48000,-16,experiment,HHSHH,3,odd,14220,250759,NA,326431,325344,2328,170206,NA,326429,326532,NA,312054,2324,321300,NA,326532,327048,NA,Lab 2.1 Test Flanker Task,106,72800,120,yes,1024
88.42975207,88.42975207,604.4876033,604.4876033,#000000,legacy,legacy,legacy,0,congruent,uniform,1,undefined,1,s,0,0,0,120,120,0,0,0,120,120,0,120,0,120,NA,120,120,NA,9/25/2021 19:49,600,The main experiment item,yes,Lab21TestFlankerTask.osexp,C:\Users\mmcel\OneDrive\GRAD SCHOOL\fall 2021\Advanced Quant,no,mono,no,18,no,#ffffff,no,yes,768,legacy,40,79,C:/Users/mmcel/OneDrive/GRAD SCHOOL/fall 2021/Advanced Quant/MM-Subject-3.csv,legacy,Lentiform Loewenfeld,3.3.9,0,s,NA,s,h,NA,s,343,NA,11891,80551,NA,343,NA,NA,2,legacy,1024,2,48000,-16,experiment,SSSSS,3,odd,14220,250759,NA,328215,327110,2328,170206,NA,328212,328316,NA,312054,2324,321300,NA,328316,328660,NA,Lab 2.1 Test Flanker Task,107,73143,121,yes,1024
88.52459016,88.52459016,603.3360656,603.3360656,#000000,legacy,legacy,legacy,0,congruent,uniform,1,undefined,1,h,0,0,0,121,121,0,0,0,121,121,0,121,0,121,NA,121,121,NA,9/25/2021 19:49,600,The main experiment item,yes,Lab21TestFlankerTask.osexp,C:\Users\mmcel\OneDrive\GRAD SCHOOL\fall 2021\Advanced Quant,no,mono,no,18,no,#ffffff,no,yes,768,legacy,41,79,C:/Users/mmcel/OneDrive/GRAD SCHOOL/fall 2021/Advanced Quant/MM-Subject-3.csv,legacy,Lentiform Loewenfeld,3.3.9,0,h,NA,s,h,NA,h,464,NA,11891,80551,NA,464,NA,NA,2,legacy,1024,2,48000,-16,experiment,HHHHH,3,odd,14220,250759,NA,329771,328686,2328,170206,NA,329769,329872,NA,312054,2324,321300,NA,329872,330338,NA,Lab 2.1 Test Flanker Task,108,73607,122,yes,1024
88.61788618,88.61788618,602.8211382,602.8211382,#000000,legacy,legacy,legacy,0,incongruent,uniform,1,undefined,1,s,0,0,0,122,122,0,0,0,122,122,0,122,0,122,NA,122,122,NA,9/25/2021 19:49,600,The main experiment item,yes,Lab21TestFlankerTask.osexp,C:\Users\mmcel\OneDrive\GRAD SCHOOL\fall 2021\Advanced Quant,no,mono,no,18,no,#ffffff,no,yes,768,legacy,42,79,C:/Users/mmcel/OneDrive/GRAD SCHOOL/fall 2021/Advanced Quant/MM-Subject-3.csv,legacy,Lentiform Loewenfeld,3.3.9,0,s,NA,s,h,NA,s,540,NA,11891,80551,NA,540,NA,NA,2,legacy,1024,2,48000,-16,experiment,HHSHH,3,odd,14220,250759,NA,331483,330396,2328,170206,NA,331481,331588,NA,312054,2324,321300,NA,331588,332129,NA,Lab 2.1 Test Flanker Task,109,74147,123,yes,1024
88.70967742,88.70967742,603.2258065,603.2258065,#000000,legacy,legacy,legacy,0,incongruent,uniform,1,undefined,1,h,0,0,0,123,123,0,0,0,123,123,0,123,0,123,NA,123,123,NA,9/25/2021 19:49,600,The main experiment item,yes,Lab21TestFlankerTask.osexp,C:\Users\mmcel\OneDrive\GRAD SCHOOL\fall 2021\Advanced Quant,no,mono,no,18,no,#ffffff,no,yes,768,legacy,43,79,C:/Users/mmcel/OneDrive/GRAD SCHOOL/fall 2021/Advanced Quant/MM-Subject-3.csv,legacy,Lentiform Loewenfeld,3.3.9,0,h,NA,s,h,NA,h,653,NA,11891,80551,NA,653,NA,NA,2,legacy,1024,2,48000,-16,experiment,SSHSS,3,odd,14220,250759,NA,333261,332163,2328,170206,NA,333259,333366,NA,312054,2324,321300,NA,333366,334021,NA,Lab 2.1 Test Flanker Task,110,74800,124,yes,1024
88.8,88.8,601.976,601.976,#000000,legacy,legacy,legacy,0,incongruent,uniform,1,undefined,1,h,0,0,0,124,124,0,0,0,124,124,0,124,0,124,NA,124,124,NA,9/25/2021 19:49,600,The main experiment item,yes,Lab21TestFlankerTask.osexp,C:\Users\mmcel\OneDrive\GRAD SCHOOL\fall 2021\Advanced Quant,no,mono,no,18,no,#ffffff,no,yes,768,legacy,44,79,C:/Users/mmcel/OneDrive/GRAD SCHOOL/fall 2021/Advanced Quant/MM-Subject-3.csv,legacy,Lentiform Loewenfeld,3.3.9,0,h,NA,s,h,NA,h,447,NA,11891,80551,NA,447,NA,NA,2,legacy,1024,2,48000,-16,experiment,SSHSS,3,odd,14220,250759,NA,335658,334581,2328,170206,NA,335656,335760,NA,312054,2324,334078,NA,335760,336209,NA,Lab 2.1 Test Flanker Task,111,75247,125,yes,1024
88.88888889,88.88888889,600.8650794,600.8650794,#000000,legacy,legacy,legacy,0,incongruent,uniform,1,undefined,1,h,0,0,0,125,125,0,0,0,125,125,0,125,0,125,NA,125,125,NA,9/25/2021 19:49,600,The main experiment item,yes,Lab21TestFlankerTask.osexp,C:\Users\mmcel\OneDrive\GRAD SCHOOL\fall 2021\Advanced Quant,no,mono,no,18,no,#ffffff,no,yes,768,legacy,45,79,C:/Users/mmcel/OneDrive/GRAD SCHOOL/fall 2021/Advanced Quant/MM-Subject-3.csv,legacy,Lentiform Loewenfeld,3.3.9,0,h,NA,s,h,NA,h,462,NA,11891,80551,NA,462,NA,NA,2,legacy,1024,2,48000,-16,experiment,SSHSS,3,odd,14220,250759,NA,337363,336278,2328,170206,NA,337361,337467,NA,312054,2324,334078,NA,337467,337930,NA,Lab 2.1 Test Flanker Task,112,75709,126,yes,1024
88.18897638,88.18897638,599.3700787,599.3700787,#000000,legacy,legacy,legacy,0,congruent,uniform,0,undefined,0,s,0,0,0,126,126,0,0,0,126,126,0,126,0,126,NA,126,126,NA,9/25/2021 19:49,600,The main experiment item,yes,Lab21TestFlankerTask.osexp,C:\Users\mmcel\OneDrive\GRAD SCHOOL\fall 2021\Advanced Quant,no,mono,no,18,no,#ffffff,no,yes,768,legacy,46,79,C:/Users/mmcel/OneDrive/GRAD SCHOOL/fall 2021/Advanced Quant/MM-Subject-3.csv,legacy,Lentiform Loewenfeld,3.3.9,0,h,NA,s,h,NA,h,411,NA,11891,80551,NA,411,NA,NA,2,legacy,1024,2,48000,-16,experiment,SSSSS,3,odd,14220,250759,NA,339077,337990,2328,170206,NA,339075,339179,NA,312054,2324,334078,NA,339179,339591,NA,Lab 2.1 Test Flanker Task,112,76120,127,yes,1024
88.28125,88.28125,598.8046875,598.8046875,#000000,legacy,legacy,legacy,0,congruent,uniform,1,undefined,1,h,0,0,0,127,127,0,0,0,127,127,0,127,0,127,NA,127,127,NA,9/25/2021 19:49,600,The main experiment item,yes,Lab21TestFlankerTask.osexp,C:\Users\mmcel\OneDrive\GRAD SCHOOL\fall 2021\Advanced Quant,no,mono,no,18,no,#ffffff,no,yes,768,legacy,47,79,C:/Users/mmcel/OneDrive/GRAD SCHOOL/fall 2021/Advanced Quant/MM-Subject-3.csv,legacy,Lentiform Loewenfeld,3.3.9,0,h,NA,s,h,NA,h,527,NA,11891,80551,NA,527,NA,NA,2,legacy,1024,2,48000,-16,experiment,HHHHH,3,odd,14220,250759,NA,341217,340121,2328,170206,NA,341214,341321,NA,339618,2324,334078,NA,341321,341850,NA,Lab 2.1 Test Flanker Task,113,76647,128,yes,1024
88.37209302,88.37209302,597.6666667,597.6666667,#000000,legacy,legacy,legacy,0,congruent,uniform,1,undefined,1,h,0,0,0,128,128,0,0,0,128,128,0,128,0,128,NA,128,128,NA,9/25/2021 19:49,600,The main experiment item,yes,Lab21TestFlankerTask.osexp,C:\Users\mmcel\OneDrive\GRAD SCHOOL\fall 2021\Advanced Quant,no,mono,no,18,no,#ffffff,no,yes,768,legacy,48,79,C:/Users/mmcel/OneDrive/GRAD SCHOOL/fall 2021/Advanced Quant/MM-Subject-3.csv,legacy,Lentiform Loewenfeld,3.3.9,0,h,NA,s,h,NA,h,452,NA,11891,80551,NA,452,NA,NA,2,legacy,1024,2,48000,-16,experiment,HHHHH,3,odd,14220,250759,NA,343018,341911,2328,170206,NA,343016,343119,NA,339618,2324,334078,NA,343119,343572,NA,Lab 2.1 Test Flanker Task,114,77099,129,yes,1024
88.46153846,88.46153846,596.7384615,596.7384615,#000000,legacy,legacy,legacy,0,congruent,uniform,1,undefined,1,s,0,0,0,129,129,0,0,0,129,129,0,129,0,129,NA,129,129,NA,9/25/2021 19:49,600,The main experiment item,yes,Lab21TestFlankerTask.osexp,C:\Users\mmcel\OneDrive\GRAD SCHOOL\fall 2021\Advanced Quant,no,mono,no,18,no,#ffffff,no,yes,768,legacy,49,79,C:/Users/mmcel/OneDrive/GRAD SCHOOL/fall 2021/Advanced Quant/MM-Subject-3.csv,legacy,Lentiform Loewenfeld,3.3.9,0,s,NA,s,h,NA,s,477,NA,11891,80551,NA,477,NA,NA,2,legacy,1024,2,48000,-16,experiment,SSSSS,3,odd,14220,250759,NA,344729,343630,2328,170206,NA,344727,344833,NA,339618,2324,334078,NA,344833,345311,NA,Lab 2.1 Test Flanker Task,115,77576,130,yes,1024
88.54961832,88.54961832,595.8396947,595.8396947,#000000,legacy,legacy,legacy,0,incongruent,uniform,1,undefined,1,h,0,0,0,130,130,0,0,0,130,130,0,130,0,130,NA,130,130,NA,9/25/2021 19:49,600,The main experiment item,yes,Lab21TestFlankerTask.osexp,C:\Users\mmcel\OneDrive\GRAD SCHOOL\fall 2021\Advanced Quant,no,mono,no,18,no,#ffffff,no,yes,768,legacy,50,79,C:/Users/mmcel/OneDrive/GRAD SCHOOL/fall 2021/Advanced Quant/MM-Subject-3.csv,legacy,Lentiform Loewenfeld,3.3.9,0,h,NA,s,h,NA,h,479,NA,11891,80551,NA,479,NA,NA,2,legacy,1024,2,48000,-16,experiment,SSHSS,3,odd,14220,250759,NA,346479,345386,2328,170206,NA,346477,346580,NA,339618,2324,334078,NA,346580,347060,NA,Lab 2.1 Test Flanker Task,116,78055,131,yes,1024
88.63636364,88.63636364,594.780303,594.780303,#000000,legacy,legacy,legacy,0,incongruent,uniform,1,undefined,1,h,0,0,0,131,131,0,0,0,131,131,0,131,0,131,NA,131,131,NA,9/25/2021 19:49,600,The main experiment item,yes,Lab21TestFlankerTask.osexp,C:\Users\mmcel\OneDrive\GRAD SCHOOL\fall 2021\Advanced Quant,no,mono,no,18,no,#ffffff,no,yes,768,legacy,51,79,C:/Users/mmcel/OneDrive/GRAD SCHOOL/fall 2021/Advanced Quant/MM-Subject-3.csv,legacy,Lentiform Loewenfeld,3.3.9,0,h,NA,s,h,NA,h,456,NA,11891,80551,NA,456,NA,NA,2,legacy,1024,2,48000,-16,experiment,SSHSS,3,odd,14220,250759,NA,348256,347152,2328,170206,NA,348254,348359,NA,339618,2324,334078,NA,348359,348817,NA,Lab 2.1 Test Flanker Task,117,78511,132,yes,1024
88.72180451,88.72180451,593.4285714,593.4285714,#000000,legacy,legacy,legacy,0,incongruent,uniform,1,undefined,1,h,0,0,0,132,132,0,0,0,132,132,0,132,0,132,NA,132,132,NA,9/25/2021 19:49,600,The main experiment item,yes,Lab21TestFlankerTask.osexp,C:\Users\mmcel\OneDrive\GRAD SCHOOL\fall 2021\Advanced Quant,no,mono,no,18,no,#ffffff,no,yes,768,legacy,52,79,C:/Users/mmcel/OneDrive/GRAD SCHOOL/fall 2021/Advanced Quant/MM-Subject-3.csv,legacy,Lentiform Loewenfeld,3.3.9,0,h,NA,s,h,NA,h,415,NA,11891,80551,NA,415,NA,NA,2,legacy,1024,2,48000,-16,experiment,SSHSS,3,odd,14220,250759,NA,349963,348878,2328,170206,NA,349961,350066,NA,339618,2324,334078,NA,350066,350482,NA,Lab 2.1 Test Flanker Task,118,78926,133,yes,1024
88.05970149,88.05970149,592.3283582,592.3283582,#000000,legacy,legacy,legacy,0,incongruent,uniform,0,undefined,0,s,0,0,0,133,133,0,0,0,133,133,0,133,0,133,NA,133,133,NA,9/25/2021 19:49,600,The main experiment item,yes,Lab21TestFlankerTask.osexp,C:\Users\mmcel\OneDrive\GRAD SCHOOL\fall 2021\Advanced Quant,no,mono,no,18,no,#ffffff,no,yes,768,legacy,53,79,C:/Users/mmcel/OneDrive/GRAD SCHOOL/fall 2021/Advanced Quant/MM-Subject-3.csv,legacy,Lentiform Loewenfeld,3.3.9,0,h,NA,s,h,NA,h,446,NA,11891,80551,NA,446,NA,NA,2,legacy,1024,2,48000,-16,experiment,HHSHH,3,odd,14220,250759,NA,351632,350544,2328,170206,NA,351630,351736,NA,339618,2324,334078,NA,351736,352183,NA,Lab 2.1 Test Flanker Task,118,79372,134,yes,1024
88.14814815,88.14814815,592.9851852,592.9851852,#000000,legacy,legacy,legacy,0,congruent,uniform,1,undefined,1,s,0,0,0,134,134,0,0,0,134,134,0,134,0,134,NA,134,134,NA,9/25/2021 19:49,600,The main experiment item,yes,Lab21TestFlankerTask.osexp,C:\Users\mmcel\OneDrive\GRAD SCHOOL\fall 2021\Advanced Quant,no,mono,no,18,no,#ffffff,no,yes,768,legacy,54,79,C:/Users/mmcel/OneDrive/GRAD SCHOOL/fall 2021/Advanced Quant/MM-Subject-3.csv,legacy,Lentiform Loewenfeld,3.3.9,0,s,NA,s,h,NA,s,681,NA,11891,80551,NA,681,NA,NA,2,legacy,1024,2,48000,-16,experiment,SSSSS,3,odd,14220,250759,NA,353849,352752,2328,170206,NA,353847,353954,NA,352247,2324,334078,NA,353954,354636,NA,Lab 2.1 Test Flanker Task,119,80053,135,yes,1024
88.23529412,88.23529412,592.875,592.875,#000000,legacy,legacy,legacy,0,congruent,uniform,1,undefined,1,h,0,0,0,135,135,0,0,0,135,135,0,135,0,135,NA,135,135,NA,9/25/2021 19:49,600,The main experiment item,yes,Lab21TestFlankerTask.osexp,C:\Users\mmcel\OneDrive\GRAD SCHOOL\fall 2021\Advanced Quant,no,mono,no,18,no,#ffffff,no,yes,768,legacy,55,79,C:/Users/mmcel/OneDrive/GRAD SCHOOL/fall 2021/Advanced Quant/MM-Subject-3.csv,legacy,Lentiform Loewenfeld,3.3.9,0,h,NA,s,h,NA,h,578,NA,11891,80551,NA,578,NA,NA,2,legacy,1024,2,48000,-16,experiment,HHHHH,3,odd,14220,250759,NA,356294,355204,2328,170206,NA,356292,356399,NA,352247,2324,354701,NA,356399,356978,NA,Lab 2.1 Test Flanker Task,120,80631,136,yes,1024
88.32116788,88.32116788,591.8248175,591.8248175,#000000,legacy,legacy,legacy,0,incongruent,uniform,1,undefined,1,h,0,0,0,136,136,0,0,0,136,136,0,136,0,136,NA,136,136,NA,9/25/2021 19:49,600,The main experiment item,yes,Lab21TestFlankerTask.osexp,C:\Users\mmcel\OneDrive\GRAD SCHOOL\fall 2021\Advanced Quant,no,mono,no,18,no,#ffffff,no,yes,768,legacy,56,79,C:/Users/mmcel/OneDrive/GRAD SCHOOL/fall 2021/Advanced Quant/MM-Subject-3.csv,legacy,Lentiform Loewenfeld,3.3.9,0,h,NA,s,h,NA,h,449,NA,11891,80551,NA,449,NA,NA,2,legacy,1024,2,48000,-16,experiment,SSHSS,3,odd,14220,250759,NA,358140,357046,2328,170206,NA,358138,358244,NA,352247,2324,354701,NA,358244,358694,NA,Lab 2.1 Test Flanker Task,121,81080,137,yes,1024
88.4057971,88.4057971,590.5507246,590.5507246,#000000,legacy,legacy,legacy,0,congruent,uniform,1,undefined,1,h,0,0,0,137,137,0,0,0,137,137,0,137,0,137,NA,137,137,NA,9/25/2021 19:49,600,The main experiment item,yes,Lab21TestFlankerTask.osexp,C:\Users\mmcel\OneDrive\GRAD SCHOOL\fall 2021\Advanced Quant,no,mono,no,18,no,#ffffff,no,yes,768,legacy,57,79,C:/Users/mmcel/OneDrive/GRAD SCHOOL/fall 2021/Advanced Quant/MM-Subject-3.csv,legacy,Lentiform Loewenfeld,3.3.9,0,h,NA,s,h,NA,h,416,NA,11891,80551,NA,416,NA,NA,2,legacy,1024,2,48000,-16,experiment,HHHHH,3,odd,14220,250759,NA,359851,358756,2328,170206,NA,359849,359953,NA,352247,2324,354701,NA,359953,360371,NA,Lab 2.1 Test Flanker Task,122,81496,138,yes,1024
88.48920863,88.48920863,588.7410072,588.7410072,#000000,legacy,legacy,legacy,0,congruent,uniform,1,undefined,1,h,0,0,0,138,138,0,0,0,138,138,0,138,0,138,NA,138,138,NA,9/25/2021 19:49,600,The main experiment item,yes,Lab21TestFlankerTask.osexp,C:\Users\mmcel\OneDrive\GRAD SCHOOL\fall 2021\Advanced Quant,no,mono,no,18,no,#ffffff,no,yes,768,legacy,58,79,C:/Users/mmcel/OneDrive/GRAD SCHOOL/fall 2021/Advanced Quant/MM-Subject-3.csv,legacy,Lentiform Loewenfeld,3.3.9,0,h,NA,s,h,NA,h,339,NA,11891,80551,NA,339,NA,NA,2,legacy,1024,2,48000,-16,experiment,HHHHH,3,odd,14220,250759,NA,361522,360434,2328,170206,NA,361520,361627,NA,352247,2324,354701,NA,361627,361967,NA,Lab 2.1 Test Flanker Task,123,81835,139,yes,1024
88.57142857,88.57142857,587.0142857,587.0142857,#000000,legacy,legacy,legacy,0,congruent,uniform,1,undefined,1,h,0,0,0,139,139,0,0,0,139,139,0,139,0,139,NA,139,139,NA,9/25/2021 19:49,600,The main experiment item,yes,Lab21TestFlankerTask.osexp,C:\Users\mmcel\OneDrive\GRAD SCHOOL\fall 2021\Advanced Quant,no,mono,no,18,no,#ffffff,no,yes,768,legacy,59,79,C:/Users/mmcel/OneDrive/GRAD SCHOOL/fall 2021/Advanced Quant/MM-Subject-3.csv,legacy,Lentiform Loewenfeld,3.3.9,0,h,NA,s,h,NA,h,347,NA,11891,80551,NA,347,NA,NA,2,legacy,1024,2,48000,-16,experiment,HHHHH,3,odd,14220,250759,NA,363136,362056,2328,170206,NA,363134,363240,NA,352247,2324,354701,NA,363240,363589,NA,Lab 2.1 Test Flanker Task,124,82182,140,yes,1024
87.94326241,87.94326241,585.3758865,585.3758865,#000000,legacy,legacy,legacy,0,congruent,uniform,0,undefined,0,s,0,0,0,140,140,0,0,0,140,140,0,140,0,140,NA,140,140,NA,9/25/2021 19:49,600,The main experiment item,yes,Lab21TestFlankerTask.osexp,C:\Users\mmcel\OneDrive\GRAD SCHOOL\fall 2021\Advanced Quant,no,mono,no,18,no,#ffffff,no,yes,768,legacy,60,79,C:/Users/mmcel/OneDrive/GRAD SCHOOL/fall 2021/Advanced Quant/MM-Subject-3.csv,legacy,Lentiform Loewenfeld,3.3.9,0,h,NA,s,h,NA,h,356,NA,11891,80551,NA,356,NA,NA,2,legacy,1024,2,48000,-16,experiment,SSSSS,3,odd,14220,250759,NA,364738,363656,2328,170206,NA,364736,364843,NA,352247,2324,354701,NA,364843,365200,NA,Lab 2.1 Test Flanker Task,124,82538,141,yes,1024
87.32394366,87.32394366,584.6760563,584.6760563,#000000,legacy,legacy,legacy,0,congruent,uniform,0,undefined,0,s,0,0,0,141,141,0,0,0,141,141,0,141,0,141,NA,141,141,NA,9/25/2021 19:49,600,The main experiment item,yes,Lab21TestFlankerTask.osexp,C:\Users\mmcel\OneDrive\GRAD SCHOOL\fall 2021\Advanced Quant,no,mono,no,18,no,#ffffff,no,yes,768,legacy,61,79,C:/Users/mmcel/OneDrive/GRAD SCHOOL/fall 2021/Advanced Quant/MM-Subject-3.csv,legacy,Lentiform Loewenfeld,3.3.9,0,h,NA,s,h,NA,h,486,NA,11891,80551,NA,486,NA,NA,2,legacy,1024,2,48000,-16,experiment,SSSSS,3,odd,14220,250759,NA,366846,365755,2328,170206,NA,366844,366951,NA,365253,2324,354701,NA,366951,367438,NA,Lab 2.1 Test Flanker Task,124,83024,142,yes,1024
