"acc","accuracy","average_response_time","avg_rt","background","canvas_backend","clock_backend","color_backend","compensation","condition","coordinates","correct","correct_Instruction","correct_keyboard_response","correct_response","count_Block1","count_Block2","count_Block3","count_Errorfeedback","count_Finish","count_ISI","count_Instruction","count_Instruction2","count_Instruction3","count_experiment","count_faster","count_ixation","count_keyboard_response","count_logger","count_sequence","count_stimulus","datetime","deadline","description","disable_garbage_collection","experiment_file","experiment_path","font_bold","font_family","font_italic","font_size","font_underline","foreground","form_clicks","fullscreen","height","keyboard_backend","live_row","live_row_Block1","logfile","mouse_backend","opensesame_codename","opensesame_version","repeat_cycle","response","response_Finish","response_Instruction","response_Instruction2","response_Instruction3","response_keyboard_response","response_time","response_time_Finish","response_time_Instruction","response_time_Instruction2","response_time_Instruction3","response_time_keyboard_response","round_decimals","sampler_backend","sound_buf_size","sound_channels","sound_freq","sound_sample_size","start","stimulus","subject_nr","subject_parity","time_Block1","time_Block2","time_Block3","time_Errorfeedback","time_Finish","time_ISI","time_Instruction","time_Instruction2","time_Instruction3","time_experiment","time_faster","time_ixation","time_keyboard_response","time_logger","time_sequence","time_stimulus","title","total_correct","total_response_time","total_responses","uniform_coordinates","width"
"100","100","598","598","black","legacy","legacy","legacy","0","congruent ","uniform","1","undefined","1","s","0","0","0","0","0","0","0","0","0","0","0","0","0","0","0","0","Fri Sep 18 11:18:26 2020","1500","The main experiment item","yes","FlankerTask.osexp","/Users/kaylaredder/Desktop","no","mono","no","18","no","white","no","yes","768","legacy","0","0","/Users/kaylaredder/Desktop/kr-subject-0.csv","legacy","Lentiform Loewenfeld","3.3.3","0","s","NA","h","NA","NA","s","598","NA","579","NA","NA","598","2","legacy","1024","2","48000","-16","experiment","SSSSS","0","even","3095","NA","NA","NA","NA","NA","2506","NA","NA","2493","NA","3148","3262","3862","3136","3262","Flanker Task ","1","598","1","yes","1024"
"100","100","496","496","black","legacy","legacy","legacy","0","incongruent ","uniform","1","undefined","1","h","0","0","0","1","0","1","0","0","0","0","1","1","1","1","1","1","Fri Sep 18 11:18:26 2020","1500","The main experiment item","yes","FlankerTask.osexp","/Users/kaylaredder/Desktop","no","mono","no","18","no","white","no","yes","768","legacy","1","1","/Users/kaylaredder/Desktop/kr-subject-0.csv","legacy","Lentiform Loewenfeld","3.3.3","0","h","NA","h","NA","NA","h","394","NA","579","NA","NA","394","2","legacy","1024","2","48000","-16","experiment","SSHSS","0","even","3095","NA","NA","NA","NA","3878","2506","NA","NA","2493","NA","4947","5065","5460","4934","5064","Flanker Task ","2","992","2","yes","1024"
"100","100","487.6666666666667","487.6666666666667","black","legacy","legacy","legacy","0","incongruent ","uniform","1","undefined","1","h","0","0","0","2","0","2","0","0","0","0","2","2","2","2","2","2","Fri Sep 18 11:18:26 2020","1500","The main experiment item","yes","FlankerTask.osexp","/Users/kaylaredder/Desktop","no","mono","no","18","no","white","no","yes","768","legacy","2","2","/Users/kaylaredder/Desktop/kr-subject-0.csv","legacy","Lentiform Loewenfeld","3.3.3","0","h","NA","h","NA","NA","h","471","NA","579","NA","NA","471","2","legacy","1024","2","48000","-16","experiment","SSHSS","0","even","3095","NA","NA","NA","NA","5475","2506","NA","NA","2493","NA","6534","6649","7121","6520","6649","Flanker Task ","3","1463","3","yes","1024"
"100","100","488.75","488.75","black","legacy","legacy","legacy","0","incongruent ","uniform","1","undefined","1","h","0","0","0","3","0","3","0","0","0","0","3","3","3","3","3","3","Fri Sep 18 11:18:26 2020","1500","The main experiment item","yes","FlankerTask.osexp","/Users/kaylaredder/Desktop","no","mono","no","18","no","white","no","yes","768","legacy","3","3","/Users/kaylaredder/Desktop/kr-subject-0.csv","legacy","Lentiform Loewenfeld","3.3.3","0","h","NA","h","NA","NA","h","492","NA","579","NA","NA","492","2","legacy","1024","2","48000","-16","experiment","SSHSS","0","even","3095","NA","NA","NA","NA","7136","2506","NA","NA","2493","NA","8196","8311","8804","8182","8311","Flanker Task ","4","1955","4","yes","1024"
"80","80","457.6","457.6","black","legacy","legacy","legacy","0","incongruent ","uniform","0","undefined","0","h","0","0","0","4","0","4","0","0","0","0","4","4","4","4","4","4","Fri Sep 18 11:18:26 2020","1500","The main experiment item","yes","FlankerTask.osexp","/Users/kaylaredder/Desktop","no","mono","no","18","no","white","no","yes","768","legacy","4","4","/Users/kaylaredder/Desktop/kr-subject-0.csv","legacy","Lentiform Loewenfeld","3.3.3","0","s","NA","h","NA","NA","s","333","NA","579","NA","NA","333","2","legacy","1024","2","48000","-16","experiment","SSHSS","0","even","3095","NA","NA","NA","NA","8820","2506","NA","NA","2493","NA","9880","9992","10326","9867","9992","Flanker Task ","4","2288","5","yes","1024"
"83.33333333333333","83.33333333333333","457.5","457.5","black","legacy","legacy","legacy","0","congruent ","uniform","1","undefined","1","s","0","0","0","5","0","5","0","0","0","0","5","5","5","5","5","5","Fri Sep 18 11:18:26 2020","1500","The main experiment item","yes","FlankerTask.osexp","/Users/kaylaredder/Desktop","no","mono","no","18","no","white","no","yes","768","legacy","5","5","/Users/kaylaredder/Desktop/kr-subject-0.csv","legacy","Lentiform Loewenfeld","3.3.3","0","s","NA","h","NA","NA","s","457","NA","579","NA","NA","457","2","legacy","1024","2","48000","-16","experiment","SSSSS","0","even","3095","NA","NA","10339","NA","10852","2506","NA","NA","2493","NA","11909","12026","12484","11897","12026","Flanker Task ","5","2745","6","yes","1024"
"85.71428571428571","85.71428571428571","457.14285714285717","457.14285714285717","black","legacy","legacy","legacy","0","incongruent ","uniform","1","undefined","1","h","0","0","0","6","0","6","0","0","0","0","6","6","6","6","6","6","Fri Sep 18 11:18:26 2020","1500","The main experiment item","yes","FlankerTask.osexp","/Users/kaylaredder/Desktop","no","mono","no","18","no","white","no","yes","768","legacy","6","6","/Users/kaylaredder/Desktop/kr-subject-0.csv","legacy","Lentiform Loewenfeld","3.3.3","0","h","NA","h","NA","NA","h","455","NA","579","NA","NA","455","2","legacy","1024","2","48000","-16","experiment","SSHSS","0","even","3095","NA","NA","10339","NA","12498","2506","NA","NA","2493","NA","13558","13672","14128","13544","13672","Flanker Task ","6","3200","7","yes","1024"
"87.5","87.5","448.375","448.375","black","legacy","legacy","legacy","0","incongruent ","uniform","1","undefined","1","h","0","0","0","7","0","7","0","0","0","0","7","7","7","7","7","7","Fri Sep 18 11:18:26 2020","1500","The main experiment item","yes","FlankerTask.osexp","/Users/kaylaredder/Desktop","no","mono","no","18","no","white","no","yes","768","legacy","7","7","/Users/kaylaredder/Desktop/kr-subject-0.csv","legacy","Lentiform Loewenfeld","3.3.3","0","h","NA","h","NA","NA","h","387","NA","579","NA","NA","387","2","legacy","1024","2","48000","-16","experiment","SSHSS","0","even","3095","NA","NA","10339","NA","14142","2506","NA","NA","2493","NA","15202","15316","15704","15188","15316","Flanker Task ","7","3587","8","yes","1024"
"88.88888888888889","88.88888888888889","443.6666666666667","443.6666666666667","black","legacy","legacy","legacy","0","incongruent ","uniform","1","undefined","1","h","0","0","0","8","0","8","0","0","0","0","8","8","8","8","8","8","Fri Sep 18 11:18:26 2020","1500","The main experiment item","yes","FlankerTask.osexp","/Users/kaylaredder/Desktop","no","mono","no","18","no","white","no","yes","768","legacy","8","8","/Users/kaylaredder/Desktop/kr-subject-0.csv","legacy","Lentiform Loewenfeld","3.3.3","0","h","NA","h","NA","NA","h","406","NA","579","NA","NA","406","2","legacy","1024","2","48000","-16","experiment","SSHSS","0","even","3095","NA","NA","10339","NA","15717","2506","NA","NA","2493","NA","16776","16889","17296","16763","16889","Flanker Task ","8","3993","9","yes","1024"
"90","90","440.4","440.4","black","legacy","legacy","legacy","0","congruent","uniform","1","undefined","1","h","0","0","0","9","0","9","0","0","0","0","9","9","9","9","9","9","Fri Sep 18 11:18:26 2020","1500","The main experiment item","yes","FlankerTask.osexp","/Users/kaylaredder/Desktop","no","mono","no","18","no","white","no","yes","768","legacy","9","9","/Users/kaylaredder/Desktop/kr-subject-0.csv","legacy","Lentiform Loewenfeld","3.3.3","0","h","NA","h","NA","NA","h","411","NA","579","NA","NA","411","2","legacy","1024","2","48000","-16","experiment","HHHHH","0","even","3095","NA","NA","10339","NA","17309","2506","NA","NA","2493","NA","18367","18480","18892","18354","18480","Flanker Task ","9","4404","10","yes","1024"
"90.9090909090909","90.9090909090909","441.6363636363636","441.6363636363636","black","legacy","legacy","legacy","0","congruent ","uniform","1","undefined","1","s","0","0","0","10","0","10","0","0","0","0","10","10","10","10","10","10","Fri Sep 18 11:18:26 2020","1500","The main experiment item","yes","FlankerTask.osexp","/Users/kaylaredder/Desktop","no","mono","no","18","no","white","no","yes","768","legacy","10","10","/Users/kaylaredder/Desktop/kr-subject-0.csv","legacy","Lentiform Loewenfeld","3.3.3","0","s","NA","h","NA","NA","s","454","NA","579","NA","NA","454","2","legacy","1024","2","48000","-16","experiment","SSSSS","0","even","3095","NA","NA","10339","NA","18905","2506","NA","NA","2493","NA","19963","20076","20531","19951","20076","Flanker Task ","10","4858","11","yes","1024"
"91.66666666666667","91.66666666666667","437.5833333333333","437.5833333333333","black","legacy","legacy","legacy","0","congruent ","uniform","1","undefined","1","s","0","0","0","11","0","11","0","0","0","0","11","11","11","11","11","11","Fri Sep 18 11:18:26 2020","1500","The main experiment item","yes","FlankerTask.osexp","/Users/kaylaredder/Desktop","no","mono","no","18","no","white","no","yes","768","legacy","11","11","/Users/kaylaredder/Desktop/kr-subject-0.csv","legacy","Lentiform Loewenfeld","3.3.3","0","s","NA","h","NA","NA","s","393","NA","579","NA","NA","393","2","legacy","1024","2","48000","-16","experiment","SSSSS","0","even","3095","NA","NA","10339","NA","20544","2506","NA","NA","2493","NA","21602","21716","22110","21589","21716","Flanker Task ","11","5251","12","yes","1024"
"84.61538461538461","84.61538461538461","433.7692307692308","433.7692307692308","black","legacy","legacy","legacy","0","incongruent","uniform","0","undefined","0","s","0","0","0","12","0","12","0","0","0","0","12","12","12","12","12","12","Fri Sep 18 11:18:26 2020","1500","The main experiment item","yes","FlankerTask.osexp","/Users/kaylaredder/Desktop","no","mono","no","18","no","white","no","yes","768","legacy","12","12","/Users/kaylaredder/Desktop/kr-subject-0.csv","legacy","Lentiform Loewenfeld","3.3.3","0","h","NA","h","NA","NA","h","388","NA","579","NA","NA","388","2","legacy","1024","2","48000","-16","experiment","HHSHH","0","even","3095","NA","NA","10339","NA","22123","2506","NA","NA","2493","NA","23182","23296","23686","23169","23295","Flanker Task ","11","5639","13","yes","1024"
"85.71428571428571","85.71428571428571","431.2142857142857","431.2142857142857","black","legacy","legacy","legacy","0","congruent ","uniform","1","undefined","1","s","0","0","0","13","0","13","0","0","0","0","13","13","13","13","13","13","Fri Sep 18 11:18:26 2020","1500","The main experiment item","yes","FlankerTask.osexp","/Users/kaylaredder/Desktop","no","mono","no","18","no","white","no","yes","768","legacy","13","13","/Users/kaylaredder/Desktop/kr-subject-0.csv","legacy","Lentiform Loewenfeld","3.3.3","0","s","NA","h","NA","NA","s","398","NA","579","NA","NA","398","2","legacy","1024","2","48000","-16","experiment","SSSSS","0","even","3095","NA","NA","23700","NA","24215","2506","NA","NA","2493","NA","25274","25387","25786","25260","25387","Flanker Task ","12","6037","14","yes","1024"
"86.66666666666667","86.66666666666667","429.6","429.6","black","legacy","legacy","legacy","0","congruent","uniform","1","undefined","1","h","0","0","0","14","0","14","0","0","0","0","14","14","14","14","14","14","Fri Sep 18 11:18:26 2020","1500","The main experiment item","yes","FlankerTask.osexp","/Users/kaylaredder/Desktop","no","mono","no","18","no","white","no","yes","768","legacy","14","14","/Users/kaylaredder/Desktop/kr-subject-0.csv","legacy","Lentiform Loewenfeld","3.3.3","0","h","NA","h","NA","NA","h","407","NA","579","NA","NA","407","2","legacy","1024","2","48000","-16","experiment","HHHHH","0","even","3095","NA","NA","23700","NA","25799","2506","NA","NA","2493","NA","26856","26969","27377","26843","26969","Flanker Task ","13","6444","15","yes","1024"
"87.5","87.5","425.5625","425.5625","black","legacy","legacy","legacy","0","congruent","uniform","1","undefined","1","h","0","0","0","15","0","15","0","0","0","0","15","15","15","15","15","15","Fri Sep 18 11:18:26 2020","1500","The main experiment item","yes","FlankerTask.osexp","/Users/kaylaredder/Desktop","no","mono","no","18","no","white","no","yes","768","legacy","15","15","/Users/kaylaredder/Desktop/kr-subject-0.csv","legacy","Lentiform Loewenfeld","3.3.3","0","h","NA","h","NA","NA","h","365","NA","579","NA","NA","365","2","legacy","1024","2","48000","-16","experiment","HHHHH","0","even","3095","NA","NA","23700","NA","27391","2506","NA","NA","2493","NA","28450","28563","28929","28437","28563","Flanker Task ","14","6809","16","yes","1024"
"88.23529411764706","88.23529411764706","425.29411764705884","425.29411764705884","black","legacy","legacy","legacy","0","congruent ","uniform","1","undefined","1","s","0","0","0","16","0","16","0","0","0","0","16","16","16","16","16","16","Fri Sep 18 11:18:26 2020","1500","The main experiment item","yes","FlankerTask.osexp","/Users/kaylaredder/Desktop","no","mono","no","18","no","white","no","yes","768","legacy","16","16","/Users/kaylaredder/Desktop/kr-subject-0.csv","legacy","Lentiform Loewenfeld","3.3.3","0","s","NA","h","NA","NA","s","421","NA","579","NA","NA","421","2","legacy","1024","2","48000","-16","experiment","SSSSS","0","even","3095","NA","NA","23700","NA","28942","2506","NA","NA","2493","NA","30000","30113","30535","29988","30113","Flanker Task ","15","7230","17","yes","1024"
"83.33333333333333","83.33333333333333","425.3888888888889","425.3888888888889","black","legacy","legacy","legacy","0","incongruent","uniform","0","undefined","0","s","0","0","0","17","0","17","0","0","0","0","17","17","17","17","17","17","Fri Sep 18 11:18:26 2020","1500","The main experiment item","yes","FlankerTask.osexp","/Users/kaylaredder/Desktop","no","mono","no","18","no","white","no","yes","768","legacy","17","17","/Users/kaylaredder/Desktop/kr-subject-0.csv","legacy","Lentiform Loewenfeld","3.3.3","0","h","NA","h","NA","NA","h","427","NA","579","NA","NA","427","2","legacy","1024","2","48000","-16","experiment","HHSHH","0","even","3095","NA","NA","23700","NA","30548","2506","NA","NA","2493","NA","31607","31720","32149","31594","31720","Flanker Task ","15","7657","18","yes","1024"
"84.21052631578948","84.21052631578948","427.2105263157895","427.2105263157895","black","legacy","legacy","legacy","0","incongruent ","uniform","1","undefined","1","h","0","0","0","18","0","18","0","0","0","0","18","18","18","18","18","18","Fri Sep 18 11:18:26 2020","1500","The main experiment item","yes","FlankerTask.osexp","/Users/kaylaredder/Desktop","no","mono","no","18","no","white","no","yes","768","legacy","18","18","/Users/kaylaredder/Desktop/kr-subject-0.csv","legacy","Lentiform Loewenfeld","3.3.3","0","h","NA","h","NA","NA","h","460","NA","579","NA","NA","460","2","legacy","1024","2","48000","-16","experiment","SSHSS","0","even","3095","NA","NA","32162","NA","32675","2506","NA","NA","2493","NA","33732","33845","34306","33719","33845","Flanker Task ","16","8117","19","yes","1024"
"85","85","428.6","428.6","black","legacy","legacy","legacy","0","congruent","uniform","1","undefined","1","h","0","0","0","19","0","19","0","0","0","0","19","19","19","19","19","19","Fri Sep 18 11:18:26 2020","1500","The main experiment item","yes","FlankerTask.osexp","/Users/kaylaredder/Desktop","no","mono","no","18","no","white","no","yes","768","legacy","19","19","/Users/kaylaredder/Desktop/kr-subject-0.csv","legacy","Lentiform Loewenfeld","3.3.3","0","h","NA","h","NA","NA","h","455","NA","579","NA","NA","455","2","legacy","1024","2","48000","-16","experiment","HHHHH","0","even","3095","NA","NA","32162","NA","34326","2506","NA","NA","2493","NA","35385","35500","35956","35372","35500","Flanker Task ","17","8572","20","yes","1024"
"80.95238095238095","80.95238095238095","428.4761904761905","428.4761904761905","black","legacy","legacy","legacy","0","incongruent","uniform","0","undefined","0","s","0","0","0","20","0","20","0","0","0","0","20","20","20","20","20","20","Fri Sep 18 11:18:26 2020","1500","The main experiment item","yes","FlankerTask.osexp","/Users/kaylaredder/Desktop","no","mono","no","18","no","white","no","yes","768","legacy","20","20","/Users/kaylaredder/Desktop/kr-subject-0.csv","legacy","Lentiform Loewenfeld","3.3.3","0","h","NA","h","NA","NA","h","426","NA","579","NA","NA","426","2","legacy","1024","2","48000","-16","experiment","HHSHH","0","even","3095","NA","NA","32162","NA","35983","2506","NA","NA","2493","NA","37041","37155","37583","37028","37155","Flanker Task ","17","8998","21","yes","1024"
"81.81818181818181","81.81818181818181","431.1363636363636","431.1363636363636","black","legacy","legacy","legacy","0","congruent ","uniform","1","undefined","1","s","0","0","0","21","0","21","0","0","0","0","21","21","21","21","21","21","Fri Sep 18 11:18:26 2020","1500","The main experiment item","yes","FlankerTask.osexp","/Users/kaylaredder/Desktop","no","mono","no","18","no","white","no","yes","768","legacy","21","21","/Users/kaylaredder/Desktop/kr-subject-0.csv","legacy","Lentiform Loewenfeld","3.3.3","0","s","NA","h","NA","NA","s","487","NA","579","NA","NA","487","2","legacy","1024","2","48000","-16","experiment","SSSSS","0","even","3095","NA","NA","37604","NA","38118","2506","NA","NA","2493","NA","39176","39292","39780","39164","39292","Flanker Task ","18","9485","22","yes","1024"
"82.6086956521739","82.6086956521739","439.17391304347825","439.17391304347825","black","legacy","legacy","legacy","0","incongruent","uniform","1","undefined","1","s","0","0","0","22","0","22","0","0","0","0","22","22","22","22","22","22","Fri Sep 18 11:18:26 2020","1500","The main experiment item","yes","FlankerTask.osexp","/Users/kaylaredder/Desktop","no","mono","no","18","no","white","no","yes","768","legacy","22","22","/Users/kaylaredder/Desktop/kr-subject-0.csv","legacy","Lentiform Loewenfeld","3.3.3","0","s","NA","h","NA","NA","s","616","NA","579","NA","NA","616","2","legacy","1024","2","48000","-16","experiment","HHSHH","0","even","3095","NA","NA","37604","NA","39803","2506","NA","NA","2493","NA","40862","40977","41594","40849","40977","Flanker Task ","19","10101","23","yes","1024"
"83.33333333333333","83.33333333333333","440.5416666666667","440.5416666666667","black","legacy","legacy","legacy","0","congruent","uniform","1","undefined","1","h","0","0","0","23","0","23","0","0","0","0","23","23","23","23","23","23","Fri Sep 18 11:18:26 2020","1500","The main experiment item","yes","FlankerTask.osexp","/Users/kaylaredder/Desktop","no","mono","no","18","no","white","no","yes","768","legacy","23","23","/Users/kaylaredder/Desktop/kr-subject-0.csv","legacy","Lentiform Loewenfeld","3.3.3","0","h","NA","h","NA","NA","h","472","NA","579","NA","NA","472","2","legacy","1024","2","48000","-16","experiment","HHHHH","0","even","3095","NA","NA","37604","NA","41617","2506","NA","NA","2493","NA","42679","42794","43267","42666","42794","Flanker Task ","20","10573","24","yes","1024"
"84","84","439.52","439.52","black","legacy","legacy","legacy","0","congruent","uniform","1","undefined","1","h","0","0","0","24","0","24","0","0","0","0","24","24","24","24","24","24","Fri Sep 18 11:18:26 2020","1500","The main experiment item","yes","FlankerTask.osexp","/Users/kaylaredder/Desktop","no","mono","no","18","no","white","no","yes","768","legacy","24","24","/Users/kaylaredder/Desktop/kr-subject-0.csv","legacy","Lentiform Loewenfeld","3.3.3","0","h","NA","h","NA","NA","h","415","NA","579","NA","NA","415","2","legacy","1024","2","48000","-16","experiment","HHHHH","0","even","3095","NA","NA","37604","NA","43290","2506","NA","NA","2493","NA","44348","44461","44877","44336","44461","Flanker Task ","21","10988","25","yes","1024"
"84.61538461538461","84.61538461538461","439","439","black","legacy","legacy","legacy","0","congruent ","uniform","1","undefined","1","s","0","0","0","25","0","25","0","0","0","0","25","25","25","25","25","25","Fri Sep 18 11:18:26 2020","1500","The main experiment item","yes","FlankerTask.osexp","/Users/kaylaredder/Desktop","no","mono","no","18","no","white","no","yes","768","legacy","25","25","/Users/kaylaredder/Desktop/kr-subject-0.csv","legacy","Lentiform Loewenfeld","3.3.3","0","s","NA","h","NA","NA","s","426","NA","579","NA","NA","426","2","legacy","1024","2","48000","-16","experiment","SSSSS","0","even","3095","NA","NA","37604","NA","44899","2506","NA","NA","2493","NA","45960","46074","46501","45946","46074","Flanker Task ","22","11414","26","yes","1024"
"85.18518518518519","85.18518518518519","434.7037037037037","434.7037037037037","black","legacy","legacy","legacy","0","congruent ","uniform","1","undefined","1","s","0","0","0","26","0","26","0","0","0","0","26","26","26","26","26","26","Fri Sep 18 11:18:26 2020","1500","The main experiment item","yes","FlankerTask.osexp","/Users/kaylaredder/Desktop","no","mono","no","18","no","white","no","yes","768","legacy","26","26","/Users/kaylaredder/Desktop/kr-subject-0.csv","legacy","Lentiform Loewenfeld","3.3.3","0","s","NA","h","NA","NA","s","323","NA","579","NA","NA","323","2","legacy","1024","2","48000","-16","experiment","SSSSS","0","even","3095","NA","NA","37604","NA","46523","2506","NA","NA","2493","NA","47581","47696","48020","47569","47696","Flanker Task ","23","11737","27","yes","1024"
"85.71428571428571","85.71428571428571","431.32142857142856","431.32142857142856","black","legacy","legacy","legacy","0","congruent ","uniform","1","undefined","1","s","0","0","0","27","0","27","0","0","0","0","27","27","27","27","27","27","Fri Sep 18 11:18:26 2020","1500","The main experiment item","yes","FlankerTask.osexp","/Users/kaylaredder/Desktop","no","mono","no","18","no","white","no","yes","768","legacy","27","27","/Users/kaylaredder/Desktop/kr-subject-0.csv","legacy","Lentiform Loewenfeld","3.3.3","0","s","NA","h","NA","NA","s","340","NA","579","NA","NA","340","2","legacy","1024","2","48000","-16","experiment","SSSSS","0","even","3095","NA","NA","37604","NA","48041","2506","NA","NA","2493","NA","49100","49216","49557","49087","49216","Flanker Task ","24","12077","28","yes","1024"
"86.20689655172414","86.20689655172414","430.86206896551727","430.86206896551727","black","legacy","legacy","legacy","0","incongruent","uniform","1","undefined","1","s","0","0","0","28","0","28","0","0","0","0","28","28","28","28","28","28","Fri Sep 18 11:18:26 2020","1500","The main experiment item","yes","FlankerTask.osexp","/Users/kaylaredder/Desktop","no","mono","no","18","no","white","no","yes","768","legacy","28","28","/Users/kaylaredder/Desktop/kr-subject-0.csv","legacy","Lentiform Loewenfeld","3.3.3","0","s","NA","h","NA","NA","s","418","NA","579","NA","NA","418","2","legacy","1024","2","48000","-16","experiment","HHSHH","0","even","3095","NA","NA","37604","NA","49579","2506","NA","NA","2493","NA","50637","50753","51172","50625","50753","Flanker Task ","25","12495","29","yes","1024"
"86.66666666666667","86.66666666666667","432.73333333333335","432.73333333333335","black","legacy","legacy","legacy","0","congruent","uniform","1","undefined","1","h","0","0","0","29","0","29","0","0","0","0","29","29","29","29","29","29","Fri Sep 18 11:18:26 2020","1500","The main experiment item","yes","FlankerTask.osexp","/Users/kaylaredder/Desktop","no","mono","no","18","no","white","no","yes","768","legacy","29","29","/Users/kaylaredder/Desktop/kr-subject-0.csv","legacy","Lentiform Loewenfeld","3.3.3","0","h","NA","h","NA","NA","h","487","NA","579","NA","NA","487","2","legacy","1024","2","48000","-16","experiment","HHHHH","0","even","3095","NA","NA","37604","NA","51193","2506","NA","NA","2493","NA","52254","52369","52858","52241","52369","Flanker Task ","26","12982","30","yes","1024"
"87.09677419354838","87.09677419354838","434.16129032258067","434.16129032258067","black","legacy","legacy","legacy","0","incongruent","uniform","1","undefined","1","s","0","0","0","30","0","30","0","0","0","0","30","30","30","30","30","30","Fri Sep 18 11:18:26 2020","1500","The main experiment item","yes","FlankerTask.osexp","/Users/kaylaredder/Desktop","no","mono","no","18","no","white","no","yes","768","legacy","30","30","/Users/kaylaredder/Desktop/kr-subject-0.csv","legacy","Lentiform Loewenfeld","3.3.3","0","s","NA","h","NA","NA","s","477","NA","579","NA","NA","477","2","legacy","1024","2","48000","-16","experiment","HHSHH","0","even","3095","NA","NA","37604","NA","52878","2506","NA","NA","2493","NA","53938","54053","54531","53925","54053","Flanker Task ","27","13459","31","yes","1024"
"87.5","87.5","430.34375","430.34375","black","legacy","legacy","legacy","0","incongruent","uniform","1","undefined","1","s","0","0","0","31","0","31","0","0","0","0","31","31","31","31","31","31","Fri Sep 18 11:18:26 2020","1500","The main experiment item","yes","FlankerTask.osexp","/Users/kaylaredder/Desktop","no","mono","no","18","no","white","no","yes","768","legacy","31","31","/Users/kaylaredder/Desktop/kr-subject-0.csv","legacy","Lentiform Loewenfeld","3.3.3","0","s","NA","h","NA","NA","s","312","NA","579","NA","NA","312","2","legacy","1024","2","48000","-16","experiment","HHSHH","0","even","3095","NA","NA","37604","NA","54555","2506","NA","NA","2493","NA","55614","55729","56042","55601","55729","Flanker Task ","28","13771","32","yes","1024"
"84.84848484848484","84.84848484848484","427.4848484848485","427.4848484848485","black","legacy","legacy","legacy","0","incongruent ","uniform","0","undefined","0","h","0","0","0","32","0","32","0","0","0","0","32","32","32","32","32","32","Fri Sep 18 11:18:26 2020","1500","The main experiment item","yes","FlankerTask.osexp","/Users/kaylaredder/Desktop","no","mono","no","18","no","white","no","yes","768","legacy","32","32","/Users/kaylaredder/Desktop/kr-subject-0.csv","legacy","Lentiform Loewenfeld","3.3.3","0","s","NA","h","NA","NA","s","336","NA","579","NA","NA","336","2","legacy","1024","2","48000","-16","experiment","SSHSS","0","even","3095","NA","NA","37604","NA","56065","2506","NA","NA","2493","NA","57124","57239","57576","57111","57239","Flanker Task ","28","14107","33","yes","1024"
"85.29411764705883","85.29411764705883","429.1764705882353","429.1764705882353","black","legacy","legacy","legacy","0","incongruent","uniform","1","undefined","1","s","0","0","0","33","0","33","0","0","0","0","33","33","33","33","33","33","Fri Sep 18 11:18:26 2020","1500","The main experiment item","yes","FlankerTask.osexp","/Users/kaylaredder/Desktop","no","mono","no","18","no","white","no","yes","768","legacy","33","33","/Users/kaylaredder/Desktop/kr-subject-0.csv","legacy","Lentiform Loewenfeld","3.3.3","0","s","NA","h","NA","NA","s","485","NA","579","NA","NA","485","2","legacy","1024","2","48000","-16","experiment","HHSHH","0","even","3095","NA","NA","57598","NA","58112","2506","NA","NA","2493","NA","59172","59287","59773","59159","59287","Flanker Task ","29","14592","34","yes","1024"
"85.71428571428571","85.71428571428571","429.0857142857143","429.0857142857143","black","legacy","legacy","legacy","0","congruent ","uniform","1","undefined","1","s","0","0","0","34","0","34","0","0","0","0","34","34","34","34","34","34","Fri Sep 18 11:18:26 2020","1500","The main experiment item","yes","FlankerTask.osexp","/Users/kaylaredder/Desktop","no","mono","no","18","no","white","no","yes","768","legacy","34","34","/Users/kaylaredder/Desktop/kr-subject-0.csv","legacy","Lentiform Loewenfeld","3.3.3","0","s","NA","h","NA","NA","s","426","NA","579","NA","NA","426","2","legacy","1024","2","48000","-16","experiment","SSSSS","0","even","3095","NA","NA","57598","NA","59794","2506","NA","NA","2493","NA","60855","60970","61397","60842","60970","Flanker Task ","30","15018","35","yes","1024"
"86.11111111111111","86.11111111111111","431.0833333333333","431.0833333333333","black","legacy","legacy","legacy","0","congruent","uniform","1","undefined","1","h","0","0","0","35","0","35","0","0","0","0","35","35","35","35","35","35","Fri Sep 18 11:18:26 2020","1500","The main experiment item","yes","FlankerTask.osexp","/Users/kaylaredder/Desktop","no","mono","no","18","no","white","no","yes","768","legacy","35","35","/Users/kaylaredder/Desktop/kr-subject-0.csv","legacy","Lentiform Loewenfeld","3.3.3","0","h","NA","h","NA","NA","h","501","NA","579","NA","NA","501","2","legacy","1024","2","48000","-16","experiment","HHHHH","0","even","3095","NA","NA","57598","NA","61418","2506","NA","NA","2493","NA","62476","62591","63093","62464","62591","Flanker Task ","31","15519","36","yes","1024"
"86.48648648648648","86.48648648648648","434.97297297297297","434.97297297297297","black","legacy","legacy","legacy","0","incongruent ","uniform","1","undefined","1","h","0","0","0","36","0","36","0","0","0","0","36","36","36","36","36","36","Fri Sep 18 11:18:26 2020","1500","The main experiment item","yes","FlankerTask.osexp","/Users/kaylaredder/Desktop","no","mono","no","18","no","white","no","yes","768","legacy","36","36","/Users/kaylaredder/Desktop/kr-subject-0.csv","legacy","Lentiform Loewenfeld","3.3.3","0","h","NA","h","NA","NA","h","575","NA","579","NA","NA","575","2","legacy","1024","2","48000","-16","experiment","SSHSS","0","even","3095","NA","NA","57598","NA","63114","2506","NA","NA","2493","NA","64173","64288","64864","64160","64288","Flanker Task ","32","16094","37","yes","1024"
"86.84210526315789","86.84210526315789","434.3421052631579","434.3421052631579","black","legacy","legacy","legacy","0","congruent","uniform","1","undefined","1","h","0","0","0","37","0","37","0","0","0","0","37","37","37","37","37","37","Fri Sep 18 11:18:26 2020","1500","The main experiment item","yes","FlankerTask.osexp","/Users/kaylaredder/Desktop","no","mono","no","18","no","white","no","yes","768","legacy","37","37","/Users/kaylaredder/Desktop/kr-subject-0.csv","legacy","Lentiform Loewenfeld","3.3.3","0","h","NA","h","NA","NA","h","411","NA","579","NA","NA","411","2","legacy","1024","2","48000","-16","experiment","HHHHH","0","even","3095","NA","NA","57598","NA","64885","2506","NA","NA","2493","NA","65943","66058","66470","65930","66058","Flanker Task ","33","16505","38","yes","1024"
"87.17948717948718","87.17948717948718","433.28205128205127","433.28205128205127","black","legacy","legacy","legacy","0","congruent ","uniform","1","undefined","1","s","0","0","0","38","0","38","0","0","0","0","38","38","38","38","38","38","Fri Sep 18 11:18:26 2020","1500","The main experiment item","yes","FlankerTask.osexp","/Users/kaylaredder/Desktop","no","mono","no","18","no","white","no","yes","768","legacy","38","38","/Users/kaylaredder/Desktop/kr-subject-0.csv","legacy","Lentiform Loewenfeld","3.3.3","0","s","NA","h","NA","NA","s","393","NA","579","NA","NA","393","2","legacy","1024","2","48000","-16","experiment","SSSSS","0","even","3095","NA","NA","57598","NA","66492","2506","NA","NA","2493","NA","67551","67667","68061","67539","67667","Flanker Task ","34","16898","39","yes","1024"
"87.5","87.5","434.25","434.25","black","legacy","legacy","legacy","0","congruent","uniform","1","undefined","1","h","0","0","0","39","0","39","0","0","0","0","39","39","39","39","39","39","Fri Sep 18 11:18:26 2020","1500","The main experiment item","yes","FlankerTask.osexp","/Users/kaylaredder/Desktop","no","mono","no","18","no","white","no","yes","768","legacy","39","39","/Users/kaylaredder/Desktop/kr-subject-0.csv","legacy","Lentiform Loewenfeld","3.3.3","0","h","NA","h","NA","NA","h","472","NA","579","NA","NA","472","2","legacy","1024","2","48000","-16","experiment","HHHHH","0","even","3095","NA","NA","57598","NA","68082","2506","NA","NA","2493","NA","69142","69257","69730","69130","69257","Flanker Task ","35","17370","40","yes","1024"
"87.8048780487805","87.8048780487805","437.4390243902439","437.4390243902439","black","legacy","legacy","legacy","0","incongruent ","uniform","1","undefined","1","h","0","0","0","40","0","40","0","0","0","0","40","40","40","40","40","40","Fri Sep 18 11:18:26 2020","1500","The main experiment item","yes","FlankerTask.osexp","/Users/kaylaredder/Desktop","no","mono","no","18","no","white","no","yes","768","legacy","40","40","/Users/kaylaredder/Desktop/kr-subject-0.csv","legacy","Lentiform Loewenfeld","3.3.3","0","h","NA","h","NA","NA","h","565","NA","579","NA","NA","565","2","legacy","1024","2","48000","-16","experiment","SSHSS","0","even","3095","NA","NA","57598","NA","69752","2506","NA","NA","2493","NA","70811","70926","71492","70798","70926","Flanker Task ","36","17935","41","yes","1024"
"88.0952380952381","88.0952380952381","437.6904761904762","437.6904761904762","black","legacy","legacy","legacy","0","incongruent","uniform","1","undefined","1","s","0","0","0","41","0","41","0","0","0","0","41","41","41","41","41","41","Fri Sep 18 11:18:26 2020","1500","The main experiment item","yes","FlankerTask.osexp","/Users/kaylaredder/Desktop","no","mono","no","18","no","white","no","yes","768","legacy","41","41","/Users/kaylaredder/Desktop/kr-subject-0.csv","legacy","Lentiform Loewenfeld","3.3.3","0","s","NA","h","NA","NA","s","448","NA","579","NA","NA","448","2","legacy","1024","2","48000","-16","experiment","HHSHH","0","even","3095","NA","NA","57598","NA","71513","2506","NA","NA","2493","NA","72573","72688","73137","72560","72688","Flanker Task ","37","18383","42","yes","1024"
"88.37209302325581","88.37209302325581","438.4418604651163","438.4418604651163","black","legacy","legacy","legacy","0","incongruent","uniform","1","undefined","1","s","0","0","0","42","0","42","0","0","0","0","42","42","42","42","42","42","Fri Sep 18 11:18:26 2020","1500","The main experiment item","yes","FlankerTask.osexp","/Users/kaylaredder/Desktop","no","mono","no","18","no","white","no","yes","768","legacy","42","42","/Users/kaylaredder/Desktop/kr-subject-0.csv","legacy","Lentiform Loewenfeld","3.3.3","0","s","NA","h","NA","NA","s","470","NA","579","NA","NA","470","2","legacy","1024","2","48000","-16","experiment","HHSHH","0","even","3095","NA","NA","57598","NA","73159","2506","NA","NA","2493","NA","74220","74336","74807","74208","74336","Flanker Task ","38","18853","43","yes","1024"
"88.63636363636364","88.63636363636364","439.25","439.25","black","legacy","legacy","legacy","0","incongruent","uniform","1","undefined","1","s","0","0","0","43","0","43","0","0","0","0","43","43","43","43","43","43","Fri Sep 18 11:18:26 2020","1500","The main experiment item","yes","FlankerTask.osexp","/Users/kaylaredder/Desktop","no","mono","no","18","no","white","no","yes","768","legacy","43","43","/Users/kaylaredder/Desktop/kr-subject-0.csv","legacy","Lentiform Loewenfeld","3.3.3","0","s","NA","h","NA","NA","s","474","NA","579","NA","NA","474","2","legacy","1024","2","48000","-16","experiment","HHSHH","0","even","3095","NA","NA","57598","NA","74828","2506","NA","NA","2493","NA","75887","76001","76476","75874","76001","Flanker Task ","39","19327","44","yes","1024"
"88.88888888888889","88.88888888888889","438.8","438.8","black","legacy","legacy","legacy","0","incongruent","uniform","1","undefined","1","s","0","0","0","44","0","44","0","0","0","0","44","44","44","44","44","44","Fri Sep 18 11:18:26 2020","1500","The main experiment item","yes","FlankerTask.osexp","/Users/kaylaredder/Desktop","no","mono","no","18","no","white","no","yes","768","legacy","44","44","/Users/kaylaredder/Desktop/kr-subject-0.csv","legacy","Lentiform Loewenfeld","3.3.3","0","s","NA","h","NA","NA","s","419","NA","579","NA","NA","419","2","legacy","1024","2","48000","-16","experiment","HHSHH","0","even","3095","NA","NA","57598","NA","76498","2506","NA","NA","2493","NA","77558","77673","78093","77545","77673","Flanker Task ","40","19746","45","yes","1024"
"89.1304347826087","89.1304347826087","439.5217391304348","439.5217391304348","black","legacy","legacy","legacy","0","incongruent ","uniform","1","undefined","1","h","0","0","0","45","0","45","0","0","0","0","45","45","45","45","45","45","Fri Sep 18 11:18:26 2020","1500","The main experiment item","yes","FlankerTask.osexp","/Users/kaylaredder/Desktop","no","mono","no","18","no","white","no","yes","768","legacy","45","45","/Users/kaylaredder/Desktop/kr-subject-0.csv","legacy","Lentiform Loewenfeld","3.3.3","0","h","NA","h","NA","NA","h","472","NA","579","NA","NA","472","2","legacy","1024","2","48000","-16","experiment","SSHSS","0","even","3095","NA","NA","57598","NA","78114","2506","NA","NA","2493","NA","79173","79287","79760","79160","79287","Flanker Task ","41","20218","46","yes","1024"
"89.36170212765957","89.36170212765957","440.7659574468085","440.7659574468085","black","legacy","legacy","legacy","0","incongruent","uniform","1","undefined","1","s","0","0","0","46","0","46","0","0","0","0","46","46","46","46","46","46","Fri Sep 18 11:18:26 2020","1500","The main experiment item","yes","FlankerTask.osexp","/Users/kaylaredder/Desktop","no","mono","no","18","no","white","no","yes","768","legacy","46","46","/Users/kaylaredder/Desktop/kr-subject-0.csv","legacy","Lentiform Loewenfeld","3.3.3","0","s","NA","h","NA","NA","s","498","NA","579","NA","NA","498","2","legacy","1024","2","48000","-16","experiment","HHSHH","0","even","3095","NA","NA","57598","NA","79781","2506","NA","NA","2493","NA","80841","80956","81455","80828","80956","Flanker Task ","42","20716","47","yes","1024"
"89.58333333333333","89.58333333333333","439.1875","439.1875","black","legacy","legacy","legacy","0","incongruent","uniform","1","undefined","1","s","0","0","0","47","0","47","0","0","0","0","47","47","47","47","47","47","Fri Sep 18 11:18:26 2020","1500","The main experiment item","yes","FlankerTask.osexp","/Users/kaylaredder/Desktop","no","mono","no","18","no","white","no","yes","768","legacy","47","47","/Users/kaylaredder/Desktop/kr-subject-0.csv","legacy","Lentiform Loewenfeld","3.3.3","0","s","NA","h","NA","NA","s","365","NA","579","NA","NA","365","2","legacy","1024","2","48000","-16","experiment","HHSHH","0","even","3095","NA","NA","57598","NA","81476","2506","NA","NA","2493","NA","82535","82650","83016","82523","82650","Flanker Task ","43","21081","48","yes","1024"
"89.79591836734694","89.79591836734694","440.7959183673469","440.7959183673469","black","legacy","legacy","legacy","0","congruent","uniform","1","undefined","1","h","0","0","0","48","0","48","0","0","0","0","48","48","48","48","48","48","Fri Sep 18 11:18:26 2020","1500","The main experiment item","yes","FlankerTask.osexp","/Users/kaylaredder/Desktop","no","mono","no","18","no","white","no","yes","768","legacy","48","48","/Users/kaylaredder/Desktop/kr-subject-0.csv","legacy","Lentiform Loewenfeld","3.3.3","0","h","NA","h","NA","NA","h","518","NA","579","NA","NA","518","2","legacy","1024","2","48000","-16","experiment","HHHHH","0","even","3095","NA","NA","57598","NA","83038","2506","NA","NA","2493","NA","84097","84213","84732","84084","84213","Flanker Task ","44","21599","49","yes","1024"
"90","90","439.7","439.7","black","legacy","legacy","legacy","0","incongruent ","uniform","1","undefined","1","h","0","0","0","49","0","49","0","0","0","0","49","49","49","49","49","49","Fri Sep 18 11:18:26 2020","1500","The main experiment item","yes","FlankerTask.osexp","/Users/kaylaredder/Desktop","no","mono","no","18","no","white","no","yes","768","legacy","49","49","/Users/kaylaredder/Desktop/kr-subject-0.csv","legacy","Lentiform Loewenfeld","3.3.3","0","h","NA","h","NA","NA","h","386","NA","579","NA","NA","386","2","legacy","1024","2","48000","-16","experiment","SSHSS","0","even","3095","NA","NA","57598","NA","84753","2506","NA","NA","2493","NA","85812","85927","86314","85799","85927","Flanker Task ","45","21985","50","yes","1024"
"90.19607843137256","90.19607843137256","440.9019607843137","440.9019607843137","black","legacy","legacy","legacy","0","incongruent","uniform","1","undefined","1","s","0","0","0","50","0","50","0","0","0","0","50","50","50","50","50","50","Fri Sep 18 11:18:26 2020","1500","The main experiment item","yes","FlankerTask.osexp","/Users/kaylaredder/Desktop","no","mono","no","18","no","white","no","yes","768","legacy","50","50","/Users/kaylaredder/Desktop/kr-subject-0.csv","legacy","Lentiform Loewenfeld","3.3.3","0","s","NA","h","NA","NA","s","501","NA","579","NA","NA","501","2","legacy","1024","2","48000","-16","experiment","HHSHH","0","even","3095","NA","NA","57598","NA","86335","2506","NA","NA","2493","NA","87394","87508","88010","87382","87508","Flanker Task ","46","22486","51","yes","1024"
"90.38461538461539","90.38461538461539","440.7307692307692","440.7307692307692","black","legacy","legacy","legacy","0","congruent","uniform","1","undefined","1","h","0","0","0","51","0","51","0","0","0","0","51","51","51","51","51","51","Fri Sep 18 11:18:26 2020","1500","The main experiment item","yes","FlankerTask.osexp","/Users/kaylaredder/Desktop","no","mono","no","18","no","white","no","yes","768","legacy","51","51","/Users/kaylaredder/Desktop/kr-subject-0.csv","legacy","Lentiform Loewenfeld","3.3.3","0","h","NA","h","NA","NA","h","432","NA","579","NA","NA","432","2","legacy","1024","2","48000","-16","experiment","HHHHH","0","even","3095","NA","NA","57598","NA","88031","2506","NA","NA","2493","NA","89089","89205","89638","89076","89205","Flanker Task ","47","22918","52","yes","1024"
"90.56603773584905","90.56603773584905","440.9433962264151","440.9433962264151","black","legacy","legacy","legacy","0","incongruent ","uniform","1","undefined","1","h","0","0","0","52","0","52","0","0","0","0","52","52","52","52","52","52","Fri Sep 18 11:18:26 2020","1500","The main experiment item","yes","FlankerTask.osexp","/Users/kaylaredder/Desktop","no","mono","no","18","no","white","no","yes","768","legacy","52","52","/Users/kaylaredder/Desktop/kr-subject-0.csv","legacy","Lentiform Loewenfeld","3.3.3","0","h","NA","h","NA","NA","h","452","NA","579","NA","NA","452","2","legacy","1024","2","48000","-16","experiment","SSHSS","0","even","3095","NA","NA","57598","NA","89660","2506","NA","NA","2493","NA","90719","90834","91288","90706","90834","Flanker Task ","48","23370","53","yes","1024"
"90.74074074074075","90.74074074074075","440.7962962962963","440.7962962962963","black","legacy","legacy","legacy","0","congruent","uniform","1","undefined","1","h","0","0","0","53","0","53","0","0","0","0","53","53","53","53","53","53","Fri Sep 18 11:18:26 2020","1500","The main experiment item","yes","FlankerTask.osexp","/Users/kaylaredder/Desktop","no","mono","no","18","no","white","no","yes","768","legacy","53","53","/Users/kaylaredder/Desktop/kr-subject-0.csv","legacy","Lentiform Loewenfeld","3.3.3","0","h","NA","h","NA","NA","h","433","NA","579","NA","NA","433","2","legacy","1024","2","48000","-16","experiment","HHHHH","0","even","3095","NA","NA","57598","NA","91310","2506","NA","NA","2493","NA","92370","92485","92919","92357","92485","Flanker Task ","49","23803","54","yes","1024"
"90.9090909090909","90.9090909090909","441.90909090909093","441.90909090909093","black","legacy","legacy","legacy","0","incongruent ","uniform","1","undefined","1","h","0","0","0","54","0","54","0","0","0","0","54","54","54","54","54","54","Fri Sep 18 11:18:26 2020","1500","The main experiment item","yes","FlankerTask.osexp","/Users/kaylaredder/Desktop","no","mono","no","18","no","white","no","yes","768","legacy","54","54","/Users/kaylaredder/Desktop/kr-subject-0.csv","legacy","Lentiform Loewenfeld","3.3.3","0","h","NA","h","NA","NA","h","502","NA","579","NA","NA","502","2","legacy","1024","2","48000","-16","experiment","SSHSS","0","even","3095","NA","NA","57598","NA","92940","2506","NA","NA","2493","NA","94000","94113","94617","93987","94113","Flanker Task ","50","24305","55","yes","1024"
"91.07142857142857","91.07142857142857","441.75","441.75","black","legacy","legacy","legacy","0","incongruent ","uniform","1","undefined","1","h","0","0","0","55","0","55","0","0","0","0","55","55","55","55","55","55","Fri Sep 18 11:18:26 2020","1500","The main experiment item","yes","FlankerTask.osexp","/Users/kaylaredder/Desktop","no","mono","no","18","no","white","no","yes","768","legacy","55","55","/Users/kaylaredder/Desktop/kr-subject-0.csv","legacy","Lentiform Loewenfeld","3.3.3","0","h","NA","h","NA","NA","h","433","NA","579","NA","NA","433","2","legacy","1024","2","48000","-16","experiment","SSHSS","0","even","3095","NA","NA","57598","NA","94638","2506","NA","NA","2493","NA","95697","95812","96246","95684","95812","Flanker Task ","51","24738","56","yes","1024"
"91.2280701754386","91.2280701754386","441.4561403508772","441.4561403508772","black","legacy","legacy","legacy","0","congruent","uniform","1","undefined","1","h","0","0","0","56","0","56","0","0","0","0","56","56","56","56","56","56","Fri Sep 18 11:18:26 2020","1500","The main experiment item","yes","FlankerTask.osexp","/Users/kaylaredder/Desktop","no","mono","no","18","no","white","no","yes","768","legacy","56","56","/Users/kaylaredder/Desktop/kr-subject-0.csv","legacy","Lentiform Loewenfeld","3.3.3","0","h","NA","h","NA","NA","h","425","NA","579","NA","NA","425","2","legacy","1024","2","48000","-16","experiment","HHHHH","0","even","3095","NA","NA","57598","NA","96271","2506","NA","NA","2493","NA","97330","97445","97872","97318","97444","Flanker Task ","52","25163","57","yes","1024"
"91.37931034482759","91.37931034482759","445.58620689655174","445.58620689655174","black","legacy","legacy","legacy","0","incongruent","uniform","1","undefined","1","s","0","0","0","57","0","57","0","0","0","0","57","57","57","57","57","57","Fri Sep 18 11:18:26 2020","1500","The main experiment item","yes","FlankerTask.osexp","/Users/kaylaredder/Desktop","no","mono","no","18","no","white","no","yes","768","legacy","57","57","/Users/kaylaredder/Desktop/kr-subject-0.csv","legacy","Lentiform Loewenfeld","3.3.3","0","s","NA","h","NA","NA","s","681","NA","579","NA","NA","681","2","legacy","1024","2","48000","-16","experiment","HHSHH","0","even","3095","NA","NA","57598","NA","97893","2506","NA","NA","2493","NA","98952","99067","99750","98939","99067","Flanker Task ","53","25844","58","yes","1024"
"91.52542372881356","91.52542372881356","444.91525423728814","444.91525423728814","black","legacy","legacy","legacy","0","congruent ","uniform","1","undefined","1","s","0","0","0","58","0","58","0","0","0","0","58","58","58","58","58","58","Fri Sep 18 11:18:26 2020","1500","The main experiment item","yes","FlankerTask.osexp","/Users/kaylaredder/Desktop","no","mono","no","18","no","white","no","yes","768","legacy","58","58","/Users/kaylaredder/Desktop/kr-subject-0.csv","legacy","Lentiform Loewenfeld","3.3.3","0","s","NA","h","NA","NA","s","406","NA","579","NA","NA","406","2","legacy","1024","2","48000","-16","experiment","SSSSS","0","even","3095","NA","NA","57598","NA","99771","2506","NA","NA","2493","NA","100829","100944","101352","100817","100944","Flanker Task ","54","26250","59","yes","1024"
"91.66666666666667","91.66666666666667","444.43333333333334","444.43333333333334","black","legacy","legacy","legacy","0","incongruent","uniform","1","undefined","1","s","0","0","0","59","0","59","0","0","0","0","59","59","59","59","59","59","Fri Sep 18 11:18:26 2020","1500","The main experiment item","yes","FlankerTask.osexp","/Users/kaylaredder/Desktop","no","mono","no","18","no","white","no","yes","768","legacy","59","59","/Users/kaylaredder/Desktop/kr-subject-0.csv","legacy","Lentiform Loewenfeld","3.3.3","0","s","NA","h","NA","NA","s","416","NA","579","NA","NA","416","2","legacy","1024","2","48000","-16","experiment","HHSHH","0","even","3095","NA","NA","57598","NA","101374","2506","NA","NA","2493","NA","102435","102550","102968","102422","102550","Flanker Task ","55","26666","60","yes","1024"
"91.80327868852459","91.80327868852459","445.4590163934426","445.4590163934426","black","legacy","legacy","legacy","0","incongruent ","uniform","1","undefined","1","h","0","0","0","60","0","60","0","0","0","0","60","60","60","60","60","60","Fri Sep 18 11:18:26 2020","1500","The main experiment item","yes","FlankerTask.osexp","/Users/kaylaredder/Desktop","no","mono","no","18","no","white","no","yes","768","legacy","60","60","/Users/kaylaredder/Desktop/kr-subject-0.csv","legacy","Lentiform Loewenfeld","3.3.3","0","h","NA","h","NA","NA","h","507","NA","579","NA","NA","507","2","legacy","1024","2","48000","-16","experiment","SSHSS","0","even","3095","NA","NA","57598","NA","102990","2506","NA","NA","2493","NA","104048","104163","104672","104035","104163","Flanker Task ","56","27173","61","yes","1024"
"91.93548387096774","91.93548387096774","444.9193548387097","444.9193548387097","black","legacy","legacy","legacy","0","congruent","uniform","1","undefined","1","h","0","0","0","61","0","61","0","0","0","0","61","61","61","61","61","61","Fri Sep 18 11:18:26 2020","1500","The main experiment item","yes","FlankerTask.osexp","/Users/kaylaredder/Desktop","no","mono","no","18","no","white","no","yes","768","legacy","61","61","/Users/kaylaredder/Desktop/kr-subject-0.csv","legacy","Lentiform Loewenfeld","3.3.3","0","h","NA","h","NA","NA","h","412","NA","579","NA","NA","412","2","legacy","1024","2","48000","-16","experiment","HHHHH","0","even","3095","NA","NA","57598","NA","104693","2506","NA","NA","2493","NA","105752","105867","106281","105740","105867","Flanker Task ","57","27585","62","yes","1024"
"92.06349206349206","92.06349206349206","444.95238095238096","444.95238095238096","black","legacy","legacy","legacy","0","congruent ","uniform","1","undefined","1","s","0","0","0","62","0","62","0","0","0","0","62","62","62","62","62","62","Fri Sep 18 11:18:26 2020","1500","The main experiment item","yes","FlankerTask.osexp","/Users/kaylaredder/Desktop","no","mono","no","18","no","white","no","yes","768","legacy","62","62","/Users/kaylaredder/Desktop/kr-subject-0.csv","legacy","Lentiform Loewenfeld","3.3.3","0","s","NA","h","NA","NA","s","447","NA","579","NA","NA","447","2","legacy","1024","2","48000","-16","experiment","SSSSS","0","even","3095","NA","NA","57598","NA","106302","2506","NA","NA","2493","NA","107361","107476","107925","107348","107476","Flanker Task ","58","28032","63","yes","1024"
"92.1875","92.1875","445.46875","445.46875","black","legacy","legacy","legacy","0","incongruent ","uniform","1","undefined","1","h","0","0","0","63","0","63","0","0","0","0","63","63","63","63","63","63","Fri Sep 18 11:18:26 2020","1500","The main experiment item","yes","FlankerTask.osexp","/Users/kaylaredder/Desktop","no","mono","no","18","no","white","no","yes","768","legacy","63","63","/Users/kaylaredder/Desktop/kr-subject-0.csv","legacy","Lentiform Loewenfeld","3.3.3","0","h","NA","h","NA","NA","h","478","NA","579","NA","NA","478","2","legacy","1024","2","48000","-16","experiment","SSHSS","0","even","3095","NA","NA","57598","NA","107946","2506","NA","NA","2493","NA","109003","109118","109598","108991","109118","Flanker Task ","59","28510","64","yes","1024"
"90.76923076923077","90.76923076923077","448","448","black","legacy","legacy","legacy","0","congruent","uniform","0","undefined","0","h","0","0","0","64","0","64","0","0","0","0","64","64","64","64","64","64","Fri Sep 18 11:18:26 2020","1500","The main experiment item","yes","FlankerTask.osexp","/Users/kaylaredder/Desktop","no","mono","no","18","no","white","no","yes","768","legacy","64","64","/Users/kaylaredder/Desktop/kr-subject-0.csv","legacy","Lentiform Loewenfeld","3.3.3","0","s","NA","h","NA","NA","s","610","NA","579","NA","NA","610","2","legacy","1024","2","48000","-16","experiment","HHHHH","0","even","3095","NA","NA","57598","NA","109620","2506","NA","NA","2493","NA","110680","110795","111407","110667","110795","Flanker Task ","59","29120","65","yes","1024"
"90.9090909090909","90.9090909090909","447.8939393939394","447.8939393939394","black","legacy","legacy","legacy","0","incongruent","uniform","1","undefined","1","s","0","0","0","65","0","65","0","0","0","0","65","65","65","65","65","65","Fri Sep 18 11:18:26 2020","1500","The main experiment item","yes","FlankerTask.osexp","/Users/kaylaredder/Desktop","no","mono","no","18","no","white","no","yes","768","legacy","65","65","/Users/kaylaredder/Desktop/kr-subject-0.csv","legacy","Lentiform Loewenfeld","3.3.3","0","s","NA","h","NA","NA","s","441","NA","579","NA","NA","441","2","legacy","1024","2","48000","-16","experiment","HHSHH","0","even","3095","NA","NA","111429","NA","111943","2506","NA","NA","2493","NA","113001","113116","113559","112989","113116","Flanker Task ","60","29561","66","yes","1024"
"91.04477611940298","91.04477611940298","448.7313432835821","448.7313432835821","black","legacy","legacy","legacy","0","incongruent","uniform","1","undefined","1","s","0","0","0","66","0","66","0","0","0","0","66","66","66","66","66","66","Fri Sep 18 11:18:26 2020","1500","The main experiment item","yes","FlankerTask.osexp","/Users/kaylaredder/Desktop","no","mono","no","18","no","white","no","yes","768","legacy","66","66","/Users/kaylaredder/Desktop/kr-subject-0.csv","legacy","Lentiform Loewenfeld","3.3.3","0","s","NA","h","NA","NA","s","504","NA","579","NA","NA","504","2","legacy","1024","2","48000","-16","experiment","HHSHH","0","even","3095","NA","NA","111429","NA","113579","2506","NA","NA","2493","NA","114640","114755","115261","114627","114755","Flanker Task ","61","30065","67","yes","1024"
"91.17647058823529","91.17647058823529","448.8970588235294","448.8970588235294","black","legacy","legacy","legacy","0","incongruent ","uniform","1","undefined","1","h","0","0","0","67","0","67","0","0","0","0","67","67","67","67","67","67","Fri Sep 18 11:18:26 2020","1500","The main experiment item","yes","FlankerTask.osexp","/Users/kaylaredder/Desktop","no","mono","no","18","no","white","no","yes","768","legacy","67","67","/Users/kaylaredder/Desktop/kr-subject-0.csv","legacy","Lentiform Loewenfeld","3.3.3","0","h","NA","h","NA","NA","h","460","NA","579","NA","NA","460","2","legacy","1024","2","48000","-16","experiment","SSHSS","0","even","3095","NA","NA","111429","NA","115282","2506","NA","NA","2493","NA","116340","116455","116916","116328","116455","Flanker Task ","62","30525","68","yes","1024"
"91.30434782608695","91.30434782608695","448.39130434782606","448.39130434782606","black","legacy","legacy","legacy","0","congruent","uniform","1","undefined","1","h","0","0","0","68","0","68","0","0","0","0","68","68","68","68","68","68","Fri Sep 18 11:18:26 2020","1500","The main experiment item","yes","FlankerTask.osexp","/Users/kaylaredder/Desktop","no","mono","no","18","no","white","no","yes","768","legacy","68","68","/Users/kaylaredder/Desktop/kr-subject-0.csv","legacy","Lentiform Loewenfeld","3.3.3","0","h","NA","h","NA","NA","h","414","NA","579","NA","NA","414","2","legacy","1024","2","48000","-16","experiment","HHHHH","0","even","3095","NA","NA","111429","NA","116938","2506","NA","NA","2493","NA","117997","118112","118528","117984","118112","Flanker Task ","63","30939","69","yes","1024"
"91.42857142857143","91.42857142857143","447.57142857142856","447.57142857142856","black","legacy","legacy","legacy","0","congruent ","uniform","1","undefined","1","s","0","0","0","69","0","69","0","0","0","0","69","69","69","69","69","69","Fri Sep 18 11:18:26 2020","1500","The main experiment item","yes","FlankerTask.osexp","/Users/kaylaredder/Desktop","no","mono","no","18","no","white","no","yes","768","legacy","69","69","/Users/kaylaredder/Desktop/kr-subject-0.csv","legacy","Lentiform Loewenfeld","3.3.3","0","s","NA","h","NA","NA","s","391","NA","579","NA","NA","391","2","legacy","1024","2","48000","-16","experiment","SSSSS","0","even","3095","NA","NA","111429","NA","118549","2506","NA","NA","2493","NA","119608","119723","120116","119595","119723","Flanker Task ","64","31330","70","yes","1024"
"91.54929577464789","91.54929577464789","447.0845070422535","447.0845070422535","black","legacy","legacy","legacy","0","congruent ","uniform","1","undefined","1","s","0","0","0","70","0","70","0","0","0","0","70","70","70","70","70","70","Fri Sep 18 11:18:26 2020","1500","The main experiment item","yes","FlankerTask.osexp","/Users/kaylaredder/Desktop","no","mono","no","18","no","white","no","yes","768","legacy","70","70","/Users/kaylaredder/Desktop/kr-subject-0.csv","legacy","Lentiform Loewenfeld","3.3.3","0","s","NA","h","NA","NA","s","413","NA","579","NA","NA","413","2","legacy","1024","2","48000","-16","experiment","SSSSS","0","even","3095","NA","NA","111429","NA","120138","2506","NA","NA","2493","NA","121197","121312","121727","121184","121312","Flanker Task ","65","31743","71","yes","1024"
"91.66666666666667","91.66666666666667","446.69444444444446","446.69444444444446","black","legacy","legacy","legacy","0","congruent","uniform","1","undefined","1","h","0","0","0","71","0","71","0","0","0","0","71","71","71","71","71","71","Fri Sep 18 11:18:26 2020","1500","The main experiment item","yes","FlankerTask.osexp","/Users/kaylaredder/Desktop","no","mono","no","18","no","white","no","yes","768","legacy","71","71","/Users/kaylaredder/Desktop/kr-subject-0.csv","legacy","Lentiform Loewenfeld","3.3.3","0","h","NA","h","NA","NA","h","419","NA","579","NA","NA","419","2","legacy","1024","2","48000","-16","experiment","HHHHH","0","even","3095","NA","NA","111429","NA","121747","2506","NA","NA","2493","NA","122805","122920","123340","122793","122920","Flanker Task ","66","32162","72","yes","1024"
"91.78082191780823","91.78082191780823","447.43835616438355","447.43835616438355","black","legacy","legacy","legacy","0","incongruent ","uniform","1","undefined","1","h","0","0","0","72","0","72","0","0","0","0","72","72","72","72","72","72","Fri Sep 18 11:18:26 2020","1500","The main experiment item","yes","FlankerTask.osexp","/Users/kaylaredder/Desktop","no","mono","no","18","no","white","no","yes","768","legacy","72","72","/Users/kaylaredder/Desktop/kr-subject-0.csv","legacy","Lentiform Loewenfeld","3.3.3","0","h","NA","h","NA","NA","h","501","NA","579","NA","NA","501","2","legacy","1024","2","48000","-16","experiment","SSHSS","0","even","3095","NA","NA","111429","NA","123362","2506","NA","NA","2493","NA","124422","124538","125040","124409","124538","Flanker Task ","67","32663","73","yes","1024"
"91.89189189189189","91.89189189189189","447.3918918918919","447.3918918918919","black","legacy","legacy","legacy","0","congruent ","uniform","1","undefined","1","s","0","0","0","73","0","73","0","0","0","0","73","73","73","73","73","73","Fri Sep 18 11:18:26 2020","1500","The main experiment item","yes","FlankerTask.osexp","/Users/kaylaredder/Desktop","no","mono","no","18","no","white","no","yes","768","legacy","73","73","/Users/kaylaredder/Desktop/kr-subject-0.csv","legacy","Lentiform Loewenfeld","3.3.3","0","s","NA","h","NA","NA","s","444","NA","579","NA","NA","444","2","legacy","1024","2","48000","-16","experiment","SSSSS","0","even","3095","NA","NA","111429","NA","125059","2506","NA","NA","2493","NA","126117","126233","126678","126105","126233","Flanker Task ","68","33107","74","yes","1024"
"92","92","447.9066666666667","447.9066666666667","black","legacy","legacy","legacy","0","incongruent","uniform","1","undefined","1","s","0","0","0","74","0","74","0","0","0","0","74","74","74","74","74","74","Fri Sep 18 11:18:26 2020","1500","The main experiment item","yes","FlankerTask.osexp","/Users/kaylaredder/Desktop","no","mono","no","18","no","white","no","yes","768","legacy","74","74","/Users/kaylaredder/Desktop/kr-subject-0.csv","legacy","Lentiform Loewenfeld","3.3.3","0","s","NA","h","NA","NA","s","486","NA","579","NA","NA","486","2","legacy","1024","2","48000","-16","experiment","HHSHH","0","even","3095","NA","NA","111429","NA","126699","2506","NA","NA","2493","NA","127759","127874","128361","127746","127874","Flanker Task ","69","33593","75","yes","1024"
"92.10526315789474","92.10526315789474","446.7631578947368","446.7631578947368","black","legacy","legacy","legacy","0","congruent","uniform","1","undefined","1","h","0","0","0","75","0","75","0","0","0","0","75","75","75","75","75","75","Fri Sep 18 11:18:26 2020","1500","The main experiment item","yes","FlankerTask.osexp","/Users/kaylaredder/Desktop","no","mono","no","18","no","white","no","yes","768","legacy","75","75","/Users/kaylaredder/Desktop/kr-subject-0.csv","legacy","Lentiform Loewenfeld","3.3.3","0","h","NA","h","NA","NA","h","361","NA","579","NA","NA","361","2","legacy","1024","2","48000","-16","experiment","HHHHH","0","even","3095","NA","NA","111429","NA","128383","2506","NA","NA","2493","NA","129442","129558","129920","129429","129557","Flanker Task ","70","33954","76","yes","1024"
"92.20779220779221","92.20779220779221","445.6753246753247","445.6753246753247","black","legacy","legacy","legacy","0","congruent ","uniform","1","undefined","1","s","0","0","0","76","0","76","0","0","0","0","76","76","76","76","76","76","Fri Sep 18 11:18:26 2020","1500","The main experiment item","yes","FlankerTask.osexp","/Users/kaylaredder/Desktop","no","mono","no","18","no","white","no","yes","768","legacy","76","76","/Users/kaylaredder/Desktop/kr-subject-0.csv","legacy","Lentiform Loewenfeld","3.3.3","0","s","NA","h","NA","NA","s","363","NA","579","NA","NA","363","2","legacy","1024","2","48000","-16","experiment","SSSSS","0","even","3095","NA","NA","111429","NA","129942","2506","NA","NA","2493","NA","131001","131116","131480","130990","131116","Flanker Task ","71","34317","77","yes","1024"
"92.3076923076923","92.3076923076923","445.38461538461536","445.38461538461536","black","legacy","legacy","legacy","0","congruent ","uniform","1","undefined","1","s","0","0","0","77","0","77","0","0","0","0","77","77","77","77","77","77","Fri Sep 18 11:18:26 2020","1500","The main experiment item","yes","FlankerTask.osexp","/Users/kaylaredder/Desktop","no","mono","no","18","no","white","no","yes","768","legacy","77","77","/Users/kaylaredder/Desktop/kr-subject-0.csv","legacy","Lentiform Loewenfeld","3.3.3","0","s","NA","h","NA","NA","s","423","NA","579","NA","NA","423","2","legacy","1024","2","48000","-16","experiment","SSSSS","0","even","3095","NA","NA","111429","NA","131503","2506","NA","NA","2493","NA","132562","132677","133101","132549","132677","Flanker Task ","72","34740","78","yes","1024"
"92.40506329113924","92.40506329113924","445.37974683544303","445.37974683544303","black","legacy","legacy","legacy","0","congruent","uniform","1","undefined","1","h","0","0","0","78","0","78","0","0","0","0","78","78","78","78","78","78","Fri Sep 18 11:18:26 2020","1500","The main experiment item","yes","FlankerTask.osexp","/Users/kaylaredder/Desktop","no","mono","no","18","no","white","no","yes","768","legacy","78","78","/Users/kaylaredder/Desktop/kr-subject-0.csv","legacy","Lentiform Loewenfeld","3.3.3","0","h","NA","h","NA","NA","h","445","NA","579","NA","NA","445","2","legacy","1024","2","48000","-16","experiment","HHHHH","0","even","3095","NA","NA","111429","NA","133122","2506","NA","NA","2493","NA","134181","134297","134743","134168","134297","Flanker Task ","73","35185","79","yes","1024"
"92.5","92.5","443.725","443.725","black","legacy","legacy","legacy","0","congruent ","uniform","1","undefined","1","s","0","0","0","79","0","79","0","0","0","0","79","79","79","79","79","79","Fri Sep 18 11:18:26 2020","1500","The main experiment item","yes","FlankerTask.osexp","/Users/kaylaredder/Desktop","no","mono","no","18","no","white","no","yes","768","legacy","79","79","/Users/kaylaredder/Desktop/kr-subject-0.csv","legacy","Lentiform Loewenfeld","3.3.3","0","s","NA","h","NA","NA","s","313","NA","579","NA","NA","313","2","legacy","1024","2","48000","-16","experiment","SSSSS","0","even","3095","NA","NA","111429","NA","134766","2506","NA","NA","2493","NA","135825","135941","136255","135813","135941","Flanker Task ","74","35498","80","yes","1024"
"92.5925925925926","92.5925925925926","444.1604938271605","444.1604938271605","black","legacy","legacy","legacy","0","congruent","uniform","1","undefined","1","h","0","0","0","80","0","80","0","0","0","0","80","80","80","80","80","80","Fri Sep 18 11:18:26 2020","600","The main experiment item","yes","FlankerTask.osexp","/Users/kaylaredder/Desktop","no","mono","no","18","no","white","no","yes","768","legacy","0","79","/Users/kaylaredder/Desktop/kr-subject-0.csv","legacy","Lentiform Loewenfeld","3.3.3","0","h","NA","h","s","NA","h","479","NA","579","9721","NA","479","2","legacy","1024","2","48000","-16","experiment","HHHHH","0","even","3095","147035","NA","111429","NA","136278","2506","137313","NA","2493","NA","147075","147190","147671","147062","147190","Flanker Task ","75","35977","81","yes","1024"
"92.6829268292683","92.6829268292683","442.719512195122","442.719512195122","black","legacy","legacy","legacy","0","congrunent ","uniform","1","undefined","1","s","0","0","0","81","0","81","0","0","0","0","81","81","81","81","81","81","Fri Sep 18 11:18:26 2020","600","The main experiment item","yes","FlankerTask.osexp","/Users/kaylaredder/Desktop","no","mono","no","18","no","white","no","yes","768","legacy","1","79","/Users/kaylaredder/Desktop/kr-subject-0.csv","legacy","Lentiform Loewenfeld","3.3.3","0","s","NA","h","s","NA","s","326","NA","579","9721","NA","326","2","legacy","1024","2","48000","-16","experiment","SSSSS","0","even","3095","147035","NA","111429","NA","147694","2506","137313","NA","2493","NA","148752","148866","149193","148740","148866","Flanker Task ","76","36303","82","yes","1024"
"92.7710843373494","92.7710843373494","442.26506024096386","442.26506024096386","black","legacy","legacy","legacy","0","congrunent ","uniform","1","undefined","1","s","0","0","0","82","0","82","0","0","0","0","82","82","82","82","82","82","Fri Sep 18 11:18:26 2020","600","The main experiment item","yes","FlankerTask.osexp","/Users/kaylaredder/Desktop","no","mono","no","18","no","white","no","yes","768","legacy","2","79","/Users/kaylaredder/Desktop/kr-subject-0.csv","legacy","Lentiform Loewenfeld","3.3.3","0","s","NA","h","s","NA","s","405","NA","579","9721","NA","405","2","legacy","1024","2","48000","-16","experiment","SSSSS","0","even","3095","147035","NA","111429","NA","149216","2506","137313","NA","2493","NA","150274","150389","150796","150262","150389","Flanker Task ","77","36708","83","yes","1024"
"92.85714285714286","92.85714285714286","441.92857142857144","441.92857142857144","black","legacy","legacy","legacy","0","incongruent","uniform","1","undefined","1","s","0","0","0","83","0","83","0","0","0","0","83","83","83","83","83","83","Fri Sep 18 11:18:26 2020","600","The main experiment item","yes","FlankerTask.osexp","/Users/kaylaredder/Desktop","no","mono","no","18","no","white","no","yes","768","legacy","3","79","/Users/kaylaredder/Desktop/kr-subject-0.csv","legacy","Lentiform Loewenfeld","3.3.3","0","s","NA","h","s","NA","s","414","NA","579","9721","NA","414","2","legacy","1024","2","48000","-16","experiment","HHSHH","0","even","3095","147035","NA","111429","NA","150817","2506","137313","NA","2493","NA","151875","151991","152407","151863","151991","Flanker Task ","78","37122","84","yes","1024"
"92.94117647058823","92.94117647058823","442.83529411764704","442.83529411764704","black","legacy","legacy","legacy","0","incongruent","uniform","1","undefined","1","s","0","0","0","84","0","84","0","0","0","0","84","84","84","84","84","84","Fri Sep 18 11:18:26 2020","600","The main experiment item","yes","FlankerTask.osexp","/Users/kaylaredder/Desktop","no","mono","no","18","no","white","no","yes","768","legacy","4","79","/Users/kaylaredder/Desktop/kr-subject-0.csv","legacy","Lentiform Loewenfeld","3.3.3","0","s","NA","h","s","NA","s","519","NA","579","9721","NA","519","2","legacy","1024","2","48000","-16","experiment","HHSHH","0","even","3095","147035","NA","111429","NA","152430","2506","137313","NA","2493","NA","153488","153602","154122","153476","153602","Flanker Task ","79","37641","85","yes","1024"
"93.02325581395348","93.02325581395348","442.36046511627904","442.36046511627904","black","legacy","legacy","legacy","0","incongruent","uniform","1","undefined","1","s","0","0","0","85","0","85","0","0","0","0","85","85","85","85","85","85","Fri Sep 18 11:18:26 2020","600","The main experiment item","yes","FlankerTask.osexp","/Users/kaylaredder/Desktop","no","mono","no","18","no","white","no","yes","768","legacy","5","79","/Users/kaylaredder/Desktop/kr-subject-0.csv","legacy","Lentiform Loewenfeld","3.3.3","0","s","NA","h","s","NA","s","402","NA","579","9721","NA","402","2","legacy","1024","2","48000","-16","experiment","HHSHH","0","even","3095","147035","NA","111429","NA","154143","2506","137313","NA","2493","NA","155202","155316","155720","155189","155316","Flanker Task ","80","38043","86","yes","1024"
"93.10344827586206","93.10344827586206","443.2298850574713","443.2298850574713","black","legacy","legacy","legacy","0","incongruent ","uniform","1","undefined","1","h","0","0","0","86","0","86","0","0","0","0","86","86","86","86","86","86","Fri Sep 18 11:18:26 2020","600","The main experiment item","yes","FlankerTask.osexp","/Users/kaylaredder/Desktop","no","mono","no","18","no","white","no","yes","768","legacy","6","79","/Users/kaylaredder/Desktop/kr-subject-0.csv","legacy","Lentiform Loewenfeld","3.3.3","0","h","NA","h","s","NA","h","518","NA","579","9721","NA","518","2","legacy","1024","2","48000","-16","experiment","SSHSS","0","even","3095","147035","NA","111429","NA","155744","2506","137313","NA","2493","NA","156803","156918","157438","156790","156918","Flanker Task ","81","38561","87","yes","1024"
"93.18181818181819","93.18181818181819","444.47727272727275","444.47727272727275","black","legacy","legacy","legacy","0","congruent","uniform","1","undefined","1","h","0","0","0","87","0","87","0","0","0","0","87","87","87","87","87","87","Fri Sep 18 11:18:26 2020","600","The main experiment item","yes","FlankerTask.osexp","/Users/kaylaredder/Desktop","no","mono","no","18","no","white","no","yes","768","legacy","7","79","/Users/kaylaredder/Desktop/kr-subject-0.csv","legacy","Lentiform Loewenfeld","3.3.3","0","h","NA","h","s","NA","h","553","NA","579","9721","NA","553","2","legacy","1024","2","48000","-16","experiment","HHHHH","0","even","3095","147035","NA","111429","NA","157461","2506","137313","NA","2493","NA","158520","158635","159190","158508","158635","Flanker Task ","82","39114","88","yes","1024"
"93.25842696629213","93.25842696629213","445.13483146067415","445.13483146067415","black","legacy","legacy","legacy","0","congrunent ","uniform","1","undefined","1","s","0","0","0","88","0","88","0","0","0","0","88","88","88","88","88","88","Fri Sep 18 11:18:26 2020","600","The main experiment item","yes","FlankerTask.osexp","/Users/kaylaredder/Desktop","no","mono","no","18","no","white","no","yes","768","legacy","8","79","/Users/kaylaredder/Desktop/kr-subject-0.csv","legacy","Lentiform Loewenfeld","3.3.3","0","s","NA","h","s","NA","s","503","NA","579","9721","NA","503","2","legacy","1024","2","48000","-16","experiment","SSSSS","0","even","3095","147035","NA","111429","NA","159212","2506","137313","NA","2493","NA","160271","160386","160891","160258","160386","Flanker Task ","83","39617","89","yes","1024"
"93.33333333333333","93.33333333333333","445.9222222222222","445.9222222222222","black","legacy","legacy","legacy","0","incongruent","uniform","1","undefined","1","s","0","0","0","89","0","89","0","0","0","0","89","89","89","89","89","89","Fri Sep 18 11:18:26 2020","600","The main experiment item","yes","FlankerTask.osexp","/Users/kaylaredder/Desktop","no","mono","no","18","no","white","no","yes","768","legacy","9","79","/Users/kaylaredder/Desktop/kr-subject-0.csv","legacy","Lentiform Loewenfeld","3.3.3","0","s","NA","h","s","NA","s","516","NA","579","9721","NA","516","2","legacy","1024","2","48000","-16","experiment","HHSHH","0","even","3095","147035","NA","111429","NA","160912","2506","137313","NA","2493","NA","161970","162085","162603","161958","162085","Flanker Task ","84","40133","90","yes","1024"
"92.3076923076923","92.3076923076923","445.2197802197802","445.2197802197802","black","legacy","legacy","legacy","0","incongruent ","uniform","0","undefined","0","h","0","0","0","90","0","90","0","0","0","0","90","90","90","90","90","90","Fri Sep 18 11:18:26 2020","600","The main experiment item","yes","FlankerTask.osexp","/Users/kaylaredder/Desktop","no","mono","no","18","no","white","no","yes","768","legacy","10","79","/Users/kaylaredder/Desktop/kr-subject-0.csv","legacy","Lentiform Loewenfeld","3.3.3","0","s","NA","h","s","NA","s","382","NA","579","9721","NA","382","2","legacy","1024","2","48000","-16","experiment","SSHSS","0","even","3095","147035","NA","111429","NA","162624","2506","137313","NA","2493","NA","163683","163798","164182","163670","163798","Flanker Task ","84","40515","91","yes","1024"
"91.30434782608695","91.30434782608695","456.6847826086956","456.6847826086956","black","legacy","legacy","legacy","0","incongruent ","uniform","0","undefined","0","h","0","0","0","91","0","91","0","0","0","0","91","91","91","91","91","91","Fri Sep 18 11:18:26 2020","600","The main experiment item","yes","FlankerTask.osexp","/Users/kaylaredder/Desktop","no","mono","no","18","no","white","no","yes","768","legacy","11","79","/Users/kaylaredder/Desktop/kr-subject-0.csv","legacy","Lentiform Loewenfeld","3.3.3","0","None","NA","h","s","NA","None","1500","NA","579","9721","NA","1500","2","legacy","1024","2","48000","-16","experiment","SSHSS","0","even","3095","147035","NA","164204","NA","164718","2506","137313","NA","2493","NA","165776","165891","167391","165764","165891","Flanker Task ","84","42015","92","yes","1024"
"91.39784946236558","91.39784946236558","458.44086021505376","458.44086021505376","black","legacy","legacy","legacy","0","congrunent ","uniform","1","undefined","1","s","0","0","0","92","0","92","0","0","0","0","92","92","92","92","92","92","Fri Sep 18 11:18:26 2020","600","The main experiment item","yes","FlankerTask.osexp","/Users/kaylaredder/Desktop","no","mono","no","18","no","white","no","yes","768","legacy","12","79","/Users/kaylaredder/Desktop/kr-subject-0.csv","legacy","Lentiform Loewenfeld","3.3.3","0","s","NA","h","s","NA","s","620","NA","579","9721","NA","620","2","legacy","1024","2","48000","-16","experiment","SSSSS","0","even","3095","147035","NA","167414","NA","168442","2506","137313","NA","2493","167928","169501","169617","170239","169488","169616","Flanker Task ","85","42635","93","yes","1024"
"91.48936170212765","91.48936170212765","457.72340425531917","457.72340425531917","black","legacy","legacy","legacy","0","congruent","uniform","1","undefined","1","h","0","0","0","93","0","93","0","0","0","0","93","93","93","93","93","93","Fri Sep 18 11:18:26 2020","600","The main experiment item","yes","FlankerTask.osexp","/Users/kaylaredder/Desktop","no","mono","no","18","no","white","no","yes","768","legacy","13","79","/Users/kaylaredder/Desktop/kr-subject-0.csv","legacy","Lentiform Loewenfeld","3.3.3","0","h","NA","h","s","NA","h","391","NA","579","9721","NA","391","2","legacy","1024","2","48000","-16","experiment","HHHHH","0","even","3095","147035","NA","167414","NA","170774","2506","137313","NA","2493","170260","171833","171948","172341","171820","171948","Flanker Task ","86","43026","94","yes","1024"
"91.57894736842105","91.57894736842105","457.29473684210524","457.29473684210524","black","legacy","legacy","legacy","0","congruent","uniform","1","undefined","1","h","0","0","0","94","0","94","0","0","0","0","94","94","94","94","94","94","Fri Sep 18 11:18:26 2020","600","The main experiment item","yes","FlankerTask.osexp","/Users/kaylaredder/Desktop","no","mono","no","18","no","white","no","yes","768","legacy","14","79","/Users/kaylaredder/Desktop/kr-subject-0.csv","legacy","Lentiform Loewenfeld","3.3.3","0","h","NA","h","s","NA","h","417","NA","579","9721","NA","417","2","legacy","1024","2","48000","-16","experiment","HHHHH","0","even","3095","147035","NA","167414","NA","172362","2506","137313","NA","2493","170260","173422","173537","173956","173409","173537","Flanker Task ","87","43443","95","yes","1024"
"91.66666666666667","91.66666666666667","457.3020833333333","457.3020833333333","black","legacy","legacy","legacy","0","congruent","uniform","1","undefined","1","h","0","0","0","95","0","95","0","0","0","0","95","95","95","95","95","95","Fri Sep 18 11:18:26 2020","600","The main experiment item","yes","FlankerTask.osexp","/Users/kaylaredder/Desktop","no","mono","no","18","no","white","no","yes","768","legacy","15","79","/Users/kaylaredder/Desktop/kr-subject-0.csv","legacy","Lentiform Loewenfeld","3.3.3","0","h","NA","h","s","NA","h","458","NA","579","9721","NA","458","2","legacy","1024","2","48000","-16","experiment","HHHHH","0","even","3095","147035","NA","167414","NA","173978","2506","137313","NA","2493","170260","175036","175151","175611","175023","175151","Flanker Task ","88","43901","96","yes","1024"
"91.75257731958763","91.75257731958763","456.83505154639175","456.83505154639175","black","legacy","legacy","legacy","0","congruent","uniform","1","undefined","1","h","0","0","0","96","0","96","0","0","0","0","96","96","96","96","96","96","Fri Sep 18 11:18:26 2020","600","The main experiment item","yes","FlankerTask.osexp","/Users/kaylaredder/Desktop","no","mono","no","18","no","white","no","yes","768","legacy","16","79","/Users/kaylaredder/Desktop/kr-subject-0.csv","legacy","Lentiform Loewenfeld","3.3.3","0","h","NA","h","s","NA","h","412","NA","579","9721","NA","412","2","legacy","1024","2","48000","-16","experiment","HHHHH","0","even","3095","147035","NA","167414","NA","175634","2506","137313","NA","2493","170260","176692","176807","177221","176679","176807","Flanker Task ","89","44313","97","yes","1024"
"91.83673469387755","91.83673469387755","456.3265306122449","456.3265306122449","black","legacy","legacy","legacy","0","incongruent ","uniform","1","undefined","1","h","0","0","0","97","0","97","0","0","0","0","97","97","97","97","97","97","Fri Sep 18 11:18:26 2020","600","The main experiment item","yes","FlankerTask.osexp","/Users/kaylaredder/Desktop","no","mono","no","18","no","white","no","yes","768","legacy","17","79","/Users/kaylaredder/Desktop/kr-subject-0.csv","legacy","Lentiform Loewenfeld","3.3.3","0","h","NA","h","s","NA","h","407","NA","579","9721","NA","407","2","legacy","1024","2","48000","-16","experiment","SSHSS","0","even","3095","147035","NA","167414","NA","177242","2506","137313","NA","2493","170260","178301","178416","178825","178288","178416","Flanker Task ","90","44720","98","yes","1024"
"91.91919191919192","91.91919191919192","455.8686868686869","455.8686868686869","black","legacy","legacy","legacy","0","incongruent ","uniform","1","undefined","1","h","0","0","0","98","0","98","0","0","0","0","98","98","98","98","98","98","Fri Sep 18 11:18:26 2020","600","The main experiment item","yes","FlankerTask.osexp","/Users/kaylaredder/Desktop","no","mono","no","18","no","white","no","yes","768","legacy","18","79","/Users/kaylaredder/Desktop/kr-subject-0.csv","legacy","Lentiform Loewenfeld","3.3.3","0","h","NA","h","s","NA","h","411","NA","579","9721","NA","411","2","legacy","1024","2","48000","-16","experiment","SSHSS","0","even","3095","147035","NA","167414","NA","178846","2506","137313","NA","2493","170260","179905","180020","180432","179892","180020","Flanker Task ","91","45131","99","yes","1024"
"92","92","455.46","455.46","black","legacy","legacy","legacy","0","incongruent","uniform","1","undefined","1","s","0","0","0","99","0","99","0","0","0","0","99","99","99","99","99","99","Fri Sep 18 11:18:26 2020","600","The main experiment item","yes","FlankerTask.osexp","/Users/kaylaredder/Desktop","no","mono","no","18","no","white","no","yes","768","legacy","19","79","/Users/kaylaredder/Desktop/kr-subject-0.csv","legacy","Lentiform Loewenfeld","3.3.3","0","s","NA","h","s","NA","s","415","NA","579","9721","NA","415","2","legacy","1024","2","48000","-16","experiment","HHSHH","0","even","3095","147035","NA","167414","NA","180455","2506","137313","NA","2493","170260","181515","181630","182047","181502","181630","Flanker Task ","92","45546","100","yes","1024"
"92.07920792079207","92.07920792079207","454.6039603960396","454.6039603960396","black","legacy","legacy","legacy","0","congruent","uniform","1","undefined","1","h","0","0","0","100","0","100","0","0","0","0","100","100","100","100","100","100","Fri Sep 18 11:18:26 2020","600","The main experiment item","yes","FlankerTask.osexp","/Users/kaylaredder/Desktop","no","mono","no","18","no","white","no","yes","768","legacy","20","79","/Users/kaylaredder/Desktop/kr-subject-0.csv","legacy","Lentiform Loewenfeld","3.3.3","0","h","NA","h","s","NA","h","369","NA","579","9721","NA","369","2","legacy","1024","2","48000","-16","experiment","HHHHH","0","even","3095","147035","NA","167414","NA","182068","2506","137313","NA","2493","170260","183127","183242","183613","183113","183242","Flanker Task ","93","45915","101","yes","1024"
"92.15686274509804","92.15686274509804","453.94117647058823","453.94117647058823","black","legacy","legacy","legacy","0","incongruent ","uniform","1","undefined","1","h","0","0","0","101","0","101","0","0","0","0","101","101","101","101","101","101","Fri Sep 18 11:18:26 2020","600","The main experiment item","yes","FlankerTask.osexp","/Users/kaylaredder/Desktop","no","mono","no","18","no","white","no","yes","768","legacy","21","79","/Users/kaylaredder/Desktop/kr-subject-0.csv","legacy","Lentiform Loewenfeld","3.3.3","0","h","NA","h","s","NA","h","387","NA","579","9721","NA","387","2","legacy","1024","2","48000","-16","experiment","SSHSS","0","even","3095","147035","NA","167414","NA","183635","2506","137313","NA","2493","170260","184694","184809","185197","184681","184809","Flanker Task ","94","46302","102","yes","1024"
"92.23300970873787","92.23300970873787","452.79611650485435","452.79611650485435","black","legacy","legacy","legacy","0","incongruent ","uniform","1","undefined","1","h","0","0","0","102","0","102","0","0","0","0","102","102","102","102","102","102","Fri Sep 18 11:18:26 2020","600","The main experiment item","yes","FlankerTask.osexp","/Users/kaylaredder/Desktop","no","mono","no","18","no","white","no","yes","768","legacy","22","79","/Users/kaylaredder/Desktop/kr-subject-0.csv","legacy","Lentiform Loewenfeld","3.3.3","0","h","NA","h","s","NA","h","336","NA","579","9721","NA","336","2","legacy","1024","2","48000","-16","experiment","SSHSS","0","even","3095","147035","NA","167414","NA","185223","2506","137313","NA","2493","170260","186282","186397","186735","186269","186396","Flanker Task ","95","46638","103","yes","1024"
"92.3076923076923","92.3076923076923","452.2692307692308","452.2692307692308","black","legacy","legacy","legacy","0","congruent","uniform","1","undefined","1","h","0","0","0","103","0","103","0","0","0","0","103","103","103","103","103","103","Fri Sep 18 11:18:26 2020","600","The main experiment item","yes","FlankerTask.osexp","/Users/kaylaredder/Desktop","no","mono","no","18","no","white","no","yes","768","legacy","23","79","/Users/kaylaredder/Desktop/kr-subject-0.csv","legacy","Lentiform Loewenfeld","3.3.3","0","h","NA","h","s","NA","h","398","NA","579","9721","NA","398","2","legacy","1024","2","48000","-16","experiment","HHHHH","0","even","3095","147035","NA","167414","NA","186757","2506","137313","NA","2493","170260","187817","187932","188331","187804","187932","Flanker Task ","96","47036","104","yes","1024"
"91.42857142857143","91.42857142857143","451.73333333333335","451.73333333333335","black","legacy","legacy","legacy","0","incongruent","uniform","0","undefined","0","s","0","0","0","104","0","104","0","0","0","0","104","104","104","104","104","104","Fri Sep 18 11:18:26 2020","600","The main experiment item","yes","FlankerTask.osexp","/Users/kaylaredder/Desktop","no","mono","no","18","no","white","no","yes","768","legacy","24","79","/Users/kaylaredder/Desktop/kr-subject-0.csv","legacy","Lentiform Loewenfeld","3.3.3","0","h","NA","h","s","NA","h","396","NA","579","9721","NA","396","2","legacy","1024","2","48000","-16","experiment","HHSHH","0","even","3095","147035","NA","167414","NA","188355","2506","137313","NA","2493","170260","189414","189529","189927","189401","189529","Flanker Task ","96","47432","105","yes","1024"
"91.50943396226415","91.50943396226415","451.89622641509436","451.89622641509436","black","legacy","legacy","legacy","0","congruent","uniform","1","undefined","1","h","0","0","0","105","0","105","0","0","0","0","105","105","105","105","105","105","Fri Sep 18 11:18:26 2020","600","The main experiment item","yes","FlankerTask.osexp","/Users/kaylaredder/Desktop","no","mono","no","18","no","white","no","yes","768","legacy","25","79","/Users/kaylaredder/Desktop/kr-subject-0.csv","legacy","Lentiform Loewenfeld","3.3.3","0","h","NA","h","s","NA","h","469","NA","579","9721","NA","469","2","legacy","1024","2","48000","-16","experiment","HHHHH","0","even","3095","147035","NA","189949","NA","190464","2506","137313","NA","2493","170260","191523","191638","192108","191510","191638","Flanker Task ","97","47901","106","yes","1024"
"91.58878504672897","91.58878504672897","452.3457943925234","452.3457943925234","black","legacy","legacy","legacy","0","congrunent ","uniform","1","undefined","1","s","0","0","0","106","0","106","0","0","0","0","106","106","106","106","106","106","Fri Sep 18 11:18:26 2020","600","The main experiment item","yes","FlankerTask.osexp","/Users/kaylaredder/Desktop","no","mono","no","18","no","white","no","yes","768","legacy","26","79","/Users/kaylaredder/Desktop/kr-subject-0.csv","legacy","Lentiform Loewenfeld","3.3.3","0","s","NA","h","s","NA","s","500","NA","579","9721","NA","500","2","legacy","1024","2","48000","-16","experiment","SSSSS","0","even","3095","147035","NA","189949","NA","192130","2506","137313","NA","2493","170260","193189","193305","193806","193176","193305","Flanker Task ","98","48401","107","yes","1024"
"91.66666666666667","91.66666666666667","452.64814814814815","452.64814814814815","black","legacy","legacy","legacy","0","incongruent","uniform","1","undefined","1","s","0","0","0","107","0","107","0","0","0","0","107","107","107","107","107","107","Fri Sep 18 11:18:26 2020","600","The main experiment item","yes","FlankerTask.osexp","/Users/kaylaredder/Desktop","no","mono","no","18","no","white","no","yes","768","legacy","27","79","/Users/kaylaredder/Desktop/kr-subject-0.csv","legacy","Lentiform Loewenfeld","3.3.3","0","s","NA","h","s","NA","s","485","NA","579","9721","NA","485","2","legacy","1024","2","48000","-16","experiment","HHSHH","0","even","3095","147035","NA","189949","NA","193828","2506","137313","NA","2493","170260","194886","195000","195486","194874","195000","Flanker Task ","99","48886","108","yes","1024"
"91.74311926605505","91.74311926605505","452.2477064220183","452.2477064220183","black","legacy","legacy","legacy","0","congrunent ","uniform","1","undefined","1","s","0","0","0","108","0","108","0","0","0","0","108","108","108","108","108","108","Fri Sep 18 11:18:26 2020","600","The main experiment item","yes","FlankerTask.osexp","/Users/kaylaredder/Desktop","no","mono","no","18","no","white","no","yes","768","legacy","28","79","/Users/kaylaredder/Desktop/kr-subject-0.csv","legacy","Lentiform Loewenfeld","3.3.3","0","s","NA","h","s","NA","s","409","NA","579","9721","NA","409","2","legacy","1024","2","48000","-16","experiment","SSSSS","0","even","3095","147035","NA","189949","NA","195508","2506","137313","NA","2493","170260","196567","196682","197092","196555","196682","Flanker Task ","100","49295","109","yes","1024"
"91.81818181818181","91.81818181818181","451.92727272727274","451.92727272727274","black","legacy","legacy","legacy","0","congrunent ","uniform","1","undefined","1","s","0","0","0","109","0","109","0","0","0","0","109","109","109","109","109","109","Fri Sep 18 11:18:26 2020","600","The main experiment item","yes","FlankerTask.osexp","/Users/kaylaredder/Desktop","no","mono","no","18","no","white","no","yes","768","legacy","29","79","/Users/kaylaredder/Desktop/kr-subject-0.csv","legacy","Lentiform Loewenfeld","3.3.3","0","s","NA","h","s","NA","s","417","NA","579","9721","NA","417","2","legacy","1024","2","48000","-16","experiment","SSSSS","0","even","3095","147035","NA","189949","NA","197114","2506","137313","NA","2493","170260","198173","198288","198707","198160","198288","Flanker Task ","101","49712","110","yes","1024"
"91.89189189189189","91.89189189189189","451.54954954954957","451.54954954954957","black","legacy","legacy","legacy","0","congrunent ","uniform","1","undefined","1","s","0","0","0","110","0","110","0","0","0","0","110","110","110","110","110","110","Fri Sep 18 11:18:26 2020","600","The main experiment item","yes","FlankerTask.osexp","/Users/kaylaredder/Desktop","no","mono","no","18","no","white","no","yes","768","legacy","30","79","/Users/kaylaredder/Desktop/kr-subject-0.csv","legacy","Lentiform Loewenfeld","3.3.3","0","s","NA","h","s","NA","s","410","NA","579","9721","NA","410","2","legacy","1024","2","48000","-16","experiment","SSSSS","0","even","3095","147035","NA","189949","NA","198730","2506","137313","NA","2493","170260","199788","199903","200314","199775","199903","Flanker Task ","102","50122","111","yes","1024"
"91.96428571428571","91.96428571428571","450.82142857142856","450.82142857142856","black","legacy","legacy","legacy","0","congrunent ","uniform","1","undefined","1","s","0","0","0","111","0","111","0","0","0","0","111","111","111","111","111","111","Fri Sep 18 11:18:26 2020","600","The main experiment item","yes","FlankerTask.osexp","/Users/kaylaredder/Desktop","no","mono","no","18","no","white","no","yes","768","legacy","31","79","/Users/kaylaredder/Desktop/kr-subject-0.csv","legacy","Lentiform Loewenfeld","3.3.3","0","s","NA","h","s","NA","s","370","NA","579","9721","NA","370","2","legacy","1024","2","48000","-16","experiment","SSSSS","0","even","3095","147035","NA","189949","NA","200336","2506","137313","NA","2493","170260","201396","201511","201882","201383","201510","Flanker Task ","103","50492","112","yes","1024"
"92.03539823008849","92.03539823008849","450.0353982300885","450.0353982300885","black","legacy","legacy","legacy","0","congrunent ","uniform","1","undefined","1","s","0","0","0","112","0","112","0","0","0","0","112","112","112","112","112","112","Fri Sep 18 11:18:26 2020","600","The main experiment item","yes","FlankerTask.osexp","/Users/kaylaredder/Desktop","no","mono","no","18","no","white","no","yes","768","legacy","32","79","/Users/kaylaredder/Desktop/kr-subject-0.csv","legacy","Lentiform Loewenfeld","3.3.3","0","s","NA","h","s","NA","s","362","NA","579","9721","NA","362","2","legacy","1024","2","48000","-16","experiment","SSSSS","0","even","3095","147035","NA","189949","NA","201903","2506","137313","NA","2493","170260","202961","203076","203439","202949","203076","Flanker Task ","104","50854","113","yes","1024"
"92.10526315789474","92.10526315789474","449.13157894736844","449.13157894736844","black","legacy","legacy","legacy","0","congrunent ","uniform","1","undefined","1","s","0","0","0","113","0","113","0","0","0","0","113","113","113","113","113","113","Fri Sep 18 11:18:26 2020","600","The main experiment item","yes","FlankerTask.osexp","/Users/kaylaredder/Desktop","no","mono","no","18","no","white","no","yes","768","legacy","33","79","/Users/kaylaredder/Desktop/kr-subject-0.csv","legacy","Lentiform Loewenfeld","3.3.3","0","s","NA","h","s","NA","s","347","NA","579","9721","NA","347","2","legacy","1024","2","48000","-16","experiment","SSSSS","0","even","3095","147035","NA","189949","NA","203460","2506","137313","NA","2493","170260","204519","204634","204982","204506","204634","Flanker Task ","105","51201","114","yes","1024"
"92.17391304347827","92.17391304347827","449.55652173913046","449.55652173913046","black","legacy","legacy","legacy","0","congruent","uniform","1","undefined","1","h","0","0","0","114","0","114","0","0","0","0","114","114","114","114","114","114","Fri Sep 18 11:18:26 2020","600","The main experiment item","yes","FlankerTask.osexp","/Users/kaylaredder/Desktop","no","mono","no","18","no","white","no","yes","768","legacy","34","79","/Users/kaylaredder/Desktop/kr-subject-0.csv","legacy","Lentiform Loewenfeld","3.3.3","0","h","NA","h","s","NA","h","498","NA","579","9721","NA","498","2","legacy","1024","2","48000","-16","experiment","HHHHH","0","even","3095","147035","NA","189949","NA","205002","2506","137313","NA","2493","170260","206061","206175","206674","206048","206175","Flanker Task ","106","51699","115","yes","1024"
"92.24137931034483","92.24137931034483","449.36206896551727","449.36206896551727","black","legacy","legacy","legacy","0","congrunent ","uniform","1","undefined","1","s","0","0","0","115","0","115","0","0","0","0","115","115","115","115","115","115","Fri Sep 18 11:18:26 2020","600","The main experiment item","yes","FlankerTask.osexp","/Users/kaylaredder/Desktop","no","mono","no","18","no","white","no","yes","768","legacy","35","79","/Users/kaylaredder/Desktop/kr-subject-0.csv","legacy","Lentiform Loewenfeld","3.3.3","0","s","NA","h","s","NA","s","427","NA","579","9721","NA","427","2","legacy","1024","2","48000","-16","experiment","SSSSS","0","even","3095","147035","NA","189949","NA","206695","2506","137313","NA","2493","170260","207754","207869","208297","207741","207869","Flanker Task ","107","52126","116","yes","1024"
"92.3076923076923","92.3076923076923","448.36752136752136","448.36752136752136","black","legacy","legacy","legacy","0","incongruent","uniform","1","undefined","1","s","0","0","0","116","0","116","0","0","0","0","116","116","116","116","116","116","Fri Sep 18 11:18:26 2020","600","The main experiment item","yes","FlankerTask.osexp","/Users/kaylaredder/Desktop","no","mono","no","18","no","white","no","yes","768","legacy","36","79","/Users/kaylaredder/Desktop/kr-subject-0.csv","legacy","Lentiform Loewenfeld","3.3.3","0","s","NA","h","s","NA","s","333","NA","579","9721","NA","333","2","legacy","1024","2","48000","-16","experiment","HHSHH","0","even","3095","147035","NA","189949","NA","208319","2506","137313","NA","2493","170260","209378","209493","209827","209365","209493","Flanker Task ","108","52459","117","yes","1024"
"92.37288135593221","92.37288135593221","448.22033898305085","448.22033898305085","black","legacy","legacy","legacy","0","incongruent","uniform","1","undefined","1","s","0","0","0","117","0","117","0","0","0","0","117","117","117","117","117","117","Fri Sep 18 11:18:26 2020","600","The main experiment item","yes","FlankerTask.osexp","/Users/kaylaredder/Desktop","no","mono","no","18","no","white","no","yes","768","legacy","37","79","/Users/kaylaredder/Desktop/kr-subject-0.csv","legacy","Lentiform Loewenfeld","3.3.3","0","s","NA","h","s","NA","s","431","NA","579","9721","NA","431","2","legacy","1024","2","48000","-16","experiment","HHSHH","0","even","3095","147035","NA","189949","NA","209849","2506","137313","NA","2493","170260","210909","211023","211455","210896","211023","Flanker Task ","109","52890","118","yes","1024"
"92.43697478991596","92.43697478991596","447.89915966386553","447.89915966386553","black","legacy","legacy","legacy","0","incongruent","uniform","1","undefined","1","s","0","0","0","118","0","118","0","0","0","0","118","118","118","118","118","118","Fri Sep 18 11:18:26 2020","600","The main experiment item","yes","FlankerTask.osexp","/Users/kaylaredder/Desktop","no","mono","no","18","no","white","no","yes","768","legacy","38","79","/Users/kaylaredder/Desktop/kr-subject-0.csv","legacy","Lentiform Loewenfeld","3.3.3","0","s","NA","h","s","NA","s","410","NA","579","9721","NA","410","2","legacy","1024","2","48000","-16","experiment","HHSHH","0","even","3095","147035","NA","189949","NA","211476","2506","137313","NA","2493","170260","212535","212649","213060","212522","212649","Flanker Task ","110","53300","119","yes","1024"
"92.5","92.5","449.2083333333333","449.2083333333333","black","legacy","legacy","legacy","0","incongruent ","uniform","1","undefined","1","h","0","0","0","119","0","119","0","0","0","0","119","119","119","119","119","119","Fri Sep 18 11:18:26 2020","600","The main experiment item","yes","FlankerTask.osexp","/Users/kaylaredder/Desktop","no","mono","no","18","no","white","no","yes","768","legacy","39","79","/Users/kaylaredder/Desktop/kr-subject-0.csv","legacy","Lentiform Loewenfeld","3.3.3","0","h","NA","h","s","NA","h","605","NA","579","9721","NA","605","2","legacy","1024","2","48000","-16","experiment","SSHSS","0","even","3095","147035","NA","189949","NA","213081","2506","137313","NA","2493","170260","214141","214257","214863","214129","214257","Flanker Task ","111","53905","120","yes","1024"
"92.56198347107438","92.56198347107438","449.45454545454544","449.45454545454544","black","legacy","legacy","legacy","0","congruent","uniform","1","undefined","1","h","0","0","0","120","0","120","0","0","0","0","120","120","120","120","120","120","Fri Sep 18 11:18:26 2020","600","The main experiment item","yes","FlankerTask.osexp","/Users/kaylaredder/Desktop","no","mono","no","18","no","white","no","yes","768","legacy","40","79","/Users/kaylaredder/Desktop/kr-subject-0.csv","legacy","Lentiform Loewenfeld","3.3.3","0","h","NA","h","s","NA","h","479","NA","579","9721","NA","479","2","legacy","1024","2","48000","-16","experiment","HHHHH","0","even","3095","147035","NA","189949","NA","215399","2506","137313","NA","2493","214885","216457","216572","217052","216445","216572","Flanker Task ","112","54384","121","yes","1024"
"92.62295081967213","92.62295081967213","449.12295081967216","449.12295081967216","black","legacy","legacy","legacy","0","congruent","uniform","1","undefined","1","h","0","0","0","121","0","121","0","0","0","0","121","121","121","121","121","121","Fri Sep 18 11:18:26 2020","600","The main experiment item","yes","FlankerTask.osexp","/Users/kaylaredder/Desktop","no","mono","no","18","no","white","no","yes","768","legacy","41","79","/Users/kaylaredder/Desktop/kr-subject-0.csv","legacy","Lentiform Loewenfeld","3.3.3","0","h","NA","h","s","NA","h","409","NA","579","9721","NA","409","2","legacy","1024","2","48000","-16","experiment","HHHHH","0","even","3095","147035","NA","189949","NA","217077","2506","137313","NA","2493","214885","218136","218252","218663","218123","218251","Flanker Task ","113","54793","122","yes","1024"
"92.6829268292683","92.6829268292683","449.6260162601626","449.6260162601626","black","legacy","legacy","legacy","0","incongruent","uniform","1","undefined","1","s","0","0","0","122","0","122","0","0","0","0","122","122","122","122","122","122","Fri Sep 18 11:18:26 2020","600","The main experiment item","yes","FlankerTask.osexp","/Users/kaylaredder/Desktop","no","mono","no","18","no","white","no","yes","768","legacy","42","79","/Users/kaylaredder/Desktop/kr-subject-0.csv","legacy","Lentiform Loewenfeld","3.3.3","0","s","NA","h","s","NA","s","511","NA","579","9721","NA","511","2","legacy","1024","2","48000","-16","experiment","HHSHH","0","even","3095","147035","NA","189949","NA","218684","2506","137313","NA","2493","214885","219743","219858","220371","219730","219858","Flanker Task ","114","55304","123","yes","1024"
