"acc","accuracy","average_response_time","avg_rt","background","canvas_backend","clock_backend","color_backend","condition","correct","correct_instructions1","correct_keyboard_response","correct_response","count_Block1","count_Block3","count_ErrorFeedback","count_ISI","count_Instruction3","count_block2","count_experiment","count_faster","count_fixation","count_instructions1","count_instructions2","count_instructions3","count_keyboard_response","count_logger","count_new_sketchpad","count_sequence","count_stimulus","datetime","deadline","description","disable_garbage_collection","experiment_file","experiment_path","font_bold","font_family","font_italic","font_size","font_underline","foreground","form_clicks","fullscreen","height","keyboard_backend","live_row","live_row_Block1","logfile","mouse_backend","opensesame_codename","opensesame_version","repeat_cycle","response","response_Instruction3","response_faster","response_instructions1","response_instructions2","response_instructions3","response_keyboard_response","response_new_sketchpad","response_time","response_time_Instruction3","response_time_faster","response_time_instructions1","response_time_instructions2","response_time_instructions3","response_time_keyboard_response","response_time_new_sketchpad","round_decimals","sampler_backend","sound_buf_size","sound_channels","sound_freq","sound_sample_size","start","stimulus","subject_nr","subject_parity","time_Block1","time_Block3","time_ErrorFeedback","time_ISI","time_Instruction3","time_block2","time_experiment","time_faster","time_fixation","time_instructions1","time_instructions2","time_instructions3","time_keyboard_response","time_logger","time_new_sketchpad","time_sequence","time_stimulus","title","total_correct","total_response_time","total_responses","width"
"100","100","791","791","#3d3846","legacy","legacy","legacy","congruent","1","undefined","1","s","0","0","0","0","0","0","0","0","0","0","0","0","0","0","NA","0","0","Wed Sep 13 02:23:52 2023","1500","The main experiment item","True","Flanker Task Lab 2.2.osexp","C:\Users\kikip\OneDrive\Desktop","False","mono","False","18","no","white","no","yes","768","legacy","0","0","C:/Users/kikip/OneDrive/Desktop/HB-subject-3.csv","legacy","Melodramatic Milgram","4.0.5","0","s","NA","NA","s","NA","NA","s","NA","791.0","NA","NA","109650","NA","NA","791","NA","2","legacy","1024","2","48000","-16","experiment","SSSSS","3","odd","111814","NA","NA","NA","NA","NA","2158","NA","111897","2162","NA","NA","111998","112790","NA","111895","111998","Neues Experiment","1","791.0","1","1024"
"100","100","653","653","#3d3846","legacy","legacy","legacy","congruent","1","undefined","1","s","0","0","1","1","0","0","0","1","1","0","0","0","1","1","NA","1","1","Wed Sep 13 02:23:52 2023","1500","The main experiment item","True","Flanker Task Lab 2.2.osexp","C:\Users\kikip\OneDrive\Desktop","False","mono","False","18","no","white","no","yes","768","legacy","1","1","C:/Users/kikip/OneDrive/Desktop/HB-subject-3.csv","legacy","Melodramatic Milgram","4.0.5","0","s","NA","NA","s","NA","NA","s","NA","516.0","NA","NA","109650","NA","NA","516","NA","2","legacy","1024","2","48000","-16","experiment","SSSSS","3","odd","111814","NA","NA","112796","NA","NA","2158","NA","113860","2162","NA","NA","113962","114479","NA","113857","113962","Neues Experiment","2","1307.0","2","1024"
"100","100","593","593","#3d3846","legacy","legacy","legacy","congruent","1","undefined","1","s","0","0","2","2","0","0","0","2","2","0","0","0","2","2","NA","2","2","Wed Sep 13 02:23:52 2023","1500","The main experiment item","True","Flanker Task Lab 2.2.osexp","C:\Users\kikip\OneDrive\Desktop","False","mono","False","18","no","white","no","yes","768","legacy","2","2","C:/Users/kikip/OneDrive/Desktop/HB-subject-3.csv","legacy","Melodramatic Milgram","4.0.5","0","s","NA","NA","s","NA","NA","s","NA","472.0","NA","NA","109650","NA","NA","472","NA","2","legacy","1024","2","48000","-16","experiment","SSSSS","3","odd","111814","NA","NA","114483","NA","NA","2158","NA","115524","2162","NA","NA","115625","116098","NA","115522","115625","Neues Experiment","3","1779.0","3","1024"
"75","75","811","811","#3d3846","legacy","legacy","legacy","incongruent","0","undefined","0","s","0","0","3","3","0","0","0","3","3","0","0","0","3","3","NA","3","3","Wed Sep 13 02:23:52 2023","1500","The main experiment item","True","Flanker Task Lab 2.2.osexp","C:\Users\kikip\OneDrive\Desktop","False","mono","False","18","no","white","no","yes","768","legacy","3","3","C:/Users/kikip/OneDrive/Desktop/HB-subject-3.csv","legacy","Melodramatic Milgram","4.0.5","0","h","NA","NA","s","NA","NA","h","NA","1466.0","NA","NA","109650","NA","NA","1466","NA","2","legacy","1024","2","48000","-16","experiment","HHSHH","3","odd","111814","NA","NA","116105","NA","NA","2158","NA","117146","2162","NA","NA","117247","118714","NA","117144","117247","Neues Experiment","3","3245.0","4","1024"
"60","60","860","860","#3d3846","legacy","legacy","legacy","incongruent","0","undefined","0","h","0","0","4","4","0","0","0","4","4","0","0","0","4","4","NA","4","4","Wed Sep 13 02:23:52 2023","1500","The main experiment item","True","Flanker Task Lab 2.2.osexp","C:\Users\kikip\OneDrive\Desktop","False","mono","False","18","no","white","no","yes","768","legacy","4","4","C:/Users/kikip/OneDrive/Desktop/HB-subject-3.csv","legacy","Melodramatic Milgram","4.0.5","0","s","NA","NA","s","NA","NA","s","NA","1059.0","NA","NA","109650","NA","NA","1059","NA","2","legacy","1024","2","48000","-16","experiment","SSHSS","3","odd","111814","NA","118718","119219","NA","NA","2158","NA","120264","2162","NA","NA","120365","121425","NA","120262","120365","Neues Experiment","3","4304.0","5","1024"
"50","50","796","796","#3d3846","legacy","legacy","legacy","incongruent","0","undefined","0","h","0","0","5","5","0","0","0","5","5","0","0","0","5","5","NA","5","5","Wed Sep 13 02:23:52 2023","1500","The main experiment item","True","Flanker Task Lab 2.2.osexp","C:\Users\kikip\OneDrive\Desktop","False","mono","False","18","no","white","no","yes","768","legacy","5","5","C:/Users/kikip/OneDrive/Desktop/HB-subject-3.csv","legacy","Melodramatic Milgram","4.0.5","0","s","NA","NA","s","NA","NA","s","NA","475.0","NA","NA","109650","NA","NA","475","NA","2","legacy","1024","2","48000","-16","experiment","SSHSS","3","odd","111814","NA","121428","121929","NA","NA","2158","NA","122967","2162","NA","NA","123068","123544","NA","122965","123068","Neues Experiment","3","4779.0","6","1024"
"57","57","876","876","#3d3846","legacy","legacy","legacy","incongruent","1","undefined","1","s","0","0","6","6","0","0","0","6","6","0","0","0","6","6","NA","6","6","Wed Sep 13 02:23:52 2023","1500","The main experiment item","True","Flanker Task Lab 2.2.osexp","C:\Users\kikip\OneDrive\Desktop","False","mono","False","18","no","white","no","yes","768","legacy","6","6","C:/Users/kikip/OneDrive/Desktop/HB-subject-3.csv","legacy","Melodramatic Milgram","4.0.5","0","s","NA","NA","s","NA","NA","s","NA","1353.0","NA","NA","109650","NA","NA","1353","NA","2","legacy","1024","2","48000","-16","experiment","HHSHH","3","odd","111814","NA","123551","124052","NA","NA","2158","NA","125100","2162","NA","NA","125201","126555","NA","125098","125201","Neues Experiment","4","6132.0","7","1024"
"62","62","897","897","#3d3846","legacy","legacy","legacy","congruent","1","undefined","1","s","0","0","7","7","0","0","0","7","7","0","0","0","7","7","NA","7","7","Wed Sep 13 02:23:52 2023","1500","The main experiment item","True","Flanker Task Lab 2.2.osexp","C:\Users\kikip\OneDrive\Desktop","False","mono","False","18","no","white","no","yes","768","legacy","7","7","C:/Users/kikip/OneDrive/Desktop/HB-subject-3.csv","legacy","Melodramatic Milgram","4.0.5","0","s","NA","NA","s","NA","NA","s","NA","1048.0","NA","NA","109650","NA","NA","1048","NA","2","legacy","1024","2","48000","-16","experiment","SSSSS","3","odd","111814","NA","123551","126558","NA","NA","2158","NA","127606","2162","NA","NA","127707","128755","NA","127604","127707","Neues Experiment","5","7180.0","8","1024"
"55","55","863","863","#3d3846","legacy","legacy","legacy","incongruent","0","undefined","0","h","0","0","8","8","0","0","0","8","8","0","0","0","8","8","NA","8","8","Wed Sep 13 02:23:52 2023","1500","The main experiment item","True","Flanker Task Lab 2.2.osexp","C:\Users\kikip\OneDrive\Desktop","False","mono","False","18","no","white","no","yes","768","legacy","8","8","C:/Users/kikip/OneDrive/Desktop/HB-subject-3.csv","legacy","Melodramatic Milgram","4.0.5","0","s","NA","NA","s","NA","NA","s","NA","592.0","NA","NA","109650","NA","NA","592","NA","2","legacy","1024","2","48000","-16","experiment","SSHSS","3","odd","111814","NA","123551","128761","NA","NA","2158","NA","129800","2162","NA","NA","129902","130495","NA","129799","129902","Neues Experiment","5","7772.0","9","1024"
"60","60","842","842","#3d3846","legacy","legacy","legacy","congruent","1","undefined","1","s","0","0","9","9","0","0","0","9","9","0","0","0","9","9","NA","9","9","Wed Sep 13 02:23:52 2023","1500","The main experiment item","True","Flanker Task Lab 2.2.osexp","C:\Users\kikip\OneDrive\Desktop","False","mono","False","18","no","white","no","yes","768","legacy","9","9","C:/Users/kikip/OneDrive/Desktop/HB-subject-3.csv","legacy","Melodramatic Milgram","4.0.5","0","s","NA","NA","s","NA","NA","s","NA","656.0","NA","NA","109650","NA","NA","656","NA","2","legacy","1024","2","48000","-16","experiment","SSSSS","3","odd","111814","NA","130502","131003","NA","NA","2158","NA","132053","2162","NA","NA","132154","132811","NA","132051","132154","Neues Experiment","6","8428.0","10","1024"
"63","63","825","825","#3d3846","legacy","legacy","legacy","coongruent","1","undefined","1","h","0","0","10","10","0","0","0","10","10","0","0","0","10","10","NA","10","10","Wed Sep 13 02:23:52 2023","1500","The main experiment item","True","Flanker Task Lab 2.2.osexp","C:\Users\kikip\OneDrive\Desktop","False","mono","False","18","no","white","no","yes","768","legacy","10","10","C:/Users/kikip/OneDrive/Desktop/HB-subject-3.csv","legacy","Melodramatic Milgram","4.0.5","0","h","NA","NA","s","NA","NA","h","NA","657.0","NA","NA","109650","NA","NA","657","NA","2","legacy","1024","2","48000","-16","experiment","HHHHH","3","odd","111814","NA","130502","132814","NA","NA","2158","NA","133862","2162","NA","NA","133963","134621","NA","133860","133963","Neues Experiment","7","9085.0","11","1024"
"66","66","802","802","#3d3846","legacy","legacy","legacy","congruent","1","undefined","1","s","0","0","11","11","0","0","0","11","11","0","0","0","11","11","NA","11","11","Wed Sep 13 02:23:52 2023","1500","The main experiment item","True","Flanker Task Lab 2.2.osexp","C:\Users\kikip\OneDrive\Desktop","False","mono","False","18","no","white","no","yes","768","legacy","11","11","C:/Users/kikip/OneDrive/Desktop/HB-subject-3.csv","legacy","Melodramatic Milgram","4.0.5","0","s","NA","NA","s","NA","NA","s","NA","544.0","NA","NA","109650","NA","NA","544","NA","2","legacy","1024","2","48000","-16","experiment","SSSSS","3","odd","111814","NA","130502","134624","NA","NA","2158","NA","135663","2162","NA","NA","135765","136310","NA","135662","135765","Neues Experiment","8","9629.0","12","1024"
"69","69","788","788","#3d3846","legacy","legacy","legacy","coongruent","1","undefined","1","h","0","0","12","12","0","0","0","12","12","0","0","0","12","12","NA","12","12","Wed Sep 13 02:23:52 2023","1500","The main experiment item","True","Flanker Task Lab 2.2.osexp","C:\Users\kikip\OneDrive\Desktop","False","mono","False","18","no","white","no","yes","768","legacy","12","12","C:/Users/kikip/OneDrive/Desktop/HB-subject-3.csv","legacy","Melodramatic Milgram","4.0.5","0","h","NA","NA","s","NA","NA","h","NA","624.0","NA","NA","109650","NA","NA","624","NA","2","legacy","1024","2","48000","-16","experiment","HHHHH","3","odd","111814","NA","130502","136313","NA","NA","2158","NA","137351","2162","NA","NA","137452","138077","NA","137349","137452","Neues Experiment","9","10253.0","13","1024"
"71","71","795","795","#3d3846","legacy","legacy","legacy","incongruent","1","undefined","1","s","0","0","13","13","0","0","0","13","13","0","0","0","13","13","NA","13","13","Wed Sep 13 02:23:52 2023","1500","The main experiment item","True","Flanker Task Lab 2.2.osexp","C:\Users\kikip\OneDrive\Desktop","False","mono","False","18","no","white","no","yes","768","legacy","13","13","C:/Users/kikip/OneDrive/Desktop/HB-subject-3.csv","legacy","Melodramatic Milgram","4.0.5","0","s","NA","NA","s","NA","NA","s","NA","880.0","NA","NA","109650","NA","NA","880","NA","2","legacy","1024","2","48000","-16","experiment","HHSHH","3","odd","111814","NA","130502","138079","NA","NA","2158","NA","139124","2162","NA","NA","139225","140105","NA","139122","139225","Neues Experiment","10","11133.0","14","1024"
"73","73","775","775","#3d3846","legacy","legacy","legacy","incongruent","1","undefined","1","h","0","0","14","14","0","0","0","14","14","0","0","0","14","14","NA","14","14","Wed Sep 13 02:23:52 2023","1500","The main experiment item","True","Flanker Task Lab 2.2.osexp","C:\Users\kikip\OneDrive\Desktop","False","mono","False","18","no","white","no","yes","768","legacy","14","14","C:/Users/kikip/OneDrive/Desktop/HB-subject-3.csv","legacy","Melodramatic Milgram","4.0.5","0","h","NA","NA","s","NA","NA","h","NA","498.0","NA","NA","109650","NA","NA","498","NA","2","legacy","1024","2","48000","-16","experiment","SSHSS","3","odd","111814","NA","130502","140112","NA","NA","2158","NA","141157","2162","NA","NA","141258","141756","NA","141155","141258","Neues Experiment","11","11631.0","15","1024"
"75","75","761","761","#3d3846","legacy","legacy","legacy","congruent","1","undefined","1","s","0","0","15","15","0","0","0","15","15","0","0","0","15","15","NA","15","15","Wed Sep 13 02:23:52 2023","1500","The main experiment item","True","Flanker Task Lab 2.2.osexp","C:\Users\kikip\OneDrive\Desktop","False","mono","False","18","no","white","no","yes","768","legacy","15","15","C:/Users/kikip/OneDrive/Desktop/HB-subject-3.csv","legacy","Melodramatic Milgram","4.0.5","0","s","NA","NA","s","NA","NA","s","NA","560.0","NA","NA","109650","NA","NA","560","NA","2","legacy","1024","2","48000","-16","experiment","SSSSS","3","odd","111814","NA","130502","141759","NA","NA","2158","NA","142809","2162","NA","NA","142910","143471","NA","142807","142910","Neues Experiment","12","12191.0","16","1024"
"76","76","754","754","#3d3846","legacy","legacy","legacy","incongruent","1","undefined","1","h","0","0","16","16","0","0","0","16","16","0","0","0","16","16","NA","16","16","Wed Sep 13 02:23:52 2023","1500","The main experiment item","True","Flanker Task Lab 2.2.osexp","C:\Users\kikip\OneDrive\Desktop","False","mono","False","18","no","white","no","yes","768","legacy","16","16","C:/Users/kikip/OneDrive/Desktop/HB-subject-3.csv","legacy","Melodramatic Milgram","4.0.5","0","h","NA","NA","s","NA","NA","h","NA","638.0","NA","NA","109650","NA","NA","638","NA","2","legacy","1024","2","48000","-16","experiment","SSHSS","3","odd","111814","NA","130502","143474","NA","NA","2158","NA","144517","2162","NA","NA","144619","145257","NA","144516","144619","Neues Experiment","13","12829.0","17","1024"
"77","77","744","744","#3d3846","legacy","legacy","legacy","incongruent","1","undefined","1","s","0","0","17","17","0","0","0","17","17","0","0","0","17","17","NA","17","17","Wed Sep 13 02:23:52 2023","1500","The main experiment item","True","Flanker Task Lab 2.2.osexp","C:\Users\kikip\OneDrive\Desktop","False","mono","False","18","no","white","no","yes","768","legacy","17","17","C:/Users/kikip/OneDrive/Desktop/HB-subject-3.csv","legacy","Melodramatic Milgram","4.0.5","0","s","NA","NA","s","NA","NA","s","NA","577.0","NA","NA","109650","NA","NA","577","NA","2","legacy","1024","2","48000","-16","experiment","HHSHH","3","odd","111814","NA","130502","145261","NA","NA","2158","NA","146298","2162","NA","NA","146399","146977","NA","146296","146399","Neues Experiment","14","13406.0","18","1024"
"78","78","730","730","#3d3846","legacy","legacy","legacy","incongruent","1","undefined","1","h","0","0","18","18","0","0","0","18","18","0","0","0","18","18","NA","18","18","Wed Sep 13 02:23:52 2023","1500","The main experiment item","True","Flanker Task Lab 2.2.osexp","C:\Users\kikip\OneDrive\Desktop","False","mono","False","18","no","white","no","yes","768","legacy","18","18","C:/Users/kikip/OneDrive/Desktop/HB-subject-3.csv","legacy","Melodramatic Milgram","4.0.5","0","h","NA","NA","s","NA","NA","h","NA","477.0","NA","NA","109650","NA","NA","477","NA","2","legacy","1024","2","48000","-16","experiment","SSHSS","3","odd","111814","NA","130502","146981","NA","NA","2158","NA","148028","2162","NA","NA","148129","148606","NA","148026","148129","Neues Experiment","15","13883.0","19","1024"
"80","80","712","712","#3d3846","legacy","legacy","legacy","congruent","1","undefined","1","s","0","0","19","19","0","0","0","19","19","0","0","0","19","19","NA","19","19","Wed Sep 13 02:23:52 2023","1500","The main experiment item","True","Flanker Task Lab 2.2.osexp","C:\Users\kikip\OneDrive\Desktop","False","mono","False","18","no","white","no","yes","768","legacy","19","19","C:/Users/kikip/OneDrive/Desktop/HB-subject-3.csv","legacy","Melodramatic Milgram","4.0.5","0","s","NA","NA","s","NA","NA","s","NA","369.0","NA","NA","109650","NA","NA","369","NA","2","legacy","1024","2","48000","-16","experiment","SSSSS","3","odd","111814","NA","130502","148609","NA","NA","2158","NA","149657","2162","NA","NA","149758","150127","NA","149655","149758","Neues Experiment","16","14252.0","20","1024"
"80","80","701","701","#3d3846","legacy","legacy","legacy","coongruent","1","undefined","1","h","0","0","20","20","0","0","0","20","20","0","0","0","20","20","NA","20","20","Wed Sep 13 02:23:52 2023","1500","The main experiment item","True","Flanker Task Lab 2.2.osexp","C:\Users\kikip\OneDrive\Desktop","False","mono","False","18","no","white","no","yes","768","legacy","20","20","C:/Users/kikip/OneDrive/Desktop/HB-subject-3.csv","legacy","Melodramatic Milgram","4.0.5","0","h","NA","NA","s","NA","NA","h","NA","489.0","NA","NA","109650","NA","NA","489","NA","2","legacy","1024","2","48000","-16","experiment","HHHHH","3","odd","111814","NA","130502","150131","NA","NA","2158","NA","151182","2162","NA","NA","151283","151773","NA","151180","151283","Neues Experiment","17","14741.0","21","1024"
"81","81","695","695","#3d3846","legacy","legacy","legacy","incongruent","1","undefined","1","h","0","0","21","21","0","0","0","21","21","0","0","0","21","21","NA","21","21","Wed Sep 13 02:23:52 2023","1500","The main experiment item","True","Flanker Task Lab 2.2.osexp","C:\Users\kikip\OneDrive\Desktop","False","mono","False","18","no","white","no","yes","768","legacy","21","21","C:/Users/kikip/OneDrive/Desktop/HB-subject-3.csv","legacy","Melodramatic Milgram","4.0.5","0","h","NA","NA","s","NA","NA","h","NA","554.0","NA","NA","109650","NA","NA","554","NA","2","legacy","1024","2","48000","-16","experiment","SSHSS","3","odd","111814","NA","130502","151779","NA","NA","2158","NA","152831","2162","NA","NA","152932","153487","NA","152829","152932","Neues Experiment","18","15295.0","22","1024"
"82","82","691","691","#3d3846","legacy","legacy","legacy","incongruent","1","undefined","1","h","0","0","22","22","0","0","0","22","22","0","0","0","22","22","NA","22","22","Wed Sep 13 02:23:52 2023","1500","The main experiment item","True","Flanker Task Lab 2.2.osexp","C:\Users\kikip\OneDrive\Desktop","False","mono","False","18","no","white","no","yes","768","legacy","22","22","C:/Users/kikip/OneDrive/Desktop/HB-subject-3.csv","legacy","Melodramatic Milgram","4.0.5","0","h","NA","NA","s","NA","NA","h","NA","601.0","NA","NA","109650","NA","NA","601","NA","2","legacy","1024","2","48000","-16","experiment","SSHSS","3","odd","111814","NA","130502","153493","NA","NA","2158","NA","154534","2162","NA","NA","154635","155237","NA","154532","154635","Neues Experiment","19","15896.0","23","1024"
"83","83","695","695","#3d3846","legacy","legacy","legacy","incongruent","1","undefined","1","h","0","0","23","23","0","0","0","23","23","0","0","0","23","23","NA","23","23","Wed Sep 13 02:23:52 2023","1500","The main experiment item","True","Flanker Task Lab 2.2.osexp","C:\Users\kikip\OneDrive\Desktop","False","mono","False","18","no","white","no","yes","768","legacy","23","23","C:/Users/kikip/OneDrive/Desktop/HB-subject-3.csv","legacy","Melodramatic Milgram","4.0.5","0","h","NA","NA","s","NA","NA","h","NA","800.0","NA","NA","109650","NA","NA","800","NA","2","legacy","1024","2","48000","-16","experiment","SSHSS","3","odd","111814","NA","130502","155240","NA","NA","2158","NA","156284","2162","NA","NA","156386","157187","NA","156283","156386","Neues Experiment","20","16696.0","24","1024"
"84","84","687","687","#3d3846","legacy","legacy","legacy","congruent","1","undefined","1","s","0","0","24","24","0","0","0","24","24","0","0","0","24","24","NA","24","24","Wed Sep 13 02:23:52 2023","1500","The main experiment item","True","Flanker Task Lab 2.2.osexp","C:\Users\kikip\OneDrive\Desktop","False","mono","False","18","no","white","no","yes","768","legacy","24","24","C:/Users/kikip/OneDrive/Desktop/HB-subject-3.csv","legacy","Melodramatic Milgram","4.0.5","0","s","NA","NA","s","NA","NA","s","NA","484.0","NA","NA","109650","NA","NA","484","NA","2","legacy","1024","2","48000","-16","experiment","SSSSS","3","odd","111814","NA","130502","157190","NA","NA","2158","NA","158247","2162","NA","NA","158348","158833","NA","158245","158348","Neues Experiment","21","17180.0","25","1024"
"84","84","685","685","#3d3846","legacy","legacy","legacy","coongruent","1","undefined","1","h","0","0","25","25","0","0","0","25","25","0","0","0","25","25","NA","25","25","Wed Sep 13 02:23:52 2023","1500","The main experiment item","True","Flanker Task Lab 2.2.osexp","C:\Users\kikip\OneDrive\Desktop","False","mono","False","18","no","white","no","yes","768","legacy","25","25","C:/Users/kikip/OneDrive/Desktop/HB-subject-3.csv","legacy","Melodramatic Milgram","4.0.5","0","h","NA","NA","s","NA","NA","h","NA","647.0","NA","NA","109650","NA","NA","647","NA","2","legacy","1024","2","48000","-16","experiment","HHHHH","3","odd","111814","NA","130502","158836","NA","NA","2158","NA","159959","2162","NA","NA","160060","160707","NA","159958","160060","Neues Experiment","22","17827.0","26","1024"
"85","85","678","678","#3d3846","legacy","legacy","legacy","coongruent","1","undefined","1","h","0","0","26","26","0","0","0","26","26","0","0","0","26","26","NA","26","26","Wed Sep 13 02:23:52 2023","1500","The main experiment item","True","Flanker Task Lab 2.2.osexp","C:\Users\kikip\OneDrive\Desktop","False","mono","False","18","no","white","no","yes","768","legacy","26","26","C:/Users/kikip/OneDrive/Desktop/HB-subject-3.csv","legacy","Melodramatic Milgram","4.0.5","0","h","NA","NA","s","NA","NA","h","NA","502.0","NA","NA","109650","NA","NA","502","NA","2","legacy","1024","2","48000","-16","experiment","HHHHH","3","odd","111814","NA","130502","160710","NA","NA","2158","NA","161755","2162","NA","NA","161856","162365","NA","161754","161856","Neues Experiment","23","18329.0","27","1024"
"85","85","670","670","#3d3846","legacy","legacy","legacy","coongruent","1","undefined","1","h","0","0","27","27","0","0","0","27","27","0","0","0","27","27","NA","27","27","Wed Sep 13 02:23:52 2023","1500","The main experiment item","True","Flanker Task Lab 2.2.osexp","C:\Users\kikip\OneDrive\Desktop","False","mono","False","18","no","white","no","yes","768","legacy","27","27","C:/Users/kikip/OneDrive/Desktop/HB-subject-3.csv","legacy","Melodramatic Milgram","4.0.5","0","h","NA","NA","s","NA","NA","h","NA","436.0","NA","NA","109650","NA","NA","436","NA","2","legacy","1024","2","48000","-16","experiment","HHHHH","3","odd","111814","NA","130502","162377","NA","NA","2158","NA","163430","2162","NA","NA","163531","163968","NA","163428","163531","Neues Experiment","24","18765.0","28","1024"
"86","86","665","665","#3d3846","legacy","legacy","legacy","incongruent","1","undefined","1","h","0","0","28","28","0","0","0","28","28","0","0","0","28","28","NA","28","28","Wed Sep 13 02:23:52 2023","1500","The main experiment item","True","Flanker Task Lab 2.2.osexp","C:\Users\kikip\OneDrive\Desktop","False","mono","False","18","no","white","no","yes","768","legacy","28","28","C:/Users/kikip/OneDrive/Desktop/HB-subject-3.csv","legacy","Melodramatic Milgram","4.0.5","0","h","NA","NA","s","NA","NA","h","NA","535.0","NA","NA","109650","NA","NA","535","NA","2","legacy","1024","2","48000","-16","experiment","SSHSS","3","odd","111814","NA","130502","163974","NA","NA","2158","NA","165026","2162","NA","NA","165127","165663","NA","165023","165127","Neues Experiment","25","19300.0","29","1024"
"83","83","662","662","#3d3846","legacy","legacy","legacy","incongruent","0","undefined","0","s","0","0","29","29","0","0","0","29","29","0","0","0","29","29","NA","29","29","Wed Sep 13 02:23:52 2023","1500","The main experiment item","True","Flanker Task Lab 2.2.osexp","C:\Users\kikip\OneDrive\Desktop","False","mono","False","18","no","white","no","yes","768","legacy","29","29","C:/Users/kikip/OneDrive/Desktop/HB-subject-3.csv","legacy","Melodramatic Milgram","4.0.5","0","h","NA","NA","s","NA","NA","h","NA","562.0","NA","NA","109650","NA","NA","562","NA","2","legacy","1024","2","48000","-16","experiment","HHSHH","3","odd","111814","NA","130502","165669","NA","NA","2158","NA","166710","2162","NA","NA","166811","167374","NA","166709","166811","Neues Experiment","25","19862.0","30","1024"
"83","83","658","658","#3d3846","legacy","legacy","legacy","incongruent","1","undefined","1","s","0","0","30","30","0","0","0","30","30","0","0","0","30","30","NA","30","30","Wed Sep 13 02:23:52 2023","1500","The main experiment item","True","Flanker Task Lab 2.2.osexp","C:\Users\kikip\OneDrive\Desktop","False","mono","False","18","no","white","no","yes","768","legacy","30","30","C:/Users/kikip/OneDrive/Desktop/HB-subject-3.csv","legacy","Melodramatic Milgram","4.0.5","0","s","NA","NA","s","NA","NA","s","NA","538.0","NA","NA","109650","NA","NA","538","NA","2","legacy","1024","2","48000","-16","experiment","HHSHH","3","odd","111814","NA","167377","167878","NA","NA","2158","NA","168914","2162","NA","NA","169015","169553","NA","168912","169015","Neues Experiment","26","20400.0","31","1024"
"84","84","652","652","#3d3846","legacy","legacy","legacy","congruent","1","undefined","1","s","0","0","31","31","0","0","0","31","31","0","0","0","31","31","NA","31","31","Wed Sep 13 02:23:52 2023","1500","The main experiment item","True","Flanker Task Lab 2.2.osexp","C:\Users\kikip\OneDrive\Desktop","False","mono","False","18","no","white","no","yes","768","legacy","31","31","C:/Users/kikip/OneDrive/Desktop/HB-subject-3.csv","legacy","Melodramatic Milgram","4.0.5","0","s","NA","NA","s","NA","NA","s","NA","491.0","NA","NA","109650","NA","NA","491","NA","2","legacy","1024","2","48000","-16","experiment","SSSSS","3","odd","111814","NA","167377","169559","NA","NA","2158","NA","170606","2162","NA","NA","170707","171200","NA","170604","170707","Neues Experiment","27","20891.0","32","1024"
"84","84","648","648","#3d3846","legacy","legacy","legacy","coongruent","1","undefined","1","h","0","0","32","32","0","0","0","32","32","0","0","0","32","32","NA","32","32","Wed Sep 13 02:23:52 2023","1500","The main experiment item","True","Flanker Task Lab 2.2.osexp","C:\Users\kikip\OneDrive\Desktop","False","mono","False","18","no","white","no","yes","768","legacy","32","32","C:/Users/kikip/OneDrive/Desktop/HB-subject-3.csv","legacy","Melodramatic Milgram","4.0.5","0","h","NA","NA","s","NA","NA","h","NA","512.0","NA","NA","109650","NA","NA","512","NA","2","legacy","1024","2","48000","-16","experiment","HHHHH","3","odd","111814","NA","167377","171207","NA","NA","2158","NA","172250","2162","NA","NA","172351","172864","NA","172249","172351","Neues Experiment","28","21403.0","33","1024"
"85","85","647","647","#3d3846","legacy","legacy","legacy","coongruent","1","undefined","1","h","0","0","33","33","0","0","0","33","33","0","0","0","33","33","NA","33","33","Wed Sep 13 02:23:52 2023","1500","The main experiment item","True","Flanker Task Lab 2.2.osexp","C:\Users\kikip\OneDrive\Desktop","False","mono","False","18","no","white","no","yes","768","legacy","33","33","C:/Users/kikip/OneDrive/Desktop/HB-subject-3.csv","legacy","Melodramatic Milgram","4.0.5","0","h","NA","NA","s","NA","NA","h","NA","599.0","NA","NA","109650","NA","NA","599","NA","2","legacy","1024","2","48000","-16","experiment","HHHHH","3","odd","111814","NA","167377","172871","NA","NA","2158","NA","173924","2162","NA","NA","174025","174625","NA","173922","174025","Neues Experiment","29","22002.0","34","1024"
"85","85","642","642","#3d3846","legacy","legacy","legacy","congruent","1","undefined","1","s","0","0","34","34","0","0","0","34","34","0","0","0","34","34","NA","34","34","Wed Sep 13 02:23:52 2023","1500","The main experiment item","True","Flanker Task Lab 2.2.osexp","C:\Users\kikip\OneDrive\Desktop","False","mono","False","18","no","white","no","yes","768","legacy","34","34","C:/Users/kikip/OneDrive/Desktop/HB-subject-3.csv","legacy","Melodramatic Milgram","4.0.5","0","s","NA","NA","s","NA","NA","s","NA","498.0","NA","NA","109650","NA","NA","498","NA","2","legacy","1024","2","48000","-16","experiment","SSSSS","3","odd","111814","NA","167377","174628","NA","NA","2158","NA","175679","2162","NA","NA","175780","176279","NA","175677","175780","Neues Experiment","30","22500.0","35","1024"
"86","86","636","636","#3d3846","legacy","legacy","legacy","congruent","1","undefined","1","s","0","0","35","35","0","0","0","35","35","0","0","0","35","35","NA","35","35","Wed Sep 13 02:23:52 2023","1500","The main experiment item","True","Flanker Task Lab 2.2.osexp","C:\Users\kikip\OneDrive\Desktop","False","mono","False","18","no","white","no","yes","768","legacy","35","35","C:/Users/kikip/OneDrive/Desktop/HB-subject-3.csv","legacy","Melodramatic Milgram","4.0.5","0","s","NA","NA","s","NA","NA","s","NA","428.0","NA","NA","109650","NA","NA","428","NA","2","legacy","1024","2","48000","-16","experiment","SSSSS","3","odd","111814","NA","167377","176283","NA","NA","2158","NA","177330","2162","NA","NA","177431","177859","NA","177328","177431","Neues Experiment","31","22928.0","36","1024"
"86","86","634","634","#3d3846","legacy","legacy","legacy","incongruent","1","undefined","1","s","0","0","36","36","0","0","0","36","36","0","0","0","36","36","NA","36","36","Wed Sep 13 02:23:52 2023","1500","The main experiment item","True","Flanker Task Lab 2.2.osexp","C:\Users\kikip\OneDrive\Desktop","False","mono","False","18","no","white","no","yes","768","legacy","36","36","C:/Users/kikip/OneDrive/Desktop/HB-subject-3.csv","legacy","Melodramatic Milgram","4.0.5","0","s","NA","NA","s","NA","NA","s","NA","561.0","NA","NA","109650","NA","NA","561","NA","2","legacy","1024","2","48000","-16","experiment","HHSHH","3","odd","111814","NA","167377","177866","NA","NA","2158","NA","178942","2162","NA","NA","179043","179605","NA","178939","179043","Neues Experiment","32","23489.0","37","1024"
"86","86","632","632","#3d3846","legacy","legacy","legacy","congruent","1","undefined","1","s","0","0","37","37","0","0","0","37","37","0","0","0","37","37","NA","37","37","Wed Sep 13 02:23:52 2023","1500","The main experiment item","True","Flanker Task Lab 2.2.osexp","C:\Users\kikip\OneDrive\Desktop","False","mono","False","18","no","white","no","yes","768","legacy","37","37","C:/Users/kikip/OneDrive/Desktop/HB-subject-3.csv","legacy","Melodramatic Milgram","4.0.5","0","s","NA","NA","s","NA","NA","s","NA","549.0","NA","NA","109650","NA","NA","549","NA","2","legacy","1024","2","48000","-16","experiment","SSSSS","3","odd","111814","NA","167377","179608","NA","NA","2158","NA","180649","2162","NA","NA","180750","181300","NA","180647","180750","Neues Experiment","33","24038.0","38","1024"
"87","87","627","627","#3d3846","legacy","legacy","legacy","congruent","1","undefined","1","s","0","0","38","38","0","0","0","38","38","0","0","0","38","38","NA","38","38","Wed Sep 13 02:23:52 2023","1500","The main experiment item","True","Flanker Task Lab 2.2.osexp","C:\Users\kikip\OneDrive\Desktop","False","mono","False","18","no","white","no","yes","768","legacy","38","38","C:/Users/kikip/OneDrive/Desktop/HB-subject-3.csv","legacy","Melodramatic Milgram","4.0.5","0","s","NA","NA","s","NA","NA","s","NA","417.0","NA","NA","109650","NA","NA","417","NA","2","legacy","1024","2","48000","-16","experiment","SSSSS","3","odd","111814","NA","167377","181303","NA","NA","2158","NA","182346","2162","NA","NA","182447","182866","NA","182344","182447","Neues Experiment","34","24455.0","39","1024"
"87","87","626","626","#3d3846","legacy","legacy","legacy","incongruent","1","undefined","1","s","0","0","39","39","0","0","0","39","39","0","0","0","39","39","NA","39","39","Wed Sep 13 02:23:52 2023","1500","The main experiment item","True","Flanker Task Lab 2.2.osexp","C:\Users\kikip\OneDrive\Desktop","False","mono","False","18","no","white","no","yes","768","legacy","39","39","C:/Users/kikip/OneDrive/Desktop/HB-subject-3.csv","legacy","Melodramatic Milgram","4.0.5","0","s","NA","NA","s","NA","NA","s","NA","617.0","NA","NA","109650","NA","NA","617","NA","2","legacy","1024","2","48000","-16","experiment","HHSHH","3","odd","111814","NA","167377","182870","NA","NA","2158","NA","183931","2162","NA","NA","184032","184650","NA","183929","184032","Neues Experiment","35","25072.0","40","1024"
"87","87","629","629","#3d3846","legacy","legacy","legacy","incongruent","1","undefined","1","h","0","0","40","40","0","0","0","40","40","0","0","0","40","40","NA","40","40","Wed Sep 13 02:23:52 2023","1500","The main experiment item","True","Flanker Task Lab 2.2.osexp","C:\Users\kikip\OneDrive\Desktop","False","mono","False","18","no","white","no","yes","768","legacy","40","40","C:/Users/kikip/OneDrive/Desktop/HB-subject-3.csv","legacy","Melodramatic Milgram","4.0.5","0","h","NA","NA","s","NA","NA","h","NA","741.0","NA","NA","109650","NA","NA","741","NA","2","legacy","1024","2","48000","-16","experiment","SSHSS","3","odd","111814","NA","167377","184656","NA","NA","2158","NA","185698","2162","NA","NA","185799","186541","NA","185696","185799","Neues Experiment","36","25813.0","41","1024"
"88","88","628","628","#3d3846","legacy","legacy","legacy","incongruent","1","undefined","1","h","0","0","41","41","0","0","0","41","41","0","0","0","41","41","NA","41","41","Wed Sep 13 02:23:52 2023","1500","The main experiment item","True","Flanker Task Lab 2.2.osexp","C:\Users\kikip\OneDrive\Desktop","False","mono","False","18","no","white","no","yes","768","legacy","41","41","C:/Users/kikip/OneDrive/Desktop/HB-subject-3.csv","legacy","Melodramatic Milgram","4.0.5","0","h","NA","NA","s","NA","NA","h","NA","590.0","NA","NA","109650","NA","NA","590","NA","2","legacy","1024","2","48000","-16","experiment","SSHSS","3","odd","111814","NA","167377","186544","NA","NA","2158","NA","187605","2162","NA","NA","187706","188297","NA","187603","187706","Neues Experiment","37","26403.0","42","1024"
"88","88","629","629","#3d3846","legacy","legacy","legacy","incongruent","1","undefined","1","h","0","0","42","42","0","0","0","42","42","0","0","0","42","42","NA","42","42","Wed Sep 13 02:23:52 2023","1500","The main experiment item","True","Flanker Task Lab 2.2.osexp","C:\Users\kikip\OneDrive\Desktop","False","mono","False","18","no","white","no","yes","768","legacy","42","42","C:/Users/kikip/OneDrive/Desktop/HB-subject-3.csv","legacy","Melodramatic Milgram","4.0.5","0","h","NA","NA","s","NA","NA","h","NA","676.0","NA","NA","109650","NA","NA","676","NA","2","legacy","1024","2","48000","-16","experiment","SSHSS","3","odd","111814","NA","167377","188300","NA","NA","2158","NA","189363","2162","NA","NA","189464","190142","NA","189361","189464","Neues Experiment","38","27079.0","43","1024"
"88","88","629","629","#3d3846","legacy","legacy","legacy","congruent","1","undefined","1","s","0","0","43","43","0","0","0","43","43","0","0","0","43","43","NA","43","43","Wed Sep 13 02:23:52 2023","1500","The main experiment item","True","Flanker Task Lab 2.2.osexp","C:\Users\kikip\OneDrive\Desktop","False","mono","False","18","no","white","no","yes","768","legacy","43","43","C:/Users/kikip/OneDrive/Desktop/HB-subject-3.csv","legacy","Melodramatic Milgram","4.0.5","0","s","NA","NA","s","NA","NA","s","NA","616.0","NA","NA","109650","NA","NA","616","NA","2","legacy","1024","2","48000","-16","experiment","SSSSS","3","odd","111814","NA","167377","190145","NA","NA","2158","NA","191214","2162","NA","NA","191315","191932","NA","191212","191315","Neues Experiment","39","27695.0","44","1024"
"88","88","627","627","#3d3846","legacy","legacy","legacy","coongruent","1","undefined","1","h","0","0","44","44","0","0","0","44","44","0","0","0","44","44","NA","44","44","Wed Sep 13 02:23:52 2023","1500","The main experiment item","True","Flanker Task Lab 2.2.osexp","C:\Users\kikip\OneDrive\Desktop","False","mono","False","18","no","white","no","yes","768","legacy","44","44","C:/Users/kikip/OneDrive/Desktop/HB-subject-3.csv","legacy","Melodramatic Milgram","4.0.5","0","h","NA","NA","s","NA","NA","h","NA","541.0","NA","NA","109650","NA","NA","541","NA","2","legacy","1024","2","48000","-16","experiment","HHHHH","3","odd","111814","NA","167377","191938","NA","NA","2158","NA","192979","2162","NA","NA","193080","193635","NA","192977","193080","Neues Experiment","40","28236.0","45","1024"
"89","89","628","628","#3d3846","legacy","legacy","legacy","incongruent","1","undefined","1","s","0","0","45","45","0","0","0","45","45","0","0","0","45","45","NA","45","45","Wed Sep 13 02:23:52 2023","1500","The main experiment item","True","Flanker Task Lab 2.2.osexp","C:\Users\kikip\OneDrive\Desktop","False","mono","False","18","no","white","no","yes","768","legacy","45","45","C:/Users/kikip/OneDrive/Desktop/HB-subject-3.csv","legacy","Melodramatic Milgram","4.0.5","0","s","NA","NA","s","NA","NA","s","NA","691.0","NA","NA","109650","NA","NA","691","NA","2","legacy","1024","2","48000","-16","experiment","HHSHH","3","odd","111814","NA","167377","193648","NA","NA","2158","NA","194699","2162","NA","NA","194800","195492","NA","194698","194800","Neues Experiment","41","28927.0","46","1024"
"89","89","629","629","#3d3846","legacy","legacy","legacy","incongruent","1","undefined","1","h","0","0","46","46","0","0","0","46","46","0","0","0","46","46","NA","46","46","Wed Sep 13 02:23:52 2023","1500","The main experiment item","True","Flanker Task Lab 2.2.osexp","C:\Users\kikip\OneDrive\Desktop","False","mono","False","18","no","white","no","yes","768","legacy","46","46","C:/Users/kikip/OneDrive/Desktop/HB-subject-3.csv","legacy","Melodramatic Milgram","4.0.5","0","h","NA","NA","s","NA","NA","h","NA","649.0","NA","NA","109650","NA","NA","649","NA","2","legacy","1024","2","48000","-16","experiment","SSHSS","3","odd","111814","NA","167377","195503","NA","NA","2158","NA","196546","2162","NA","NA","196647","197297","NA","196544","196647","Neues Experiment","42","29576.0","47","1024"
"87","87","647","647","#3d3846","legacy","legacy","legacy","incongruent","0","undefined","0","s","0","0","47","47","0","0","0","47","47","0","0","0","47","47","NA","47","47","Wed Sep 13 02:23:52 2023","1500","The main experiment item","True","Flanker Task Lab 2.2.osexp","C:\Users\kikip\OneDrive\Desktop","False","mono","False","18","no","white","no","yes","768","legacy","47","47","C:/Users/kikip/OneDrive/Desktop/HB-subject-3.csv","legacy","Melodramatic Milgram","4.0.5","0","None","NA","NA","s","NA","NA","None","NA","1500.0","NA","NA","109650","NA","NA","1500","NA","2","legacy","1024","2","48000","-16","experiment","HHSHH","3","odd","111814","NA","167377","197307","NA","NA","2158","NA","198350","2162","NA","NA","198451","199952","NA","198348","198451","Neues Experiment","42","31076.0","48","1024"
"87","87","648","648","#3d3846","legacy","legacy","legacy","coongruent","1","undefined","1","h","0","0","48","48","0","0","0","48","48","0","0","0","48","48","NA","48","48","Wed Sep 13 02:23:52 2023","1500","The main experiment item","True","Flanker Task Lab 2.2.osexp","C:\Users\kikip\OneDrive\Desktop","False","mono","False","18","no","white","no","yes","768","legacy","48","48","C:/Users/kikip/OneDrive/Desktop/HB-subject-3.csv","legacy","Melodramatic Milgram","4.0.5","0","h","NA","NA","s","NA","NA","h","NA","696.0","NA","NA","109650","NA","NA","696","NA","2","legacy","1024","2","48000","-16","experiment","HHHHH","3","odd","111814","NA","199958","200459","NA","NA","2158","NA","201505","2162","NA","NA","201606","202303","NA","201501","201606","Neues Experiment","43","31772.0","49","1024"
"88","88","645","645","#3d3846","legacy","legacy","legacy","incongruent","1","undefined","1","s","0","0","49","49","0","0","0","49","49","0","0","0","49","49","NA","49","49","Wed Sep 13 02:23:52 2023","1500","The main experiment item","True","Flanker Task Lab 2.2.osexp","C:\Users\kikip\OneDrive\Desktop","False","mono","False","18","no","white","no","yes","768","legacy","49","49","C:/Users/kikip/OneDrive/Desktop/HB-subject-3.csv","legacy","Melodramatic Milgram","4.0.5","0","s","NA","NA","s","NA","NA","s","NA","514.0","NA","NA","109650","NA","NA","514","NA","2","legacy","1024","2","48000","-16","experiment","HHSHH","3","odd","111814","NA","199958","202306","NA","NA","2158","NA","203352","2162","NA","NA","203454","203970","NA","203351","203454","Neues Experiment","44","32286.0","50","1024"
"88","88","642","642","#3d3846","legacy","legacy","legacy","incongruent","1","undefined","1","s","0","0","50","50","0","0","0","50","50","0","0","0","50","50","NA","50","50","Wed Sep 13 02:23:52 2023","1500","The main experiment item","True","Flanker Task Lab 2.2.osexp","C:\Users\kikip\OneDrive\Desktop","False","mono","False","18","no","white","no","yes","768","legacy","50","50","C:/Users/kikip/OneDrive/Desktop/HB-subject-3.csv","legacy","Melodramatic Milgram","4.0.5","0","s","NA","NA","s","NA","NA","s","NA","494.0","NA","NA","109650","NA","NA","494","NA","2","legacy","1024","2","48000","-16","experiment","HHSHH","3","odd","111814","NA","199958","203976","NA","NA","2158","NA","205018","2162","NA","NA","205119","205614","NA","205016","205119","Neues Experiment","45","32780.0","51","1024"
"88","88","641","641","#3d3846","legacy","legacy","legacy","incongruent","1","undefined","1","h","0","0","51","51","0","0","0","51","51","0","0","0","51","51","NA","51","51","Wed Sep 13 02:23:52 2023","1500","The main experiment item","True","Flanker Task Lab 2.2.osexp","C:\Users\kikip\OneDrive\Desktop","False","mono","False","18","no","white","no","yes","768","legacy","51","51","C:/Users/kikip/OneDrive/Desktop/HB-subject-3.csv","legacy","Melodramatic Milgram","4.0.5","0","h","NA","NA","s","NA","NA","h","NA","593.0","NA","NA","109650","NA","NA","593","NA","2","legacy","1024","2","48000","-16","experiment","SSHSS","3","odd","111814","NA","199958","205618","NA","NA","2158","NA","206685","2162","NA","NA","206786","207380","NA","206682","206786","Neues Experiment","46","33373.0","52","1024"
"88","88","639","639","#3d3846","legacy","legacy","legacy","coongruent","1","undefined","1","h","0","0","52","52","0","0","0","52","52","0","0","0","52","52","NA","52","52","Wed Sep 13 02:23:52 2023","1500","The main experiment item","True","Flanker Task Lab 2.2.osexp","C:\Users\kikip\OneDrive\Desktop","False","mono","False","18","no","white","no","yes","768","legacy","52","52","C:/Users/kikip/OneDrive/Desktop/HB-subject-3.csv","legacy","Melodramatic Milgram","4.0.5","0","h","NA","NA","s","NA","NA","h","NA","510.0","NA","NA","109650","NA","NA","510","NA","2","legacy","1024","2","48000","-16","experiment","HHHHH","3","odd","111814","NA","199958","207383","NA","NA","2158","NA","208428","2162","NA","NA","208529","209040","NA","208426","208529","Neues Experiment","47","33883.0","53","1024"
"88","88","637","637","#3d3846","legacy","legacy","legacy","incongruent","1","undefined","1","s","0","0","53","53","0","0","0","53","53","0","0","0","53","53","NA","53","53","Wed Sep 13 02:23:52 2023","1500","The main experiment item","True","Flanker Task Lab 2.2.osexp","C:\Users\kikip\OneDrive\Desktop","False","mono","False","18","no","white","no","yes","768","legacy","53","53","C:/Users/kikip/OneDrive/Desktop/HB-subject-3.csv","legacy","Melodramatic Milgram","4.0.5","0","s","NA","NA","s","NA","NA","s","NA","530.0","NA","NA","109650","NA","NA","530","NA","2","legacy","1024","2","48000","-16","experiment","HHSHH","3","odd","111814","NA","199958","209046","NA","NA","2158","NA","210108","2162","NA","NA","210209","210741","NA","210107","210209","Neues Experiment","48","34413.0","54","1024"
"89","89","634","634","#3d3846","legacy","legacy","legacy","coongruent","1","undefined","1","h","0","0","54","54","0","0","0","54","54","0","0","0","54","54","NA","54","54","Wed Sep 13 02:23:52 2023","1500","The main experiment item","True","Flanker Task Lab 2.2.osexp","C:\Users\kikip\OneDrive\Desktop","False","mono","False","18","no","white","no","yes","768","legacy","54","54","C:/Users/kikip/OneDrive/Desktop/HB-subject-3.csv","legacy","Melodramatic Milgram","4.0.5","0","h","NA","NA","s","NA","NA","h","NA","491.0","NA","NA","109650","NA","NA","491","NA","2","legacy","1024","2","48000","-16","experiment","HHHHH","3","odd","111814","NA","199958","210747","NA","NA","2158","NA","211793","2162","NA","NA","211894","212387","NA","211791","211894","Neues Experiment","49","34904.0","55","1024"
"89","89","630","630","#3d3846","legacy","legacy","legacy","coongruent","1","undefined","1","h","0","0","55","55","0","0","0","55","55","0","0","0","55","55","NA","55","55","Wed Sep 13 02:23:52 2023","1500","The main experiment item","True","Flanker Task Lab 2.2.osexp","C:\Users\kikip\OneDrive\Desktop","False","mono","False","18","no","white","no","yes","768","legacy","55","55","C:/Users/kikip/OneDrive/Desktop/HB-subject-3.csv","legacy","Melodramatic Milgram","4.0.5","0","h","NA","NA","s","NA","NA","h","NA","378.0","NA","NA","109650","NA","NA","378","NA","2","legacy","1024","2","48000","-16","experiment","HHHHH","3","odd","111814","NA","199958","212394","NA","NA","2158","NA","213441","2162","NA","NA","213543","213922","NA","213439","213543","Neues Experiment","50","35282.0","56","1024"
"89","89","627","627","#3d3846","legacy","legacy","legacy","incongruent","1","undefined","1","s","0","0","56","56","0","0","0","56","56","0","0","0","56","56","NA","56","56","Wed Sep 13 02:23:52 2023","1500","The main experiment item","True","Flanker Task Lab 2.2.osexp","C:\Users\kikip\OneDrive\Desktop","False","mono","False","18","no","white","no","yes","768","legacy","56","56","C:/Users/kikip/OneDrive/Desktop/HB-subject-3.csv","legacy","Melodramatic Milgram","4.0.5","0","s","NA","NA","s","NA","NA","s","NA","510.0","NA","NA","109650","NA","NA","510","NA","2","legacy","1024","2","48000","-16","experiment","HHSHH","3","odd","111814","NA","199958","213925","NA","NA","2158","NA","214969","2162","NA","NA","215070","215582","NA","214967","215070","Neues Experiment","51","35792.0","57","1024"
"89","89","624","624","#3d3846","legacy","legacy","legacy","incongruent","1","undefined","1","s","0","0","57","57","0","0","0","57","57","0","0","0","57","57","NA","57","57","Wed Sep 13 02:23:52 2023","1500","The main experiment item","True","Flanker Task Lab 2.2.osexp","C:\Users\kikip\OneDrive\Desktop","False","mono","False","18","no","white","no","yes","768","legacy","57","57","C:/Users/kikip/OneDrive/Desktop/HB-subject-3.csv","legacy","Melodramatic Milgram","4.0.5","0","s","NA","NA","s","NA","NA","s","NA","439.0","NA","NA","109650","NA","NA","439","NA","2","legacy","1024","2","48000","-16","experiment","HHSHH","3","odd","111814","NA","199958","215585","NA","NA","2158","NA","216622","2162","NA","NA","216723","217163","NA","216621","216723","Neues Experiment","52","36231.0","58","1024"
"89","89","622","622","#3d3846","legacy","legacy","legacy","incongruent","1","undefined","1","s","0","0","58","58","0","0","0","58","58","0","0","0","58","58","NA","58","58","Wed Sep 13 02:23:52 2023","1500","The main experiment item","True","Flanker Task Lab 2.2.osexp","C:\Users\kikip\OneDrive\Desktop","False","mono","False","18","no","white","no","yes","768","legacy","58","58","C:/Users/kikip/OneDrive/Desktop/HB-subject-3.csv","legacy","Melodramatic Milgram","4.0.5","0","s","NA","NA","s","NA","NA","s","NA","510.0","NA","NA","109650","NA","NA","510","NA","2","legacy","1024","2","48000","-16","experiment","HHSHH","3","odd","111814","NA","199958","217169","NA","NA","2158","NA","218210","2162","NA","NA","218311","218822","NA","218208","218311","Neues Experiment","53","36741.0","59","1024"
"90","90","619","619","#3d3846","legacy","legacy","legacy","incongruent","1","undefined","1","s","0","0","59","59","0","0","0","59","59","0","0","0","59","59","NA","59","59","Wed Sep 13 02:23:52 2023","1500","The main experiment item","True","Flanker Task Lab 2.2.osexp","C:\Users\kikip\OneDrive\Desktop","False","mono","False","18","no","white","no","yes","768","legacy","59","59","C:/Users/kikip/OneDrive/Desktop/HB-subject-3.csv","legacy","Melodramatic Milgram","4.0.5","0","s","NA","NA","s","NA","NA","s","NA","432.0","NA","NA","109650","NA","NA","432","NA","2","legacy","1024","2","48000","-16","experiment","HHSHH","3","odd","111814","NA","199958","218828","NA","NA","2158","NA","219879","2162","NA","NA","219980","220413","NA","219876","219980","Neues Experiment","54","37173.0","60","1024"
"90","90","616","616","#3d3846","legacy","legacy","legacy","congruent","1","undefined","1","s","0","0","60","60","0","0","0","60","60","0","0","0","60","60","NA","60","60","Wed Sep 13 02:23:52 2023","1500","The main experiment item","True","Flanker Task Lab 2.2.osexp","C:\Users\kikip\OneDrive\Desktop","False","mono","False","18","no","white","no","yes","768","legacy","60","60","C:/Users/kikip/OneDrive/Desktop/HB-subject-3.csv","legacy","Melodramatic Milgram","4.0.5","0","s","NA","NA","s","NA","NA","s","NA","452.0","NA","NA","109650","NA","NA","452","NA","2","legacy","1024","2","48000","-16","experiment","SSSSS","3","odd","111814","NA","199958","220420","NA","NA","2158","NA","221484","2162","NA","NA","221585","222039","NA","221482","221585","Neues Experiment","55","37625.0","61","1024"
"88","88","612","612","#3d3846","legacy","legacy","legacy","coongruent","0","undefined","0","h","0","0","61","61","0","0","0","61","61","0","0","0","61","61","NA","61","61","Wed Sep 13 02:23:52 2023","1500","The main experiment item","True","Flanker Task Lab 2.2.osexp","C:\Users\kikip\OneDrive\Desktop","False","mono","False","18","no","white","no","yes","768","legacy","61","61","C:/Users/kikip/OneDrive/Desktop/HB-subject-3.csv","legacy","Melodramatic Milgram","4.0.5","0","s","NA","NA","s","NA","NA","s","NA","341.0","NA","NA","109650","NA","NA","341","NA","2","legacy","1024","2","48000","-16","experiment","HHHHH","3","odd","111814","NA","199958","222043","NA","NA","2158","NA","223091","2162","NA","NA","223192","223534","NA","223089","223192","Neues Experiment","55","37966.0","62","1024"
"88","88","610","610","#3d3846","legacy","legacy","legacy","coongruent","1","undefined","1","h","0","0","62","62","0","0","0","62","62","0","0","0","62","62","NA","62","62","Wed Sep 13 02:23:52 2023","1500","The main experiment item","True","Flanker Task Lab 2.2.osexp","C:\Users\kikip\OneDrive\Desktop","False","mono","False","18","no","white","no","yes","768","legacy","62","62","C:/Users/kikip/OneDrive/Desktop/HB-subject-3.csv","legacy","Melodramatic Milgram","4.0.5","0","h","NA","NA","s","NA","NA","h","NA","488.0","NA","NA","109650","NA","NA","488","NA","2","legacy","1024","2","48000","-16","experiment","HHHHH","3","odd","111814","NA","223537","224038","NA","NA","2158","NA","225083","2162","NA","NA","225184","225673","NA","225081","225184","Neues Experiment","56","38454.0","63","1024"
"89","89","608","608","#3d3846","legacy","legacy","legacy","congruent","1","undefined","1","s","0","0","63","63","0","0","0","63","63","0","0","0","63","63","NA","63","63","Wed Sep 13 02:23:52 2023","1500","The main experiment item","True","Flanker Task Lab 2.2.osexp","C:\Users\kikip\OneDrive\Desktop","False","mono","False","18","no","white","no","yes","768","legacy","63","63","C:/Users/kikip/OneDrive/Desktop/HB-subject-3.csv","legacy","Melodramatic Milgram","4.0.5","0","s","NA","NA","s","NA","NA","s","NA","489.0","NA","NA","109650","NA","NA","489","NA","2","legacy","1024","2","48000","-16","experiment","SSSSS","3","odd","111814","NA","223537","225679","NA","NA","2158","NA","226733","2162","NA","NA","226834","227324","NA","226731","226834","Neues Experiment","57","38943.0","64","1024"
"89","89","606","606","#3d3846","legacy","legacy","legacy","congruent","1","undefined","1","s","0","0","64","64","0","0","0","64","64","0","0","0","64","64","NA","64","64","Wed Sep 13 02:23:52 2023","1500","The main experiment item","True","Flanker Task Lab 2.2.osexp","C:\Users\kikip\OneDrive\Desktop","False","mono","False","18","no","white","no","yes","768","legacy","64","64","C:/Users/kikip/OneDrive/Desktop/HB-subject-3.csv","legacy","Melodramatic Milgram","4.0.5","0","s","NA","NA","s","NA","NA","s","NA","448.0","NA","NA","109650","NA","NA","448","NA","2","legacy","1024","2","48000","-16","experiment","SSSSS","3","odd","111814","NA","223537","227330","NA","NA","2158","NA","228380","2162","NA","NA","228481","228930","NA","228378","228481","Neues Experiment","58","39391.0","65","1024"
"89","89","606","606","#3d3846","legacy","legacy","legacy","incongruent","1","undefined","1","s","0","0","65","65","0","0","0","65","65","0","0","0","65","65","NA","65","65","Wed Sep 13 02:23:52 2023","1500","The main experiment item","True","Flanker Task Lab 2.2.osexp","C:\Users\kikip\OneDrive\Desktop","False","mono","False","18","no","white","no","yes","768","legacy","65","65","C:/Users/kikip/OneDrive/Desktop/HB-subject-3.csv","legacy","Melodramatic Milgram","4.0.5","0","s","NA","NA","s","NA","NA","s","NA","656.0","NA","NA","109650","NA","NA","656","NA","2","legacy","1024","2","48000","-16","experiment","HHSHH","3","odd","111814","NA","223537","228933","NA","NA","2158","NA","229982","2162","NA","NA","230083","230741","NA","229979","230083","Neues Experiment","59","40047.0","66","1024"
"89","89","603","603","#3d3846","legacy","legacy","legacy","congruent","1","undefined","1","s","0","0","66","66","0","0","0","66","66","0","0","0","66","66","NA","66","66","Wed Sep 13 02:23:52 2023","1500","The main experiment item","True","Flanker Task Lab 2.2.osexp","C:\Users\kikip\OneDrive\Desktop","False","mono","False","18","no","white","no","yes","768","legacy","66","66","C:/Users/kikip/OneDrive/Desktop/HB-subject-3.csv","legacy","Melodramatic Milgram","4.0.5","0","s","NA","NA","s","NA","NA","s","NA","392.0","NA","NA","109650","NA","NA","392","NA","2","legacy","1024","2","48000","-16","experiment","SSSSS","3","odd","111814","NA","223537","230748","NA","NA","2158","NA","231786","2162","NA","NA","231887","232280","NA","231784","231887","Neues Experiment","60","40439.0","67","1024"
"89","89","602","602","#3d3846","legacy","legacy","legacy","incongruent","1","undefined","1","h","0","0","67","67","0","0","0","67","67","0","0","0","67","67","NA","67","67","Wed Sep 13 02:23:52 2023","1500","The main experiment item","True","Flanker Task Lab 2.2.osexp","C:\Users\kikip\OneDrive\Desktop","False","mono","False","18","no","white","no","yes","768","legacy","67","67","C:/Users/kikip/OneDrive/Desktop/HB-subject-3.csv","legacy","Melodramatic Milgram","4.0.5","0","h","NA","NA","s","NA","NA","h","NA","540.0","NA","NA","109650","NA","NA","540","NA","2","legacy","1024","2","48000","-16","experiment","SSHSS","3","odd","111814","NA","223537","232284","NA","NA","2158","NA","233343","2162","NA","NA","233444","233985","NA","233341","233444","Neues Experiment","61","40979.0","68","1024"
"89","89","602","602","#3d3846","legacy","legacy","legacy","incongruent","1","undefined","1","h","0","0","68","68","0","0","0","68","68","0","0","0","68","68","NA","68","68","Wed Sep 13 02:23:52 2023","1500","The main experiment item","True","Flanker Task Lab 2.2.osexp","C:\Users\kikip\OneDrive\Desktop","False","mono","False","18","no","white","no","yes","768","legacy","68","68","C:/Users/kikip/OneDrive/Desktop/HB-subject-3.csv","legacy","Melodramatic Milgram","4.0.5","0","h","NA","NA","s","NA","NA","h","NA","595.0","NA","NA","109650","NA","NA","595","NA","2","legacy","1024","2","48000","-16","experiment","SSHSS","3","odd","111814","NA","223537","233992","NA","NA","2158","NA","235035","2162","NA","NA","235136","235732","NA","235033","235136","Neues Experiment","62","41574.0","69","1024"
"90","90","600","600","#3d3846","legacy","legacy","legacy","incongruent","1","undefined","1","h","0","0","69","69","0","0","0","69","69","0","0","0","69","69","NA","69","69","Wed Sep 13 02:23:52 2023","1500","The main experiment item","True","Flanker Task Lab 2.2.osexp","C:\Users\kikip\OneDrive\Desktop","False","mono","False","18","no","white","no","yes","768","legacy","69","69","C:/Users/kikip/OneDrive/Desktop/HB-subject-3.csv","legacy","Melodramatic Milgram","4.0.5","0","h","NA","NA","s","NA","NA","h","NA","489.0","NA","NA","109650","NA","NA","489","NA","2","legacy","1024","2","48000","-16","experiment","SSHSS","3","odd","111814","NA","223537","235734","NA","NA","2158","NA","236800","2162","NA","NA","236901","237391","NA","236798","236901","Neues Experiment","63","42063.0","70","1024"
"90","90","599","599","#3d3846","legacy","legacy","legacy","incongruent","1","undefined","1","h","0","0","70","70","0","0","0","70","70","0","0","0","70","70","NA","70","70","Wed Sep 13 02:23:52 2023","1500","The main experiment item","True","Flanker Task Lab 2.2.osexp","C:\Users\kikip\OneDrive\Desktop","False","mono","False","18","no","white","no","yes","768","legacy","70","70","C:/Users/kikip/OneDrive/Desktop/HB-subject-3.csv","legacy","Melodramatic Milgram","4.0.5","0","h","NA","NA","s","NA","NA","h","NA","482.0","NA","NA","109650","NA","NA","482","NA","2","legacy","1024","2","48000","-16","experiment","SSHSS","3","odd","111814","NA","223537","237394","NA","NA","2158","NA","238447","2162","NA","NA","238548","239032","NA","238445","238548","Neues Experiment","64","42545.0","71","1024"
"90","90","597","597","#3d3846","legacy","legacy","legacy","coongruent","1","undefined","1","h","0","0","71","71","0","0","0","71","71","0","0","0","71","71","NA","71","71","Wed Sep 13 02:23:52 2023","1500","The main experiment item","True","Flanker Task Lab 2.2.osexp","C:\Users\kikip\OneDrive\Desktop","False","mono","False","18","no","white","no","yes","768","legacy","71","71","C:/Users/kikip/OneDrive/Desktop/HB-subject-3.csv","legacy","Melodramatic Milgram","4.0.5","0","h","NA","NA","s","NA","NA","h","NA","467.0","NA","NA","109650","NA","NA","467","NA","2","legacy","1024","2","48000","-16","experiment","HHHHH","3","odd","111814","NA","223537","239038","NA","NA","2158","NA","240083","2162","NA","NA","240184","240652","NA","240081","240184","Neues Experiment","65","43012.0","72","1024"
"90","90","597","597","#3d3846","legacy","legacy","legacy","incongruent","1","undefined","1","h","0","0","72","72","0","0","0","72","72","0","0","0","72","72","NA","72","72","Wed Sep 13 02:23:52 2023","1500","The main experiment item","True","Flanker Task Lab 2.2.osexp","C:\Users\kikip\OneDrive\Desktop","False","mono","False","18","no","white","no","yes","768","legacy","72","72","C:/Users/kikip/OneDrive/Desktop/HB-subject-3.csv","legacy","Melodramatic Milgram","4.0.5","0","h","NA","NA","s","NA","NA","h","NA","620.0","NA","NA","109650","NA","NA","620","NA","2","legacy","1024","2","48000","-16","experiment","SSHSS","3","odd","111814","NA","223537","240659","NA","NA","2158","NA","241756","2162","NA","NA","241857","242478","NA","241754","241857","Neues Experiment","66","43632.0","73","1024"
"90","90","595","595","#3d3846","legacy","legacy","legacy","coongruent","1","undefined","1","h","0","0","73","73","0","0","0","73","73","0","0","0","73","73","NA","73","73","Wed Sep 13 02:23:52 2023","1500","The main experiment item","True","Flanker Task Lab 2.2.osexp","C:\Users\kikip\OneDrive\Desktop","False","mono","False","18","no","white","no","yes","768","legacy","73","73","C:/Users/kikip/OneDrive/Desktop/HB-subject-3.csv","legacy","Melodramatic Milgram","4.0.5","0","h","NA","NA","s","NA","NA","h","NA","458.0","NA","NA","109650","NA","NA","458","NA","2","legacy","1024","2","48000","-16","experiment","HHHHH","3","odd","111814","NA","223537","242481","NA","NA","2158","NA","243558","2162","NA","NA","243659","244118","NA","243556","243659","Neues Experiment","67","44090.0","74","1024"
"90","90","593","593","#3d3846","legacy","legacy","legacy","incongruent","1","undefined","1","s","0","0","74","74","0","0","0","74","74","0","0","0","74","74","NA","74","74","Wed Sep 13 02:23:52 2023","1500","The main experiment item","True","Flanker Task Lab 2.2.osexp","C:\Users\kikip\OneDrive\Desktop","False","mono","False","18","no","white","no","yes","768","legacy","74","74","C:/Users/kikip/OneDrive/Desktop/HB-subject-3.csv","legacy","Melodramatic Milgram","4.0.5","0","s","NA","NA","s","NA","NA","s","NA","446.0","NA","NA","109650","NA","NA","446","NA","2","legacy","1024","2","48000","-16","experiment","HHSHH","3","odd","111814","NA","223537","244121","NA","NA","2158","NA","245175","2162","NA","NA","245276","245723","NA","245173","245276","Neues Experiment","68","44536.0","75","1024"
"90","90","592","592","#3d3846","legacy","legacy","legacy","coongruent","1","undefined","1","h","0","0","75","75","0","0","0","75","75","0","0","0","75","75","NA","75","75","Wed Sep 13 02:23:52 2023","1500","The main experiment item","True","Flanker Task Lab 2.2.osexp","C:\Users\kikip\OneDrive\Desktop","False","mono","False","18","no","white","no","yes","768","legacy","75","75","C:/Users/kikip/OneDrive/Desktop/HB-subject-3.csv","legacy","Melodramatic Milgram","4.0.5","0","h","NA","NA","s","NA","NA","h","NA","523.0","NA","NA","109650","NA","NA","523","NA","2","legacy","1024","2","48000","-16","experiment","HHHHH","3","odd","111814","NA","223537","245730","NA","NA","2158","NA","246778","2162","NA","NA","246879","247404","NA","246776","246879","Neues Experiment","69","45059.0","76","1024"
"90","90","591","591","#3d3846","legacy","legacy","legacy","incongruent","1","undefined","1","s","0","0","76","76","0","0","0","76","76","0","0","0","76","76","NA","76","76","Wed Sep 13 02:23:52 2023","1500","The main experiment item","True","Flanker Task Lab 2.2.osexp","C:\Users\kikip\OneDrive\Desktop","False","mono","False","18","no","white","no","yes","768","legacy","76","76","C:/Users/kikip/OneDrive/Desktop/HB-subject-3.csv","legacy","Melodramatic Milgram","4.0.5","0","s","NA","NA","s","NA","NA","s","NA","506.0","NA","NA","109650","NA","NA","506","NA","2","legacy","1024","2","48000","-16","experiment","HHSHH","3","odd","111814","NA","223537","247407","NA","NA","2158","NA","248451","2162","NA","NA","248552","249059","NA","248449","248552","Neues Experiment","70","45565.0","77","1024"
"91","91","588","588","#3d3846","legacy","legacy","legacy","congruent","1","undefined","1","s","0","0","77","77","0","0","0","77","77","0","0","0","77","77","NA","77","77","Wed Sep 13 02:23:52 2023","1500","The main experiment item","True","Flanker Task Lab 2.2.osexp","C:\Users\kikip\OneDrive\Desktop","False","mono","False","18","no","white","no","yes","768","legacy","77","77","C:/Users/kikip/OneDrive/Desktop/HB-subject-3.csv","legacy","Melodramatic Milgram","4.0.5","0","s","NA","NA","s","NA","NA","s","NA","371.0","NA","NA","109650","NA","NA","371","NA","2","legacy","1024","2","48000","-16","experiment","SSSSS","3","odd","111814","NA","223537","249065","NA","NA","2158","NA","250102","2162","NA","NA","250203","250575","NA","250100","250203","Neues Experiment","71","45936.0","78","1024"
"91","91","588","588","#3d3846","legacy","legacy","legacy","coongruent","1","undefined","1","h","0","0","78","78","0","0","0","78","78","0","0","0","78","78","NA","78","78","Wed Sep 13 02:23:52 2023","1500","The main experiment item","True","Flanker Task Lab 2.2.osexp","C:\Users\kikip\OneDrive\Desktop","False","mono","False","18","no","white","no","yes","768","legacy","78","78","C:/Users/kikip/OneDrive/Desktop/HB-subject-3.csv","legacy","Melodramatic Milgram","4.0.5","0","h","NA","NA","s","NA","NA","h","NA","529.0","NA","NA","109650","NA","NA","529","NA","2","legacy","1024","2","48000","-16","experiment","HHHHH","3","odd","111814","NA","223537","250582","NA","NA","2158","NA","251660","2162","NA","NA","251761","252291","NA","251657","251761","Neues Experiment","72","46465.0","79","1024"
"91","91","587","587","#3d3846","legacy","legacy","legacy","coongruent","1","undefined","1","h","0","0","79","79","0","0","0","79","79","0","0","0","79","79","NA","79","79","Wed Sep 13 02:23:52 2023","1500","The main experiment item","True","Flanker Task Lab 2.2.osexp","C:\Users\kikip\OneDrive\Desktop","False","mono","False","18","no","white","no","yes","768","legacy","79","79","C:/Users/kikip/OneDrive/Desktop/HB-subject-3.csv","legacy","Melodramatic Milgram","4.0.5","0","h","NA","NA","s","NA","NA","h","NA","512.0","NA","NA","109650","NA","NA","512","NA","2","legacy","1024","2","48000","-16","experiment","HHHHH","3","odd","111814","NA","223537","252294","NA","NA","2158","NA","253335","2162","NA","NA","253437","253950","NA","253333","253437","Neues Experiment","73","46977.0","80","1024"
"91","91","593","593","#3d3846","legacy","legacy","legacy","congruent","1","undefined","1","s","0","0","80","80","0","0","0","80","80","0","0","0","80","80","NA","80","80","Wed Sep 13 02:23:52 2023","600","The main experiment item","True","Flanker Task Lab 2.2.osexp","C:\Users\kikip\OneDrive\Desktop","False","mono","False","18","no","white","no","yes","768","legacy","0","79","C:/Users/kikip/OneDrive/Desktop/HB-subject-3.csv","legacy","Melodramatic Milgram","4.0.5","0","s","NA","NA","s","h","NA","s","NA","1097.0","NA","NA","109650","6266","NA","1097","NA","2","legacy","1024","2","48000","-16","experiment","SSSSS","3","odd","111814","NA","223537","253954","NA","261222","2158","NA","261273","2162","254955","NA","261374","262472","NA","261271","261374","Neues Experiment","74","48074.0","81","1024"
"91","91","593","593","#3d3846","legacy","legacy","legacy","incongruent","1","undefined","1","s","0","0","81","81","0","0","0","81","81","0","0","0","81","81","NA","81","81","Wed Sep 13 02:23:52 2023","600","The main experiment item","True","Flanker Task Lab 2.2.osexp","C:\Users\kikip\OneDrive\Desktop","False","mono","False","18","no","white","no","yes","768","legacy","1","79","C:/Users/kikip/OneDrive/Desktop/HB-subject-3.csv","legacy","Melodramatic Milgram","4.0.5","0","s","NA","s","s","h","NA","s","NA","584.0","NA","3954","109650","6266","NA","584","NA","2","legacy","1024","2","48000","-16","experiment","HHSHH","3","odd","111814","NA","223537","266435","NA","261222","2158","262478","267473","2162","254955","NA","267574","268159","NA","267471","267574","Neues Experiment","75","48658.0","82","1024"
"91","91","592","592","#3d3846","legacy","legacy","legacy","congruent","1","undefined","1","s","0","0","82","82","0","0","0","82","82","0","0","0","82","82","NA","82","82","Wed Sep 13 02:23:52 2023","600","The main experiment item","True","Flanker Task Lab 2.2.osexp","C:\Users\kikip\OneDrive\Desktop","False","mono","False","18","no","white","no","yes","768","legacy","2","79","C:/Users/kikip/OneDrive/Desktop/HB-subject-3.csv","legacy","Melodramatic Milgram","4.0.5","0","s","NA","s","s","h","NA","s","NA","488.0","NA","3954","109650","6266","NA","488","NA","2","legacy","1024","2","48000","-16","experiment","SSSSS","3","odd","111814","NA","223537","268165","NA","261222","2158","262478","269224","2162","254955","NA","269325","269814","NA","269222","269325","Neues Experiment","76","49146.0","83","1024"
"91","91","589","589","#3d3846","legacy","legacy","legacy","incongruent","1","undefined","1","s","0","0","83","83","0","0","0","83","83","0","0","0","83","83","NA","83","83","Wed Sep 13 02:23:52 2023","600","The main experiment item","True","Flanker Task Lab 2.2.osexp","C:\Users\kikip\OneDrive\Desktop","False","mono","False","18","no","white","no","yes","768","legacy","3","79","C:/Users/kikip/OneDrive/Desktop/HB-subject-3.csv","legacy","Melodramatic Milgram","4.0.5","0","s","NA","s","s","h","NA","s","NA","365.0","NA","3954","109650","6266","NA","365","NA","2","legacy","1024","2","48000","-16","experiment","HHSHH","3","odd","111814","NA","223537","269817","NA","261222","2158","262478","270863","2162","254955","NA","270964","271330","NA","270862","270964","Neues Experiment","77","49511.0","84","1024"
"91","91","587","587","#3d3846","legacy","legacy","legacy","congruent","1","undefined","1","s","0","0","84","84","0","0","0","84","84","0","0","0","84","84","NA","84","84","Wed Sep 13 02:23:52 2023","600","The main experiment item","True","Flanker Task Lab 2.2.osexp","C:\Users\kikip\OneDrive\Desktop","False","mono","False","18","no","white","no","yes","768","legacy","4","79","C:/Users/kikip/OneDrive/Desktop/HB-subject-3.csv","legacy","Melodramatic Milgram","4.0.5","0","s","NA","s","s","h","NA","s","NA","403.0","NA","3954","109650","6266","NA","403","NA","2","legacy","1024","2","48000","-16","experiment","SSSSS","3","odd","111814","NA","223537","271333","NA","261222","2158","262478","272400","2162","254955","NA","272501","272905","NA","272398","272501","Neues Experiment","78","49914.0","85","1024"
"91","91","585","585","#3d3846","legacy","legacy","legacy","coongruent","1","undefined","1","h","0","0","85","85","0","0","0","85","85","0","0","0","85","85","NA","85","85","Wed Sep 13 02:23:52 2023","600","The main experiment item","True","Flanker Task Lab 2.2.osexp","C:\Users\kikip\OneDrive\Desktop","False","mono","False","18","no","white","no","yes","768","legacy","5","79","C:/Users/kikip/OneDrive/Desktop/HB-subject-3.csv","legacy","Melodramatic Milgram","4.0.5","0","h","NA","s","s","h","NA","h","NA","463.0","NA","3954","109650","6266","NA","463","NA","2","legacy","1024","2","48000","-16","experiment","HHHHH","3","odd","111814","NA","223537","272912","NA","261222","2158","262478","273966","2162","254955","NA","274067","274531","NA","273964","274067","Neues Experiment","79","50377.0","86","1024"
"91","91","583","583","#3d3846","legacy","legacy","legacy","incongruent","1","undefined","1","s","0","0","86","86","0","0","0","86","86","0","0","0","86","86","NA","86","86","Wed Sep 13 02:23:52 2023","600","The main experiment item","True","Flanker Task Lab 2.2.osexp","C:\Users\kikip\OneDrive\Desktop","False","mono","False","18","no","white","no","yes","768","legacy","6","79","C:/Users/kikip/OneDrive/Desktop/HB-subject-3.csv","legacy","Melodramatic Milgram","4.0.5","0","s","NA","s","s","h","NA","s","NA","357.0","NA","3954","109650","6266","NA","357","NA","2","legacy","1024","2","48000","-16","experiment","HHSHH","3","odd","111814","NA","223537","274534","NA","261222","2158","262478","275582","2162","254955","NA","275683","276042","NA","275580","275683","Neues Experiment","80","50734.0","87","1024"
"92","92","581","581","#3d3846","legacy","legacy","legacy","congruent","1","undefined","1","s","0","0","87","87","0","0","0","87","87","0","0","0","87","87","NA","87","87","Wed Sep 13 02:23:52 2023","600","The main experiment item","True","Flanker Task Lab 2.2.osexp","C:\Users\kikip\OneDrive\Desktop","False","mono","False","18","no","white","no","yes","768","legacy","7","79","C:/Users/kikip/OneDrive/Desktop/HB-subject-3.csv","legacy","Melodramatic Milgram","4.0.5","0","s","NA","s","s","h","NA","s","NA","474.0","NA","3954","109650","6266","NA","474","NA","2","legacy","1024","2","48000","-16","experiment","SSSSS","3","odd","111814","NA","223537","276048","NA","261222","2158","262478","277106","2162","254955","NA","277207","277682","NA","277104","277207","Neues Experiment","81","51208.0","88","1024"
"92","92","579","579","#3d3846","legacy","legacy","legacy","incongruent","1","undefined","1","s","0","0","88","88","0","0","0","88","88","0","0","0","88","88","NA","88","88","Wed Sep 13 02:23:52 2023","600","The main experiment item","True","Flanker Task Lab 2.2.osexp","C:\Users\kikip\OneDrive\Desktop","False","mono","False","18","no","white","no","yes","768","legacy","8","79","C:/Users/kikip/OneDrive/Desktop/HB-subject-3.csv","legacy","Melodramatic Milgram","4.0.5","0","s","NA","s","s","h","NA","s","NA","406.0","NA","3954","109650","6266","NA","406","NA","2","legacy","1024","2","48000","-16","experiment","HHSHH","3","odd","111814","NA","223537","277684","NA","261222","2158","262478","278724","2162","254955","NA","278825","279232","NA","278722","278825","Neues Experiment","82","51614.0","89","1024"
"92","92","579","579","#3d3846","legacy","legacy","legacy","incongruent","1","undefined","1","h","0","0","89","89","0","0","0","89","89","0","0","0","89","89","NA","89","89","Wed Sep 13 02:23:52 2023","600","The main experiment item","True","Flanker Task Lab 2.2.osexp","C:\Users\kikip\OneDrive\Desktop","False","mono","False","18","no","white","no","yes","768","legacy","9","79","C:/Users/kikip/OneDrive/Desktop/HB-subject-3.csv","legacy","Melodramatic Milgram","4.0.5","0","h","NA","s","s","h","NA","h","NA","533.0","NA","3954","109650","6266","NA","533","NA","2","legacy","1024","2","48000","-16","experiment","SSHSS","3","odd","111814","NA","223537","279235","NA","261222","2158","262478","280272","2162","254955","NA","280373","280908","NA","280270","280373","Neues Experiment","83","52147.0","90","1024"
"92","92","578","578","#3d3846","legacy","legacy","legacy","incongruent","1","undefined","1","h","0","0","90","90","0","0","0","90","90","0","0","0","90","90","NA","90","90","Wed Sep 13 02:23:52 2023","600","The main experiment item","True","Flanker Task Lab 2.2.osexp","C:\Users\kikip\OneDrive\Desktop","False","mono","False","18","no","white","no","yes","768","legacy","10","79","C:/Users/kikip/OneDrive/Desktop/HB-subject-3.csv","legacy","Melodramatic Milgram","4.0.5","0","h","NA","s","s","h","NA","h","NA","513.0","NA","3954","109650","6266","NA","513","NA","2","legacy","1024","2","48000","-16","experiment","SSHSS","3","odd","111814","NA","223537","280912","NA","261222","2158","262478","281968","2162","254955","NA","282069","282584","NA","281966","282069","Neues Experiment","84","52660.0","91","1024"
"92","92","576","576","#3d3846","legacy","legacy","legacy","coongruent","1","undefined","1","h","0","0","91","91","0","0","0","91","91","0","0","0","91","91","NA","91","91","Wed Sep 13 02:23:52 2023","600","The main experiment item","True","Flanker Task Lab 2.2.osexp","C:\Users\kikip\OneDrive\Desktop","False","mono","False","18","no","white","no","yes","768","legacy","11","79","C:/Users/kikip/OneDrive/Desktop/HB-subject-3.csv","legacy","Melodramatic Milgram","4.0.5","0","h","NA","s","s","h","NA","h","NA","391.0","NA","3954","109650","6266","NA","391","NA","2","legacy","1024","2","48000","-16","experiment","HHHHH","3","odd","111814","NA","223537","282591","NA","261222","2158","262478","283651","2162","254955","NA","283752","284167","NA","283649","283752","Neues Experiment","85","53051.0","92","1024"
"92","92","574","574","#3d3846","legacy","legacy","legacy","coongruent","1","undefined","1","h","0","0","92","92","0","0","0","92","92","0","0","0","92","92","NA","92","92","Wed Sep 13 02:23:52 2023","600","The main experiment item","True","Flanker Task Lab 2.2.osexp","C:\Users\kikip\OneDrive\Desktop","False","mono","False","18","no","white","no","yes","768","legacy","12","79","C:/Users/kikip/OneDrive/Desktop/HB-subject-3.csv","legacy","Melodramatic Milgram","4.0.5","0","h","NA","s","s","h","NA","h","NA","403.0","NA","3954","109650","6266","NA","403","NA","2","legacy","1024","2","48000","-16","experiment","HHHHH","3","odd","111814","NA","223537","284187","NA","261222","2158","262478","285239","2162","254955","NA","285340","285745","NA","285237","285340","Neues Experiment","86","53454.0","93","1024"
"92","92","573","573","#3d3846","legacy","legacy","legacy","incongruent","1","undefined","1","h","0","0","93","93","0","0","0","93","93","0","0","0","93","93","NA","93","93","Wed Sep 13 02:23:52 2023","600","The main experiment item","True","Flanker Task Lab 2.2.osexp","C:\Users\kikip\OneDrive\Desktop","False","mono","False","18","no","white","no","yes","768","legacy","13","79","C:/Users/kikip/OneDrive/Desktop/HB-subject-3.csv","legacy","Melodramatic Milgram","4.0.5","0","h","NA","s","s","h","NA","h","NA","413.0","NA","3954","109650","6266","NA","413","NA","2","legacy","1024","2","48000","-16","experiment","SSHSS","3","odd","111814","NA","223537","285751","NA","261222","2158","262478","286794","2162","254955","NA","286895","287310","NA","286792","286895","Neues Experiment","87","53867.0","94","1024"
"92","92","570","570","#3d3846","legacy","legacy","legacy","congruent","1","undefined","1","s","0","0","94","94","0","0","0","94","94","0","0","0","94","94","NA","94","94","Wed Sep 13 02:23:52 2023","600","The main experiment item","True","Flanker Task Lab 2.2.osexp","C:\Users\kikip\OneDrive\Desktop","False","mono","False","18","no","white","no","yes","768","legacy","14","79","C:/Users/kikip/OneDrive/Desktop/HB-subject-3.csv","legacy","Melodramatic Milgram","4.0.5","0","s","NA","s","s","h","NA","s","NA","368.0","NA","3954","109650","6266","NA","368","NA","2","legacy","1024","2","48000","-16","experiment","SSSSS","3","odd","111814","NA","223537","287316","NA","261222","2158","262478","288355","2162","254955","NA","288456","288825","NA","288353","288456","Neues Experiment","88","54235.0","95","1024"
"92","92","568","568","#3d3846","legacy","legacy","legacy","congruent","1","undefined","1","s","0","0","95","95","0","0","0","95","95","0","0","0","95","95","NA","95","95","Wed Sep 13 02:23:52 2023","600","The main experiment item","True","Flanker Task Lab 2.2.osexp","C:\Users\kikip\OneDrive\Desktop","False","mono","False","18","no","white","no","yes","768","legacy","15","79","C:/Users/kikip/OneDrive/Desktop/HB-subject-3.csv","legacy","Melodramatic Milgram","4.0.5","0","s","NA","s","s","h","NA","s","NA","332.0","NA","3954","109650","6266","NA","332","NA","2","legacy","1024","2","48000","-16","experiment","SSSSS","3","odd","111814","NA","223537","288829","NA","261222","2158","262478","289877","2162","254955","NA","289978","290311","NA","289875","289978","Neues Experiment","89","54567.0","96","1024"
"92","92","566","566","#3d3846","legacy","legacy","legacy","incongruent","1","undefined","1","s","0","0","96","96","0","0","0","96","96","0","0","0","96","96","NA","96","96","Wed Sep 13 02:23:52 2023","600","The main experiment item","True","Flanker Task Lab 2.2.osexp","C:\Users\kikip\OneDrive\Desktop","False","mono","False","18","no","white","no","yes","768","legacy","16","79","C:/Users/kikip/OneDrive/Desktop/HB-subject-3.csv","legacy","Melodramatic Milgram","4.0.5","0","s","NA","s","s","h","NA","s","NA","410.0","NA","3954","109650","6266","NA","410","NA","2","legacy","1024","2","48000","-16","experiment","HHSHH","3","odd","111814","NA","223537","290314","NA","261222","2158","262478","291359","2162","254955","NA","291460","291871","NA","291357","291460","Neues Experiment","90","54977.0","97","1024"
"92","92","566","566","#3d3846","legacy","legacy","legacy","congruent","1","undefined","1","s","0","0","97","97","0","0","0","97","97","0","0","0","97","97","NA","97","97","Wed Sep 13 02:23:52 2023","600","The main experiment item","True","Flanker Task Lab 2.2.osexp","C:\Users\kikip\OneDrive\Desktop","False","mono","False","18","no","white","no","yes","768","legacy","17","79","C:/Users/kikip/OneDrive/Desktop/HB-subject-3.csv","legacy","Melodramatic Milgram","4.0.5","0","s","NA","s","s","h","NA","s","NA","533.0","NA","3954","109650","6266","NA","533","NA","2","legacy","1024","2","48000","-16","experiment","SSSSS","3","odd","111814","NA","223537","291875","NA","261222","2158","262478","292911","2162","254955","NA","293012","293547","NA","292909","293012","Neues Experiment","91","55510.0","98","1024"
"92","92","564","564","#3d3846","legacy","legacy","legacy","coongruent","1","undefined","1","h","0","0","98","98","0","0","0","98","98","0","0","0","98","98","NA","98","98","Wed Sep 13 02:23:52 2023","600","The main experiment item","True","Flanker Task Lab 2.2.osexp","C:\Users\kikip\OneDrive\Desktop","False","mono","False","18","no","white","no","yes","768","legacy","18","79","C:/Users/kikip/OneDrive/Desktop/HB-subject-3.csv","legacy","Melodramatic Milgram","4.0.5","0","h","NA","s","s","h","NA","h","NA","386.0","NA","3954","109650","6266","NA","386","NA","2","legacy","1024","2","48000","-16","experiment","HHHHH","3","odd","111814","NA","223537","293553","NA","261222","2158","262478","294588","2162","254955","NA","294690","295077","NA","294587","294690","Neues Experiment","92","55896.0","99","1024"
"93","93","564","564","#3d3846","legacy","legacy","legacy","congruent","1","undefined","1","s","0","0","99","99","0","0","0","99","99","0","0","0","99","99","NA","99","99","Wed Sep 13 02:23:52 2023","600","The main experiment item","True","Flanker Task Lab 2.2.osexp","C:\Users\kikip\OneDrive\Desktop","False","mono","False","18","no","white","no","yes","768","legacy","19","79","C:/Users/kikip/OneDrive/Desktop/HB-subject-3.csv","legacy","Melodramatic Milgram","4.0.5","0","s","NA","s","s","h","NA","s","NA","558.0","NA","3954","109650","6266","NA","558","NA","2","legacy","1024","2","48000","-16","experiment","SSSSS","3","odd","111814","NA","223537","295082","NA","261222","2158","262478","296122","2162","254955","NA","296223","296783","NA","296121","296223","Neues Experiment","93","56454.0","100","1024"
"93","93","562","562","#3d3846","legacy","legacy","legacy","incongruent","1","undefined","1","h","0","0","100","100","0","0","0","100","100","0","0","0","100","100","NA","100","100","Wed Sep 13 02:23:52 2023","600","The main experiment item","True","Flanker Task Lab 2.2.osexp","C:\Users\kikip\OneDrive\Desktop","False","mono","False","18","no","white","no","yes","768","legacy","20","79","C:/Users/kikip/OneDrive/Desktop/HB-subject-3.csv","legacy","Melodramatic Milgram","4.0.5","0","h","NA","s","s","h","NA","h","NA","391.0","NA","3954","109650","6266","NA","391","NA","2","legacy","1024","2","48000","-16","experiment","SSHSS","3","odd","111814","NA","223537","296787","NA","261222","2158","262478","297829","2162","254955","NA","297931","298323","NA","297827","297930","Neues Experiment","94","56845.0","101","1024"
"93","93","560","560","#3d3846","legacy","legacy","legacy","congruent","1","undefined","1","s","0","0","101","101","0","0","0","101","101","0","0","0","101","101","NA","101","101","Wed Sep 13 02:23:52 2023","600","The main experiment item","True","Flanker Task Lab 2.2.osexp","C:\Users\kikip\OneDrive\Desktop","False","mono","False","18","no","white","no","yes","768","legacy","21","79","C:/Users/kikip/OneDrive/Desktop/HB-subject-3.csv","legacy","Melodramatic Milgram","4.0.5","0","s","NA","s","s","h","NA","s","NA","358.0","NA","3954","109650","6266","NA","358","NA","2","legacy","1024","2","48000","-16","experiment","SSSSS","3","odd","111814","NA","223537","298326","NA","261222","2158","262478","299380","2162","254955","NA","299481","299841","NA","299378","299481","Neues Experiment","95","57203.0","102","1024"
"93","93","559","559","#3d3846","legacy","legacy","legacy","incongruent","1","undefined","1","s","0","0","102","102","0","0","0","102","102","0","0","0","102","102","NA","102","102","Wed Sep 13 02:23:52 2023","600","The main experiment item","True","Flanker Task Lab 2.2.osexp","C:\Users\kikip\OneDrive\Desktop","False","mono","False","18","no","white","no","yes","768","legacy","22","79","C:/Users/kikip/OneDrive/Desktop/HB-subject-3.csv","legacy","Melodramatic Milgram","4.0.5","0","s","NA","s","s","h","NA","s","NA","429.0","NA","3954","109650","6266","NA","429","NA","2","legacy","1024","2","48000","-16","experiment","HHSHH","3","odd","111814","NA","223537","299844","NA","261222","2158","262478","300883","2162","254955","NA","300984","301414","NA","300881","300984","Neues Experiment","96","57632.0","103","1024"
"93","93","558","558","#3d3846","legacy","legacy","legacy","congruent","1","undefined","1","s","0","0","103","103","0","0","0","103","103","0","0","0","103","103","NA","103","103","Wed Sep 13 02:23:52 2023","600","The main experiment item","True","Flanker Task Lab 2.2.osexp","C:\Users\kikip\OneDrive\Desktop","False","mono","False","18","no","white","no","yes","768","legacy","23","79","C:/Users/kikip/OneDrive/Desktop/HB-subject-3.csv","legacy","Melodramatic Milgram","4.0.5","0","s","NA","s","s","h","NA","s","NA","457.0","NA","3954","109650","6266","NA","457","NA","2","legacy","1024","2","48000","-16","experiment","SSSSS","3","odd","111814","NA","223537","301418","NA","261222","2158","262478","302460","2162","254955","NA","302561","303020","NA","302458","302561","Neues Experiment","97","58089.0","104","1024"
"93","93","558","558","#3d3846","legacy","legacy","legacy","incongruent","1","undefined","1","h","0","0","104","104","0","0","0","104","104","0","0","0","104","104","NA","104","104","Wed Sep 13 02:23:52 2023","600","The main experiment item","True","Flanker Task Lab 2.2.osexp","C:\Users\kikip\OneDrive\Desktop","False","mono","False","18","no","white","no","yes","768","legacy","24","79","C:/Users/kikip/OneDrive/Desktop/HB-subject-3.csv","legacy","Melodramatic Milgram","4.0.5","0","h","NA","s","s","h","NA","h","NA","546.0","NA","3954","109650","6266","NA","546","NA","2","legacy","1024","2","48000","-16","experiment","SSHSS","3","odd","111814","NA","223537","303025","NA","261222","2158","262478","304067","2162","254955","NA","304168","304716","NA","304065","304168","Neues Experiment","98","58635.0","105","1024"
"93","93","557","557","#3d3846","legacy","legacy","legacy","incongruent","1","undefined","1","h","0","0","105","105","0","0","0","105","105","0","0","0","105","105","NA","105","105","Wed Sep 13 02:23:52 2023","600","The main experiment item","True","Flanker Task Lab 2.2.osexp","C:\Users\kikip\OneDrive\Desktop","False","mono","False","18","no","white","no","yes","768","legacy","25","79","C:/Users/kikip/OneDrive/Desktop/HB-subject-3.csv","legacy","Melodramatic Milgram","4.0.5","0","h","NA","s","s","h","NA","h","NA","486.0","NA","3954","109650","6266","NA","486","NA","2","legacy","1024","2","48000","-16","experiment","SSHSS","3","odd","111814","NA","223537","304722","NA","261222","2158","262478","305793","2162","254955","NA","305894","306382","NA","305790","305894","Neues Experiment","99","59121.0","106","1024"
"93","93","557","557","#3d3846","legacy","legacy","legacy","coongruent","1","undefined","1","h","0","0","106","106","0","0","0","106","106","0","0","0","106","106","NA","106","106","Wed Sep 13 02:23:52 2023","600","The main experiment item","True","Flanker Task Lab 2.2.osexp","C:\Users\kikip\OneDrive\Desktop","False","mono","False","18","no","white","no","yes","768","legacy","26","79","C:/Users/kikip/OneDrive/Desktop/HB-subject-3.csv","legacy","Melodramatic Milgram","4.0.5","0","h","NA","s","s","h","NA","h","NA","516.0","NA","3954","109650","6266","NA","516","NA","2","legacy","1024","2","48000","-16","experiment","HHHHH","3","odd","111814","NA","223537","306388","NA","261222","2158","262478","307433","2162","254955","NA","307534","308053","NA","307430","307534","Neues Experiment","100","59637.0","107","1024"
"93","93","557","557","#3d3846","legacy","legacy","legacy","incongruent","1","undefined","1","h","0","0","107","107","0","0","0","107","107","0","0","0","107","107","NA","107","107","Wed Sep 13 02:23:52 2023","600","The main experiment item","True","Flanker Task Lab 2.2.osexp","C:\Users\kikip\OneDrive\Desktop","False","mono","False","18","no","white","no","yes","768","legacy","27","79","C:/Users/kikip/OneDrive/Desktop/HB-subject-3.csv","legacy","Melodramatic Milgram","4.0.5","0","h","NA","s","s","h","NA","h","NA","591.0","NA","3954","109650","6266","NA","591","NA","2","legacy","1024","2","48000","-16","experiment","SSHSS","3","odd","111814","NA","223537","308058","NA","261222","2158","262478","309103","2162","254955","NA","309204","309797","NA","309101","309204","Neues Experiment","101","60228.0","108","1024"
"93","93","556","556","#3d3846","legacy","legacy","legacy","coongruent","1","undefined","1","h","0","0","108","108","0","0","0","108","108","0","0","0","108","108","NA","108","108","Wed Sep 13 02:23:52 2023","600","The main experiment item","True","Flanker Task Lab 2.2.osexp","C:\Users\kikip\OneDrive\Desktop","False","mono","False","18","no","white","no","yes","768","legacy","28","79","C:/Users/kikip/OneDrive/Desktop/HB-subject-3.csv","legacy","Melodramatic Milgram","4.0.5","0","h","NA","s","s","h","NA","h","NA","420.0","NA","3954","109650","6266","NA","420","NA","2","legacy","1024","2","48000","-16","experiment","HHHHH","3","odd","111814","NA","223537","309803","NA","261222","2158","262478","310850","2162","254955","NA","310951","311378","NA","310848","310951","Neues Experiment","102","60648.0","109","1024"
"93","93","554","554","#3d3846","legacy","legacy","legacy","incongruent","1","undefined","1","s","0","0","109","109","0","0","0","109","109","0","0","0","109","109","NA","109","109","Wed Sep 13 02:23:52 2023","600","The main experiment item","True","Flanker Task Lab 2.2.osexp","C:\Users\kikip\OneDrive\Desktop","False","mono","False","18","no","white","no","yes","768","legacy","29","79","C:/Users/kikip/OneDrive/Desktop/HB-subject-3.csv","legacy","Melodramatic Milgram","4.0.5","0","s","NA","s","s","h","NA","s","NA","381.0","NA","3954","109650","6266","NA","381","NA","2","legacy","1024","2","48000","-16","experiment","HHSHH","3","odd","111814","NA","223537","311387","NA","261222","2158","262478","312438","2162","254955","NA","312540","312923","NA","312436","312540","Neues Experiment","103","61029.0","110","1024"
"93","93","554","554","#3d3846","legacy","legacy","legacy","incongruent","1","undefined","1","s","0","0","110","110","0","0","0","110","110","0","0","0","110","110","NA","110","110","Wed Sep 13 02:23:52 2023","600","The main experiment item","True","Flanker Task Lab 2.2.osexp","C:\Users\kikip\OneDrive\Desktop","False","mono","False","18","no","white","no","yes","768","legacy","30","79","C:/Users/kikip/OneDrive/Desktop/HB-subject-3.csv","legacy","Melodramatic Milgram","4.0.5","0","s","NA","s","s","h","NA","s","NA","518.0","NA","3954","109650","6266","NA","518","NA","2","legacy","1024","2","48000","-16","experiment","HHSHH","3","odd","111814","NA","223537","312929","NA","261222","2158","262478","314013","2162","254955","NA","314114","314636","NA","314011","314114","Neues Experiment","104","61547.0","111","1024"
"93","93","553","553","#3d3846","legacy","legacy","legacy","incongruent","1","undefined","1","s","0","0","111","111","0","0","0","111","111","0","0","0","111","111","NA","111","111","Wed Sep 13 02:23:52 2023","600","The main experiment item","True","Flanker Task Lab 2.2.osexp","C:\Users\kikip\OneDrive\Desktop","False","mono","False","18","no","white","no","yes","768","legacy","31","79","C:/Users/kikip/OneDrive/Desktop/HB-subject-3.csv","legacy","Melodramatic Milgram","4.0.5","0","s","NA","s","s","h","NA","s","NA","410.0","NA","3954","109650","6266","NA","410","NA","2","legacy","1024","2","48000","-16","experiment","HHSHH","3","odd","111814","NA","223537","314642","NA","261222","2158","262478","315686","2162","254955","NA","315787","316199","NA","315684","315787","Neues Experiment","105","61957.0","112","1024"
"93","93","553","553","#3d3846","legacy","legacy","legacy","incongruent","1","undefined","1","s","0","0","112","112","0","0","0","112","112","0","0","0","112","112","NA","112","112","Wed Sep 13 02:23:52 2023","600","The main experiment item","True","Flanker Task Lab 2.2.osexp","C:\Users\kikip\OneDrive\Desktop","False","mono","False","18","no","white","no","yes","768","legacy","32","79","C:/Users/kikip/OneDrive/Desktop/HB-subject-3.csv","legacy","Melodramatic Milgram","4.0.5","0","s","NA","s","s","h","NA","s","NA","562.0","NA","3954","109650","6266","NA","562","NA","2","legacy","1024","2","48000","-16","experiment","HHSHH","3","odd","111814","NA","223537","316202","NA","261222","2158","262478","317264","2162","254955","NA","317366","317930","NA","317263","317365","Neues Experiment","106","62519.0","113","1024"
"93","93","552","552","#3d3846","legacy","legacy","legacy","incongruent","1","undefined","1","s","0","0","113","113","0","0","0","113","113","0","0","0","113","113","NA","113","113","Wed Sep 13 02:23:52 2023","600","The main experiment item","True","Flanker Task Lab 2.2.osexp","C:\Users\kikip\OneDrive\Desktop","False","mono","False","18","no","white","no","yes","768","legacy","33","79","C:/Users/kikip/OneDrive/Desktop/HB-subject-3.csv","legacy","Melodramatic Milgram","4.0.5","0","s","NA","s","s","h","NA","s","NA","485.0","NA","3954","109650","6266","NA","485","NA","2","legacy","1024","2","48000","-16","experiment","HHSHH","3","odd","111814","NA","223537","317936","NA","261222","2158","262478","318982","2162","254955","NA","319083","319570","NA","318980","319083","Neues Experiment","107","63004.0","114","1024"
"93","93","551","551","#3d3846","legacy","legacy","legacy","coongruent","0","undefined","0","h","0","0","114","114","0","0","0","114","114","0","0","0","114","114","NA","114","114","Wed Sep 13 02:23:52 2023","600","The main experiment item","True","Flanker Task Lab 2.2.osexp","C:\Users\kikip\OneDrive\Desktop","False","mono","False","18","no","white","no","yes","768","legacy","34","79","C:/Users/kikip/OneDrive/Desktop/HB-subject-3.csv","legacy","Melodramatic Milgram","4.0.5","0","s","NA","s","s","h","NA","s","NA","403.0","NA","3954","109650","6266","NA","403","NA","2","legacy","1024","2","48000","-16","experiment","HHHHH","3","odd","111814","NA","223537","319576","NA","261222","2158","262478","320615","2162","254955","NA","320716","321121","NA","320613","320716","Neues Experiment","107","63407.0","115","1024"
"93","93","551","551","#3d3846","legacy","legacy","legacy","incongruent","1","undefined","1","h","0","0","115","115","0","0","0","115","115","0","0","0","115","115","NA","115","115","Wed Sep 13 02:23:52 2023","600","The main experiment item","True","Flanker Task Lab 2.2.osexp","C:\Users\kikip\OneDrive\Desktop","False","mono","False","18","no","white","no","yes","768","legacy","35","79","C:/Users/kikip/OneDrive/Desktop/HB-subject-3.csv","legacy","Melodramatic Milgram","4.0.5","0","h","NA","s","s","h","NA","h","NA","517.0","NA","3954","109650","6266","NA","517","NA","2","legacy","1024","2","48000","-16","experiment","SSHSS","3","odd","111814","NA","321127","321628","NA","261222","2158","262478","322677","2162","254955","NA","322778","323297","NA","322675","322778","Neues Experiment","108","63924.0","116","1024"
"93","93","551","551","#3d3846","legacy","legacy","legacy","incongruent","1","undefined","1","s","0","0","116","116","0","0","0","116","116","0","0","0","116","116","NA","116","116","Wed Sep 13 02:23:52 2023","600","The main experiment item","True","Flanker Task Lab 2.2.osexp","C:\Users\kikip\OneDrive\Desktop","False","mono","False","18","no","white","no","yes","768","legacy","36","79","C:/Users/kikip/OneDrive/Desktop/HB-subject-3.csv","legacy","Melodramatic Milgram","4.0.5","0","s","NA","s","s","h","NA","s","NA","605.0","NA","3954","109650","6266","NA","605","NA","2","legacy","1024","2","48000","-16","experiment","HHSHH","3","odd","111814","NA","321127","323300","NA","261222","2158","262478","324356","2162","254955","NA","324470","325077","NA","324354","324470","Neues Experiment","109","64529.0","117","1024"
"93","93","550","550","#3d3846","legacy","legacy","legacy","coongruent","1","undefined","1","h","0","0","117","117","0","0","0","117","117","0","0","0","117","117","NA","117","117","Wed Sep 13 02:23:52 2023","600","The main experiment item","True","Flanker Task Lab 2.2.osexp","C:\Users\kikip\OneDrive\Desktop","False","mono","False","18","no","white","no","yes","768","legacy","37","79","C:/Users/kikip/OneDrive/Desktop/HB-subject-3.csv","legacy","Melodramatic Milgram","4.0.5","0","h","NA","s","s","h","NA","h","NA","488.0","NA","2856","109650","6266","NA","488","NA","2","legacy","1024","2","48000","-16","experiment","HHHHH","3","odd","111814","NA","321127","327939","NA","261222","2158","325080","328983","2162","254955","NA","329084","329574","NA","328981","329084","Neues Experiment","110","65017.0","118","1024"
"93","93","550","550","#3d3846","legacy","legacy","legacy","incongruent","1","undefined","1","h","0","0","118","118","0","0","0","118","118","0","0","0","118","118","NA","118","118","Wed Sep 13 02:23:52 2023","600","The main experiment item","True","Flanker Task Lab 2.2.osexp","C:\Users\kikip\OneDrive\Desktop","False","mono","False","18","no","white","no","yes","768","legacy","38","79","C:/Users/kikip/OneDrive/Desktop/HB-subject-3.csv","legacy","Melodramatic Milgram","4.0.5","0","h","NA","s","s","h","NA","h","NA","442.0","NA","2856","109650","6266","NA","442","NA","2","legacy","1024","2","48000","-16","experiment","SSHSS","3","odd","111814","NA","321127","329577","NA","261222","2158","325080","330625","2162","254955","NA","330726","331169","NA","330623","330726","Neues Experiment","111","65459.0","119","1024"
"93","93","549","549","#3d3846","legacy","legacy","legacy","incongruent","1","undefined","1","s","0","0","119","119","0","0","0","119","119","0","0","0","119","119","NA","119","119","Wed Sep 13 02:23:52 2023","600","The main experiment item","True","Flanker Task Lab 2.2.osexp","C:\Users\kikip\OneDrive\Desktop","False","mono","False","18","no","white","no","yes","768","legacy","39","79","C:/Users/kikip/OneDrive/Desktop/HB-subject-3.csv","legacy","Melodramatic Milgram","4.0.5","0","s","NA","s","s","h","NA","s","NA","465.0","NA","2856","109650","6266","NA","465","NA","2","legacy","1024","2","48000","-16","experiment","HHSHH","3","odd","111814","NA","321127","331174","NA","261222","2158","325080","332227","2162","254955","NA","332328","332794","NA","332225","332328","Neues Experiment","112","65924.0","120","1024"
"93","93","549","549","#3d3846","legacy","legacy","legacy","incongruent","1","undefined","1","h","0","0","120","120","0","0","0","120","120","0","0","0","120","120","NA","120","120","Wed Sep 13 02:23:52 2023","600","The main experiment item","True","Flanker Task Lab 2.2.osexp","C:\Users\kikip\OneDrive\Desktop","False","mono","False","18","no","white","no","yes","768","legacy","40","79","C:/Users/kikip/OneDrive/Desktop/HB-subject-3.csv","legacy","Melodramatic Milgram","4.0.5","0","h","NA","s","s","h","NA","h","NA","540.0","NA","2856","109650","6266","NA","540","NA","2","legacy","1024","2","48000","-16","experiment","SSHSS","3","odd","111814","NA","321127","332797","NA","261222","2158","325080","333842","2162","254955","NA","333943","334485","NA","333840","333943","Neues Experiment","113","66464.0","121","1024"
"93","93","547","547","#3d3846","legacy","legacy","legacy","congruent","1","undefined","1","s","0","0","121","121","0","0","0","121","121","0","0","0","121","121","NA","121","121","Wed Sep 13 02:23:52 2023","600","The main experiment item","True","Flanker Task Lab 2.2.osexp","C:\Users\kikip\OneDrive\Desktop","False","mono","False","18","no","white","no","yes","768","legacy","41","79","C:/Users/kikip/OneDrive/Desktop/HB-subject-3.csv","legacy","Melodramatic Milgram","4.0.5","0","s","NA","s","s","h","NA","s","NA","388.0","NA","2856","109650","6266","NA","388","NA","2","legacy","1024","2","48000","-16","experiment","SSSSS","3","odd","111814","NA","321127","334491","NA","261222","2158","325080","335551","2162","254955","NA","335652","336041","NA","335549","335652","Neues Experiment","114","66852.0","122","1024"
