acc,accuracy,average_response_time,avg_rt,background,canvas_backend,clock_backend,color_backend,compensation,condition,coordinates,correct,correct_Instructions1,correct_Keyboard_Response,correct_response,count_ErrorFeedback,count_Faster,count_Finish,count_Fixation,count_ISI,count_Instructions1,count_Instructions3,count_Keyboard_Response,count_Sequence,count_Stimulus,count_block1,count_block2,count_block3,count_experiment,count_instructions2,count_new_logger,datetime,deadline,description,disable_garbage_collection,experiment_file,experiment_path,font_bold,font_family,font_italic,font_size,font_underline,foreground,form_clicks,fullscreen,height,keyboard_backend,live_row,live_row_block1,logfile,mouse_backend,opensesame_codename,opensesame_version,repeat_cycle,response,response_Finish,response_Instructions1,response_Instructions3,response_Keyboard_Response,response_instructions2,response_time,response_time_Finish,response_time_Instructions1,response_time_Instructions3,response_time_Keyboard_Response,response_time_instructions2,round_decimals,sampler_backend,sound_buf_size,sound_channels,sound_freq,sound_sample_size,start,stimulus,subject_nr,subject_parity,time_ErrorFeedback,time_Faster,time_Finish,time_Fixation,time_ISI,time_Instructions1,time_Instructions3,time_Keyboard_Response,time_Sequence,time_Stimulus,time_block1,time_block2,time_block3,time_experiment,time_instructions2,time_new_logger,title,total_correct,total_response_time,total_responses,uniform_coordinates,width
100,100,649,649,black,legacy,legacy,legacy,0,congruent,uniform,1,undefined,1,s,0,0,0,0,0,0,0,0,0,0,0,0,0,0,0,0,Sat Sep 12 16:31:18 2020,1500,The main experiment item,yes,FlankerTask.osexp,C:/Users/chelsea/OneDrive - Tarleton State University/psych 5316- adv,no,mono,no,18,no,white,no,no,768,legacy,0,0,C:/Users/chelsea/OneDrive - Tarleton State University/psych 5316- adv/flanker test/CMK subject-0.csv,legacy,Lentiform Loewenfeld,3.3.3,0,s,NA,s,NA,s,NA,649,NA,39948,NA,649,NA,2,legacy,1024,2,48000,-16,experiment,SSSSS,0,even,NA,NA,NA,45127,NA,4955,NA,45231,45121,45230,44906,NA,NA,4949,NA,45881,Flanker Task,1,649,1,yes,1024
50,50,571.5,571.5,black,legacy,legacy,legacy,0,incongruent,uniform,0,undefined,0,s,1,1,0,1,1,0,0,1,1,1,0,0,0,0,0,1,Sat Sep 12 16:31:18 2020,1500,The main experiment item,yes,FlankerTask.osexp,C:/Users/chelsea/OneDrive - Tarleton State University/psych 5316- adv,no,mono,no,18,no,white,no,no,768,legacy,1,1,C:/Users/chelsea/OneDrive - Tarleton State University/psych 5316- adv/flanker test/CMK subject-0.csv,legacy,Lentiform Loewenfeld,3.3.3,0,h,NA,s,NA,h,NA,494,NA,39948,NA,494,NA,2,legacy,1024,2,48000,-16,experiment,HHSHH,0,even,NA,NA,NA,47231,45999,4955,NA,47337,47226,47337,44906,NA,NA,4949,NA,47832,Flanker Task,1,1143,2,yes,1024
66.66666667,66.66666667,562,562,black,legacy,legacy,legacy,0,incongruent,uniform,1,undefined,1,h,2,2,0,2,2,0,0,2,2,2,0,0,0,0,0,2,Sat Sep 12 16:31:18 2020,1500,The main experiment item,yes,FlankerTask.osexp,C:/Users/chelsea/OneDrive - Tarleton State University/psych 5316- adv,no,mono,no,18,no,white,no,no,768,legacy,2,2,C:/Users/chelsea/OneDrive - Tarleton State University/psych 5316- adv/flanker test/CMK subject-0.csv,legacy,Lentiform Loewenfeld,3.3.3,0,h,NA,s,NA,h,NA,543,NA,39948,NA,543,NA,2,legacy,1024,2,48000,-16,experiment,SSHSS,0,even,47926,NA,NA,49664,48430,4955,NA,49769,49659,49769,44906,NA,NA,4949,NA,50314,Flanker Task,2,1686,3,yes,1024
75,75,545.5,545.5,black,legacy,legacy,legacy,0,congruent,uniform,1,undefined,1,s,3,3,0,3,3,0,0,3,3,3,0,0,0,0,0,3,Sat Sep 12 16:31:18 2020,1500,The main experiment item,yes,FlankerTask.osexp,C:/Users/chelsea/OneDrive - Tarleton State University/psych 5316- adv,no,mono,no,18,no,white,no,no,768,legacy,3,3,C:/Users/chelsea/OneDrive - Tarleton State University/psych 5316- adv/flanker test/CMK subject-0.csv,legacy,Lentiform Loewenfeld,3.3.3,0,s,NA,s,NA,s,NA,496,NA,39948,NA,496,NA,2,legacy,1024,2,48000,-16,experiment,SSSSS,0,even,47926,NA,NA,51608,50377,4955,NA,51712,51603,51712,44906,NA,NA,4949,NA,52209,Flanker Task,3,2182,4,yes,1024
80,80,548.4,548.4,black,legacy,legacy,legacy,0,incongruent,uniform,1,undefined,1,h,4,4,0,4,4,0,0,4,4,4,0,0,0,0,0,4,Sat Sep 12 16:31:18 2020,1500,The main experiment item,yes,FlankerTask.osexp,C:/Users/chelsea/OneDrive - Tarleton State University/psych 5316- adv,no,mono,no,18,no,white,no,no,768,legacy,4,4,C:/Users/chelsea/OneDrive - Tarleton State University/psych 5316- adv/flanker test/CMK subject-0.csv,legacy,Lentiform Loewenfeld,3.3.3,0,h,NA,s,NA,h,NA,560,NA,39948,NA,560,NA,2,legacy,1024,2,48000,-16,experiment,SSHSS,0,even,47926,NA,NA,53560,52253,4955,NA,53664,53555,53664,44906,NA,NA,4949,NA,54225,Flanker Task,4,2742,5,yes,1024
83.33333333,83.33333333,544,544,black,legacy,legacy,legacy,0,incongruent,uniform,1,undefined,1,h,5,5,0,5,5,0,0,5,5,5,0,0,0,0,0,5,Sat Sep 12 16:31:18 2020,1500,The main experiment item,yes,FlankerTask.osexp,C:/Users/chelsea/OneDrive - Tarleton State University/psych 5316- adv,no,mono,no,18,no,white,no,no,768,legacy,5,5,C:/Users/chelsea/OneDrive - Tarleton State University/psych 5316- adv/flanker test/CMK subject-0.csv,legacy,Lentiform Loewenfeld,3.3.3,0,h,NA,s,NA,h,NA,522,NA,39948,NA,522,NA,2,legacy,1024,2,48000,-16,experiment,SSHSS,0,even,47926,NA,NA,55510,54277,4955,NA,55614,55505,55614,44906,NA,NA,4949,NA,56138,Flanker Task,5,3264,6,yes,1024
85.71428571,85.71428571,537.5714286,537.5714286,black,legacy,legacy,legacy,0,incongruent,uniform,1,undefined,1,s,6,6,0,6,6,0,0,6,6,6,0,0,0,0,0,6,Sat Sep 12 16:31:18 2020,1500,The main experiment item,yes,FlankerTask.osexp,C:/Users/chelsea/OneDrive - Tarleton State University/psych 5316- adv,no,mono,no,18,no,white,no,no,768,legacy,6,6,C:/Users/chelsea/OneDrive - Tarleton State University/psych 5316- adv/flanker test/CMK subject-0.csv,legacy,Lentiform Loewenfeld,3.3.3,0,s,NA,s,NA,s,NA,499,NA,39948,NA,499,NA,2,legacy,1024,2,48000,-16,experiment,HHSHH,0,even,47926,NA,NA,57402,56166,4955,NA,57509,57397,57508,44906,NA,NA,4949,NA,58009,Flanker Task,6,3763,7,yes,1024
87.5,87.5,534.75,534.75,black,legacy,legacy,legacy,0,congruent,uniform,1,undefined,1,h,7,7,0,7,7,0,0,7,7,7,0,0,0,0,0,7,Sat Sep 12 16:31:18 2020,1500,The main experiment item,yes,FlankerTask.osexp,C:/Users/chelsea/OneDrive - Tarleton State University/psych 5316- adv,no,mono,no,18,no,white,no,no,768,legacy,7,7,C:/Users/chelsea/OneDrive - Tarleton State University/psych 5316- adv/flanker test/CMK subject-0.csv,legacy,Lentiform Loewenfeld,3.3.3,0,h,NA,s,NA,h,NA,515,NA,39948,NA,515,NA,2,legacy,1024,2,48000,-16,experiment,HHHHH,0,even,47926,NA,NA,59298,58066,4955,NA,59402,59292,59402,44906,NA,NA,4949,NA,59918,Flanker Task,7,4278,8,yes,1024
88.88888889,88.88888889,531.4444444,531.4444444,black,legacy,legacy,legacy,0,congruent,uniform,1,undefined,1,s,8,8,0,8,8,0,0,8,8,8,0,0,0,0,0,8,Sat Sep 12 16:31:18 2020,1500,The main experiment item,yes,FlankerTask.osexp,C:/Users/chelsea/OneDrive - Tarleton State University/psych 5316- adv,no,mono,no,18,no,white,no,no,768,legacy,8,8,C:/Users/chelsea/OneDrive - Tarleton State University/psych 5316- adv/flanker test/CMK subject-0.csv,legacy,Lentiform Loewenfeld,3.3.3,0,s,NA,s,NA,s,NA,505,NA,39948,NA,505,NA,2,legacy,1024,2,48000,-16,experiment,SSSSS,0,even,47926,NA,NA,61254,59987,4955,NA,61358,61248,61358,44906,NA,NA,4949,NA,61865,Flanker Task,8,4783,9,yes,1024
90,90,526.2,526.2,black,legacy,legacy,legacy,0,incongruent,uniform,1,undefined,1,h,9,9,0,9,9,0,0,9,9,9,0,0,0,0,0,9,Sat Sep 12 16:31:18 2020,1500,The main experiment item,yes,FlankerTask.osexp,C:/Users/chelsea/OneDrive - Tarleton State University/psych 5316- adv,no,mono,no,18,no,white,no,no,768,legacy,9,9,C:/Users/chelsea/OneDrive - Tarleton State University/psych 5316- adv/flanker test/CMK subject-0.csv,legacy,Lentiform Loewenfeld,3.3.3,0,h,NA,s,NA,h,NA,479,NA,39948,NA,479,NA,2,legacy,1024,2,48000,-16,experiment,SSHSS,0,even,47926,NA,NA,63153,61921,4955,NA,63257,63147,63257,44906,NA,NA,4949,NA,63737,Flanker Task,9,5262,10,yes,1024
90.90909091,90.90909091,526.1818182,526.1818182,black,legacy,legacy,legacy,0,incongruent,uniform,1,undefined,1,h,10,10,0,10,10,0,0,10,10,10,0,0,0,0,0,10,Sat Sep 12 16:31:18 2020,1500,The main experiment item,yes,FlankerTask.osexp,C:/Users/chelsea/OneDrive - Tarleton State University/psych 5316- adv,no,mono,no,18,no,white,no,no,768,legacy,10,10,C:/Users/chelsea/OneDrive - Tarleton State University/psych 5316- adv/flanker test/CMK subject-0.csv,legacy,Lentiform Loewenfeld,3.3.3,0,h,NA,s,NA,h,NA,526,NA,39948,NA,526,NA,2,legacy,1024,2,48000,-16,experiment,SSHSS,0,even,47926,NA,NA,65022,63788,4955,NA,65129,65016,65129,44906,NA,NA,4949,NA,65657,Flanker Task,10,5788,11,yes,1024
91.66666667,91.66666667,524.5833333,524.5833333,black,legacy,legacy,legacy,0,incongruent,uniform,1,undefined,1,s,11,11,0,11,11,0,0,11,11,11,0,0,0,0,0,11,Sat Sep 12 16:31:18 2020,1500,The main experiment item,yes,FlankerTask.osexp,C:/Users/chelsea/OneDrive - Tarleton State University/psych 5316- adv,no,mono,no,18,no,white,no,no,768,legacy,11,11,C:/Users/chelsea/OneDrive - Tarleton State University/psych 5316- adv/flanker test/CMK subject-0.csv,legacy,Lentiform Loewenfeld,3.3.3,0,s,NA,s,NA,s,NA,507,NA,39948,NA,507,NA,2,legacy,1024,2,48000,-16,experiment,HHSHH,0,even,47926,NA,NA,67093,65862,4955,NA,67197,67087,67197,44906,NA,NA,4949,NA,67706,Flanker Task,11,6295,12,yes,1024
92.30769231,92.30769231,520.3076923,520.3076923,black,legacy,legacy,legacy,0,incongruent,uniform,1,undefined,1,s,12,12,0,12,12,0,0,12,12,12,0,0,0,0,0,12,Sat Sep 12 16:31:18 2020,1500,The main experiment item,yes,FlankerTask.osexp,C:/Users/chelsea/OneDrive - Tarleton State University/psych 5316- adv,no,mono,no,18,no,white,no,no,768,legacy,12,12,C:/Users/chelsea/OneDrive - Tarleton State University/psych 5316- adv/flanker test/CMK subject-0.csv,legacy,Lentiform Loewenfeld,3.3.3,0,s,NA,s,NA,s,NA,469,NA,39948,NA,469,NA,2,legacy,1024,2,48000,-16,experiment,HHSHH,0,even,47926,NA,NA,68993,67766,4955,NA,69099,68987,69099,44906,NA,NA,4949,NA,69569,Flanker Task,12,6764,13,yes,1024
92.85714286,92.85714286,516.6428571,516.6428571,black,legacy,legacy,legacy,0,congruent,uniform,1,undefined,1,h,13,13,0,13,13,0,0,13,13,13,0,0,0,0,0,13,Sat Sep 12 16:31:18 2020,1500,The main experiment item,yes,FlankerTask.osexp,C:/Users/chelsea/OneDrive - Tarleton State University/psych 5316- adv,no,mono,no,18,no,white,no,no,768,legacy,13,13,C:/Users/chelsea/OneDrive - Tarleton State University/psych 5316- adv/flanker test/CMK subject-0.csv,legacy,Lentiform Loewenfeld,3.3.3,0,h,NA,s,NA,h,NA,469,NA,39948,NA,469,NA,2,legacy,1024,2,48000,-16,experiment,HHHHH,0,even,47926,NA,NA,70923,69633,4955,NA,71027,70918,71026,44906,NA,NA,4949,NA,71498,Flanker Task,13,7233,14,yes,1024
93.33333333,93.33333333,520.2,520.2,black,legacy,legacy,legacy,0,incongruent,uniform,1,undefined,1,h,14,14,0,14,14,0,0,14,14,14,0,0,0,0,0,14,Sat Sep 12 16:31:18 2020,1500,The main experiment item,yes,FlankerTask.osexp,C:/Users/chelsea/OneDrive - Tarleton State University/psych 5316- adv,no,mono,no,18,no,white,no,no,768,legacy,14,14,C:/Users/chelsea/OneDrive - Tarleton State University/psych 5316- adv/flanker test/CMK subject-0.csv,legacy,Lentiform Loewenfeld,3.3.3,0,h,NA,s,NA,h,NA,570,NA,39948,NA,570,NA,2,legacy,1024,2,48000,-16,experiment,SSHSS,0,even,47926,NA,NA,72790,71555,4955,NA,72901,72785,72901,44906,NA,NA,4949,NA,73473,Flanker Task,14,7803,15,yes,1024
93.75,93.75,516.625,516.625,black,legacy,legacy,legacy,0,congruent,uniform,1,undefined,1,h,15,15,0,15,15,0,0,15,15,15,0,0,0,0,0,15,Sat Sep 12 16:31:18 2020,1500,The main experiment item,yes,FlankerTask.osexp,C:/Users/chelsea/OneDrive - Tarleton State University/psych 5316- adv,no,mono,no,18,no,white,no,no,768,legacy,15,15,C:/Users/chelsea/OneDrive - Tarleton State University/psych 5316- adv/flanker test/CMK subject-0.csv,legacy,Lentiform Loewenfeld,3.3.3,0,h,NA,s,NA,h,NA,463,NA,39948,NA,463,NA,2,legacy,1024,2,48000,-16,experiment,HHHHH,0,even,47926,NA,NA,74769,73532,4955,NA,74873,74764,74873,44906,NA,NA,4949,NA,75338,Flanker Task,15,8266,16,yes,1024
94.11764706,94.11764706,516.2352941,516.2352941,black,legacy,legacy,legacy,0,incongruent,uniform,1,undefined,1,s,16,16,0,16,16,0,0,16,16,16,0,0,0,0,0,16,Sat Sep 12 16:31:18 2020,1500,The main experiment item,yes,FlankerTask.osexp,C:/Users/chelsea/OneDrive - Tarleton State University/psych 5316- adv,no,mono,no,18,no,white,no,no,768,legacy,16,16,C:/Users/chelsea/OneDrive - Tarleton State University/psych 5316- adv/flanker test/CMK subject-0.csv,legacy,Lentiform Loewenfeld,3.3.3,0,s,NA,s,NA,s,NA,510,NA,39948,NA,510,NA,2,legacy,1024,2,48000,-16,experiment,HHSHH,0,even,47926,NA,NA,76593,75366,4955,NA,76697,76587,76696,44906,NA,NA,4949,NA,77209,Flanker Task,16,8776,17,yes,1024
94.44444444,94.44444444,516.7777778,516.7777778,black,legacy,legacy,legacy,0,incongruent,uniform,1,undefined,1,s,17,17,0,17,17,0,0,17,17,17,0,0,0,0,0,17,Sat Sep 12 16:31:18 2020,1500,The main experiment item,yes,FlankerTask.osexp,C:/Users/chelsea/OneDrive - Tarleton State University/psych 5316- adv,no,mono,no,18,no,white,no,no,768,legacy,17,17,C:/Users/chelsea/OneDrive - Tarleton State University/psych 5316- adv/flanker test/CMK subject-0.csv,legacy,Lentiform Loewenfeld,3.3.3,0,s,NA,s,NA,s,NA,526,NA,39948,NA,526,NA,2,legacy,1024,2,48000,-16,experiment,HHSHH,0,even,47926,NA,NA,78586,77283,4955,NA,78690,78580,78689,44906,NA,NA,4949,NA,79217,Flanker Task,17,9302,18,yes,1024
94.73684211,94.73684211,515.1052632,515.1052632,black,legacy,legacy,legacy,0,congruent,uniform,1,undefined,1,h,18,18,0,18,18,0,0,18,18,18,0,0,0,0,0,18,Sat Sep 12 16:31:18 2020,1500,The main experiment item,yes,FlankerTask.osexp,C:/Users/chelsea/OneDrive - Tarleton State University/psych 5316- adv,no,mono,no,18,no,white,no,no,768,legacy,18,18,C:/Users/chelsea/OneDrive - Tarleton State University/psych 5316- adv/flanker test/CMK subject-0.csv,legacy,Lentiform Loewenfeld,3.3.3,0,h,NA,s,NA,h,NA,485,NA,39948,NA,485,NA,2,legacy,1024,2,48000,-16,experiment,HHHHH,0,even,47926,NA,NA,80469,79243,4955,NA,80579,80464,80579,44906,NA,NA,4949,NA,81066,Flanker Task,18,9787,19,yes,1024
95,95,515.45,515.45,black,legacy,legacy,legacy,0,congruent,uniform,1,undefined,1,s,19,19,0,19,19,0,0,19,19,19,0,0,0,0,0,19,Sat Sep 12 16:31:18 2020,1500,The main experiment item,yes,FlankerTask.osexp,C:/Users/chelsea/OneDrive - Tarleton State University/psych 5316- adv,no,mono,no,18,no,white,no,no,768,legacy,19,19,C:/Users/chelsea/OneDrive - Tarleton State University/psych 5316- adv/flanker test/CMK subject-0.csv,legacy,Lentiform Loewenfeld,3.3.3,0,s,NA,s,NA,s,NA,522,NA,39948,NA,522,NA,2,legacy,1024,2,48000,-16,experiment,SSSSS,0,even,47926,NA,NA,82325,81099,4955,NA,82430,82320,82430,44906,NA,NA,4949,NA,82954,Flanker Task,19,10309,20,yes,1024
95.23809524,95.23809524,513.047619,513.047619,black,legacy,legacy,legacy,0,congruent,uniform,1,undefined,1,h,20,20,0,20,20,0,0,20,20,20,0,0,0,0,0,20,Sat Sep 12 16:31:18 2020,1500,The main experiment item,yes,FlankerTask.osexp,C:/Users/chelsea/OneDrive - Tarleton State University/psych 5316- adv,no,mono,no,18,no,white,no,no,768,legacy,20,20,C:/Users/chelsea/OneDrive - Tarleton State University/psych 5316- adv/flanker test/CMK subject-0.csv,legacy,Lentiform Loewenfeld,3.3.3,0,h,NA,s,NA,h,NA,465,NA,39948,NA,465,NA,2,legacy,1024,2,48000,-16,experiment,HHHHH,0,even,47926,NA,NA,84246,83022,4955,NA,84351,84241,84351,44906,NA,NA,4949,NA,84818,Flanker Task,20,10774,21,yes,1024
95.45454545,95.45454545,511.9545455,511.9545455,black,legacy,legacy,legacy,0,congruent,uniform,1,undefined,1,h,21,21,0,21,21,0,0,21,21,21,0,0,0,0,0,21,Sat Sep 12 16:31:18 2020,1500,The main experiment item,yes,FlankerTask.osexp,C:/Users/chelsea/OneDrive - Tarleton State University/psych 5316- adv,no,mono,no,18,no,white,no,no,768,legacy,21,21,C:/Users/chelsea/OneDrive - Tarleton State University/psych 5316- adv/flanker test/CMK subject-0.csv,legacy,Lentiform Loewenfeld,3.3.3,0,h,NA,s,NA,h,NA,489,NA,39948,NA,489,NA,2,legacy,1024,2,48000,-16,experiment,HHHHH,0,even,47926,NA,NA,86150,84855,4955,NA,86255,86145,86255,44906,NA,NA,4949,NA,86746,Flanker Task,21,11263,22,yes,1024
95.65217391,95.65217391,514.3478261,514.3478261,black,legacy,legacy,legacy,0,incongruent,uniform,1,undefined,1,h,22,22,0,22,22,0,0,22,22,22,0,0,0,0,0,22,Sat Sep 12 16:31:18 2020,1500,The main experiment item,yes,FlankerTask.osexp,C:/Users/chelsea/OneDrive - Tarleton State University/psych 5316- adv,no,mono,no,18,no,white,no,no,768,legacy,22,22,C:/Users/chelsea/OneDrive - Tarleton State University/psych 5316- adv/flanker test/CMK subject-0.csv,legacy,Lentiform Loewenfeld,3.3.3,0,h,NA,s,NA,h,NA,567,NA,39948,NA,567,NA,2,legacy,1024,2,48000,-16,experiment,SSHSS,0,even,47926,NA,NA,88020,86789,4955,NA,88129,88015,88129,44906,NA,NA,4949,NA,88698,Flanker Task,22,11830,23,yes,1024
95.83333333,95.83333333,512.25,512.25,black,legacy,legacy,legacy,0,incongruent,uniform,1,undefined,1,h,23,23,0,23,23,0,0,23,23,23,0,0,0,0,0,23,Sat Sep 12 16:31:18 2020,1500,The main experiment item,yes,FlankerTask.osexp,C:/Users/chelsea/OneDrive - Tarleton State University/psych 5316- adv,no,mono,no,18,no,white,no,no,768,legacy,23,23,C:/Users/chelsea/OneDrive - Tarleton State University/psych 5316- adv/flanker test/CMK subject-0.csv,legacy,Lentiform Loewenfeld,3.3.3,0,h,NA,s,NA,h,NA,464,NA,39948,NA,464,NA,2,legacy,1024,2,48000,-16,experiment,SSHSS,0,even,47926,NA,NA,89993,88766,4955,NA,90097,89987,90096,44906,NA,NA,4949,NA,90563,Flanker Task,23,12294,24,yes,1024
96,96,514.84,514.84,black,legacy,legacy,legacy,0,incongruent,uniform,1,undefined,1,s,24,24,0,24,24,0,0,24,24,24,0,0,0,0,0,24,Sat Sep 12 16:31:18 2020,1500,The main experiment item,yes,FlankerTask.osexp,C:/Users/chelsea/OneDrive - Tarleton State University/psych 5316- adv,no,mono,no,18,no,white,no,no,768,legacy,24,24,C:/Users/chelsea/OneDrive - Tarleton State University/psych 5316- adv/flanker test/CMK subject-0.csv,legacy,Lentiform Loewenfeld,3.3.3,0,s,NA,s,NA,s,NA,577,NA,39948,NA,577,NA,2,legacy,1024,2,48000,-16,experiment,HHSHH,0,even,47926,NA,NA,91856,90634,4955,NA,91963,91850,91962,44906,NA,NA,4949,NA,92541,Flanker Task,24,12871,25,yes,1024
96.15384615,96.15384615,518.8846154,518.8846154,black,legacy,legacy,legacy,0,congruent,uniform,1,undefined,1,s,25,25,0,25,25,0,0,25,25,25,0,0,0,0,0,25,Sat Sep 12 16:31:18 2020,1500,The main experiment item,yes,FlankerTask.osexp,C:/Users/chelsea/OneDrive - Tarleton State University/psych 5316- adv,no,mono,no,18,no,white,no,no,768,legacy,25,25,C:/Users/chelsea/OneDrive - Tarleton State University/psych 5316- adv/flanker test/CMK subject-0.csv,legacy,Lentiform Loewenfeld,3.3.3,0,s,NA,s,NA,s,NA,620,NA,39948,NA,620,NA,2,legacy,1024,2,48000,-16,experiment,SSSSS,0,even,47926,NA,NA,93884,92622,4955,NA,93988,93879,93988,44906,NA,NA,4949,NA,94610,Flanker Task,25,13491,26,yes,1024
96.2962963,96.2962963,521.1851852,521.1851852,black,legacy,legacy,legacy,0,congruent,uniform,1,undefined,1,s,26,26,0,26,26,0,0,26,26,26,0,0,0,0,0,26,Sat Sep 12 16:31:18 2020,1500,The main experiment item,yes,FlankerTask.osexp,C:/Users/chelsea/OneDrive - Tarleton State University/psych 5316- adv,no,mono,no,18,no,white,no,no,768,legacy,26,26,C:/Users/chelsea/OneDrive - Tarleton State University/psych 5316- adv/flanker test/CMK subject-0.csv,legacy,Lentiform Loewenfeld,3.3.3,0,s,NA,s,NA,s,NA,581,NA,39948,NA,581,NA,2,legacy,1024,2,48000,-16,experiment,SSSSS,0,even,47926,NA,NA,95970,94667,4955,NA,96075,95965,96075,44906,NA,NA,4949,NA,96658,Flanker Task,26,14072,27,yes,1024
96.42857143,96.42857143,518.8928571,518.8928571,black,legacy,legacy,legacy,0,incongruent,uniform,1,undefined,1,s,27,27,0,27,27,0,0,27,27,27,0,0,0,0,0,27,Sat Sep 12 16:31:18 2020,1500,The main experiment item,yes,FlankerTask.osexp,C:/Users/chelsea/OneDrive - Tarleton State University/psych 5316- adv,no,mono,no,18,no,white,no,no,768,legacy,27,27,C:/Users/chelsea/OneDrive - Tarleton State University/psych 5316- adv/flanker test/CMK subject-0.csv,legacy,Lentiform Loewenfeld,3.3.3,0,s,NA,s,NA,s,NA,457,NA,39948,NA,457,NA,2,legacy,1024,2,48000,-16,experiment,HHSHH,0,even,47926,NA,NA,97957,96722,4955,NA,98062,97952,98062,44906,NA,NA,4949,NA,98522,Flanker Task,27,14529,28,yes,1024
96.55172414,96.55172414,521.9310345,521.9310345,black,legacy,legacy,legacy,0,incongruent,uniform,1,undefined,1,h,28,28,0,28,28,0,0,28,28,28,0,0,0,0,0,28,Sat Sep 12 16:31:18 2020,1500,The main experiment item,yes,FlankerTask.osexp,C:/Users/chelsea/OneDrive - Tarleton State University/psych 5316- adv,no,mono,no,18,no,white,no,no,768,legacy,28,28,C:/Users/chelsea/OneDrive - Tarleton State University/psych 5316- adv/flanker test/CMK subject-0.csv,legacy,Lentiform Loewenfeld,3.3.3,0,h,NA,s,NA,h,NA,607,NA,39948,NA,607,NA,2,legacy,1024,2,48000,-16,experiment,SSHSS,0,even,47926,NA,NA,99785,98544,4955,NA,99889,99779,99888,44906,NA,NA,4949,NA,100498,Flanker Task,28,15136,29,yes,1024
96.66666667,96.66666667,532.7333333,532.7333333,black,legacy,legacy,legacy,0,congruent,uniform,1,undefined,1,s,29,29,0,29,29,0,0,29,29,29,0,0,0,0,0,29,Sat Sep 12 16:31:18 2020,1500,The main experiment item,yes,FlankerTask.osexp,C:/Users/chelsea/OneDrive - Tarleton State University/psych 5316- adv,no,mono,no,18,no,white,no,no,768,legacy,29,29,C:/Users/chelsea/OneDrive - Tarleton State University/psych 5316- adv/flanker test/CMK subject-0.csv,legacy,Lentiform Loewenfeld,3.3.3,0,s,NA,s,NA,s,NA,846,NA,39948,NA,846,NA,2,legacy,1024,2,48000,-16,experiment,SSSSS,0,even,47926,NA,NA,101794,100566,4955,NA,101898,101789,101898,44906,NA,NA,4949,NA,102746,Flanker Task,29,15982,30,yes,1024
96.77419355,96.77419355,531.0967742,531.0967742,black,legacy,legacy,legacy,0,congruent,uniform,1,undefined,1,h,30,30,0,30,30,0,0,30,30,30,0,0,0,0,0,30,Sat Sep 12 16:31:18 2020,1500,The main experiment item,yes,FlankerTask.osexp,C:/Users/chelsea/OneDrive - Tarleton State University/psych 5316- adv,no,mono,no,18,no,white,no,no,768,legacy,30,30,C:/Users/chelsea/OneDrive - Tarleton State University/psych 5316- adv/flanker test/CMK subject-0.csv,legacy,Lentiform Loewenfeld,3.3.3,0,h,NA,s,NA,h,NA,482,NA,39948,NA,482,NA,2,legacy,1024,2,48000,-16,experiment,HHHHH,0,even,47926,NA,NA,104046,102811,4955,NA,104150,104040,104150,44906,NA,NA,4949,NA,104634,Flanker Task,30,16464,31,yes,1024
96.875,96.875,530.03125,530.03125,black,legacy,legacy,legacy,0,incongruent,uniform,1,undefined,1,s,31,31,0,31,31,0,0,31,31,31,0,0,0,0,0,31,Sat Sep 12 16:31:18 2020,1500,The main experiment item,yes,FlankerTask.osexp,C:/Users/chelsea/OneDrive - Tarleton State University/psych 5316- adv,no,mono,no,18,no,white,no,no,768,legacy,31,31,C:/Users/chelsea/OneDrive - Tarleton State University/psych 5316- adv/flanker test/CMK subject-0.csv,legacy,Lentiform Loewenfeld,3.3.3,0,s,NA,s,NA,s,NA,497,NA,39948,NA,497,NA,2,legacy,1024,2,48000,-16,experiment,HHSHH,0,even,47926,NA,NA,105959,104699,4955,NA,106063,105953,106062,44906,NA,NA,4949,NA,106562,Flanker Task,31,16961,32,yes,1024
96.96969697,96.96969697,529.8181818,529.8181818,black,legacy,legacy,legacy,0,congruent,uniform,1,undefined,1,s,32,32,0,32,32,0,0,32,32,32,0,0,0,0,0,32,Sat Sep 12 16:31:18 2020,1500,The main experiment item,yes,FlankerTask.osexp,C:/Users/chelsea/OneDrive - Tarleton State University/psych 5316- adv,no,mono,no,18,no,white,no,no,768,legacy,32,32,C:/Users/chelsea/OneDrive - Tarleton State University/psych 5316- adv/flanker test/CMK subject-0.csv,legacy,Lentiform Loewenfeld,3.3.3,0,s,NA,s,NA,s,NA,523,NA,39948,NA,523,NA,2,legacy,1024,2,48000,-16,experiment,SSSSS,0,even,47926,NA,NA,107885,106599,4955,NA,107989,107879,107989,44906,NA,NA,4949,NA,108514,Flanker Task,32,17484,33,yes,1024
97.05882353,97.05882353,529.8235294,529.8235294,black,legacy,legacy,legacy,0,congruent,uniform,1,undefined,1,h,33,33,0,33,33,0,0,33,33,33,0,0,0,0,0,33,Sat Sep 12 16:31:18 2020,1500,The main experiment item,yes,FlankerTask.osexp,C:/Users/chelsea/OneDrive - Tarleton State University/psych 5316- adv,no,mono,no,18,no,white,no,no,768,legacy,33,33,C:/Users/chelsea/OneDrive - Tarleton State University/psych 5316- adv/flanker test/CMK subject-0.csv,legacy,Lentiform Loewenfeld,3.3.3,0,h,NA,s,NA,h,NA,530,NA,39948,NA,530,NA,2,legacy,1024,2,48000,-16,experiment,HHHHH,0,even,47926,NA,NA,109808,108577,4955,NA,109917,109802,109917,44906,NA,NA,4949,NA,110450,Flanker Task,33,18014,34,yes,1024
97.14285714,97.14285714,531.7142857,531.7142857,black,legacy,legacy,legacy,0,incongruent,uniform,1,undefined,1,h,34,34,0,34,34,0,0,34,34,34,0,0,0,0,0,34,Sat Sep 12 16:31:18 2020,1500,The main experiment item,yes,FlankerTask.osexp,C:/Users/chelsea/OneDrive - Tarleton State University/psych 5316- adv,no,mono,no,18,no,white,no,no,768,legacy,34,34,C:/Users/chelsea/OneDrive - Tarleton State University/psych 5316- adv/flanker test/CMK subject-0.csv,legacy,Lentiform Loewenfeld,3.3.3,0,h,NA,s,NA,h,NA,596,NA,39948,NA,596,NA,2,legacy,1024,2,48000,-16,experiment,SSHSS,0,even,47926,NA,NA,111738,110510,4955,NA,111844,111733,111844,44906,NA,NA,4949,NA,112442,Flanker Task,34,18610,35,yes,1024
97.22222222,97.22222222,531.8888889,531.8888889,black,legacy,legacy,legacy,0,congruent,uniform,1,undefined,1,s,35,35,0,35,35,0,0,35,35,35,0,0,0,0,0,35,Sat Sep 12 16:31:18 2020,1500,The main experiment item,yes,FlankerTask.osexp,C:/Users/chelsea/OneDrive - Tarleton State University/psych 5316- adv,no,mono,no,18,no,white,no,no,768,legacy,35,35,C:/Users/chelsea/OneDrive - Tarleton State University/psych 5316- adv/flanker test/CMK subject-0.csv,legacy,Lentiform Loewenfeld,3.3.3,0,s,NA,s,NA,s,NA,538,NA,39948,NA,538,NA,2,legacy,1024,2,48000,-16,experiment,SSSSS,0,even,47926,NA,NA,113744,112511,4955,NA,113849,113739,113849,44906,NA,NA,4949,NA,114389,Flanker Task,35,19148,36,yes,1024
97.2972973,97.2972973,533.4594595,533.4594595,black,legacy,legacy,legacy,0,congruent,uniform,1,undefined,1,h,36,36,0,36,36,0,0,36,36,36,0,0,0,0,0,36,Sat Sep 12 16:31:18 2020,1500,The main experiment item,yes,FlankerTask.osexp,C:/Users/chelsea/OneDrive - Tarleton State University/psych 5316- adv,no,mono,no,18,no,white,no,no,768,legacy,36,36,C:/Users/chelsea/OneDrive - Tarleton State University/psych 5316- adv/flanker test/CMK subject-0.csv,legacy,Lentiform Loewenfeld,3.3.3,0,h,NA,s,NA,h,NA,590,NA,39948,NA,590,NA,2,legacy,1024,2,48000,-16,experiment,HHHHH,0,even,47926,NA,NA,115704,114467,4955,NA,115810,115698,115810,44906,NA,NA,4949,NA,116402,Flanker Task,36,19738,37,yes,1024
97.36842105,97.36842105,532.5526316,532.5526316,black,legacy,legacy,legacy,0,incongruent,uniform,1,undefined,1,s,37,37,0,37,37,0,0,37,37,37,0,0,0,0,0,37,Sat Sep 12 16:31:18 2020,1500,The main experiment item,yes,FlankerTask.osexp,C:/Users/chelsea/OneDrive - Tarleton State University/psych 5316- adv,no,mono,no,18,no,white,no,no,768,legacy,37,37,C:/Users/chelsea/OneDrive - Tarleton State University/psych 5316- adv/flanker test/CMK subject-0.csv,legacy,Lentiform Loewenfeld,3.3.3,0,s,NA,s,NA,s,NA,499,NA,39948,NA,499,NA,2,legacy,1024,2,48000,-16,experiment,HHSHH,0,even,47926,NA,NA,117779,116475,4955,NA,117885,117773,117885,44906,NA,NA,4949,NA,118387,Flanker Task,37,20237,38,yes,1024
97.43589744,97.43589744,530.974359,530.974359,black,legacy,legacy,legacy,0,congruent,uniform,1,undefined,1,h,38,38,0,38,38,0,0,38,38,38,0,0,0,0,0,38,Sat Sep 12 16:31:18 2020,1500,The main experiment item,yes,FlankerTask.osexp,C:/Users/chelsea/OneDrive - Tarleton State University/psych 5316- adv,no,mono,no,18,no,white,no,no,768,legacy,38,38,C:/Users/chelsea/OneDrive - Tarleton State University/psych 5316- adv/flanker test/CMK subject-0.csv,legacy,Lentiform Loewenfeld,3.3.3,0,h,NA,s,NA,h,NA,471,NA,39948,NA,471,NA,2,legacy,1024,2,48000,-16,experiment,HHHHH,0,even,47926,NA,NA,119659,118423,4955,NA,119768,119653,119768,44906,NA,NA,4949,NA,120242,Flanker Task,38,20708,39,yes,1024
97.5,97.5,532,532,black,legacy,legacy,legacy,0,congruent,uniform,1,undefined,1,h,39,39,0,39,39,0,0,39,39,39,0,0,0,0,0,39,Sat Sep 12 16:31:18 2020,1500,The main experiment item,yes,FlankerTask.osexp,C:/Users/chelsea/OneDrive - Tarleton State University/psych 5316- adv,no,mono,no,18,no,white,no,no,768,legacy,39,39,C:/Users/chelsea/OneDrive - Tarleton State University/psych 5316- adv/flanker test/CMK subject-0.csv,legacy,Lentiform Loewenfeld,3.3.3,0,h,NA,s,NA,h,NA,572,NA,39948,NA,572,NA,2,legacy,1024,2,48000,-16,experiment,HHHHH,0,even,47926,NA,NA,121497,120266,4955,NA,121604,121491,121603,44906,NA,NA,4949,NA,122179,Flanker Task,39,21280,40,yes,1024
97.56097561,97.56097561,534.0731707,534.0731707,black,legacy,legacy,legacy,0,incongruent,uniform,1,undefined,1,h,40,40,0,40,40,0,0,40,40,40,0,0,0,0,0,40,Sat Sep 12 16:31:18 2020,1500,The main experiment item,yes,FlankerTask.osexp,C:/Users/chelsea/OneDrive - Tarleton State University/psych 5316- adv,no,mono,no,18,no,white,no,no,768,legacy,40,40,C:/Users/chelsea/OneDrive - Tarleton State University/psych 5316- adv/flanker test/CMK subject-0.csv,legacy,Lentiform Loewenfeld,3.3.3,0,h,NA,s,NA,h,NA,617,NA,39948,NA,617,NA,2,legacy,1024,2,48000,-16,experiment,SSHSS,0,even,47926,NA,NA,123445,122223,4955,NA,123551,123440,123551,44906,NA,NA,4949,NA,124171,Flanker Task,40,21897,41,yes,1024
97.61904762,97.61904762,536.6904762,536.6904762,black,legacy,legacy,legacy,0,congruent,uniform,1,undefined,1,s,41,41,0,41,41,0,0,41,41,41,0,0,0,0,0,41,Sat Sep 12 16:31:18 2020,1500,The main experiment item,yes,FlankerTask.osexp,C:/Users/chelsea/OneDrive - Tarleton State University/psych 5316- adv,no,mono,no,18,no,white,no,no,768,legacy,41,41,C:/Users/chelsea/OneDrive - Tarleton State University/psych 5316- adv/flanker test/CMK subject-0.csv,legacy,Lentiform Loewenfeld,3.3.3,0,s,NA,s,NA,s,NA,644,NA,39948,NA,644,NA,2,legacy,1024,2,48000,-16,experiment,SSSSS,0,even,47926,NA,NA,125508,124214,4955,NA,125612,125503,125612,44906,NA,NA,4949,NA,126259,Flanker Task,41,22541,42,yes,1024
97.6744186,97.6744186,538.3255814,538.3255814,black,legacy,legacy,legacy,0,congruent,uniform,1,undefined,1,s,42,42,0,42,42,0,0,42,42,42,0,0,0,0,0,42,Sat Sep 12 16:31:18 2020,1500,The main experiment item,yes,FlankerTask.osexp,C:/Users/chelsea/OneDrive - Tarleton State University/psych 5316- adv,no,mono,no,18,no,white,no,no,768,legacy,42,42,C:/Users/chelsea/OneDrive - Tarleton State University/psych 5316- adv/flanker test/CMK subject-0.csv,legacy,Lentiform Loewenfeld,3.3.3,0,s,NA,s,NA,s,NA,607,NA,39948,NA,607,NA,2,legacy,1024,2,48000,-16,experiment,SSSSS,0,even,47926,NA,NA,127584,126300,4955,NA,127689,127579,127689,44906,NA,NA,4949,NA,128299,Flanker Task,42,23148,43,yes,1024
97.72727273,97.72727273,538.9545455,538.9545455,black,legacy,legacy,legacy,0,incongruent,uniform,1,undefined,1,h,43,43,0,43,43,0,0,43,43,43,0,0,0,0,0,43,Sat Sep 12 16:31:18 2020,1500,The main experiment item,yes,FlankerTask.osexp,C:/Users/chelsea/OneDrive - Tarleton State University/psych 5316- adv,no,mono,no,18,no,white,no,no,768,legacy,43,43,C:/Users/chelsea/OneDrive - Tarleton State University/psych 5316- adv/flanker test/CMK subject-0.csv,legacy,Lentiform Loewenfeld,3.3.3,0,h,NA,s,NA,h,NA,566,NA,39948,NA,566,NA,2,legacy,1024,2,48000,-16,experiment,SSHSS,0,even,47926,NA,NA,129560,128333,4955,NA,129674,129555,129674,44906,NA,NA,4949,NA,130243,Flanker Task,43,23714,44,yes,1024
97.77777778,97.77777778,537.4444444,537.4444444,black,legacy,legacy,legacy,0,congruent,uniform,1,undefined,1,h,44,44,0,44,44,0,0,44,44,44,0,0,0,0,0,44,Sat Sep 12 16:31:18 2020,1500,The main experiment item,yes,FlankerTask.osexp,C:/Users/chelsea/OneDrive - Tarleton State University/psych 5316- adv,no,mono,no,18,no,white,no,no,768,legacy,44,44,C:/Users/chelsea/OneDrive - Tarleton State University/psych 5316- adv/flanker test/CMK subject-0.csv,legacy,Lentiform Loewenfeld,3.3.3,0,h,NA,s,NA,h,NA,471,NA,39948,NA,471,NA,2,legacy,1024,2,48000,-16,experiment,HHHHH,0,even,47926,NA,NA,131497,130267,4955,NA,131601,131492,131601,44906,NA,NA,4949,NA,132075,Flanker Task,44,24185,45,yes,1024
97.82608696,97.82608696,541.173913,541.173913,black,legacy,legacy,legacy,0,incongruent,uniform,1,undefined,1,s,45,45,0,45,45,0,0,45,45,45,0,0,0,0,0,45,Sat Sep 12 16:31:18 2020,1500,The main experiment item,yes,FlankerTask.osexp,C:/Users/chelsea/OneDrive - Tarleton State University/psych 5316- adv,no,mono,no,18,no,white,no,no,768,legacy,45,45,C:/Users/chelsea/OneDrive - Tarleton State University/psych 5316- adv/flanker test/CMK subject-0.csv,legacy,Lentiform Loewenfeld,3.3.3,0,s,NA,s,NA,s,NA,709,NA,39948,NA,709,NA,2,legacy,1024,2,48000,-16,experiment,HHSHH,0,even,47926,NA,NA,133369,132143,4955,NA,133475,133364,133475,44906,NA,NA,4949,NA,134187,Flanker Task,45,24894,46,yes,1024
97.87234043,97.87234043,539.4468085,539.4468085,black,legacy,legacy,legacy,0,congruent,uniform,1,undefined,1,s,46,46,0,46,46,0,0,46,46,46,0,0,0,0,0,46,Sat Sep 12 16:31:18 2020,1500,The main experiment item,yes,FlankerTask.osexp,C:/Users/chelsea/OneDrive - Tarleton State University/psych 5316- adv,no,mono,no,18,no,white,no,no,768,legacy,46,46,C:/Users/chelsea/OneDrive - Tarleton State University/psych 5316- adv/flanker test/CMK subject-0.csv,legacy,Lentiform Loewenfeld,3.3.3,0,s,NA,s,NA,s,NA,460,NA,39948,NA,460,NA,2,legacy,1024,2,48000,-16,experiment,SSSSS,0,even,47926,NA,NA,135501,134255,4955,NA,135605,135495,135605,44906,NA,NA,4949,NA,136067,Flanker Task,46,25354,47,yes,1024
97.91666667,97.91666667,539.2916667,539.2916667,black,legacy,legacy,legacy,0,incongruent,uniform,1,undefined,1,h,47,47,0,47,47,0,0,47,47,47,0,0,0,0,0,47,Sat Sep 12 16:31:18 2020,1500,The main experiment item,yes,FlankerTask.osexp,C:/Users/chelsea/OneDrive - Tarleton State University/psych 5316- adv,no,mono,no,18,no,white,no,no,768,legacy,47,47,C:/Users/chelsea/OneDrive - Tarleton State University/psych 5316- adv/flanker test/CMK subject-0.csv,legacy,Lentiform Loewenfeld,3.3.3,0,h,NA,s,NA,h,NA,532,NA,39948,NA,532,NA,2,legacy,1024,2,48000,-16,experiment,SSHSS,0,even,47926,NA,NA,137450,136144,4955,NA,137556,137445,137556,44906,NA,NA,4949,NA,138091,Flanker Task,47,25886,48,yes,1024
97.95918367,97.95918367,539,539,black,legacy,legacy,legacy,0,congruent,uniform,1,undefined,1,s,48,48,0,48,48,0,0,48,48,48,0,0,0,0,0,48,Sat Sep 12 16:31:18 2020,1500,The main experiment item,yes,FlankerTask.osexp,C:/Users/chelsea/OneDrive - Tarleton State University/psych 5316- adv,no,mono,no,18,no,white,no,no,768,legacy,48,48,C:/Users/chelsea/OneDrive - Tarleton State University/psych 5316- adv/flanker test/CMK subject-0.csv,legacy,Lentiform Loewenfeld,3.3.3,0,s,NA,s,NA,s,NA,525,NA,39948,NA,525,NA,2,legacy,1024,2,48000,-16,experiment,SSSSS,0,even,47926,NA,NA,139467,138190,4955,NA,139571,139457,139571,44906,NA,NA,4949,NA,140099,Flanker Task,48,26411,49,yes,1024
98,98,536.58,536.58,black,legacy,legacy,legacy,0,congruent,uniform,1,undefined,1,s,49,49,0,49,49,0,0,49,49,49,0,0,0,0,0,49,Sat Sep 12 16:31:18 2020,1500,The main experiment item,yes,FlankerTask.osexp,C:/Users/chelsea/OneDrive - Tarleton State University/psych 5316- adv,no,mono,no,18,no,white,no,no,768,legacy,49,49,C:/Users/chelsea/OneDrive - Tarleton State University/psych 5316- adv/flanker test/CMK subject-0.csv,legacy,Lentiform Loewenfeld,3.3.3,0,s,NA,s,NA,s,NA,418,NA,39948,NA,418,NA,2,legacy,1024,2,48000,-16,experiment,SSSSS,0,even,47926,NA,NA,141365,140133,4955,NA,141469,141360,141469,44906,NA,NA,4949,NA,141891,Flanker Task,49,26829,50,yes,1024
98.03921569,98.03921569,535.9803922,535.9803922,black,legacy,legacy,legacy,0,incongruent,uniform,1,undefined,1,s,50,50,0,50,50,0,0,50,50,50,0,0,0,0,0,50,Sat Sep 12 16:31:18 2020,1500,The main experiment item,yes,FlankerTask.osexp,C:/Users/chelsea/OneDrive - Tarleton State University/psych 5316- adv,no,mono,no,18,no,white,no,no,768,legacy,50,50,C:/Users/chelsea/OneDrive - Tarleton State University/psych 5316- adv/flanker test/CMK subject-0.csv,legacy,Lentiform Loewenfeld,3.3.3,0,s,NA,s,NA,s,NA,506,NA,39948,NA,506,NA,2,legacy,1024,2,48000,-16,experiment,HHSHH,0,even,47926,NA,NA,143192,141968,4955,NA,143296,143187,143295,44906,NA,NA,4949,NA,143805,Flanker Task,50,27335,51,yes,1024
98.07692308,98.07692308,536.3846154,536.3846154,black,legacy,legacy,legacy,0,incongruent,uniform,1,undefined,1,s,51,51,0,51,51,0,0,51,51,51,0,0,0,0,0,51,Sat Sep 12 16:31:18 2020,1500,The main experiment item,yes,FlankerTask.osexp,C:/Users/chelsea/OneDrive - Tarleton State University/psych 5316- adv,no,mono,no,18,no,white,no,no,768,legacy,51,51,C:/Users/chelsea/OneDrive - Tarleton State University/psych 5316- adv/flanker test/CMK subject-0.csv,legacy,Lentiform Loewenfeld,3.3.3,0,s,NA,s,NA,s,NA,557,NA,39948,NA,557,NA,2,legacy,1024,2,48000,-16,experiment,HHSHH,0,even,47926,NA,NA,145146,143878,4955,NA,145250,145141,145250,44906,NA,NA,4949,NA,145810,Flanker Task,51,27892,52,yes,1024
98.11320755,98.11320755,536.2641509,536.2641509,black,legacy,legacy,legacy,0,congruent,uniform,1,undefined,1,h,52,52,0,52,52,0,0,52,52,52,0,0,0,0,0,52,Sat Sep 12 16:31:18 2020,1500,The main experiment item,yes,FlankerTask.osexp,C:/Users/chelsea/OneDrive - Tarleton State University/psych 5316- adv,no,mono,no,18,no,white,no,no,768,legacy,52,52,C:/Users/chelsea/OneDrive - Tarleton State University/psych 5316- adv/flanker test/CMK subject-0.csv,legacy,Lentiform Loewenfeld,3.3.3,0,h,NA,s,NA,h,NA,530,NA,39948,NA,530,NA,2,legacy,1024,2,48000,-16,experiment,HHHHH,0,even,47926,NA,NA,147166,145866,4955,NA,147270,147154,147270,44906,NA,NA,4949,NA,147804,Flanker Task,52,28422,53,yes,1024
98.14814815,98.14814815,536.3518519,536.3518519,black,legacy,legacy,legacy,0,incongruent,uniform,1,undefined,1,h,53,53,0,53,53,0,0,53,53,53,0,0,0,0,0,53,Sat Sep 12 16:31:18 2020,1500,The main experiment item,yes,FlankerTask.osexp,C:/Users/chelsea/OneDrive - Tarleton State University/psych 5316- adv,no,mono,no,18,no,white,no,no,768,legacy,53,53,C:/Users/chelsea/OneDrive - Tarleton State University/psych 5316- adv/flanker test/CMK subject-0.csv,legacy,Lentiform Loewenfeld,3.3.3,0,h,NA,s,NA,h,NA,541,NA,39948,NA,541,NA,2,legacy,1024,2,48000,-16,experiment,SSHSS,0,even,47926,NA,NA,149067,147835,4955,NA,149171,149061,149171,44906,NA,NA,4949,NA,149715,Flanker Task,53,28963,54,yes,1024
98.18181818,98.18181818,536.4545455,536.4545455,black,legacy,legacy,legacy,0,congruent,uniform,1,undefined,1,s,54,54,0,54,54,0,0,54,54,54,0,0,0,0,0,54,Sat Sep 12 16:31:18 2020,1500,The main experiment item,yes,FlankerTask.osexp,C:/Users/chelsea/OneDrive - Tarleton State University/psych 5316- adv,no,mono,no,18,no,white,no,no,768,legacy,54,54,C:/Users/chelsea/OneDrive - Tarleton State University/psych 5316- adv/flanker test/CMK subject-0.csv,legacy,Lentiform Loewenfeld,3.3.3,0,s,NA,s,NA,s,NA,542,NA,39948,NA,542,NA,2,legacy,1024,2,48000,-16,experiment,SSSSS,0,even,47926,NA,NA,151009,149778,4955,NA,151115,151003,151115,44906,NA,NA,4949,NA,151660,Flanker Task,54,29505,55,yes,1024
98.21428571,98.21428571,536.5714286,536.5714286,black,legacy,legacy,legacy,0,incongruent,uniform,1,undefined,1,s,55,55,0,55,55,0,0,55,55,55,0,0,0,0,0,55,Sat Sep 12 16:31:18 2020,1500,The main experiment item,yes,FlankerTask.osexp,C:/Users/chelsea/OneDrive - Tarleton State University/psych 5316- adv,no,mono,no,18,no,white,no,no,768,legacy,55,55,C:/Users/chelsea/OneDrive - Tarleton State University/psych 5316- adv/flanker test/CMK subject-0.csv,legacy,Lentiform Loewenfeld,3.3.3,0,s,NA,s,NA,s,NA,543,NA,39948,NA,543,NA,2,legacy,1024,2,48000,-16,experiment,HHSHH,0,even,47926,NA,NA,152928,151701,4955,NA,153032,152923,153032,44906,NA,NA,4949,NA,153578,Flanker Task,55,30048,56,yes,1024
98.24561404,98.24561404,537.0877193,537.0877193,black,legacy,legacy,legacy,0,congruent,uniform,1,undefined,1,h,56,56,0,56,56,0,0,56,56,56,0,0,0,0,0,56,Sat Sep 12 16:31:18 2020,1500,The main experiment item,yes,FlankerTask.osexp,C:/Users/chelsea/OneDrive - Tarleton State University/psych 5316- adv,no,mono,no,18,no,white,no,no,768,legacy,56,56,C:/Users/chelsea/OneDrive - Tarleton State University/psych 5316- adv/flanker test/CMK subject-0.csv,legacy,Lentiform Loewenfeld,3.3.3,0,h,NA,s,NA,h,NA,566,NA,39948,NA,566,NA,2,legacy,1024,2,48000,-16,experiment,HHHHH,0,even,47926,NA,NA,154952,153652,4955,NA,155058,154948,155058,44906,NA,NA,4949,NA,155627,Flanker Task,56,30614,57,yes,1024
98.27586207,98.27586207,536.2586207,536.2586207,black,legacy,legacy,legacy,0,congruent,uniform,1,undefined,1,h,57,57,0,57,57,0,0,57,57,57,0,0,0,0,0,57,Sat Sep 12 16:31:18 2020,1500,The main experiment item,yes,FlankerTask.osexp,C:/Users/chelsea/OneDrive - Tarleton State University/psych 5316- adv,no,mono,no,18,no,white,no,no,768,legacy,57,57,C:/Users/chelsea/OneDrive - Tarleton State University/psych 5316- adv/flanker test/CMK subject-0.csv,legacy,Lentiform Loewenfeld,3.3.3,0,h,NA,s,NA,h,NA,489,NA,39948,NA,489,NA,2,legacy,1024,2,48000,-16,experiment,HHHHH,0,even,47926,NA,NA,156903,155667,4955,NA,157007,156893,157006,44906,NA,NA,4949,NA,157499,Flanker Task,57,31103,58,yes,1024
98.30508475,98.30508475,536.9322034,536.9322034,black,legacy,legacy,legacy,0,congruent,uniform,1,undefined,1,s,58,58,0,58,58,0,0,58,58,58,0,0,0,0,0,58,Sat Sep 12 16:31:18 2020,1500,The main experiment item,yes,FlankerTask.osexp,C:/Users/chelsea/OneDrive - Tarleton State University/psych 5316- adv,no,mono,no,18,no,white,no,no,768,legacy,58,58,C:/Users/chelsea/OneDrive - Tarleton State University/psych 5316- adv/flanker test/CMK subject-0.csv,legacy,Lentiform Loewenfeld,3.3.3,0,s,NA,s,NA,s,NA,576,NA,39948,NA,576,NA,2,legacy,1024,2,48000,-16,experiment,SSSSS,0,even,47926,NA,NA,158806,157578,4955,NA,158912,158801,158912,44906,NA,NA,4949,NA,159492,Flanker Task,58,31679,59,yes,1024
96.66666667,96.66666667,537.2833333,537.2833333,black,legacy,legacy,legacy,0,incongruent,uniform,0,undefined,0,s,59,59,0,59,59,0,0,59,59,59,0,0,0,0,0,59,Sat Sep 12 16:31:18 2020,1500,The main experiment item,yes,FlankerTask.osexp,C:/Users/chelsea/OneDrive - Tarleton State University/psych 5316- adv,no,mono,no,18,no,white,no,no,768,legacy,59,59,C:/Users/chelsea/OneDrive - Tarleton State University/psych 5316- adv/flanker test/CMK subject-0.csv,legacy,Lentiform Loewenfeld,3.3.3,0,h,NA,s,NA,h,NA,558,NA,39948,NA,558,NA,2,legacy,1024,2,48000,-16,experiment,HHSHH,0,even,47926,NA,NA,160778,159556,4955,NA,160882,160773,160882,44906,NA,NA,4949,NA,161449,Flanker Task,58,32237,60,yes,1024
96.72131148,96.72131148,537.5737705,537.5737705,black,legacy,legacy,legacy,0,incongruent,uniform,1,undefined,1,s,60,60,0,60,60,0,0,60,60,60,0,0,0,0,0,60,Sat Sep 12 16:31:18 2020,1500,The main experiment item,yes,FlankerTask.osexp,C:/Users/chelsea/OneDrive - Tarleton State University/psych 5316- adv,no,mono,no,18,no,white,no,no,768,legacy,60,60,C:/Users/chelsea/OneDrive - Tarleton State University/psych 5316- adv/flanker test/CMK subject-0.csv,legacy,Lentiform Loewenfeld,3.3.3,0,s,NA,s,NA,s,NA,555,NA,39948,NA,555,NA,2,legacy,1024,2,48000,-16,experiment,HHSHH,0,even,161512,NA,NA,163245,162016,4955,NA,163349,163239,163349,44906,NA,NA,4949,NA,163908,Flanker Task,59,32792,61,yes,1024
96.77419355,96.77419355,539.8064516,539.8064516,black,legacy,legacy,legacy,0,incongruent,uniform,1,undefined,1,h,61,61,0,61,61,0,0,61,61,61,0,0,0,0,0,61,Sat Sep 12 16:31:18 2020,1500,The main experiment item,yes,FlankerTask.osexp,C:/Users/chelsea/OneDrive - Tarleton State University/psych 5316- adv,no,mono,no,18,no,white,no,no,768,legacy,61,61,C:/Users/chelsea/OneDrive - Tarleton State University/psych 5316- adv/flanker test/CMK subject-0.csv,legacy,Lentiform Loewenfeld,3.3.3,0,h,NA,s,NA,h,NA,676,NA,39948,NA,676,NA,2,legacy,1024,2,48000,-16,experiment,SSHSS,0,even,161512,NA,NA,165172,163945,4955,NA,165276,165166,165275,44906,NA,NA,4949,NA,165956,Flanker Task,60,33468,62,yes,1024
96.82539683,96.82539683,539.5873016,539.5873016,black,legacy,legacy,legacy,0,incongruent,uniform,1,undefined,1,h,62,62,0,62,62,0,0,62,62,62,0,0,0,0,0,62,Sat Sep 12 16:31:18 2020,1500,The main experiment item,yes,FlankerTask.osexp,C:/Users/chelsea/OneDrive - Tarleton State University/psych 5316- adv,no,mono,no,18,no,white,no,no,768,legacy,62,62,C:/Users/chelsea/OneDrive - Tarleton State University/psych 5316- adv/flanker test/CMK subject-0.csv,legacy,Lentiform Loewenfeld,3.3.3,0,h,NA,s,NA,h,NA,526,NA,39948,NA,526,NA,2,legacy,1024,2,48000,-16,experiment,SSHSS,0,even,161512,NA,NA,167250,166023,4955,NA,167354,167245,167354,44906,NA,NA,4949,NA,167883,Flanker Task,61,33994,63,yes,1024
96.875,96.875,540.46875,540.46875,black,legacy,legacy,legacy,0,incongruent,uniform,1,undefined,1,h,63,63,0,63,63,0,0,63,63,63,0,0,0,0,0,63,Sat Sep 12 16:31:18 2020,1500,The main experiment item,yes,FlankerTask.osexp,C:/Users/chelsea/OneDrive - Tarleton State University/psych 5316- adv,no,mono,no,18,no,white,no,no,768,legacy,63,63,C:/Users/chelsea/OneDrive - Tarleton State University/psych 5316- adv/flanker test/CMK subject-0.csv,legacy,Lentiform Loewenfeld,3.3.3,0,h,NA,s,NA,h,NA,596,NA,39948,NA,596,NA,2,legacy,1024,2,48000,-16,experiment,SSHSS,0,even,161512,NA,NA,169219,167934,4955,NA,169324,169214,169324,44906,NA,NA,4949,NA,169923,Flanker Task,62,34590,64,yes,1024
96.92307692,96.92307692,540.7230769,540.7230769,black,legacy,legacy,legacy,0,congruent,uniform,1,undefined,1,h,64,64,0,64,64,0,0,64,64,64,0,0,0,0,0,64,Sat Sep 12 16:31:18 2020,1500,The main experiment item,yes,FlankerTask.osexp,C:/Users/chelsea/OneDrive - Tarleton State University/psych 5316- adv,no,mono,no,18,no,white,no,no,768,legacy,64,64,C:/Users/chelsea/OneDrive - Tarleton State University/psych 5316- adv/flanker test/CMK subject-0.csv,legacy,Lentiform Loewenfeld,3.3.3,0,h,NA,s,NA,h,NA,557,NA,39948,NA,557,NA,2,legacy,1024,2,48000,-16,experiment,HHHHH,0,even,161512,NA,NA,171298,169990,4955,NA,171403,171293,171403,44906,NA,NA,4949,NA,171964,Flanker Task,63,35147,65,yes,1024
96.96969697,96.96969697,540.4545455,540.4545455,black,legacy,legacy,legacy,0,incongruent,uniform,1,undefined,1,s,65,65,0,65,65,0,0,65,65,65,0,0,0,0,0,65,Sat Sep 12 16:31:18 2020,1500,The main experiment item,yes,FlankerTask.osexp,C:/Users/chelsea/OneDrive - Tarleton State University/psych 5316- adv,no,mono,no,18,no,white,no,no,768,legacy,65,65,C:/Users/chelsea/OneDrive - Tarleton State University/psych 5316- adv/flanker test/CMK subject-0.csv,legacy,Lentiform Loewenfeld,3.3.3,0,s,NA,s,NA,s,NA,523,NA,39948,NA,523,NA,2,legacy,1024,2,48000,-16,experiment,HHSHH,0,even,161512,NA,NA,173231,172001,4955,NA,173341,173226,173341,44906,NA,NA,4949,NA,173869,Flanker Task,64,35670,66,yes,1024
97.01492537,97.01492537,541.7164179,541.7164179,black,legacy,legacy,legacy,0,incongruent,uniform,1,undefined,1,s,66,66,0,66,66,0,0,66,66,66,0,0,0,0,0,66,Sat Sep 12 16:31:18 2020,1500,The main experiment item,yes,FlankerTask.osexp,C:/Users/chelsea/OneDrive - Tarleton State University/psych 5316- adv,no,mono,no,18,no,white,no,no,768,legacy,66,66,C:/Users/chelsea/OneDrive - Tarleton State University/psych 5316- adv/flanker test/CMK subject-0.csv,legacy,Lentiform Loewenfeld,3.3.3,0,s,NA,s,NA,s,NA,625,NA,39948,NA,625,NA,2,legacy,1024,2,48000,-16,experiment,HHSHH,0,even,161512,NA,NA,175166,173934,4955,NA,175270,175160,175270,44906,NA,NA,4949,NA,175900,Flanker Task,65,36295,67,yes,1024
97.05882353,97.05882353,541.2352941,541.2352941,black,legacy,legacy,legacy,0,congruent,uniform,1,undefined,1,h,67,67,0,67,67,0,0,67,67,67,0,0,0,0,0,67,Sat Sep 12 16:31:18 2020,1500,The main experiment item,yes,FlankerTask.osexp,C:/Users/chelsea/OneDrive - Tarleton State University/psych 5316- adv,no,mono,no,18,no,white,no,no,768,legacy,67,67,C:/Users/chelsea/OneDrive - Tarleton State University/psych 5316- adv/flanker test/CMK subject-0.csv,legacy,Lentiform Loewenfeld,3.3.3,0,h,NA,s,NA,h,NA,509,NA,39948,NA,509,NA,2,legacy,1024,2,48000,-16,experiment,HHHHH,0,even,161512,NA,NA,177200,175968,4955,NA,177305,177195,177305,44906,NA,NA,4949,NA,177817,Flanker Task,66,36804,68,yes,1024
97.10144928,97.10144928,542.9275362,542.9275362,black,legacy,legacy,legacy,0,congruent,uniform,1,undefined,1,s,68,68,0,68,68,0,0,68,68,68,0,0,0,0,0,68,Sat Sep 12 16:31:18 2020,1500,The main experiment item,yes,FlankerTask.osexp,C:/Users/chelsea/OneDrive - Tarleton State University/psych 5316- adv,no,mono,no,18,no,white,no,no,768,legacy,68,68,C:/Users/chelsea/OneDrive - Tarleton State University/psych 5316- adv/flanker test/CMK subject-0.csv,legacy,Lentiform Loewenfeld,3.3.3,0,s,NA,s,NA,s,NA,658,NA,39948,NA,658,NA,2,legacy,1024,2,48000,-16,experiment,SSSSS,0,even,161512,NA,NA,179141,177890,4955,NA,179246,179136,179246,44906,NA,NA,4949,NA,179908,Flanker Task,67,37462,69,yes,1024
97.14285714,97.14285714,542.4571429,542.4571429,black,legacy,legacy,legacy,0,congruent,uniform,1,undefined,1,s,69,69,0,69,69,0,0,69,69,69,0,0,0,0,0,69,Sat Sep 12 16:31:18 2020,1500,The main experiment item,yes,FlankerTask.osexp,C:/Users/chelsea/OneDrive - Tarleton State University/psych 5316- adv,no,mono,no,18,no,white,no,no,768,legacy,69,69,C:/Users/chelsea/OneDrive - Tarleton State University/psych 5316- adv/flanker test/CMK subject-0.csv,legacy,Lentiform Loewenfeld,3.3.3,0,s,NA,s,NA,s,NA,510,NA,39948,NA,510,NA,2,legacy,1024,2,48000,-16,experiment,SSSSS,0,even,161512,NA,NA,181234,179944,4955,NA,181338,181229,181337,44906,NA,NA,4949,NA,181852,Flanker Task,68,37972,70,yes,1024
97.18309859,97.18309859,541.8873239,541.8873239,black,legacy,legacy,legacy,0,congruent,uniform,1,undefined,1,h,70,70,0,70,70,0,0,70,70,70,0,0,0,0,0,70,Sat Sep 12 16:31:18 2020,1500,The main experiment item,yes,FlankerTask.osexp,C:/Users/chelsea/OneDrive - Tarleton State University/psych 5316- adv,no,mono,no,18,no,white,no,no,768,legacy,70,70,C:/Users/chelsea/OneDrive - Tarleton State University/psych 5316- adv/flanker test/CMK subject-0.csv,legacy,Lentiform Loewenfeld,3.3.3,0,h,NA,s,NA,h,NA,502,NA,39948,NA,502,NA,2,legacy,1024,2,48000,-16,experiment,HHHHH,0,even,161512,NA,NA,183138,181912,4955,NA,183250,183133,183250,44906,NA,NA,4949,NA,183756,Flanker Task,69,38474,71,yes,1024
97.22222222,97.22222222,540.4722222,540.4722222,black,legacy,legacy,legacy,0,congruent,uniform,1,undefined,1,h,71,71,0,71,71,0,0,71,71,71,0,0,0,0,0,71,Sat Sep 12 16:31:18 2020,1500,The main experiment item,yes,FlankerTask.osexp,C:/Users/chelsea/OneDrive - Tarleton State University/psych 5316- adv,no,mono,no,18,no,white,no,no,768,legacy,71,71,C:/Users/chelsea/OneDrive - Tarleton State University/psych 5316- adv/flanker test/CMK subject-0.csv,legacy,Lentiform Loewenfeld,3.3.3,0,h,NA,s,NA,h,NA,440,NA,39948,NA,440,NA,2,legacy,1024,2,48000,-16,experiment,HHHHH,0,even,161512,NA,NA,185053,183823,4955,NA,185160,185047,185160,44906,NA,NA,4949,NA,185604,Flanker Task,70,38914,72,yes,1024
97.26027397,97.26027397,542.6575342,542.6575342,black,legacy,legacy,legacy,0,incongruent,uniform,1,undefined,1,h,72,72,0,72,72,0,0,72,72,72,0,0,0,0,0,72,Sat Sep 12 16:31:18 2020,1500,The main experiment item,yes,FlankerTask.osexp,C:/Users/chelsea/OneDrive - Tarleton State University/psych 5316- adv,no,mono,no,18,no,white,no,no,768,legacy,72,72,C:/Users/chelsea/OneDrive - Tarleton State University/psych 5316- adv/flanker test/CMK subject-0.csv,legacy,Lentiform Loewenfeld,3.3.3,0,h,NA,s,NA,h,NA,700,NA,39948,NA,700,NA,2,legacy,1024,2,48000,-16,experiment,SSHSS,0,even,161512,NA,NA,186862,185634,4955,NA,186966,186856,186966,44906,NA,NA,4949,NA,187669,Flanker Task,71,39614,73,yes,1024
97.2972973,97.2972973,542.7432432,542.7432432,black,legacy,legacy,legacy,0,congruent,uniform,1,undefined,1,s,73,73,0,73,73,0,0,73,73,73,0,0,0,0,0,73,Sat Sep 12 16:31:18 2020,1500,The main experiment item,yes,FlankerTask.osexp,C:/Users/chelsea/OneDrive - Tarleton State University/psych 5316- adv,no,mono,no,18,no,white,no,no,768,legacy,73,73,C:/Users/chelsea/OneDrive - Tarleton State University/psych 5316- adv/flanker test/CMK subject-0.csv,legacy,Lentiform Loewenfeld,3.3.3,0,s,NA,s,NA,s,NA,549,NA,39948,NA,549,NA,2,legacy,1024,2,48000,-16,experiment,SSSSS,0,even,161512,NA,NA,189027,187745,4955,NA,189131,189021,189131,44906,NA,NA,4949,NA,189684,Flanker Task,72,40163,74,yes,1024
97.33333333,97.33333333,543.8133333,543.8133333,black,legacy,legacy,legacy,0,incongruent,uniform,1,undefined,1,h,74,74,0,74,74,0,0,74,74,74,0,0,0,0,0,74,Sat Sep 12 16:31:18 2020,1500,The main experiment item,yes,FlankerTask.osexp,C:/Users/chelsea/OneDrive - Tarleton State University/psych 5316- adv,no,mono,no,18,no,white,no,no,768,legacy,74,74,C:/Users/chelsea/OneDrive - Tarleton State University/psych 5316- adv/flanker test/CMK subject-0.csv,legacy,Lentiform Loewenfeld,3.3.3,0,h,NA,s,NA,h,NA,623,NA,39948,NA,623,NA,2,legacy,1024,2,48000,-16,experiment,SSHSS,0,even,161512,NA,NA,190953,189723,4955,NA,191057,190947,191056,44906,NA,NA,4949,NA,191684,Flanker Task,73,40786,75,yes,1024
97.36842105,97.36842105,542.7894737,542.7894737,black,legacy,legacy,legacy,0,congruent,uniform,1,undefined,1,h,75,75,0,75,75,0,0,75,75,75,0,0,0,0,0,75,Sat Sep 12 16:31:18 2020,1500,The main experiment item,yes,FlankerTask.osexp,C:/Users/chelsea/OneDrive - Tarleton State University/psych 5316- adv,no,mono,no,18,no,white,no,no,768,legacy,75,75,C:/Users/chelsea/OneDrive - Tarleton State University/psych 5316- adv/flanker test/CMK subject-0.csv,legacy,Lentiform Loewenfeld,3.3.3,0,h,NA,s,NA,h,NA,466,NA,39948,NA,466,NA,2,legacy,1024,2,48000,-16,experiment,HHHHH,0,even,161512,NA,NA,192972,191745,4955,NA,193078,192967,193078,44906,NA,NA,4949,NA,193548,Flanker Task,74,41252,76,yes,1024
97.4025974,97.4025974,542.3376623,542.3376623,black,legacy,legacy,legacy,0,incongruent,uniform,1,undefined,1,s,76,76,0,76,76,0,0,76,76,76,0,0,0,0,0,76,Sat Sep 12 16:31:18 2020,1500,The main experiment item,yes,FlankerTask.osexp,C:/Users/chelsea/OneDrive - Tarleton State University/psych 5316- adv,no,mono,no,18,no,white,no,no,768,legacy,76,76,C:/Users/chelsea/OneDrive - Tarleton State University/psych 5316- adv/flanker test/CMK subject-0.csv,legacy,Lentiform Loewenfeld,3.3.3,0,s,NA,s,NA,s,NA,508,NA,39948,NA,508,NA,2,legacy,1024,2,48000,-16,experiment,HHSHH,0,even,161512,NA,NA,194842,193612,4955,NA,194948,194836,194948,44906,NA,NA,4949,NA,195460,Flanker Task,75,41760,77,yes,1024
97.43589744,97.43589744,541.6794872,541.6794872,black,legacy,legacy,legacy,0,incongruent,uniform,1,undefined,1,s,77,77,0,77,77,0,0,77,77,77,0,0,0,0,0,77,Sat Sep 12 16:31:18 2020,1500,The main experiment item,yes,FlankerTask.osexp,C:/Users/chelsea/OneDrive - Tarleton State University/psych 5316- adv,no,mono,no,18,no,white,no,no,768,legacy,77,77,C:/Users/chelsea/OneDrive - Tarleton State University/psych 5316- adv/flanker test/CMK subject-0.csv,legacy,Lentiform Loewenfeld,3.3.3,0,s,NA,s,NA,s,NA,491,NA,39948,NA,491,NA,2,legacy,1024,2,48000,-16,experiment,HHSHH,0,even,161512,NA,NA,196754,195524,4955,NA,196861,196749,196861,44906,NA,NA,4949,NA,197356,Flanker Task,76,42251,78,yes,1024
97.46835443,97.46835443,541.5063291,541.5063291,black,legacy,legacy,legacy,0,incongruent,uniform,1,undefined,1,h,78,78,0,78,78,0,0,78,78,78,0,0,0,0,0,78,Sat Sep 12 16:31:18 2020,1500,The main experiment item,yes,FlankerTask.osexp,C:/Users/chelsea/OneDrive - Tarleton State University/psych 5316- adv,no,mono,no,18,no,white,no,no,768,legacy,78,78,C:/Users/chelsea/OneDrive - Tarleton State University/psych 5316- adv/flanker test/CMK subject-0.csv,legacy,Lentiform Loewenfeld,3.3.3,0,h,NA,s,NA,h,NA,528,NA,39948,NA,528,NA,2,legacy,1024,2,48000,-16,experiment,SSHSS,0,even,161512,NA,NA,198694,197401,4955,NA,198800,198688,198800,44906,NA,NA,4949,NA,199332,Flanker Task,77,42779,79,yes,1024
97.5,97.5,540.35,540.35,black,legacy,legacy,legacy,0,congruent,uniform,1,undefined,1,s,79,79,0,79,79,0,0,79,79,79,0,0,0,0,0,79,Sat Sep 12 16:31:18 2020,1500,The main experiment item,yes,FlankerTask.osexp,C:/Users/chelsea/OneDrive - Tarleton State University/psych 5316- adv,no,mono,no,18,no,white,no,no,768,legacy,79,79,C:/Users/chelsea/OneDrive - Tarleton State University/psych 5316- adv/flanker test/CMK subject-0.csv,legacy,Lentiform Loewenfeld,3.3.3,0,s,NA,s,NA,s,NA,449,NA,39948,NA,449,NA,2,legacy,1024,2,48000,-16,experiment,SSSSS,0,even,161512,NA,NA,200597,199367,4955,NA,200710,200592,200710,44906,NA,NA,4949,NA,201164,Flanker Task,78,43228,80,yes,1024
97.5308642,97.5308642,540.1728395,540.1728395,black,legacy,legacy,legacy,0,incongruent,uniform,1,undefined,1,s,80,80,0,80,80,0,0,80,80,80,0,0,0,0,0,80,Sat Sep 12 16:31:18 2020,600,The main experiment item,yes,FlankerTask.osexp,C:/Users/chelsea/OneDrive - Tarleton State University/psych 5316- adv,no,mono,no,18,no,white,no,no,768,legacy,0,79,C:/Users/chelsea/OneDrive - Tarleton State University/psych 5316- adv/flanker test/CMK subject-0.csv,legacy,Lentiform Loewenfeld,3.3.3,0,s,NA,s,NA,s,s,526,NA,39948,NA,526,142678,2,legacy,1024,2,48000,-16,experiment,HHSHH,0,even,161512,NA,NA,345242,201224,4955,NA,345346,345237,345346,44906,344989,NA,4949,202306,345877,Flanker Task,79,43754,81,yes,1024
97.56097561,97.56097561,538.5,538.5,black,legacy,legacy,legacy,0,incongruent,uniform,1,undefined,1,h,81,81,0,81,81,0,0,81,81,81,0,0,0,0,0,81,Sat Sep 12 16:31:18 2020,600,The main experiment item,yes,FlankerTask.osexp,C:/Users/chelsea/OneDrive - Tarleton State University/psych 5316- adv,no,mono,no,18,no,white,no,no,768,legacy,1,79,C:/Users/chelsea/OneDrive - Tarleton State University/psych 5316- adv/flanker test/CMK subject-0.csv,legacy,Lentiform Loewenfeld,3.3.3,0,h,NA,s,NA,h,s,403,NA,39948,NA,403,142678,2,legacy,1024,2,48000,-16,experiment,SSHSS,0,even,161512,NA,NA,347164,345936,4955,NA,347268,347159,347268,44906,344989,NA,4949,202306,347675,Flanker Task,80,44157,82,yes,1024
97.59036145,97.59036145,537.9638554,537.9638554,black,legacy,legacy,legacy,0,congruent,uniform,1,undefined,1,h,82,82,0,82,82,0,0,82,82,82,0,0,0,0,0,82,Sat Sep 12 16:31:18 2020,600,The main experiment item,yes,FlankerTask.osexp,C:/Users/chelsea/OneDrive - Tarleton State University/psych 5316- adv,no,mono,no,18,no,white,no,no,768,legacy,2,79,C:/Users/chelsea/OneDrive - Tarleton State University/psych 5316- adv/flanker test/CMK subject-0.csv,legacy,Lentiform Loewenfeld,3.3.3,0,h,NA,s,NA,h,s,494,NA,39948,NA,494,142678,2,legacy,1024,2,48000,-16,experiment,HHHHH,0,even,161512,NA,NA,348966,347737,4955,NA,349073,348961,349073,44906,344989,NA,4949,202306,349577,Flanker Task,81,44651,83,yes,1024
97.61904762,97.61904762,537.5119048,537.5119048,black,legacy,legacy,legacy,0,incongruent,uniform,1,undefined,1,h,83,83,0,83,83,0,0,83,83,83,0,0,0,0,0,83,Sat Sep 12 16:31:18 2020,600,The main experiment item,yes,FlankerTask.osexp,C:/Users/chelsea/OneDrive - Tarleton State University/psych 5316- adv,no,mono,no,18,no,white,no,no,768,legacy,3,79,C:/Users/chelsea/OneDrive - Tarleton State University/psych 5316- adv/flanker test/CMK subject-0.csv,legacy,Lentiform Loewenfeld,3.3.3,0,h,NA,s,NA,h,s,500,NA,39948,NA,500,142678,2,legacy,1024,2,48000,-16,experiment,SSHSS,0,even,161512,NA,NA,350923,349647,4955,NA,351027,350918,351027,44906,344989,NA,4949,202306,351532,Flanker Task,82,45151,84,yes,1024
96.47058824,96.47058824,536.4235294,536.4235294,black,legacy,legacy,legacy,0,incongruent,uniform,0,undefined,0,h,84,84,0,84,84,0,0,84,84,84,0,0,0,0,0,84,Sat Sep 12 16:31:18 2020,600,The main experiment item,yes,FlankerTask.osexp,C:/Users/chelsea/OneDrive - Tarleton State University/psych 5316- adv,no,mono,no,18,no,white,no,no,768,legacy,4,79,C:/Users/chelsea/OneDrive - Tarleton State University/psych 5316- adv/flanker test/CMK subject-0.csv,legacy,Lentiform Loewenfeld,3.3.3,0,s,NA,s,NA,s,s,445,NA,39948,NA,445,142678,2,legacy,1024,2,48000,-16,experiment,SSHSS,0,even,161512,NA,NA,352828,351592,4955,NA,352938,352823,352938,44906,344989,NA,4949,202306,353388,Flanker Task,82,45596,85,yes,1024
96.51162791,96.51162791,536.127907,536.127907,black,legacy,legacy,legacy,0,incongruent,uniform,1,undefined,1,h,85,85,0,85,85,0,0,85,85,85,0,0,0,0,0,85,Sat Sep 12 16:31:18 2020,600,The main experiment item,yes,FlankerTask.osexp,C:/Users/chelsea/OneDrive - Tarleton State University/psych 5316- adv,no,mono,no,18,no,white,no,no,768,legacy,5,79,C:/Users/chelsea/OneDrive - Tarleton State University/psych 5316- adv/flanker test/CMK subject-0.csv,legacy,Lentiform Loewenfeld,3.3.3,0,h,NA,s,NA,h,s,511,NA,39948,NA,511,142678,2,legacy,1024,2,48000,-16,experiment,SSHSS,0,even,353425,NA,NA,355247,353931,4955,NA,355353,355241,355353,44906,344989,NA,4949,202306,355869,Flanker Task,83,46107,86,yes,1024
96.55172414,96.55172414,535.0804598,535.0804598,black,legacy,legacy,legacy,0,congruent,uniform,1,undefined,1,h,86,86,0,86,86,0,0,86,86,86,0,0,0,0,0,86,Sat Sep 12 16:31:18 2020,600,The main experiment item,yes,FlankerTask.osexp,C:/Users/chelsea/OneDrive - Tarleton State University/psych 5316- adv,no,mono,no,18,no,white,no,no,768,legacy,6,79,C:/Users/chelsea/OneDrive - Tarleton State University/psych 5316- adv/flanker test/CMK subject-0.csv,legacy,Lentiform Loewenfeld,3.3.3,0,h,NA,s,NA,h,s,445,NA,39948,NA,445,142678,2,legacy,1024,2,48000,-16,experiment,HHHHH,0,even,353425,NA,NA,357170,355936,4955,NA,357274,357164,357274,44906,344989,NA,4949,202306,357724,Flanker Task,84,46552,87,yes,1024
96.59090909,96.59090909,535.2159091,535.2159091,black,legacy,legacy,legacy,0,congruent,uniform,1,undefined,1,s,87,87,0,87,87,0,0,87,87,87,0,0,0,0,0,87,Sat Sep 12 16:31:18 2020,600,The main experiment item,yes,FlankerTask.osexp,C:/Users/chelsea/OneDrive - Tarleton State University/psych 5316- adv,no,mono,no,18,no,white,no,no,768,legacy,7,79,C:/Users/chelsea/OneDrive - Tarleton State University/psych 5316- adv/flanker test/CMK subject-0.csv,legacy,Lentiform Loewenfeld,3.3.3,0,s,NA,s,NA,s,s,547,NA,39948,NA,547,142678,2,legacy,1024,2,48000,-16,experiment,SSSSS,0,even,353425,NA,NA,359010,357781,4955,NA,359117,359005,359117,44906,344989,NA,4949,202306,359668,Flanker Task,85,47099,88,yes,1024
96.62921348,96.62921348,535.5730337,535.5730337,black,legacy,legacy,legacy,0,incongruent,uniform,1,undefined,1,s,88,88,0,88,88,0,0,88,88,88,0,0,0,0,0,88,Sat Sep 12 16:31:18 2020,600,The main experiment item,yes,FlankerTask.osexp,C:/Users/chelsea/OneDrive - Tarleton State University/psych 5316- adv,no,mono,no,18,no,white,no,no,768,legacy,8,79,C:/Users/chelsea/OneDrive - Tarleton State University/psych 5316- adv/flanker test/CMK subject-0.csv,legacy,Lentiform Loewenfeld,3.3.3,0,s,NA,s,NA,s,s,567,NA,39948,NA,567,142678,2,legacy,1024,2,48000,-16,experiment,HHSHH,0,even,353425,NA,NA,360966,359737,4955,NA,361070,360961,361069,44906,344989,NA,4949,202306,361641,Flanker Task,86,47666,89,yes,1024
96.66666667,96.66666667,538.3,538.3,black,legacy,legacy,legacy,0,congruent,uniform,1,undefined,1,s,89,89,0,89,89,0,0,89,89,89,0,0,0,0,0,89,Sat Sep 12 16:31:18 2020,600,The main experiment item,yes,FlankerTask.osexp,C:/Users/chelsea/OneDrive - Tarleton State University/psych 5316- adv,no,mono,no,18,no,white,no,no,768,legacy,9,79,C:/Users/chelsea/OneDrive - Tarleton State University/psych 5316- adv/flanker test/CMK subject-0.csv,legacy,Lentiform Loewenfeld,3.3.3,0,s,NA,s,NA,s,s,781,NA,39948,NA,781,142678,2,legacy,1024,2,48000,-16,experiment,SSSSS,0,even,353425,NA,NA,362959,361681,4955,NA,363063,362953,363063,44906,344989,NA,4949,202306,363848,Flanker Task,87,48447,90,yes,1024
96.7032967,96.7032967,537.5384615,537.5384615,black,legacy,legacy,legacy,0,incongruent,uniform,1,undefined,1,s,90,90,0,90,90,0,0,90,90,90,0,0,0,0,0,90,Sat Sep 12 16:31:18 2020,600,The main experiment item,yes,FlankerTask.osexp,C:/Users/chelsea/OneDrive - Tarleton State University/psych 5316- adv,no,mono,no,18,no,white,no,no,768,legacy,10,79,C:/Users/chelsea/OneDrive - Tarleton State University/psych 5316- adv/flanker test/CMK subject-0.csv,legacy,Lentiform Loewenfeld,3.3.3,0,s,NA,s,NA,s,s,469,NA,39948,NA,469,142678,2,legacy,1024,2,48000,-16,experiment,HHSHH,0,even,353425,363902,NA,365643,364406,4955,NA,365747,365637,365747,44906,344989,NA,4949,202306,366221,Flanker Task,88,48916,91,yes,1024
96.73913043,96.73913043,536.6304348,536.6304348,black,legacy,legacy,legacy,0,incongruent,uniform,1,undefined,1,s,91,91,0,91,91,0,0,91,91,91,0,0,0,0,0,91,Sat Sep 12 16:31:18 2020,600,The main experiment item,yes,FlankerTask.osexp,C:/Users/chelsea/OneDrive - Tarleton State University/psych 5316- adv,no,mono,no,18,no,white,no,no,768,legacy,11,79,C:/Users/chelsea/OneDrive - Tarleton State University/psych 5316- adv/flanker test/CMK subject-0.csv,legacy,Lentiform Loewenfeld,3.3.3,0,s,NA,s,NA,s,s,454,NA,39948,NA,454,142678,2,legacy,1024,2,48000,-16,experiment,HHSHH,0,even,353425,363902,NA,367512,366280,4955,NA,367617,367507,367616,44906,344989,NA,4949,202306,368076,Flanker Task,89,49370,92,yes,1024
96.77419355,96.77419355,536.516129,536.516129,black,legacy,legacy,legacy,0,incongruent,uniform,1,undefined,1,h,92,92,0,92,92,0,0,92,92,92,0,0,0,0,0,92,Sat Sep 12 16:31:18 2020,600,The main experiment item,yes,FlankerTask.osexp,C:/Users/chelsea/OneDrive - Tarleton State University/psych 5316- adv,no,mono,no,18,no,white,no,no,768,legacy,12,79,C:/Users/chelsea/OneDrive - Tarleton State University/psych 5316- adv/flanker test/CMK subject-0.csv,legacy,Lentiform Loewenfeld,3.3.3,0,h,NA,s,NA,h,s,526,NA,39948,NA,526,142678,2,legacy,1024,2,48000,-16,experiment,SSHSS,0,even,353425,363902,NA,369409,368115,4955,NA,369513,369404,369513,44906,344989,NA,4949,202306,370044,Flanker Task,90,49896,93,yes,1024
96.80851064,96.80851064,535.7978723,535.7978723,black,legacy,legacy,legacy,0,incongruent,uniform,1,undefined,1,h,93,93,0,93,93,0,0,93,93,93,0,0,0,0,0,93,Sat Sep 12 16:31:18 2020,600,The main experiment item,yes,FlankerTask.osexp,C:/Users/chelsea/OneDrive - Tarleton State University/psych 5316- adv,no,mono,no,18,no,white,no,no,768,legacy,13,79,C:/Users/chelsea/OneDrive - Tarleton State University/psych 5316- adv/flanker test/CMK subject-0.csv,legacy,Lentiform Loewenfeld,3.3.3,0,h,NA,s,NA,h,s,469,NA,39948,NA,469,142678,2,legacy,1024,2,48000,-16,experiment,SSHSS,0,even,353425,363902,NA,371328,370103,4955,NA,371435,371323,371435,44906,344989,NA,4949,202306,371909,Flanker Task,91,50365,94,yes,1024
96.84210526,96.84210526,534.9578947,534.9578947,black,legacy,legacy,legacy,0,congruent,uniform,1,undefined,1,h,94,94,0,94,94,0,0,94,94,94,0,0,0,0,0,94,Sat Sep 12 16:31:18 2020,600,The main experiment item,yes,FlankerTask.osexp,C:/Users/chelsea/OneDrive - Tarleton State University/psych 5316- adv,no,mono,no,18,no,white,no,no,768,legacy,14,79,C:/Users/chelsea/OneDrive - Tarleton State University/psych 5316- adv/flanker test/CMK subject-0.csv,legacy,Lentiform Loewenfeld,3.3.3,0,h,NA,s,NA,h,s,456,NA,39948,NA,456,142678,2,legacy,1024,2,48000,-16,experiment,HHHHH,0,even,353425,363902,NA,373197,371970,4955,NA,373302,373192,373302,44906,344989,NA,4949,202306,373762,Flanker Task,92,50821,95,yes,1024
96.875,96.875,533.8125,533.8125,black,legacy,legacy,legacy,0,incongruent,uniform,1,undefined,1,h,95,95,0,95,95,0,0,95,95,95,0,0,0,0,0,95,Sat Sep 12 16:31:18 2020,600,The main experiment item,yes,FlankerTask.osexp,C:/Users/chelsea/OneDrive - Tarleton State University/psych 5316- adv,no,mono,no,18,no,white,no,no,768,legacy,15,79,C:/Users/chelsea/OneDrive - Tarleton State University/psych 5316- adv/flanker test/CMK subject-0.csv,legacy,Lentiform Loewenfeld,3.3.3,0,h,NA,s,NA,h,s,425,NA,39948,NA,425,142678,2,legacy,1024,2,48000,-16,experiment,SSHSS,0,even,353425,363902,NA,375100,373803,4955,NA,375207,375095,375206,44906,344989,NA,4949,202306,375637,Flanker Task,93,51246,96,yes,1024
96.90721649,96.90721649,532.8865979,532.8865979,black,legacy,legacy,legacy,0,congruent,uniform,1,undefined,1,h,96,96,0,96,96,0,0,96,96,96,0,0,0,0,0,96,Sat Sep 12 16:31:18 2020,600,The main experiment item,yes,FlankerTask.osexp,C:/Users/chelsea/OneDrive - Tarleton State University/psych 5316- adv,no,mono,no,18,no,white,no,no,768,legacy,16,79,C:/Users/chelsea/OneDrive - Tarleton State University/psych 5316- adv/flanker test/CMK subject-0.csv,legacy,Lentiform Loewenfeld,3.3.3,0,h,NA,s,NA,h,s,444,NA,39948,NA,444,142678,2,legacy,1024,2,48000,-16,experiment,HHHHH,0,even,353425,363902,NA,376930,375703,4955,NA,377035,376925,377034,44906,344989,NA,4949,202306,377485,Flanker Task,94,51690,97,yes,1024
96.93877551,96.93877551,531.6122449,531.6122449,black,legacy,legacy,legacy,0,incongruent,uniform,1,undefined,1,h,97,97,0,97,97,0,0,97,97,97,0,0,0,0,0,97,Sat Sep 12 16:31:18 2020,600,The main experiment item,yes,FlankerTask.osexp,C:/Users/chelsea/OneDrive - Tarleton State University/psych 5316- adv,no,mono,no,18,no,white,no,no,768,legacy,17,79,C:/Users/chelsea/OneDrive - Tarleton State University/psych 5316- adv/flanker test/CMK subject-0.csv,legacy,Lentiform Loewenfeld,3.3.3,0,h,NA,s,NA,h,s,408,NA,39948,NA,408,142678,2,legacy,1024,2,48000,-16,experiment,SSHSS,0,even,353425,363902,NA,378741,377516,4955,NA,378847,378735,378847,44906,344989,NA,4949,202306,379266,Flanker Task,95,52098,98,yes,1024
96.96969697,96.96969697,532.4545455,532.4545455,black,legacy,legacy,legacy,0,incongruent,uniform,1,undefined,1,s,98,98,0,98,98,0,0,98,98,98,0,0,0,0,0,98,Sat Sep 12 16:31:18 2020,600,The main experiment item,yes,FlankerTask.osexp,C:/Users/chelsea/OneDrive - Tarleton State University/psych 5316- adv,no,mono,no,18,no,white,no,no,768,legacy,18,79,C:/Users/chelsea/OneDrive - Tarleton State University/psych 5316- adv/flanker test/CMK subject-0.csv,legacy,Lentiform Loewenfeld,3.3.3,0,s,NA,s,NA,s,s,615,NA,39948,NA,615,142678,2,legacy,1024,2,48000,-16,experiment,HHSHH,0,even,353425,363902,NA,380607,379324,4955,NA,380713,380602,380713,44906,344989,NA,4949,202306,381333,Flanker Task,96,52713,99,yes,1024
97,97,531.41,531.41,black,legacy,legacy,legacy,0,incongruent,uniform,1,undefined,1,s,99,99,0,99,99,0,0,99,99,99,0,0,0,0,0,99,Sat Sep 12 16:31:18 2020,600,The main experiment item,yes,FlankerTask.osexp,C:/Users/chelsea/OneDrive - Tarleton State University/psych 5316- adv,no,mono,no,18,no,white,no,no,768,legacy,19,79,C:/Users/chelsea/OneDrive - Tarleton State University/psych 5316- adv/flanker test/CMK subject-0.csv,legacy,Lentiform Loewenfeld,3.3.3,0,s,NA,s,NA,s,s,428,NA,39948,NA,428,142678,2,legacy,1024,2,48000,-16,experiment,HHSHH,0,even,353425,381414,NA,383156,381921,4955,NA,383263,383151,383262,44906,344989,NA,4949,202306,383695,Flanker Task,97,53141,100,yes,1024
97.02970297,97.02970297,531.4653465,531.4653465,black,legacy,legacy,legacy,0,incongruent,uniform,1,undefined,1,h,100,100,0,100,100,0,0,100,100,100,0,0,0,0,0,100,Sat Sep 12 16:31:18 2020,600,The main experiment item,yes,FlankerTask.osexp,C:/Users/chelsea/OneDrive - Tarleton State University/psych 5316- adv,no,mono,no,18,no,white,no,no,768,legacy,20,79,C:/Users/chelsea/OneDrive - Tarleton State University/psych 5316- adv/flanker test/CMK subject-0.csv,legacy,Lentiform Loewenfeld,3.3.3,0,h,NA,s,NA,h,s,537,NA,39948,NA,537,142678,2,legacy,1024,2,48000,-16,experiment,SSHSS,0,even,353425,381414,NA,385058,383765,4955,NA,385166,385053,385165,44906,344989,NA,4949,202306,385708,Flanker Task,98,53678,101,yes,1024
97.05882353,97.05882353,531.0882353,531.0882353,black,legacy,legacy,legacy,0,congruent,uniform,1,undefined,1,h,101,101,0,101,101,0,0,101,101,101,0,0,0,0,0,101,Sat Sep 12 16:31:18 2020,600,The main experiment item,yes,FlankerTask.osexp,C:/Users/chelsea/OneDrive - Tarleton State University/psych 5316- adv,no,mono,no,18,no,white,no,no,768,legacy,21,79,C:/Users/chelsea/OneDrive - Tarleton State University/psych 5316- adv/flanker test/CMK subject-0.csv,legacy,Lentiform Loewenfeld,3.3.3,0,h,NA,s,NA,h,s,493,NA,39948,NA,493,142678,2,legacy,1024,2,48000,-16,experiment,HHHHH,0,even,353425,381414,NA,386979,385747,4955,NA,387083,386974,387083,44906,344989,NA,4949,202306,387581,Flanker Task,99,54171,102,yes,1024
97.08737864,97.08737864,530.4854369,530.4854369,black,legacy,legacy,legacy,0,congruent,uniform,1,undefined,1,h,102,102,0,102,102,0,0,102,102,102,0,0,0,0,0,102,Sat Sep 12 16:31:18 2020,600,The main experiment item,yes,FlankerTask.osexp,C:/Users/chelsea/OneDrive - Tarleton State University/psych 5316- adv,no,mono,no,18,no,white,no,no,768,legacy,22,79,C:/Users/chelsea/OneDrive - Tarleton State University/psych 5316- adv/flanker test/CMK subject-0.csv,legacy,Lentiform Loewenfeld,3.3.3,0,h,NA,s,NA,h,s,469,NA,39948,NA,469,142678,2,legacy,1024,2,48000,-16,experiment,HHHHH,0,even,353425,381414,NA,388840,387614,4955,NA,388946,388835,388946,44906,344989,NA,4949,202306,389421,Flanker Task,100,54640,103,yes,1024
97.11538462,97.11538462,529.8942308,529.8942308,black,legacy,legacy,legacy,0,congruent,uniform,1,undefined,1,h,103,103,0,103,103,0,0,103,103,103,0,0,0,0,0,103,Sat Sep 12 16:31:18 2020,600,The main experiment item,yes,FlankerTask.osexp,C:/Users/chelsea/OneDrive - Tarleton State University/psych 5316- adv,no,mono,no,18,no,white,no,no,768,legacy,23,79,C:/Users/chelsea/OneDrive - Tarleton State University/psych 5316- adv/flanker test/CMK subject-0.csv,legacy,Lentiform Loewenfeld,3.3.3,0,h,NA,s,NA,h,s,469,NA,39948,NA,469,142678,2,legacy,1024,2,48000,-16,experiment,HHHHH,0,even,353425,381414,NA,390707,389481,4955,NA,390811,390702,390811,44906,344989,NA,4949,202306,391285,Flanker Task,101,55109,104,yes,1024
97.14285714,97.14285714,529.4952381,529.4952381,black,legacy,legacy,legacy,0,incongruent,uniform,1,undefined,1,h,104,104,0,104,104,0,0,104,104,104,0,0,0,0,0,104,Sat Sep 12 16:31:18 2020,600,The main experiment item,yes,FlankerTask.osexp,C:/Users/chelsea/OneDrive - Tarleton State University/psych 5316- adv,no,mono,no,18,no,white,no,no,768,legacy,24,79,C:/Users/chelsea/OneDrive - Tarleton State University/psych 5316- adv/flanker test/CMK subject-0.csv,legacy,Lentiform Loewenfeld,3.3.3,0,h,NA,s,NA,h,s,488,NA,39948,NA,488,142678,2,legacy,1024,2,48000,-16,experiment,SSHSS,0,even,353425,381414,NA,392638,391326,4955,NA,392743,392633,392743,44906,344989,NA,4949,202306,393237,Flanker Task,102,55597,105,yes,1024
97.16981132,97.16981132,529.5660377,529.5660377,black,legacy,legacy,legacy,0,incongruent,uniform,1,undefined,1,s,105,105,0,105,105,0,0,105,105,105,0,0,0,0,0,105,Sat Sep 12 16:31:18 2020,600,The main experiment item,yes,FlankerTask.osexp,C:/Users/chelsea/OneDrive - Tarleton State University/psych 5316- adv,no,mono,no,18,no,white,no,no,768,legacy,25,79,C:/Users/chelsea/OneDrive - Tarleton State University/psych 5316- adv/flanker test/CMK subject-0.csv,legacy,Lentiform Loewenfeld,3.3.3,0,s,NA,s,NA,s,s,537,NA,39948,NA,537,142678,2,legacy,1024,2,48000,-16,experiment,HHSHH,0,even,353425,381414,NA,394501,393269,4955,NA,394614,394496,394614,44906,344989,NA,4949,202306,395157,Flanker Task,103,56134,106,yes,1024
97.19626168,97.19626168,531.0747664,531.0747664,black,legacy,legacy,legacy,0,congruent,uniform,1,undefined,1,s,106,106,0,106,106,0,0,106,106,106,0,0,0,0,0,106,Sat Sep 12 16:31:18 2020,600,The main experiment item,yes,FlankerTask.osexp,C:/Users/chelsea/OneDrive - Tarleton State University/psych 5316- adv,no,mono,no,18,no,white,no,no,768,legacy,26,79,C:/Users/chelsea/OneDrive - Tarleton State University/psych 5316- adv/flanker test/CMK subject-0.csv,legacy,Lentiform Loewenfeld,3.3.3,0,s,NA,s,NA,s,s,691,NA,39948,NA,691,142678,2,legacy,1024,2,48000,-16,experiment,SSSSS,0,even,353425,381414,NA,396450,395217,4955,NA,396556,396445,396556,44906,344989,NA,4949,202306,397253,Flanker Task,104,56825,107,yes,1024
97.22222222,97.22222222,530.9166667,530.9166667,black,legacy,legacy,legacy,0,congruent,uniform,1,undefined,1,s,107,107,0,107,107,0,0,107,107,107,0,0,0,0,0,107,Sat Sep 12 16:31:18 2020,600,The main experiment item,yes,FlankerTask.osexp,C:/Users/chelsea/OneDrive - Tarleton State University/psych 5316- adv,no,mono,no,18,no,white,no,no,768,legacy,27,79,C:/Users/chelsea/OneDrive - Tarleton State University/psych 5316- adv/flanker test/CMK subject-0.csv,legacy,Lentiform Loewenfeld,3.3.3,0,s,NA,s,NA,s,s,514,NA,39948,NA,514,142678,2,legacy,1024,2,48000,-16,experiment,SSSSS,0,even,353425,397314,NA,399109,397817,4955,NA,399213,399104,399213,44906,344989,NA,4949,202306,399733,Flanker Task,105,57339,108,yes,1024
97.24770642,97.24770642,530.3302752,530.3302752,black,legacy,legacy,legacy,0,congruent,uniform,1,undefined,1,h,108,108,0,108,108,0,0,108,108,108,0,0,0,0,0,108,Sat Sep 12 16:31:18 2020,600,The main experiment item,yes,FlankerTask.osexp,C:/Users/chelsea/OneDrive - Tarleton State University/psych 5316- adv,no,mono,no,18,no,white,no,no,768,legacy,28,79,C:/Users/chelsea/OneDrive - Tarleton State University/psych 5316- adv/flanker test/CMK subject-0.csv,legacy,Lentiform Loewenfeld,3.3.3,0,h,NA,s,NA,h,s,467,NA,39948,NA,467,142678,2,legacy,1024,2,48000,-16,experiment,HHHHH,0,even,353425,397314,NA,400997,399770,4955,NA,401101,400992,401101,44906,344989,NA,4949,202306,401573,Flanker Task,106,57806,109,yes,1024
97.27272727,97.27272727,530.2181818,530.2181818,black,legacy,legacy,legacy,0,incongruent,uniform,1,undefined,1,h,109,109,0,109,109,0,0,109,109,109,0,0,0,0,0,109,Sat Sep 12 16:31:18 2020,600,The main experiment item,yes,FlankerTask.osexp,C:/Users/chelsea/OneDrive - Tarleton State University/psych 5316- adv,no,mono,no,18,no,white,no,no,768,legacy,29,79,C:/Users/chelsea/OneDrive - Tarleton State University/psych 5316- adv/flanker test/CMK subject-0.csv,legacy,Lentiform Loewenfeld,3.3.3,0,h,NA,s,NA,h,s,518,NA,39948,NA,518,142678,2,legacy,1024,2,48000,-16,experiment,SSHSS,0,even,353425,397314,NA,402864,401637,4955,NA,402969,402859,402968,44906,344989,NA,4949,202306,403493,Flanker Task,107,58324,110,yes,1024
97.2972973,97.2972973,530.972973,530.972973,black,legacy,legacy,legacy,0,congruent,uniform,1,undefined,1,s,110,110,0,110,110,0,0,110,110,110,0,0,0,0,0,110,Sat Sep 12 16:31:18 2020,600,The main experiment item,yes,FlankerTask.osexp,C:/Users/chelsea/OneDrive - Tarleton State University/psych 5316- adv,no,mono,no,18,no,white,no,no,768,legacy,30,79,C:/Users/chelsea/OneDrive - Tarleton State University/psych 5316- adv/flanker test/CMK subject-0.csv,legacy,Lentiform Loewenfeld,3.3.3,0,s,NA,s,NA,s,s,614,NA,39948,NA,614,142678,2,legacy,1024,2,48000,-16,experiment,SSSSS,0,even,353425,397314,NA,404801,403571,4955,NA,404905,404795,404905,44906,344989,NA,4949,202306,405525,Flanker Task,108,58938,111,yes,1024
97.32142857,97.32142857,531.0714286,531.0714286,black,legacy,legacy,legacy,0,incongruent,uniform,1,undefined,1,s,111,111,0,111,111,0,0,111,111,111,0,0,0,0,0,111,Sat Sep 12 16:31:18 2020,600,The main experiment item,yes,FlankerTask.osexp,C:/Users/chelsea/OneDrive - Tarleton State University/psych 5316- adv,no,mono,no,18,no,white,no,no,768,legacy,31,79,C:/Users/chelsea/OneDrive - Tarleton State University/psych 5316- adv/flanker test/CMK subject-0.csv,legacy,Lentiform Loewenfeld,3.3.3,0,s,NA,s,NA,s,s,542,NA,39948,NA,542,142678,2,legacy,1024,2,48000,-16,experiment,HHSHH,0,even,353425,405604,NA,407329,406108,4955,NA,407434,407324,407434,44906,344989,NA,4949,202306,407982,Flanker Task,109,59480,112,yes,1024
97.34513274,97.34513274,531.6460177,531.6460177,black,legacy,legacy,legacy,0,congruent,uniform,1,undefined,1,h,112,112,0,112,112,0,0,112,112,112,0,0,0,0,0,112,Sat Sep 12 16:31:18 2020,600,The main experiment item,yes,FlankerTask.osexp,C:/Users/chelsea/OneDrive - Tarleton State University/psych 5316- adv,no,mono,no,18,no,white,no,no,768,legacy,32,79,C:/Users/chelsea/OneDrive - Tarleton State University/psych 5316- adv/flanker test/CMK subject-0.csv,legacy,Lentiform Loewenfeld,3.3.3,0,h,NA,s,NA,h,s,596,NA,39948,NA,596,142678,2,legacy,1024,2,48000,-16,experiment,HHHHH,0,even,353425,405604,NA,409299,408074,4955,NA,409404,409294,409404,44906,344989,NA,4949,202306,410011,Flanker Task,110,60076,113,yes,1024
97.36842105,97.36842105,531.8684211,531.8684211,black,legacy,legacy,legacy,0,incongruent,uniform,1,undefined,1,s,113,113,0,113,113,0,0,113,113,113,0,0,0,0,0,113,Sat Sep 12 16:31:18 2020,600,The main experiment item,yes,FlankerTask.osexp,C:/Users/chelsea/OneDrive - Tarleton State University/psych 5316- adv,no,mono,no,18,no,white,no,no,768,legacy,33,79,C:/Users/chelsea/OneDrive - Tarleton State University/psych 5316- adv/flanker test/CMK subject-0.csv,legacy,Lentiform Loewenfeld,3.3.3,0,s,NA,s,NA,s,s,557,NA,39948,NA,557,142678,2,legacy,1024,2,48000,-16,experiment,HHSHH,0,even,353425,405604,NA,411338,410082,4955,NA,411443,411333,411443,44906,344989,NA,4949,202306,412006,Flanker Task,111,60633,114,yes,1024
97.39130435,97.39130435,531.7652174,531.7652174,black,legacy,legacy,legacy,0,congruent,uniform,1,undefined,1,h,114,114,0,114,114,0,0,114,114,114,0,0,0,0,0,114,Sat Sep 12 16:31:18 2020,600,The main experiment item,yes,FlankerTask.osexp,C:/Users/chelsea/OneDrive - Tarleton State University/psych 5316- adv,no,mono,no,18,no,white,no,no,768,legacy,34,79,C:/Users/chelsea/OneDrive - Tarleton State University/psych 5316- adv/flanker test/CMK subject-0.csv,legacy,Lentiform Loewenfeld,3.3.3,0,h,NA,s,NA,h,s,520,NA,39948,NA,520,142678,2,legacy,1024,2,48000,-16,experiment,HHHHH,0,even,353425,405604,NA,413279,412037,4955,NA,413383,413269,413383,44906,344989,NA,4949,202306,413909,Flanker Task,112,61153,115,yes,1024
97.4137931,97.4137931,531.7586207,531.7586207,black,legacy,legacy,legacy,0,congruent,uniform,1,undefined,1,s,115,115,0,115,115,0,0,115,115,115,0,0,0,0,0,115,Sat Sep 12 16:31:18 2020,600,The main experiment item,yes,FlankerTask.osexp,C:/Users/chelsea/OneDrive - Tarleton State University/psych 5316- adv,no,mono,no,18,no,white,no,no,768,legacy,35,79,C:/Users/chelsea/OneDrive - Tarleton State University/psych 5316- adv/flanker test/CMK subject-0.csv,legacy,Lentiform Loewenfeld,3.3.3,0,s,NA,s,NA,s,s,531,NA,39948,NA,531,142678,2,legacy,1024,2,48000,-16,experiment,SSSSS,0,even,353425,405604,NA,415196,413970,4955,NA,415300,415190,415300,44906,344989,NA,4949,202306,415837,Flanker Task,113,61684,116,yes,1024
97.43589744,97.43589744,531.5299145,531.5299145,black,legacy,legacy,legacy,0,congruent,uniform,1,undefined,1,h,116,116,0,116,116,0,0,116,116,116,0,0,0,0,0,116,Sat Sep 12 16:31:18 2020,600,The main experiment item,yes,FlankerTask.osexp,C:/Users/chelsea/OneDrive - Tarleton State University/psych 5316- adv,no,mono,no,18,no,white,no,no,768,legacy,36,79,C:/Users/chelsea/OneDrive - Tarleton State University/psych 5316- adv/flanker test/CMK subject-0.csv,legacy,Lentiform Loewenfeld,3.3.3,0,h,NA,s,NA,h,s,505,NA,39948,NA,505,142678,2,legacy,1024,2,48000,-16,experiment,HHHHH,0,even,353425,405604,NA,417133,415903,4955,NA,417238,417128,417238,44906,344989,NA,4949,202306,417754,Flanker Task,114,62189,117,yes,1024
97.45762712,97.45762712,532.1525424,532.1525424,black,legacy,legacy,legacy,0,congruent,uniform,1,undefined,1,h,117,117,0,117,117,0,0,117,117,117,0,0,0,0,0,117,Sat Sep 12 16:31:18 2020,600,The main experiment item,yes,FlankerTask.osexp,C:/Users/chelsea/OneDrive - Tarleton State University/psych 5316- adv,no,mono,no,18,no,white,no,no,768,legacy,37,79,C:/Users/chelsea/OneDrive - Tarleton State University/psych 5316- adv/flanker test/CMK subject-0.csv,legacy,Lentiform Loewenfeld,3.3.3,0,h,NA,s,NA,h,s,605,NA,39948,NA,605,142678,2,legacy,1024,2,48000,-16,experiment,HHHHH,0,even,353425,405604,NA,419064,417827,4955,NA,419171,419059,419171,44906,344989,NA,4949,202306,419782,Flanker Task,115,62794,118,yes,1024
97.4789916,97.4789916,532.8235294,532.8235294,black,legacy,legacy,legacy,0,congruent,uniform,1,undefined,1,s,118,118,0,118,118,0,0,118,118,118,0,0,0,0,0,118,Sat Sep 12 16:31:18 2020,600,The main experiment item,yes,FlankerTask.osexp,C:/Users/chelsea/OneDrive - Tarleton State University/psych 5316- adv,no,mono,no,18,no,white,no,no,768,legacy,38,79,C:/Users/chelsea/OneDrive - Tarleton State University/psych 5316- adv/flanker test/CMK subject-0.csv,legacy,Lentiform Loewenfeld,3.3.3,0,s,NA,s,NA,s,s,612,NA,39948,NA,612,142678,2,legacy,1024,2,48000,-16,experiment,SSSSS,0,even,353425,419827,NA,421553,420331,4955,NA,421659,421547,421659,44906,344989,NA,4949,202306,422277,Flanker Task,116,63406,119,yes,1024
97.5,97.5,532.0833333,532.0833333,black,legacy,legacy,legacy,0,congruent,uniform,1,undefined,1,h,119,119,0,119,119,0,0,119,119,119,0,0,0,0,0,119,Sat Sep 12 16:31:18 2020,600,The main experiment item,yes,FlankerTask.osexp,C:/Users/chelsea/OneDrive - Tarleton State University/psych 5316- adv,no,mono,no,18,no,white,no,no,768,legacy,39,79,C:/Users/chelsea/OneDrive - Tarleton State University/psych 5316- adv/flanker test/CMK subject-0.csv,legacy,Lentiform Loewenfeld,3.3.3,0,h,NA,s,NA,h,s,444,NA,39948,NA,444,142678,2,legacy,1024,2,48000,-16,experiment,HHHHH,0,even,353425,422316,NA,424047,422823,4955,NA,424156,424042,424156,44906,344989,NA,4949,202306,424606,Flanker Task,117,63850,120,yes,1024
97.52066116,97.52066116,532,532,black,legacy,legacy,legacy,0,incongruent,uniform,1,undefined,1,h,120,120,0,120,120,0,0,120,120,120,0,0,0,0,0,120,Sat Sep 12 16:31:18 2020,600,The main experiment item,yes,FlankerTask.osexp,C:/Users/chelsea/OneDrive - Tarleton State University/psych 5316- adv,no,mono,no,18,no,white,no,no,768,legacy,40,79,C:/Users/chelsea/OneDrive - Tarleton State University/psych 5316- adv/flanker test/CMK subject-0.csv,legacy,Lentiform Loewenfeld,3.3.3,0,h,NA,s,NA,h,s,522,NA,39948,NA,522,142678,2,legacy,1024,2,48000,-16,experiment,SSHSS,0,even,353425,422316,NA,425884,424659,4955,NA,425990,425878,425990,44906,344989,NA,4949,202306,426518,Flanker Task,118,64372,121,yes,1024
97.54098361,97.54098361,532.9918033,532.9918033,black,legacy,legacy,legacy,0,incongruent,uniform,1,undefined,1,s,121,121,0,121,121,0,0,121,121,121,0,0,0,0,0,121,Sat Sep 12 16:31:18 2020,600,The main experiment item,yes,FlankerTask.osexp,C:/Users/chelsea/OneDrive - Tarleton State University/psych 5316- adv,no,mono,no,18,no,white,no,no,768,legacy,41,79,C:/Users/chelsea/OneDrive - Tarleton State University/psych 5316- adv/flanker test/CMK subject-0.csv,legacy,Lentiform Loewenfeld,3.3.3,0,s,NA,s,NA,s,s,653,NA,39948,NA,653,142678,2,legacy,1024,2,48000,-16,experiment,HHSHH,0,even,353425,422316,NA,427854,426626,4955,NA,427958,427849,427958,44906,344989,NA,4949,202306,428629,Flanker Task,119,65025,122,yes,1024
97.56097561,97.56097561,532.7073171,532.7073171,black,legacy,legacy,legacy,0,incongruent,uniform,1,undefined,1,s,122,122,0,122,122,0,0,122,122,122,0,0,0,0,0,122,Sat Sep 12 16:31:18 2020,600,The main experiment item,yes,FlankerTask.osexp,C:/Users/chelsea/OneDrive - Tarleton State University/psych 5316- adv,no,mono,no,18,no,white,no,no,768,legacy,42,79,C:/Users/chelsea/OneDrive - Tarleton State University/psych 5316- adv/flanker test/CMK subject-0.csv,legacy,Lentiform Loewenfeld,3.3.3,0,s,NA,s,NA,s,s,498,NA,39948,NA,498,142678,2,legacy,1024,2,48000,-16,experiment,HHSHH,0,even,353425,428693,NA,430426,429199,4955,NA,430534,430421,430533,44906,344989,NA,4949,202306,431039,Flanker Task,120,65523,123,yes,1024
96.77419355,96.77419355,532.8790323,532.8790323,black,legacy,legacy,legacy,0,congruent,uniform,0,undefined,0,s,123,123,0,123,123,0,0,123,123,123,0,0,0,0,0,123,Sat Sep 12 16:31:18 2020,600,The main experiment item,yes,FlankerTask.osexp,C:/Users/chelsea/OneDrive - Tarleton State University/psych 5316- adv,no,mono,no,18,no,white,no,no,768,legacy,43,79,C:/Users/chelsea/OneDrive - Tarleton State University/psych 5316- adv/flanker test/CMK subject-0.csv,legacy,Lentiform Loewenfeld,3.3.3,0,h,NA,s,NA,h,s,554,NA,39948,NA,554,142678,2,legacy,1024,2,48000,-16,experiment,SSSSS,0,even,353425,428693,NA,432302,431071,4955,NA,432406,432296,432406,44906,344989,NA,4949,202306,432972,Flanker Task,120,66077,124,yes,1024
96.8,96.8,532.968,532.968,black,legacy,legacy,legacy,0,incongruent,uniform,1,undefined,1,s,124,124,0,124,124,0,0,124,124,124,0,0,0,0,0,124,Sat Sep 12 16:31:18 2020,600,The main experiment item,yes,FlankerTask.osexp,C:/Users/chelsea/OneDrive - Tarleton State University/psych 5316- adv,no,mono,no,18,no,white,no,no,768,legacy,44,79,C:/Users/chelsea/OneDrive - Tarleton State University/psych 5316- adv/flanker test/CMK subject-0.csv,legacy,Lentiform Loewenfeld,3.3.3,0,s,NA,s,NA,s,s,544,NA,39948,NA,544,142678,2,legacy,1024,2,48000,-16,experiment,HHSHH,0,even,433048,428693,NA,434776,433554,4955,NA,434880,434771,434879,44906,344989,NA,4949,202306,435430,Flanker Task,121,66621,125,yes,1024
96.82539683,96.82539683,532.8492063,532.8492063,black,legacy,legacy,legacy,0,incongruent,uniform,1,undefined,1,s,125,125,0,125,125,0,0,125,125,125,0,0,0,0,0,125,Sat Sep 12 16:31:18 2020,600,The main experiment item,yes,FlankerTask.osexp,C:/Users/chelsea/OneDrive - Tarleton State University/psych 5316- adv,no,mono,no,18,no,white,no,no,768,legacy,45,79,C:/Users/chelsea/OneDrive - Tarleton State University/psych 5316- adv/flanker test/CMK subject-0.csv,legacy,Lentiform Loewenfeld,3.3.3,0,s,NA,s,NA,s,s,518,NA,39948,NA,518,142678,2,legacy,1024,2,48000,-16,experiment,HHSHH,0,even,433048,428693,NA,436686,435459,4955,NA,436792,436680,436791,44906,344989,NA,4949,202306,437315,Flanker Task,122,67139,126,yes,1024
96.8503937,96.8503937,532.8582677,532.8582677,black,legacy,legacy,legacy,0,congruent,uniform,1,undefined,1,s,126,126,0,126,126,0,0,126,126,126,0,0,0,0,0,126,Sat Sep 12 16:31:18 2020,600,The main experiment item,yes,FlankerTask.osexp,C:/Users/chelsea/OneDrive - Tarleton State University/psych 5316- adv,no,mono,no,18,no,white,no,no,768,legacy,46,79,C:/Users/chelsea/OneDrive - Tarleton State University/psych 5316- adv/flanker test/CMK subject-0.csv,legacy,Lentiform Loewenfeld,3.3.3,0,s,NA,s,NA,s,s,534,NA,39948,NA,534,142678,2,legacy,1024,2,48000,-16,experiment,SSSSS,0,even,433048,428693,NA,438689,437391,4955,NA,438793,438683,438793,44906,344989,NA,4949,202306,439333,Flanker Task,123,67673,127,yes,1024
96.875,96.875,534.1015625,534.1015625,black,legacy,legacy,legacy,0,incongruent,uniform,1,undefined,1,h,127,127,0,127,127,0,0,127,127,127,0,0,0,0,0,127,Sat Sep 12 16:31:18 2020,600,The main experiment item,yes,FlankerTask.osexp,C:/Users/chelsea/OneDrive - Tarleton State University/psych 5316- adv,no,mono,no,18,no,white,no,no,768,legacy,47,79,C:/Users/chelsea/OneDrive - Tarleton State University/psych 5316- adv/flanker test/CMK subject-0.csv,legacy,Lentiform Loewenfeld,3.3.3,0,h,NA,s,NA,h,s,692,NA,39948,NA,692,142678,2,legacy,1024,2,48000,-16,experiment,SSHSS,0,even,433048,428693,NA,440588,439360,4955,NA,440699,440583,440699,44906,344989,NA,4949,202306,441398,Flanker Task,124,68365,128,yes,1024
96.89922481,96.89922481,533.8449612,533.8449612,black,legacy,legacy,legacy,0,congruent,uniform,1,undefined,1,h,128,128,0,128,128,0,0,128,128,128,0,0,0,0,0,128,Sat Sep 12 16:31:18 2020,600,The main experiment item,yes,FlankerTask.osexp,C:/Users/chelsea/OneDrive - Tarleton State University/psych 5316- adv,no,mono,no,18,no,white,no,no,768,legacy,48,79,C:/Users/chelsea/OneDrive - Tarleton State University/psych 5316- adv/flanker test/CMK subject-0.csv,legacy,Lentiform Loewenfeld,3.3.3,0,h,NA,s,NA,h,s,501,NA,39948,NA,501,142678,2,legacy,1024,2,48000,-16,experiment,HHHHH,0,even,433048,441459,NA,443195,441964,4955,NA,443299,443190,443299,44906,344989,NA,4949,202306,443806,Flanker Task,125,68866,129,yes,1024
96.92307692,96.92307692,533.8461538,533.8461538,black,legacy,legacy,legacy,0,incongruent,uniform,1,undefined,1,s,129,129,0,129,129,0,0,129,129,129,0,0,0,0,0,129,Sat Sep 12 16:31:18 2020,600,The main experiment item,yes,FlankerTask.osexp,C:/Users/chelsea/OneDrive - Tarleton State University/psych 5316- adv,no,mono,no,18,no,white,no,no,768,legacy,49,79,C:/Users/chelsea/OneDrive - Tarleton State University/psych 5316- adv/flanker test/CMK subject-0.csv,legacy,Lentiform Loewenfeld,3.3.3,0,s,NA,s,NA,s,s,534,NA,39948,NA,534,142678,2,legacy,1024,2,48000,-16,experiment,HHSHH,0,even,433048,441459,NA,445178,443871,4955,NA,445282,445172,445282,44906,344989,NA,4949,202306,445822,Flanker Task,126,69400,130,yes,1024
96.94656489,96.94656489,533.4580153,533.4580153,black,legacy,legacy,legacy,0,congruent,uniform,1,undefined,1,h,130,130,0,130,130,0,0,130,130,130,0,0,0,0,0,130,Sat Sep 12 16:31:18 2020,600,The main experiment item,yes,FlankerTask.osexp,C:/Users/chelsea/OneDrive - Tarleton State University/psych 5316- adv,no,mono,no,18,no,white,no,no,768,legacy,50,79,C:/Users/chelsea/OneDrive - Tarleton State University/psych 5316- adv/flanker test/CMK subject-0.csv,legacy,Lentiform Loewenfeld,3.3.3,0,h,NA,s,NA,h,s,483,NA,39948,NA,483,142678,2,legacy,1024,2,48000,-16,experiment,HHHHH,0,even,433048,441459,NA,447111,445882,4955,NA,447220,447105,447219,44906,344989,NA,4949,202306,447710,Flanker Task,127,69883,131,yes,1024
96.96969697,96.96969697,533.0833333,533.0833333,black,legacy,legacy,legacy,0,incongruent,uniform,1,undefined,1,s,131,131,0,131,131,0,0,131,131,131,0,0,0,0,0,131,Sat Sep 12 16:31:18 2020,600,The main experiment item,yes,FlankerTask.osexp,C:/Users/chelsea/OneDrive - Tarleton State University/psych 5316- adv,no,mono,no,18,no,white,no,no,768,legacy,51,79,C:/Users/chelsea/OneDrive - Tarleton State University/psych 5316- adv/flanker test/CMK subject-0.csv,legacy,Lentiform Loewenfeld,3.3.3,0,s,NA,s,NA,s,s,484,NA,39948,NA,484,142678,2,legacy,1024,2,48000,-16,experiment,HHSHH,0,even,433048,441459,NA,448980,447749,4955,NA,449084,448975,449084,44906,344989,NA,4949,202306,449574,Flanker Task,128,70367,132,yes,1024
96.9924812,96.9924812,532.4285714,532.4285714,black,legacy,legacy,legacy,0,congruent,uniform,1,undefined,1,h,132,132,0,132,132,0,0,132,132,132,0,0,0,0,0,132,Sat Sep 12 16:31:18 2020,600,The main experiment item,yes,FlankerTask.osexp,C:/Users/chelsea/OneDrive - Tarleton State University/psych 5316- adv,no,mono,no,18,no,white,no,no,768,legacy,52,79,C:/Users/chelsea/OneDrive - Tarleton State University/psych 5316- adv/flanker test/CMK subject-0.csv,legacy,Lentiform Loewenfeld,3.3.3,0,h,NA,s,NA,h,s,446,NA,39948,NA,446,142678,2,legacy,1024,2,48000,-16,experiment,HHHHH,0,even,433048,441459,NA,450864,449638,4955,NA,450969,450858,450969,44906,344989,NA,4949,202306,451422,Flanker Task,129,70813,133,yes,1024
97.01492537,97.01492537,533.3358209,533.3358209,black,legacy,legacy,legacy,0,incongruent,uniform,1,undefined,1,s,133,133,0,133,133,0,0,133,133,133,0,0,0,0,0,133,Sat Sep 12 16:31:18 2020,600,The main experiment item,yes,FlankerTask.osexp,C:/Users/chelsea/OneDrive - Tarleton State University/psych 5316- adv,no,mono,no,18,no,white,no,no,768,legacy,53,79,C:/Users/chelsea/OneDrive - Tarleton State University/psych 5316- adv/flanker test/CMK subject-0.csv,legacy,Lentiform Loewenfeld,3.3.3,0,s,NA,s,NA,s,s,654,NA,39948,NA,654,142678,2,legacy,1024,2,48000,-16,experiment,HHSHH,0,even,433048,441459,NA,452760,451460,4955,NA,452866,452754,452866,44906,344989,NA,4949,202306,453526,Flanker Task,130,71467,134,yes,1024
97.03703704,97.03703704,533.1111111,533.1111111,black,legacy,legacy,legacy,0,congruent,uniform,1,undefined,1,h,134,134,0,134,134,0,0,134,134,134,0,0,0,0,0,134,Sat Sep 12 16:31:18 2020,600,The main experiment item,yes,FlankerTask.osexp,C:/Users/chelsea/OneDrive - Tarleton State University/psych 5316- adv,no,mono,no,18,no,white,no,no,768,legacy,54,79,C:/Users/chelsea/OneDrive - Tarleton State University/psych 5316- adv/flanker test/CMK subject-0.csv,legacy,Lentiform Loewenfeld,3.3.3,0,h,NA,s,NA,h,s,503,NA,39948,NA,503,142678,2,legacy,1024,2,48000,-16,experiment,HHHHH,0,even,433048,453560,NA,455291,454066,4955,NA,455395,455286,455395,44906,344989,NA,4949,202306,455909,Flanker Task,131,71970,135,yes,1024
97.05882353,97.05882353,532.6911765,532.6911765,black,legacy,legacy,legacy,0,congruent,uniform,1,undefined,1,h,135,135,0,135,135,0,0,135,135,135,0,0,0,0,0,135,Sat Sep 12 16:31:18 2020,600,The main experiment item,yes,FlankerTask.osexp,C:/Users/chelsea/OneDrive - Tarleton State University/psych 5316- adv,no,mono,no,18,no,white,no,no,768,legacy,55,79,C:/Users/chelsea/OneDrive - Tarleton State University/psych 5316- adv/flanker test/CMK subject-0.csv,legacy,Lentiform Loewenfeld,3.3.3,0,h,NA,s,NA,h,s,476,NA,39948,NA,476,142678,2,legacy,1024,2,48000,-16,experiment,HHHHH,0,even,433048,453560,NA,457249,455982,4955,NA,457355,457244,457355,44906,344989,NA,4949,202306,457838,Flanker Task,132,72446,136,yes,1024
97.08029197,97.08029197,532.0656934,532.0656934,black,legacy,legacy,legacy,0,congruent,uniform,1,undefined,1,s,136,136,0,136,136,0,0,136,136,136,0,0,0,0,0,136,Sat Sep 12 16:31:18 2020,600,The main experiment item,yes,FlankerTask.osexp,C:/Users/chelsea/OneDrive - Tarleton State University/psych 5316- adv,no,mono,no,18,no,white,no,no,768,legacy,56,79,C:/Users/chelsea/OneDrive - Tarleton State University/psych 5316- adv/flanker test/CMK subject-0.csv,legacy,Lentiform Loewenfeld,3.3.3,0,s,NA,s,NA,s,s,447,NA,39948,NA,447,142678,2,legacy,1024,2,48000,-16,experiment,SSSSS,0,even,433048,453560,NA,459137,457905,4955,NA,459248,459131,459248,44906,344989,NA,4949,202306,459702,Flanker Task,133,72893,137,yes,1024
97.10144928,97.10144928,531.7318841,531.7318841,black,legacy,legacy,legacy,0,congruent,uniform,1,undefined,1,h,137,137,0,137,137,0,0,137,137,137,0,0,0,0,0,137,Sat Sep 12 16:31:18 2020,600,The main experiment item,yes,FlankerTask.osexp,C:/Users/chelsea/OneDrive - Tarleton State University/psych 5316- adv,no,mono,no,18,no,white,no,no,768,legacy,57,79,C:/Users/chelsea/OneDrive - Tarleton State University/psych 5316- adv/flanker test/CMK subject-0.csv,legacy,Lentiform Loewenfeld,3.3.3,0,h,NA,s,NA,h,s,486,NA,39948,NA,486,142678,2,legacy,1024,2,48000,-16,experiment,HHHHH,0,even,433048,453560,NA,460962,459737,4955,NA,461066,460957,461066,44906,344989,NA,4949,202306,461559,Flanker Task,134,73379,138,yes,1024
97.12230216,97.12230216,530.6258993,530.6258993,black,legacy,legacy,legacy,0,congruent,uniform,1,undefined,1,s,138,138,0,138,138,0,0,138,138,138,0,0,0,0,0,138,Sat Sep 12 16:31:18 2020,600,The main experiment item,yes,FlankerTask.osexp,C:/Users/chelsea/OneDrive - Tarleton State University/psych 5316- adv,no,mono,no,18,no,white,no,no,768,legacy,58,79,C:/Users/chelsea/OneDrive - Tarleton State University/psych 5316- adv/flanker test/CMK subject-0.csv,legacy,Lentiform Loewenfeld,3.3.3,0,s,NA,s,NA,s,s,378,NA,39948,NA,378,142678,2,legacy,1024,2,48000,-16,experiment,SSSSS,0,even,433048,453560,NA,462860,461627,4955,NA,462965,462855,462965,44906,344989,NA,4949,202306,463350,Flanker Task,135,73757,139,yes,1024
97.14285714,97.14285714,530.6714286,530.6714286,black,legacy,legacy,legacy,0,incongruent,uniform,1,undefined,1,h,139,139,0,139,139,0,0,139,139,139,0,0,0,0,0,139,Sat Sep 12 16:31:18 2020,600,The main experiment item,yes,FlankerTask.osexp,C:/Users/chelsea/OneDrive - Tarleton State University/psych 5316- adv,no,mono,no,18,no,white,no,no,768,legacy,59,79,C:/Users/chelsea/OneDrive - Tarleton State University/psych 5316- adv/flanker test/CMK subject-0.csv,legacy,Lentiform Loewenfeld,3.3.3,0,h,NA,s,NA,h,s,537,NA,39948,NA,537,142678,2,legacy,1024,2,48000,-16,experiment,SSHSS,0,even,433048,453560,NA,464644,463416,4955,NA,464750,464638,464749,44906,344989,NA,4949,202306,465294,Flanker Task,136,74294,140,yes,1024
97.16312057,97.16312057,530.2836879,530.2836879,black,legacy,legacy,legacy,0,incongruent,uniform,1,undefined,1,h,140,140,0,140,140,0,0,140,140,140,0,0,0,0,0,140,Sat Sep 12 16:31:18 2020,600,The main experiment item,yes,FlankerTask.osexp,C:/Users/chelsea/OneDrive - Tarleton State University/psych 5316- adv,no,mono,no,18,no,white,no,no,768,legacy,60,79,C:/Users/chelsea/OneDrive - Tarleton State University/psych 5316- adv/flanker test/CMK subject-0.csv,legacy,Lentiform Loewenfeld,3.3.3,0,h,NA,s,NA,h,s,476,NA,39948,NA,476,142678,2,legacy,1024,2,48000,-16,experiment,SSHSS,0,even,433048,453560,NA,466603,465371,4955,NA,466707,466598,466707,44906,344989,NA,4949,202306,467190,Flanker Task,137,74770,141,yes,1024
96.47887324,96.47887324,529.3309859,529.3309859,black,legacy,legacy,legacy,0,congruent,uniform,0,undefined,0,h,141,141,0,141,141,0,0,141,141,141,0,0,0,0,0,141,Sat Sep 12 16:31:18 2020,600,The main experiment item,yes,FlankerTask.osexp,C:/Users/chelsea/OneDrive - Tarleton State University/psych 5316- adv,no,mono,no,18,no,white,no,no,768,legacy,61,79,C:/Users/chelsea/OneDrive - Tarleton State University/psych 5316- adv/flanker test/CMK subject-0.csv,legacy,Lentiform Loewenfeld,3.3.3,0,s,NA,s,NA,s,s,395,NA,39948,NA,395,142678,2,legacy,1024,2,48000,-16,experiment,HHHHH,0,even,433048,453560,NA,468484,467260,4955,NA,468588,468478,468587,44906,344989,NA,4949,202306,468990,Flanker Task,137,75165,142,yes,1024
