"acc","accuracy","average_response_time","avg_rt","background","canvas_backend","clock_backend","color_backend","compensation","condition","coordinates","correct","correct_instructions1","correct_keyboard_response","correct_response","count_Block1","count_Block2","count_Block3","count_errorFeedback","count_experiment","count_faster","count_finish","count_fixation","count_instructions1","count_instructions2","count_instructions3","count_isi","count_keyboard_response","count_logger","count_sequence","count_stimulus","datetime","deadline","description","disable_garbage_collection","experiment_file","experiment_path","font_bold","font_family","font_italic","font_size","font_underline","foreground","form_clicks","fullscreen","height","keyboard_backend","live_row","live_row_Block1","logfile","mouse_backend","opensesame_codename","opensesame_version","repeat_cycle","response","response_finish","response_instructions1","response_instructions2","response_instructions3","response_keyboard_response","response_time","response_time_finish","response_time_instructions1","response_time_instructions2","response_time_instructions3","response_time_keyboard_response","round_decimals","sampler_backend","sound_buf_size","sound_channels","sound_freq","sound_sample_size","start","stimulus","subject_nr","subject_parity","time_Block1","time_Block2","time_Block3","time_errorFeedback","time_experiment","time_faster","time_finish","time_fixation","time_instructions1","time_instructions2","time_instructions3","time_isi","time_keyboard_response","time_logger","time_sequence","time_stimulus","title","total_correct","total_response_time","total_responses","uniform_coordinates","width"
"100","100","846","846","black","legacy","legacy","legacy","0","congruent","uniform","1","undefined","1","s","0","0","0","0","0","0","0","0","0","0","0","0","0","0","0","0","09/16/20 21:57:37","1500","The main experiment item","yes","FlankerTask Rene Wallace.osexp","C:\Users\18177\OneDrive\Documents\School\Grad School\Fall 2020\Lab 2 FlankerTask","no","mono","no","18","no","white","no","yes","768","legacy","0","0","C:/Users/18177/OneDrive/Documents/School/Grad School/Fall 2020/Lab 2 FlankerTask/RW-subject-4.csv","legacy","Lentiform Loewenfeld","3.3.3","0","s","NA","s","NA","NA","s","846","NA","29610","NA","NA","846","2","legacy","1024","2","48000","-16","experiment","SSSSS","4","even","33357","NA","NA","NA","3738","NA","NA","33417","3746","NA","NA","NA","33521","34367","33415","33520","Flanker Task","1","846","1","yes","1024"
"100","100","834","834","black","legacy","legacy","legacy","0","incongruent","uniform","1","undefined","1","s","0","0","0","1","0","1","0","1","0","0","0","1","1","1","1","1","09/16/20 21:57:37","1500","The main experiment item","yes","FlankerTask Rene Wallace.osexp","C:\Users\18177\OneDrive\Documents\School\Grad School\Fall 2020\Lab 2 FlankerTask","no","mono","no","18","no","white","no","yes","768","legacy","1","1","C:/Users/18177/OneDrive/Documents/School/Grad School/Fall 2020/Lab 2 FlankerTask/RW-subject-4.csv","legacy","Lentiform Loewenfeld","3.3.3","0","s","NA","s","NA","NA","s","822","NA","29610","NA","NA","822","2","legacy","1024","2","48000","-16","experiment","HHSHH","4","even","33357","NA","NA","NA","3738","NA","NA","35448","3746","NA","NA","34384","35549","36371","35446","35549","Flanker Task","2","1668","2","yes","1024"
"100","100","746.333333333","746.333333333","black","legacy","legacy","legacy","0","congruent","uniform","1","undefined","1","h","0","0","0","2","0","2","0","2","0","0","0","2","2","2","2","2","09/16/20 21:57:37","1500","The main experiment item","yes","FlankerTask Rene Wallace.osexp","C:\Users\18177\OneDrive\Documents\School\Grad School\Fall 2020\Lab 2 FlankerTask","no","mono","no","18","no","white","no","yes","768","legacy","2","2","C:/Users/18177/OneDrive/Documents/School/Grad School/Fall 2020/Lab 2 FlankerTask/RW-subject-4.csv","legacy","Lentiform Loewenfeld","3.3.3","0","h","NA","s","NA","NA","h","571","NA","29610","NA","NA","571","2","legacy","1024","2","48000","-16","experiment","HHHHH","4","even","33357","NA","NA","NA","3738","NA","NA","37454","3746","NA","NA","36385","37555","38127","37452","37555","Flanker Task","3","2239","3","yes","1024"
"100","100","762.25","762.25","black","legacy","legacy","legacy","0","incongruent","uniform","1","undefined","1","h","0","0","0","3","0","3","0","3","0","0","0","3","3","3","3","3","09/16/20 21:57:37","1500","The main experiment item","yes","FlankerTask Rene Wallace.osexp","C:\Users\18177\OneDrive\Documents\School\Grad School\Fall 2020\Lab 2 FlankerTask","no","mono","no","18","no","white","no","yes","768","legacy","3","3","C:/Users/18177/OneDrive/Documents/School/Grad School/Fall 2020/Lab 2 FlankerTask/RW-subject-4.csv","legacy","Lentiform Loewenfeld","3.3.3","0","h","NA","s","NA","NA","h","810","NA","29610","NA","NA","810","2","legacy","1024","2","48000","-16","experiment","SSHSS","4","even","33357","NA","NA","NA","3738","NA","NA","39205","3746","NA","NA","38139","39306","40116","39203","39306","Flanker Task","4","3049","4","yes","1024"
"100","100","725.2","725.2","black","legacy","legacy","legacy","0","congruent","uniform","1","undefined","1","h","0","0","0","4","0","4","0","4","0","0","0","4","4","4","4","4","09/16/20 21:57:37","1500","The main experiment item","yes","FlankerTask Rene Wallace.osexp","C:\Users\18177\OneDrive\Documents\School\Grad School\Fall 2020\Lab 2 FlankerTask","no","mono","no","18","no","white","no","yes","768","legacy","4","4","C:/Users/18177/OneDrive/Documents/School/Grad School/Fall 2020/Lab 2 FlankerTask/RW-subject-4.csv","legacy","Lentiform Loewenfeld","3.3.3","0","h","NA","s","NA","NA","h","577","NA","29610","NA","NA","577","2","legacy","1024","2","48000","-16","experiment","HHHHH","4","even","33357","NA","NA","NA","3738","NA","NA","41192","3746","NA","NA","40129","41293","41870","41190","41293","Flanker Task","5","3626","5","yes","1024"
"100","100","748.333333333","748.333333333","black","legacy","legacy","legacy","0","incongruent","uniform","1","undefined","1","h","0","0","0","5","0","5","0","5","0","0","0","5","5","5","5","5","09/16/20 21:57:37","1500","The main experiment item","yes","FlankerTask Rene Wallace.osexp","C:\Users\18177\OneDrive\Documents\School\Grad School\Fall 2020\Lab 2 FlankerTask","no","mono","no","18","no","white","no","yes","768","legacy","5","5","C:/Users/18177/OneDrive/Documents/School/Grad School/Fall 2020/Lab 2 FlankerTask/RW-subject-4.csv","legacy","Lentiform Loewenfeld","3.3.3","0","h","NA","s","NA","NA","h","864","NA","29610","NA","NA","864","2","legacy","1024","2","48000","-16","experiment","SSHSS","4","even","33357","NA","NA","NA","3738","NA","NA","42946","3746","NA","NA","41883","43047","43911","42944","43047","Flanker Task","6","4490","6","yes","1024"
"100","100","722","722","black","legacy","legacy","legacy","0","congruent","uniform","1","undefined","1","s","0","0","0","6","0","6","0","6","0","0","0","6","6","6","6","6","09/16/20 21:57:37","1500","The main experiment item","yes","FlankerTask Rene Wallace.osexp","C:\Users\18177\OneDrive\Documents\School\Grad School\Fall 2020\Lab 2 FlankerTask","no","mono","no","18","no","white","no","yes","768","legacy","6","6","C:/Users/18177/OneDrive/Documents/School/Grad School/Fall 2020/Lab 2 FlankerTask/RW-subject-4.csv","legacy","Lentiform Loewenfeld","3.3.3","0","s","NA","s","NA","NA","s","564","NA","29610","NA","NA","564","2","legacy","1024","2","48000","-16","experiment","SSSSS","4","even","33357","NA","NA","NA","3738","NA","NA","44994","3746","NA","NA","43923","45095","45659","44992","45095","Flanker Task","7","5054","7","yes","1024"
"100","100","699.75","699.75","black","legacy","legacy","legacy","0","congruent","uniform","1","undefined","1","s","0","0","0","7","0","7","0","7","0","0","0","7","7","7","7","7","09/16/20 21:57:37","1500","The main experiment item","yes","FlankerTask Rene Wallace.osexp","C:\Users\18177\OneDrive\Documents\School\Grad School\Fall 2020\Lab 2 FlankerTask","no","mono","no","18","no","white","no","yes","768","legacy","7","7","C:/Users/18177/OneDrive/Documents/School/Grad School/Fall 2020/Lab 2 FlankerTask/RW-subject-4.csv","legacy","Lentiform Loewenfeld","3.3.3","0","s","NA","s","NA","NA","s","544","NA","29610","NA","NA","544","2","legacy","1024","2","48000","-16","experiment","SSSSS","4","even","33357","NA","NA","NA","3738","NA","NA","46733","3746","NA","NA","45663","46835","47380","46731","46835","Flanker Task","8","5598","8","yes","1024"
"100","100","692.444444444","692.444444444","black","legacy","legacy","legacy","0","incongruent","uniform","1","undefined","1","s","0","0","0","8","0","8","0","8","0","0","0","8","8","8","8","8","09/16/20 21:57:37","1500","The main experiment item","yes","FlankerTask Rene Wallace.osexp","C:\Users\18177\OneDrive\Documents\School\Grad School\Fall 2020\Lab 2 FlankerTask","no","mono","no","18","no","white","no","yes","768","legacy","8","8","C:/Users/18177/OneDrive/Documents/School/Grad School/Fall 2020/Lab 2 FlankerTask/RW-subject-4.csv","legacy","Lentiform Loewenfeld","3.3.3","0","s","NA","s","NA","NA","s","634","NA","29610","NA","NA","634","2","legacy","1024","2","48000","-16","experiment","HHSHH","4","even","33357","NA","NA","NA","3738","NA","NA","48462","3746","NA","NA","47393","48563","49197","48460","48563","Flanker Task","9","6232","9","yes","1024"
"100","100","682.8","682.8","black","legacy","legacy","legacy","0","incongruent","uniform","1","undefined","1","h","0","0","0","9","0","9","0","9","0","0","0","9","9","9","9","9","09/16/20 21:57:37","1500","The main experiment item","yes","FlankerTask Rene Wallace.osexp","C:\Users\18177\OneDrive\Documents\School\Grad School\Fall 2020\Lab 2 FlankerTask","no","mono","no","18","no","white","no","yes","768","legacy","9","9","C:/Users/18177/OneDrive/Documents/School/Grad School/Fall 2020/Lab 2 FlankerTask/RW-subject-4.csv","legacy","Lentiform Loewenfeld","3.3.3","0","h","NA","s","NA","NA","h","596","NA","29610","NA","NA","596","2","legacy","1024","2","48000","-16","experiment","SSHSS","4","even","33357","NA","NA","NA","3738","NA","NA","50277","3746","NA","NA","49212","50378","50975","50275","50378","Flanker Task","10","6828","10","yes","1024"
"100","100","674.272727273","674.272727273","black","legacy","legacy","legacy","0","incongruent","uniform","1","undefined","1","s","0","0","0","10","0","10","0","10","0","0","0","10","10","10","10","10","09/16/20 21:57:37","1500","The main experiment item","yes","FlankerTask Rene Wallace.osexp","C:\Users\18177\OneDrive\Documents\School\Grad School\Fall 2020\Lab 2 FlankerTask","no","mono","no","18","no","white","no","yes","768","legacy","10","10","C:/Users/18177/OneDrive/Documents/School/Grad School/Fall 2020/Lab 2 FlankerTask/RW-subject-4.csv","legacy","Lentiform Loewenfeld","3.3.3","0","s","NA","s","NA","NA","s","589","NA","29610","NA","NA","589","2","legacy","1024","2","48000","-16","experiment","HHSHH","4","even","33357","NA","NA","NA","3738","NA","NA","52053","3746","NA","NA","50988","52155","52745","52051","52155","Flanker Task","11","7417","11","yes","1024"
"100","100","663.833333333","663.833333333","black","legacy","legacy","legacy","0","congruent","uniform","1","undefined","1","s","0","0","0","11","0","11","0","11","0","0","0","11","11","11","11","11","09/16/20 21:57:37","1500","The main experiment item","yes","FlankerTask Rene Wallace.osexp","C:\Users\18177\OneDrive\Documents\School\Grad School\Fall 2020\Lab 2 FlankerTask","no","mono","no","18","no","white","no","yes","768","legacy","11","11","C:/Users/18177/OneDrive/Documents/School/Grad School/Fall 2020/Lab 2 FlankerTask/RW-subject-4.csv","legacy","Lentiform Loewenfeld","3.3.3","0","s","NA","s","NA","NA","s","549","NA","29610","NA","NA","549","2","legacy","1024","2","48000","-16","experiment","SSSSS","4","even","33357","NA","NA","NA","3738","NA","NA","53829","3746","NA","NA","52757","53930","54480","53826","53930","Flanker Task","12","7966","12","yes","1024"
"100","100","662.153846154","662.153846154","black","legacy","legacy","legacy","0","congruent","uniform","1","undefined","1","h","0","0","0","12","0","12","0","12","0","0","0","12","12","12","12","12","09/16/20 21:57:37","1500","The main experiment item","yes","FlankerTask Rene Wallace.osexp","C:\Users\18177\OneDrive\Documents\School\Grad School\Fall 2020\Lab 2 FlankerTask","no","mono","no","18","no","white","no","yes","768","legacy","12","12","C:/Users/18177/OneDrive/Documents/School/Grad School/Fall 2020/Lab 2 FlankerTask/RW-subject-4.csv","legacy","Lentiform Loewenfeld","3.3.3","0","h","NA","s","NA","NA","h","642","NA","29610","NA","NA","642","2","legacy","1024","2","48000","-16","experiment","HHHHH","4","even","33357","NA","NA","NA","3738","NA","NA","55554","3746","NA","NA","54484","55655","56297","55552","55655","Flanker Task","13","8608","13","yes","1024"
"100","100","650.928571429","650.928571429","black","legacy","legacy","legacy","0","congruent","uniform","1","undefined","1","h","0","0","0","13","0","13","0","13","0","0","0","13","13","13","13","13","09/16/20 21:57:37","1500","The main experiment item","yes","FlankerTask Rene Wallace.osexp","C:\Users\18177\OneDrive\Documents\School\Grad School\Fall 2020\Lab 2 FlankerTask","no","mono","no","18","no","white","no","yes","768","legacy","13","13","C:/Users/18177/OneDrive/Documents/School/Grad School/Fall 2020/Lab 2 FlankerTask/RW-subject-4.csv","legacy","Lentiform Loewenfeld","3.3.3","0","h","NA","s","NA","NA","h","505","NA","29610","NA","NA","505","2","legacy","1024","2","48000","-16","experiment","HHHHH","4","even","33357","NA","NA","NA","3738","NA","NA","57382","3746","NA","NA","56302","57484","57990","57379","57483","Flanker Task","14","9113","14","yes","1024"
"100","100","656.6","656.6","black","legacy","legacy","legacy","0","incongruent","uniform","1","undefined","1","h","0","0","0","14","0","14","0","14","0","0","0","14","14","14","14","14","09/16/20 21:57:37","1500","The main experiment item","yes","FlankerTask Rene Wallace.osexp","C:\Users\18177\OneDrive\Documents\School\Grad School\Fall 2020\Lab 2 FlankerTask","no","mono","no","18","no","white","no","yes","768","legacy","14","14","C:/Users/18177/OneDrive/Documents/School/Grad School/Fall 2020/Lab 2 FlankerTask/RW-subject-4.csv","legacy","Lentiform Loewenfeld","3.3.3","0","h","NA","s","NA","NA","h","736","NA","29610","NA","NA","736","2","legacy","1024","2","48000","-16","experiment","SSHSS","4","even","33357","NA","NA","NA","3738","NA","NA","59075","3746","NA","NA","58003","59176","59913","59073","59176","Flanker Task","15","9849","15","yes","1024"
"100","100","648.8125","648.8125","black","legacy","legacy","legacy","0","incongruent","uniform","1","undefined","1","h","0","0","0","15","0","15","0","15","0","0","0","15","15","15","15","15","09/16/20 21:57:37","1500","The main experiment item","yes","FlankerTask Rene Wallace.osexp","C:\Users\18177\OneDrive\Documents\School\Grad School\Fall 2020\Lab 2 FlankerTask","no","mono","no","18","no","white","no","yes","768","legacy","15","15","C:/Users/18177/OneDrive/Documents/School/Grad School/Fall 2020/Lab 2 FlankerTask/RW-subject-4.csv","legacy","Lentiform Loewenfeld","3.3.3","0","h","NA","s","NA","NA","h","532","NA","29610","NA","NA","532","2","legacy","1024","2","48000","-16","experiment","SSHSS","4","even","33357","NA","NA","NA","3738","NA","NA","61013","3746","NA","NA","59928","61114","61647","61010","61114","Flanker Task","16","10381","16","yes","1024"
"100","100","644.823529412","644.823529412","black","legacy","legacy","legacy","0","incongruent","uniform","1","undefined","1","s","0","0","0","16","0","16","0","16","0","0","0","16","16","16","16","16","09/16/20 21:57:37","1500","The main experiment item","yes","FlankerTask Rene Wallace.osexp","C:\Users\18177\OneDrive\Documents\School\Grad School\Fall 2020\Lab 2 FlankerTask","no","mono","no","18","no","white","no","yes","768","legacy","16","16","C:/Users/18177/OneDrive/Documents/School/Grad School/Fall 2020/Lab 2 FlankerTask/RW-subject-4.csv","legacy","Lentiform Loewenfeld","3.3.3","0","s","NA","s","NA","NA","s","581","NA","29610","NA","NA","581","2","legacy","1024","2","48000","-16","experiment","HHSHH","4","even","33357","NA","NA","NA","3738","NA","NA","62728","3746","NA","NA","61659","62829","63410","62726","62829","Flanker Task","17","10962","17","yes","1024"
"100","100","634.222222222","634.222222222","black","legacy","legacy","legacy","0","congruent","uniform","1","undefined","1","h","0","0","0","17","0","17","0","17","0","0","0","17","17","17","17","17","09/16/20 21:57:37","1500","The main experiment item","yes","FlankerTask Rene Wallace.osexp","C:\Users\18177\OneDrive\Documents\School\Grad School\Fall 2020\Lab 2 FlankerTask","no","mono","no","18","no","white","no","yes","768","legacy","17","17","C:/Users/18177/OneDrive/Documents/School/Grad School/Fall 2020/Lab 2 FlankerTask/RW-subject-4.csv","legacy","Lentiform Loewenfeld","3.3.3","0","h","NA","s","NA","NA","h","454","NA","29610","NA","NA","454","2","legacy","1024","2","48000","-16","experiment","HHHHH","4","even","33357","NA","NA","NA","3738","NA","NA","64499","3746","NA","NA","63423","64601","65056","64497","64601","Flanker Task","18","11416","18","yes","1024"
"100","100","626.842105263","626.842105263","black","legacy","legacy","legacy","0","congruent","uniform","1","undefined","1","s","0","0","0","18","0","18","0","18","0","0","0","18","18","18","18","18","09/16/20 21:57:37","1500","The main experiment item","yes","FlankerTask Rene Wallace.osexp","C:\Users\18177\OneDrive\Documents\School\Grad School\Fall 2020\Lab 2 FlankerTask","no","mono","no","18","no","white","no","yes","768","legacy","18","18","C:/Users/18177/OneDrive/Documents/School/Grad School/Fall 2020/Lab 2 FlankerTask/RW-subject-4.csv","legacy","Lentiform Loewenfeld","3.3.3","0","s","NA","s","NA","NA","s","494","NA","29610","NA","NA","494","2","legacy","1024","2","48000","-16","experiment","SSSSS","4","even","33357","NA","NA","NA","3738","NA","NA","66145","3746","NA","NA","65071","66246","66740","66142","66246","Flanker Task","19","11910","19","yes","1024"
"100","100","625.25","625.25","black","legacy","legacy","legacy","0","incongruent","uniform","1","undefined","1","s","0","0","0","19","0","19","0","19","0","0","0","19","19","19","19","19","09/16/20 21:57:37","1500","The main experiment item","yes","FlankerTask Rene Wallace.osexp","C:\Users\18177\OneDrive\Documents\School\Grad School\Fall 2020\Lab 2 FlankerTask","no","mono","no","18","no","white","no","yes","768","legacy","19","19","C:/Users/18177/OneDrive/Documents/School/Grad School/Fall 2020/Lab 2 FlankerTask/RW-subject-4.csv","legacy","Lentiform Loewenfeld","3.3.3","0","s","NA","s","NA","NA","s","595","NA","29610","NA","NA","595","2","legacy","1024","2","48000","-16","experiment","HHSHH","4","even","33357","NA","NA","NA","3738","NA","NA","67816","3746","NA","NA","66753","67918","68514","67813","67918","Flanker Task","20","12505","20","yes","1024"
"100","100","618.047619048","618.047619048","black","legacy","legacy","legacy","0","incongruent","uniform","1","undefined","1","h","0","0","0","20","0","20","0","20","0","0","0","20","20","20","20","20","09/16/20 21:57:37","1500","The main experiment item","yes","FlankerTask Rene Wallace.osexp","C:\Users\18177\OneDrive\Documents\School\Grad School\Fall 2020\Lab 2 FlankerTask","no","mono","no","18","no","white","no","yes","768","legacy","20","20","C:/Users/18177/OneDrive/Documents/School/Grad School/Fall 2020/Lab 2 FlankerTask/RW-subject-4.csv","legacy","Lentiform Loewenfeld","3.3.3","0","h","NA","s","NA","NA","h","474","NA","29610","NA","NA","474","2","legacy","1024","2","48000","-16","experiment","SSHSS","4","even","33357","NA","NA","NA","3738","NA","NA","69578","3746","NA","NA","68528","69681","70156","69577","69680","Flanker Task","21","12979","21","yes","1024"
"100","100","613.545454545","613.545454545","black","legacy","legacy","legacy","0","incongruent","uniform","1","undefined","1","s","0","0","0","21","0","21","0","21","0","0","0","21","21","21","21","21","09/16/20 21:57:37","1500","The main experiment item","yes","FlankerTask Rene Wallace.osexp","C:\Users\18177\OneDrive\Documents\School\Grad School\Fall 2020\Lab 2 FlankerTask","no","mono","no","18","no","white","no","yes","768","legacy","21","21","C:/Users/18177/OneDrive/Documents/School/Grad School/Fall 2020/Lab 2 FlankerTask/RW-subject-4.csv","legacy","Lentiform Loewenfeld","3.3.3","0","s","NA","s","NA","NA","s","519","NA","29610","NA","NA","519","2","legacy","1024","2","48000","-16","experiment","HHSHH","4","even","33357","NA","NA","NA","3738","NA","NA","71217","3746","NA","NA","70162","71318","71837","71215","71318","Flanker Task","22","13498","22","yes","1024"
"100","100","610.173913043","610.173913043","black","legacy","legacy","legacy","0","congruent","uniform","1","undefined","1","h","0","0","0","22","0","22","0","22","0","0","0","22","22","22","22","22","09/16/20 21:57:37","1500","The main experiment item","yes","FlankerTask Rene Wallace.osexp","C:\Users\18177\OneDrive\Documents\School\Grad School\Fall 2020\Lab 2 FlankerTask","no","mono","no","18","no","white","no","yes","768","legacy","22","22","C:/Users/18177/OneDrive/Documents/School/Grad School/Fall 2020/Lab 2 FlankerTask/RW-subject-4.csv","legacy","Lentiform Loewenfeld","3.3.3","0","h","NA","s","NA","NA","h","536","NA","29610","NA","NA","536","2","legacy","1024","2","48000","-16","experiment","HHHHH","4","even","33357","NA","NA","NA","3738","NA","NA","72895","3746","NA","NA","71849","72997","73533","72893","72997","Flanker Task","23","14034","23","yes","1024"
"100","100","602.708333333","602.708333333","black","legacy","legacy","legacy","0","congruent","uniform","1","undefined","1","s","0","0","0","23","0","23","0","23","0","0","0","23","23","23","23","23","09/16/20 21:57:37","1500","The main experiment item","yes","FlankerTask Rene Wallace.osexp","C:\Users\18177\OneDrive\Documents\School\Grad School\Fall 2020\Lab 2 FlankerTask","no","mono","no","18","no","white","no","yes","768","legacy","23","23","C:/Users/18177/OneDrive/Documents/School/Grad School/Fall 2020/Lab 2 FlankerTask/RW-subject-4.csv","legacy","Lentiform Loewenfeld","3.3.3","0","s","NA","s","NA","NA","s","431","NA","29610","NA","NA","431","2","legacy","1024","2","48000","-16","experiment","SSSSS","4","even","33357","NA","NA","NA","3738","NA","NA","74595","3746","NA","NA","73547","74698","75130","74594","74698","Flanker Task","24","14465","24","yes","1024"
"100","100","599.68","599.68","black","legacy","legacy","legacy","0","incongruent","uniform","1","undefined","1","h","0","0","0","24","0","24","0","24","0","0","0","24","24","24","24","24","09/16/20 21:57:37","1500","The main experiment item","yes","FlankerTask Rene Wallace.osexp","C:\Users\18177\OneDrive\Documents\School\Grad School\Fall 2020\Lab 2 FlankerTask","no","mono","no","18","no","white","no","yes","768","legacy","24","24","C:/Users/18177/OneDrive/Documents/School/Grad School/Fall 2020/Lab 2 FlankerTask/RW-subject-4.csv","legacy","Lentiform Loewenfeld","3.3.3","0","h","NA","s","NA","NA","h","527","NA","29610","NA","NA","527","2","legacy","1024","2","48000","-16","experiment","SSHSS","4","even","33357","NA","NA","NA","3738","NA","NA","76190","3746","NA","NA","75142","76291","76819","76188","76291","Flanker Task","25","14992","25","yes","1024"
"100","100","595.653846154","595.653846154","black","legacy","legacy","legacy","0","incongruent","uniform","1","undefined","1","s","0","0","0","25","0","25","0","25","0","0","0","25","25","25","25","25","09/16/20 21:57:37","1500","The main experiment item","yes","FlankerTask Rene Wallace.osexp","C:\Users\18177\OneDrive\Documents\School\Grad School\Fall 2020\Lab 2 FlankerTask","no","mono","no","18","no","white","no","yes","768","legacy","25","25","C:/Users/18177/OneDrive/Documents/School/Grad School/Fall 2020/Lab 2 FlankerTask/RW-subject-4.csv","legacy","Lentiform Loewenfeld","3.3.3","0","s","NA","s","NA","NA","s","495","NA","29610","NA","NA","495","2","legacy","1024","2","48000","-16","experiment","HHSHH","4","even","33357","NA","NA","NA","3738","NA","NA","77879","3746","NA","NA","76831","77983","78479","77877","77982","Flanker Task","26","15487","26","yes","1024"
"100","100","593.592592593","593.592592593","black","legacy","legacy","legacy","0","incongruent","uniform","1","undefined","1","s","0","0","0","26","0","26","0","26","0","0","0","26","26","26","26","26","09/16/20 21:57:37","1500","The main experiment item","yes","FlankerTask Rene Wallace.osexp","C:\Users\18177\OneDrive\Documents\School\Grad School\Fall 2020\Lab 2 FlankerTask","no","mono","no","18","no","white","no","yes","768","legacy","26","26","C:/Users/18177/OneDrive/Documents/School/Grad School/Fall 2020/Lab 2 FlankerTask/RW-subject-4.csv","legacy","Lentiform Loewenfeld","3.3.3","0","s","NA","s","NA","NA","s","540","NA","29610","NA","NA","540","2","legacy","1024","2","48000","-16","experiment","HHSHH","4","even","33357","NA","NA","NA","3738","NA","NA","79554","3746","NA","NA","78491","79656","80197","79551","79656","Flanker Task","27","16027","27","yes","1024"
"100","100","592.214285714","592.214285714","black","legacy","legacy","legacy","0","congruent","uniform","1","undefined","1","s","0","0","0","27","0","27","0","27","0","0","0","27","27","27","27","27","09/16/20 21:57:37","1500","The main experiment item","yes","FlankerTask Rene Wallace.osexp","C:\Users\18177\OneDrive\Documents\School\Grad School\Fall 2020\Lab 2 FlankerTask","no","mono","no","18","no","white","no","yes","768","legacy","27","27","C:/Users/18177/OneDrive/Documents/School/Grad School/Fall 2020/Lab 2 FlankerTask/RW-subject-4.csv","legacy","Lentiform Loewenfeld","3.3.3","0","s","NA","s","NA","NA","s","555","NA","29610","NA","NA","555","2","legacy","1024","2","48000","-16","experiment","SSSSS","4","even","33357","NA","NA","NA","3738","NA","NA","81261","3746","NA","NA","80211","81362","81918","81259","81362","Flanker Task","28","16582","28","yes","1024"
"100","100","589.724137931","589.724137931","black","legacy","legacy","legacy","0","congruent","uniform","1","undefined","1","s","0","0","0","28","0","28","0","28","0","0","0","28","28","28","28","28","09/16/20 21:57:37","1500","The main experiment item","yes","FlankerTask Rene Wallace.osexp","C:\Users\18177\OneDrive\Documents\School\Grad School\Fall 2020\Lab 2 FlankerTask","no","mono","no","18","no","white","no","yes","768","legacy","28","28","C:/Users/18177/OneDrive/Documents/School/Grad School/Fall 2020/Lab 2 FlankerTask/RW-subject-4.csv","legacy","Lentiform Loewenfeld","3.3.3","0","s","NA","s","NA","NA","s","520","NA","29610","NA","NA","520","2","legacy","1024","2","48000","-16","experiment","SSSSS","4","even","33357","NA","NA","NA","3738","NA","NA","82977","3746","NA","NA","81930","83080","83601","82975","83080","Flanker Task","29","17102","29","yes","1024"
"100","100","586.666666667","586.666666667","black","legacy","legacy","legacy","0","congruent","uniform","1","undefined","1","h","0","0","0","29","0","29","0","29","0","0","0","29","29","29","29","29","09/16/20 21:57:37","1500","The main experiment item","yes","FlankerTask Rene Wallace.osexp","C:\Users\18177\OneDrive\Documents\School\Grad School\Fall 2020\Lab 2 FlankerTask","no","mono","no","18","no","white","no","yes","768","legacy","29","29","C:/Users/18177/OneDrive/Documents/School/Grad School/Fall 2020/Lab 2 FlankerTask/RW-subject-4.csv","legacy","Lentiform Loewenfeld","3.3.3","0","h","NA","s","NA","NA","h","498","NA","29610","NA","NA","498","2","legacy","1024","2","48000","-16","experiment","HHHHH","4","even","33357","NA","NA","NA","3738","NA","NA","84654","3746","NA","NA","83605","84755","85253","84651","84755","Flanker Task","30","17600","30","yes","1024"
"100","100","585.870967742","585.870967742","black","legacy","legacy","legacy","0","incongruent","uniform","1","undefined","1","h","0","0","0","30","0","30","0","30","0","0","0","30","30","30","30","30","09/16/20 21:57:37","1500","The main experiment item","yes","FlankerTask Rene Wallace.osexp","C:\Users\18177\OneDrive\Documents\School\Grad School\Fall 2020\Lab 2 FlankerTask","no","mono","no","18","no","white","no","yes","768","legacy","30","30","C:/Users/18177/OneDrive/Documents/School/Grad School/Fall 2020/Lab 2 FlankerTask/RW-subject-4.csv","legacy","Lentiform Loewenfeld","3.3.3","0","h","NA","s","NA","NA","h","562","NA","29610","NA","NA","562","2","legacy","1024","2","48000","-16","experiment","SSHSS","4","even","33357","NA","NA","NA","3738","NA","NA","86307","3746","NA","NA","85258","86410","86973","86305","86410","Flanker Task","31","18162","31","yes","1024"
"100","100","582.96875","582.96875","black","legacy","legacy","legacy","0","incongruent","uniform","1","undefined","1","h","0","0","0","31","0","31","0","31","0","0","0","31","31","31","31","31","09/16/20 21:57:37","1500","The main experiment item","yes","FlankerTask Rene Wallace.osexp","C:\Users\18177\OneDrive\Documents\School\Grad School\Fall 2020\Lab 2 FlankerTask","no","mono","no","18","no","white","no","yes","768","legacy","31","31","C:/Users/18177/OneDrive/Documents/School/Grad School/Fall 2020/Lab 2 FlankerTask/RW-subject-4.csv","legacy","Lentiform Loewenfeld","3.3.3","0","h","NA","s","NA","NA","h","493","NA","29610","NA","NA","493","2","legacy","1024","2","48000","-16","experiment","SSHSS","4","even","33357","NA","NA","NA","3738","NA","NA","88033","3746","NA","NA","86985","88137","88631","88032","88136","Flanker Task","32","18655","32","yes","1024"
"100","100","581.909090909","581.909090909","black","legacy","legacy","legacy","0","incongruent","uniform","1","undefined","1","s","0","0","0","32","0","32","0","32","0","0","0","32","32","32","32","32","09/16/20 21:57:37","1500","The main experiment item","yes","FlankerTask Rene Wallace.osexp","C:\Users\18177\OneDrive\Documents\School\Grad School\Fall 2020\Lab 2 FlankerTask","no","mono","no","18","no","white","no","yes","768","legacy","32","32","C:/Users/18177/OneDrive/Documents/School/Grad School/Fall 2020/Lab 2 FlankerTask/RW-subject-4.csv","legacy","Lentiform Loewenfeld","3.3.3","0","s","NA","s","NA","NA","s","548","NA","29610","NA","NA","548","2","legacy","1024","2","48000","-16","experiment","HHSHH","4","even","33357","NA","NA","NA","3738","NA","NA","89695","3746","NA","NA","88642","89799","90347","89693","89798","Flanker Task","33","19203","33","yes","1024"
"100","100","579.088235294","579.088235294","black","legacy","legacy","legacy","0","incongruent","uniform","1","undefined","1","h","0","0","0","33","0","33","0","33","0","0","0","33","33","33","33","33","09/16/20 21:57:37","1500","The main experiment item","yes","FlankerTask Rene Wallace.osexp","C:\Users\18177\OneDrive\Documents\School\Grad School\Fall 2020\Lab 2 FlankerTask","no","mono","no","18","no","white","no","yes","768","legacy","33","33","C:/Users/18177/OneDrive/Documents/School/Grad School/Fall 2020/Lab 2 FlankerTask/RW-subject-4.csv","legacy","Lentiform Loewenfeld","3.3.3","0","h","NA","s","NA","NA","h","486","NA","29610","NA","NA","486","2","legacy","1024","2","48000","-16","experiment","SSHSS","4","even","33357","NA","NA","NA","3738","NA","NA","91403","3746","NA","NA","90351","91504","91990","91400","91504","Flanker Task","34","19689","34","yes","1024"
"100","100","577.257142857","577.257142857","black","legacy","legacy","legacy","0","congruent","uniform","1","undefined","1","h","0","0","0","34","0","34","0","34","0","0","0","34","34","34","34","34","09/16/20 21:57:37","1500","The main experiment item","yes","FlankerTask Rene Wallace.osexp","C:\Users\18177\OneDrive\Documents\School\Grad School\Fall 2020\Lab 2 FlankerTask","no","mono","no","18","no","white","no","yes","768","legacy","34","34","C:/Users/18177/OneDrive/Documents/School/Grad School/Fall 2020/Lab 2 FlankerTask/RW-subject-4.csv","legacy","Lentiform Loewenfeld","3.3.3","0","h","NA","s","NA","NA","h","515","NA","29610","NA","NA","515","2","legacy","1024","2","48000","-16","experiment","HHHHH","4","even","33357","NA","NA","NA","3738","NA","NA","93051","3746","NA","NA","92002","93155","93670","93049","93154","Flanker Task","35","20204","35","yes","1024"
"100","100","576.861111111","576.861111111","black","legacy","legacy","legacy","0","incongruent","uniform","1","undefined","1","s","0","0","0","35","0","35","0","35","0","0","0","35","35","35","35","35","09/16/20 21:57:37","1500","The main experiment item","yes","FlankerTask Rene Wallace.osexp","C:\Users\18177\OneDrive\Documents\School\Grad School\Fall 2020\Lab 2 FlankerTask","no","mono","no","18","no","white","no","yes","768","legacy","35","35","C:/Users/18177/OneDrive/Documents/School/Grad School/Fall 2020/Lab 2 FlankerTask/RW-subject-4.csv","legacy","Lentiform Loewenfeld","3.3.3","0","s","NA","s","NA","NA","s","563","NA","29610","NA","NA","563","2","legacy","1024","2","48000","-16","experiment","HHSHH","4","even","33357","NA","NA","NA","3738","NA","NA","94751","3746","NA","NA","93683","94854","95418","94749","94854","Flanker Task","36","20767","36","yes","1024"
"100","100","578.918918919","578.918918919","black","legacy","legacy","legacy","0","congruent","uniform","1","undefined","1","s","0","0","0","36","0","36","0","36","0","0","0","36","36","36","36","36","09/16/20 21:57:37","1500","The main experiment item","yes","FlankerTask Rene Wallace.osexp","C:\Users\18177\OneDrive\Documents\School\Grad School\Fall 2020\Lab 2 FlankerTask","no","mono","no","18","no","white","no","yes","768","legacy","36","36","C:/Users/18177/OneDrive/Documents/School/Grad School/Fall 2020/Lab 2 FlankerTask/RW-subject-4.csv","legacy","Lentiform Loewenfeld","3.3.3","0","s","NA","s","NA","NA","s","653","NA","29610","NA","NA","653","2","legacy","1024","2","48000","-16","experiment","SSSSS","4","even","33357","NA","NA","NA","3738","NA","NA","96482","3746","NA","NA","95431","96585","97239","96480","96585","Flanker Task","37","21420","37","yes","1024"
"100","100","577.184210526","577.184210526","black","legacy","legacy","legacy","0","congruent","uniform","1","undefined","1","h","0","0","0","37","0","37","0","37","0","0","0","37","37","37","37","37","09/16/20 21:57:37","1500","The main experiment item","yes","FlankerTask Rene Wallace.osexp","C:\Users\18177\OneDrive\Documents\School\Grad School\Fall 2020\Lab 2 FlankerTask","no","mono","no","18","no","white","no","yes","768","legacy","37","37","C:/Users/18177/OneDrive/Documents/School/Grad School/Fall 2020/Lab 2 FlankerTask/RW-subject-4.csv","legacy","Lentiform Loewenfeld","3.3.3","0","h","NA","s","NA","NA","h","513","NA","29610","NA","NA","513","2","legacy","1024","2","48000","-16","experiment","HHHHH","4","even","33357","NA","NA","NA","3738","NA","NA","98294","3746","NA","NA","97244","98397","98910","98292","98397","Flanker Task","38","21933","38","yes","1024"
"100","100","581.641025641","581.641025641","black","legacy","legacy","legacy","0","incongruent","uniform","1","undefined","1","h","0","0","0","38","0","38","0","38","0","0","0","38","38","38","38","38","09/16/20 21:57:37","1500","The main experiment item","yes","FlankerTask Rene Wallace.osexp","C:\Users\18177\OneDrive\Documents\School\Grad School\Fall 2020\Lab 2 FlankerTask","no","mono","no","18","no","white","no","yes","768","legacy","38","38","C:/Users/18177/OneDrive/Documents/School/Grad School/Fall 2020/Lab 2 FlankerTask/RW-subject-4.csv","legacy","Lentiform Loewenfeld","3.3.3","0","h","NA","s","NA","NA","h","751","NA","29610","NA","NA","751","2","legacy","1024","2","48000","-16","experiment","SSHSS","4","even","33357","NA","NA","NA","3738","NA","NA","99988","3746","NA","NA","98923","100089","100840","99987","100089","Flanker Task","39","22684","39","yes","1024"
"100","100","579.1","579.1","black","legacy","legacy","legacy","0","congruent","uniform","1","undefined","1","s","0","0","0","39","0","39","0","39","0","0","0","39","39","39","39","39","09/16/20 21:57:37","1500","The main experiment item","yes","FlankerTask Rene Wallace.osexp","C:\Users\18177\OneDrive\Documents\School\Grad School\Fall 2020\Lab 2 FlankerTask","no","mono","no","18","no","white","no","yes","768","legacy","39","39","C:/Users/18177/OneDrive/Documents/School/Grad School/Fall 2020/Lab 2 FlankerTask/RW-subject-4.csv","legacy","Lentiform Loewenfeld","3.3.3","0","s","NA","s","NA","NA","s","480","NA","29610","NA","NA","480","2","legacy","1024","2","48000","-16","experiment","SSSSS","4","even","33357","NA","NA","NA","3738","NA","NA","101923","3746","NA","NA","100853","102027","102508","101921","102027","Flanker Task","40","23164","40","yes","1024"
"100","100","579.097560976","579.097560976","black","legacy","legacy","legacy","0","incongruent","uniform","1","undefined","1","s","0","0","0","40","0","40","0","40","0","0","0","40","40","40","40","40","09/16/20 21:57:37","1500","The main experiment item","yes","FlankerTask Rene Wallace.osexp","C:\Users\18177\OneDrive\Documents\School\Grad School\Fall 2020\Lab 2 FlankerTask","no","mono","no","18","no","white","no","yes","768","legacy","40","40","C:/Users/18177/OneDrive/Documents/School/Grad School/Fall 2020/Lab 2 FlankerTask/RW-subject-4.csv","legacy","Lentiform Loewenfeld","3.3.3","0","s","NA","s","NA","NA","s","579","NA","29610","NA","NA","579","2","legacy","1024","2","48000","-16","experiment","HHSHH","4","even","33357","NA","NA","NA","3738","NA","NA","103576","3746","NA","NA","102522","103677","104256","103573","103677","Flanker Task","41","23743","41","yes","1024"
"100","100","577.142857143","577.142857143","black","legacy","legacy","legacy","0","congruent","uniform","1","undefined","1","s","0","0","0","41","0","41","0","41","0","0","0","41","41","41","41","41","09/16/20 21:57:37","1500","The main experiment item","yes","FlankerTask Rene Wallace.osexp","C:\Users\18177\OneDrive\Documents\School\Grad School\Fall 2020\Lab 2 FlankerTask","no","mono","no","18","no","white","no","yes","768","legacy","41","41","C:/Users/18177/OneDrive/Documents/School/Grad School/Fall 2020/Lab 2 FlankerTask/RW-subject-4.csv","legacy","Lentiform Loewenfeld","3.3.3","0","s","NA","s","NA","NA","s","497","NA","29610","NA","NA","497","2","legacy","1024","2","48000","-16","experiment","SSSSS","4","even","33357","NA","NA","NA","3738","NA","NA","105340","3746","NA","NA","104269","105443","105940","105338","105443","Flanker Task","42","24240","42","yes","1024"
"100","100","574.488372093","574.488372093","black","legacy","legacy","legacy","0","incongruent","uniform","1","undefined","1","h","0","0","0","42","0","42","0","42","0","0","0","42","42","42","42","42","09/16/20 21:57:37","1500","The main experiment item","yes","FlankerTask Rene Wallace.osexp","C:\Users\18177\OneDrive\Documents\School\Grad School\Fall 2020\Lab 2 FlankerTask","no","mono","no","18","no","white","no","yes","768","legacy","42","42","C:/Users/18177/OneDrive/Documents/School/Grad School/Fall 2020/Lab 2 FlankerTask/RW-subject-4.csv","legacy","Lentiform Loewenfeld","3.3.3","0","h","NA","s","NA","NA","h","463","NA","29610","NA","NA","463","2","legacy","1024","2","48000","-16","experiment","SSHSS","4","even","33357","NA","NA","NA","3738","NA","NA","107002","3746","NA","NA","105953","107106","107570","107000","107105","Flanker Task","43","24703","43","yes","1024"
"100","100","575.568181818","575.568181818","black","legacy","legacy","legacy","0","incongruent","uniform","1","undefined","1","h","0","0","0","43","0","43","0","43","0","0","0","43","43","43","43","43","09/16/20 21:57:37","1500","The main experiment item","yes","FlankerTask Rene Wallace.osexp","C:\Users\18177\OneDrive\Documents\School\Grad School\Fall 2020\Lab 2 FlankerTask","no","mono","no","18","no","white","no","yes","768","legacy","43","43","C:/Users/18177/OneDrive/Documents/School/Grad School/Fall 2020/Lab 2 FlankerTask/RW-subject-4.csv","legacy","Lentiform Loewenfeld","3.3.3","0","h","NA","s","NA","NA","h","622","NA","29610","NA","NA","622","2","legacy","1024","2","48000","-16","experiment","SSHSS","4","even","33357","NA","NA","NA","3738","NA","NA","108650","3746","NA","NA","107582","108752","109375","108647","108752","Flanker Task","44","25325","44","yes","1024"
"100","100","574.8","574.8","black","legacy","legacy","legacy","0","congruent","uniform","1","undefined","1","h","0","0","0","44","0","44","0","44","0","0","0","44","44","44","44","44","09/16/20 21:57:37","1500","The main experiment item","yes","FlankerTask Rene Wallace.osexp","C:\Users\18177\OneDrive\Documents\School\Grad School\Fall 2020\Lab 2 FlankerTask","no","mono","no","18","no","white","no","yes","768","legacy","44","44","C:/Users/18177/OneDrive/Documents/School/Grad School/Fall 2020/Lab 2 FlankerTask/RW-subject-4.csv","legacy","Lentiform Loewenfeld","3.3.3","0","h","NA","s","NA","NA","h","541","NA","29610","NA","NA","541","2","legacy","1024","2","48000","-16","experiment","HHHHH","4","even","33357","NA","NA","NA","3738","NA","NA","110438","3746","NA","NA","109388","110543","111084","110436","110542","Flanker Task","45","25866","45","yes","1024"
"100","100","573.695652174","573.695652174","black","legacy","legacy","legacy","0","congruent","uniform","1","undefined","1","s","0","0","0","45","0","45","0","45","0","0","0","45","45","45","45","45","09/16/20 21:57:37","1500","The main experiment item","yes","FlankerTask Rene Wallace.osexp","C:\Users\18177\OneDrive\Documents\School\Grad School\Fall 2020\Lab 2 FlankerTask","no","mono","no","18","no","white","no","yes","768","legacy","45","45","C:/Users/18177/OneDrive/Documents/School/Grad School/Fall 2020/Lab 2 FlankerTask/RW-subject-4.csv","legacy","Lentiform Loewenfeld","3.3.3","0","s","NA","s","NA","NA","s","524","NA","29610","NA","NA","524","2","legacy","1024","2","48000","-16","experiment","SSSSS","4","even","33357","NA","NA","NA","3738","NA","NA","112146","3746","NA","NA","111097","112248","112773","112144","112248","Flanker Task","46","26390","46","yes","1024"
"100","100","574.127659574","574.127659574","black","legacy","legacy","legacy","0","incongruent","uniform","1","undefined","1","s","0","0","0","46","0","46","0","46","0","0","0","46","46","46","46","46","09/16/20 21:57:37","1500","The main experiment item","yes","FlankerTask Rene Wallace.osexp","C:\Users\18177\OneDrive\Documents\School\Grad School\Fall 2020\Lab 2 FlankerTask","no","mono","no","18","no","white","no","yes","768","legacy","46","46","C:/Users/18177/OneDrive/Documents/School/Grad School/Fall 2020/Lab 2 FlankerTask/RW-subject-4.csv","legacy","Lentiform Loewenfeld","3.3.3","0","s","NA","s","NA","NA","s","594","NA","29610","NA","NA","594","2","legacy","1024","2","48000","-16","experiment","HHSHH","4","even","33357","NA","NA","NA","3738","NA","NA","113855","3746","NA","NA","112787","113959","114554","113854","113959","Flanker Task","47","26984","47","yes","1024"
"100","100","577.541666667","577.541666667","black","legacy","legacy","legacy","0","congruent","uniform","1","undefined","1","s","0","0","0","47","0","47","0","47","0","0","0","47","47","47","47","47","09/16/20 21:57:37","1500","The main experiment item","yes","FlankerTask Rene Wallace.osexp","C:\Users\18177\OneDrive\Documents\School\Grad School\Fall 2020\Lab 2 FlankerTask","no","mono","no","18","no","white","no","yes","768","legacy","47","47","C:/Users/18177/OneDrive/Documents/School/Grad School/Fall 2020/Lab 2 FlankerTask/RW-subject-4.csv","legacy","Lentiform Loewenfeld","3.3.3","0","s","NA","s","NA","NA","s","738","NA","29610","NA","NA","738","2","legacy","1024","2","48000","-16","experiment","SSSSS","4","even","33357","NA","NA","NA","3738","NA","NA","115623","3746","NA","NA","114567","115724","116463","115621","115724","Flanker Task","48","27722","48","yes","1024"
"100","100","577.489795918","577.489795918","black","legacy","legacy","legacy","0","congruent","uniform","1","undefined","1","s","0","0","0","48","0","48","0","48","0","0","0","48","48","48","48","48","09/16/20 21:57:37","1500","The main experiment item","yes","FlankerTask Rene Wallace.osexp","C:\Users\18177\OneDrive\Documents\School\Grad School\Fall 2020\Lab 2 FlankerTask","no","mono","no","18","no","white","no","yes","768","legacy","48","48","C:/Users/18177/OneDrive/Documents/School/Grad School/Fall 2020/Lab 2 FlankerTask/RW-subject-4.csv","legacy","Lentiform Loewenfeld","3.3.3","0","s","NA","s","NA","NA","s","575","NA","29610","NA","NA","575","2","legacy","1024","2","48000","-16","experiment","SSSSS","4","even","33357","NA","NA","NA","3738","NA","NA","117531","3746","NA","NA","116476","117632","118208","117529","117632","Flanker Task","49","28297","49","yes","1024"
"100","100","577.86","577.86","black","legacy","legacy","legacy","0","incongruent","uniform","1","undefined","1","h","0","0","0","49","0","49","0","49","0","0","0","49","49","49","49","49","09/16/20 21:57:37","1500","The main experiment item","yes","FlankerTask Rene Wallace.osexp","C:\Users\18177\OneDrive\Documents\School\Grad School\Fall 2020\Lab 2 FlankerTask","no","mono","no","18","no","white","no","yes","768","legacy","49","49","C:/Users/18177/OneDrive/Documents/School/Grad School/Fall 2020/Lab 2 FlankerTask/RW-subject-4.csv","legacy","Lentiform Loewenfeld","3.3.3","0","h","NA","s","NA","NA","h","596","NA","29610","NA","NA","596","2","legacy","1024","2","48000","-16","experiment","SSHSS","4","even","33357","NA","NA","NA","3738","NA","NA","119268","3746","NA","NA","118220","119369","119966","119265","119369","Flanker Task","50","28893","50","yes","1024"
"100","100","577.607843137","577.607843137","black","legacy","legacy","legacy","0","congruent","uniform","1","undefined","1","s","0","0","0","50","0","50","0","50","0","0","0","50","50","50","50","50","09/16/20 21:57:37","1500","The main experiment item","yes","FlankerTask Rene Wallace.osexp","C:\Users\18177\OneDrive\Documents\School\Grad School\Fall 2020\Lab 2 FlankerTask","no","mono","no","18","no","white","no","yes","768","legacy","50","50","C:/Users/18177/OneDrive/Documents/School/Grad School/Fall 2020/Lab 2 FlankerTask/RW-subject-4.csv","legacy","Lentiform Loewenfeld","3.3.3","0","s","NA","s","NA","NA","s","565","NA","29610","NA","NA","565","2","legacy","1024","2","48000","-16","experiment","SSSSS","4","even","33357","NA","NA","NA","3738","NA","NA","121045","3746","NA","NA","119979","121150","121715","121043","121149","Flanker Task","51","29458","51","yes","1024"
"100","100","575.903846154","575.903846154","black","legacy","legacy","legacy","0","congruent","uniform","1","undefined","1","h","0","0","0","51","0","51","0","51","0","0","0","51","51","51","51","51","09/16/20 21:57:37","1500","The main experiment item","yes","FlankerTask Rene Wallace.osexp","C:\Users\18177\OneDrive\Documents\School\Grad School\Fall 2020\Lab 2 FlankerTask","no","mono","no","18","no","white","no","yes","768","legacy","51","51","C:/Users/18177/OneDrive/Documents/School/Grad School/Fall 2020/Lab 2 FlankerTask/RW-subject-4.csv","legacy","Lentiform Loewenfeld","3.3.3","0","h","NA","s","NA","NA","h","489","NA","29610","NA","NA","489","2","legacy","1024","2","48000","-16","experiment","HHHHH","4","even","33357","NA","NA","NA","3738","NA","NA","122789","3746","NA","NA","121720","122890","123379","122787","122890","Flanker Task","52","29947","52","yes","1024"
"100","100","575.490566038","575.490566038","black","legacy","legacy","legacy","0","incongruent","uniform","1","undefined","1","s","0","0","0","52","0","52","0","52","0","0","0","52","52","52","52","52","09/16/20 21:57:37","1500","The main experiment item","yes","FlankerTask Rene Wallace.osexp","C:\Users\18177\OneDrive\Documents\School\Grad School\Fall 2020\Lab 2 FlankerTask","no","mono","no","18","no","white","no","yes","768","legacy","52","52","C:/Users/18177/OneDrive/Documents/School/Grad School/Fall 2020/Lab 2 FlankerTask/RW-subject-4.csv","legacy","Lentiform Loewenfeld","3.3.3","0","s","NA","s","NA","NA","s","554","NA","29610","NA","NA","554","2","legacy","1024","2","48000","-16","experiment","HHSHH","4","even","33357","NA","NA","NA","3738","NA","NA","124440","3746","NA","NA","123391","124544","125099","124439","124544","Flanker Task","53","30501","53","yes","1024"
"100","100","577.074074074","577.074074074","black","legacy","legacy","legacy","0","incongruent","uniform","1","undefined","1","s","0","0","0","53","0","53","0","53","0","0","0","53","53","53","53","53","09/16/20 21:57:37","1500","The main experiment item","yes","FlankerTask Rene Wallace.osexp","C:\Users\18177\OneDrive\Documents\School\Grad School\Fall 2020\Lab 2 FlankerTask","no","mono","no","18","no","white","no","yes","768","legacy","53","53","C:/Users/18177/OneDrive/Documents/School/Grad School/Fall 2020/Lab 2 FlankerTask/RW-subject-4.csv","legacy","Lentiform Loewenfeld","3.3.3","0","s","NA","s","NA","NA","s","661","NA","29610","NA","NA","661","2","legacy","1024","2","48000","-16","experiment","HHSHH","4","even","33357","NA","NA","NA","3738","NA","NA","126174","3746","NA","NA","125111","126277","126939","126172","126277","Flanker Task","54","31162","54","yes","1024"
"100","100","579.854545455","579.854545455","black","legacy","legacy","legacy","0","incongruent","uniform","1","undefined","1","s","0","0","0","54","0","54","0","54","0","0","0","54","54","54","54","54","09/16/20 21:57:37","1500","The main experiment item","yes","FlankerTask Rene Wallace.osexp","C:\Users\18177\OneDrive\Documents\School\Grad School\Fall 2020\Lab 2 FlankerTask","no","mono","no","18","no","white","no","yes","768","legacy","54","54","C:/Users/18177/OneDrive/Documents/School/Grad School/Fall 2020/Lab 2 FlankerTask/RW-subject-4.csv","legacy","Lentiform Loewenfeld","3.3.3","0","s","NA","s","NA","NA","s","730","NA","29610","NA","NA","730","2","legacy","1024","2","48000","-16","experiment","HHSHH","4","even","33357","NA","NA","NA","3738","NA","NA","128004","3746","NA","NA","126951","128107","128838","128002","128106","Flanker Task","55","31892","55","yes","1024"
"100","100","579.607142857","579.607142857","black","legacy","legacy","legacy","0","congruent","uniform","1","undefined","1","s","0","0","0","55","0","55","0","55","0","0","0","55","55","55","55","55","09/16/20 21:57:37","1500","The main experiment item","yes","FlankerTask Rene Wallace.osexp","C:\Users\18177\OneDrive\Documents\School\Grad School\Fall 2020\Lab 2 FlankerTask","no","mono","no","18","no","white","no","yes","768","legacy","55","55","C:/Users/18177/OneDrive/Documents/School/Grad School/Fall 2020/Lab 2 FlankerTask/RW-subject-4.csv","legacy","Lentiform Loewenfeld","3.3.3","0","s","NA","s","NA","NA","s","566","NA","29610","NA","NA","566","2","legacy","1024","2","48000","-16","experiment","SSSSS","4","even","33357","NA","NA","NA","3738","NA","NA","129902","3746","NA","NA","128851","130006","130572","129900","130006","Flanker Task","56","32458","56","yes","1024"
"100","100","580.070175439","580.070175439","black","legacy","legacy","legacy","0","incongruent","uniform","1","undefined","1","s","0","0","0","56","0","56","0","56","0","0","0","56","56","56","56","56","09/16/20 21:57:37","1500","The main experiment item","yes","FlankerTask Rene Wallace.osexp","C:\Users\18177\OneDrive\Documents\School\Grad School\Fall 2020\Lab 2 FlankerTask","no","mono","no","18","no","white","no","yes","768","legacy","56","56","C:/Users/18177/OneDrive/Documents/School/Grad School/Fall 2020/Lab 2 FlankerTask/RW-subject-4.csv","legacy","Lentiform Loewenfeld","3.3.3","0","s","NA","s","NA","NA","s","606","NA","29610","NA","NA","606","2","legacy","1024","2","48000","-16","experiment","HHSHH","4","even","33357","NA","NA","NA","3738","NA","NA","131637","3746","NA","NA","130586","131740","132347","131635","131740","Flanker Task","57","33064","57","yes","1024"
"100","100","578.724137931","578.724137931","black","legacy","legacy","legacy","0","congruent","uniform","1","undefined","1","h","0","0","0","57","0","57","0","57","0","0","0","57","57","57","57","57","09/16/20 21:57:37","1500","The main experiment item","yes","FlankerTask Rene Wallace.osexp","C:\Users\18177\OneDrive\Documents\School\Grad School\Fall 2020\Lab 2 FlankerTask","no","mono","no","18","no","white","no","yes","768","legacy","57","57","C:/Users/18177/OneDrive/Documents/School/Grad School/Fall 2020/Lab 2 FlankerTask/RW-subject-4.csv","legacy","Lentiform Loewenfeld","3.3.3","0","h","NA","s","NA","NA","h","502","NA","29610","NA","NA","502","2","legacy","1024","2","48000","-16","experiment","HHHHH","4","even","33357","NA","NA","NA","3738","NA","NA","133414","3746","NA","NA","132360","133517","134019","133412","133517","Flanker Task","58","33566","58","yes","1024"
"100","100","576.881355932","576.881355932","black","legacy","legacy","legacy","0","congruent","uniform","1","undefined","1","h","0","0","0","58","0","58","0","58","0","0","0","58","58","58","58","58","09/16/20 21:57:37","1500","The main experiment item","yes","FlankerTask Rene Wallace.osexp","C:\Users\18177\OneDrive\Documents\School\Grad School\Fall 2020\Lab 2 FlankerTask","no","mono","no","18","no","white","no","yes","768","legacy","58","58","C:/Users/18177/OneDrive/Documents/School/Grad School/Fall 2020/Lab 2 FlankerTask/RW-subject-4.csv","legacy","Lentiform Loewenfeld","3.3.3","0","h","NA","s","NA","NA","h","470","NA","29610","NA","NA","470","2","legacy","1024","2","48000","-16","experiment","HHHHH","4","even","33357","NA","NA","NA","3738","NA","NA","135092","3746","NA","NA","134023","135196","135667","135091","135195","Flanker Task","59","34036","59","yes","1024"
"100","100","578.35","578.35","black","legacy","legacy","legacy","0","congruent","uniform","1","undefined","1","s","0","0","0","59","0","59","0","59","0","0","0","59","59","59","59","59","09/16/20 21:57:37","1500","The main experiment item","yes","FlankerTask Rene Wallace.osexp","C:\Users\18177\OneDrive\Documents\School\Grad School\Fall 2020\Lab 2 FlankerTask","no","mono","no","18","no","white","no","yes","768","legacy","59","59","C:/Users/18177/OneDrive/Documents/School/Grad School/Fall 2020/Lab 2 FlankerTask/RW-subject-4.csv","legacy","Lentiform Loewenfeld","3.3.3","0","s","NA","s","NA","NA","s","665","NA","29610","NA","NA","665","2","legacy","1024","2","48000","-16","experiment","SSSSS","4","even","33357","NA","NA","NA","3738","NA","NA","136729","3746","NA","NA","135679","136833","137499","136727","136833","Flanker Task","60","34701","60","yes","1024"
"100","100","581.098360656","581.098360656","black","legacy","legacy","legacy","0","congruent","uniform","1","undefined","1","h","0","0","0","60","0","60","0","60","0","0","0","60","60","60","60","60","09/16/20 21:57:37","1500","The main experiment item","yes","FlankerTask Rene Wallace.osexp","C:\Users\18177\OneDrive\Documents\School\Grad School\Fall 2020\Lab 2 FlankerTask","no","mono","no","18","no","white","no","yes","768","legacy","60","60","C:/Users/18177/OneDrive/Documents/School/Grad School/Fall 2020/Lab 2 FlankerTask/RW-subject-4.csv","legacy","Lentiform Loewenfeld","3.3.3","0","h","NA","s","NA","NA","h","746","NA","29610","NA","NA","746","2","legacy","1024","2","48000","-16","experiment","HHHHH","4","even","33357","NA","NA","NA","3738","NA","NA","138579","3746","NA","NA","137513","138683","139430","138578","138682","Flanker Task","61","35447","61","yes","1024"
"100","100","581.306451613","581.306451613","black","legacy","legacy","legacy","0","congruent","uniform","1","undefined","1","h","0","0","0","61","0","61","0","61","0","0","0","61","61","61","61","61","09/16/20 21:57:37","1500","The main experiment item","yes","FlankerTask Rene Wallace.osexp","C:\Users\18177\OneDrive\Documents\School\Grad School\Fall 2020\Lab 2 FlankerTask","no","mono","no","18","no","white","no","yes","768","legacy","61","61","C:/Users/18177/OneDrive/Documents/School/Grad School/Fall 2020/Lab 2 FlankerTask/RW-subject-4.csv","legacy","Lentiform Loewenfeld","3.3.3","0","h","NA","s","NA","NA","h","594","NA","29610","NA","NA","594","2","legacy","1024","2","48000","-16","experiment","HHHHH","4","even","33357","NA","NA","NA","3738","NA","NA","140481","3746","NA","NA","139434","140585","141180","140480","140584","Flanker Task","62","36041","62","yes","1024"
"100","100","580.46031746","580.46031746","black","legacy","legacy","legacy","0","congruent","uniform","1","undefined","1","h","0","0","0","62","0","62","0","62","0","0","0","62","62","62","62","62","09/16/20 21:57:37","1500","The main experiment item","yes","FlankerTask Rene Wallace.osexp","C:\Users\18177\OneDrive\Documents\School\Grad School\Fall 2020\Lab 2 FlankerTask","no","mono","no","18","no","white","no","yes","768","legacy","62","62","C:/Users/18177/OneDrive/Documents/School/Grad School/Fall 2020/Lab 2 FlankerTask/RW-subject-4.csv","legacy","Lentiform Loewenfeld","3.3.3","0","h","NA","s","NA","NA","h","528","NA","29610","NA","NA","528","2","legacy","1024","2","48000","-16","experiment","HHHHH","4","even","33357","NA","NA","NA","3738","NA","NA","142263","3746","NA","NA","141192","142363","142891","142262","142363","Flanker Task","63","36569","63","yes","1024"
"100","100","579.984375","579.984375","black","legacy","legacy","legacy","0","congruent","uniform","1","undefined","1","h","0","0","0","63","0","63","0","63","0","0","0","63","63","63","63","63","09/16/20 21:57:37","1500","The main experiment item","yes","FlankerTask Rene Wallace.osexp","C:\Users\18177\OneDrive\Documents\School\Grad School\Fall 2020\Lab 2 FlankerTask","no","mono","no","18","no","white","no","yes","768","legacy","63","63","C:/Users/18177/OneDrive/Documents/School/Grad School/Fall 2020/Lab 2 FlankerTask/RW-subject-4.csv","legacy","Lentiform Loewenfeld","3.3.3","0","h","NA","s","NA","NA","h","550","NA","29610","NA","NA","550","2","legacy","1024","2","48000","-16","experiment","HHHHH","4","even","33357","NA","NA","NA","3738","NA","NA","143972","3746","NA","NA","142905","144076","144626","143970","144076","Flanker Task","64","37119","64","yes","1024"
"100","100","578.415384615","578.415384615","black","legacy","legacy","legacy","0","congruent","uniform","1","undefined","1","h","0","0","0","64","0","64","0","64","0","0","0","64","64","64","64","64","09/16/20 21:57:37","1500","The main experiment item","yes","FlankerTask Rene Wallace.osexp","C:\Users\18177\OneDrive\Documents\School\Grad School\Fall 2020\Lab 2 FlankerTask","no","mono","no","18","no","white","no","yes","768","legacy","64","64","C:/Users/18177/OneDrive/Documents/School/Grad School/Fall 2020/Lab 2 FlankerTask/RW-subject-4.csv","legacy","Lentiform Loewenfeld","3.3.3","0","h","NA","s","NA","NA","h","478","NA","29610","NA","NA","478","2","legacy","1024","2","48000","-16","experiment","HHHHH","4","even","33357","NA","NA","NA","3738","NA","NA","145709","3746","NA","NA","144640","145811","146290","145707","145811","Flanker Task","65","37597","65","yes","1024"
"100","100","577.287878788","577.287878788","black","legacy","legacy","legacy","0","incongruent","uniform","1","undefined","1","s","0","0","0","65","0","65","0","65","0","0","0","65","65","65","65","65","09/16/20 21:57:37","1500","The main experiment item","yes","FlankerTask Rene Wallace.osexp","C:\Users\18177\OneDrive\Documents\School\Grad School\Fall 2020\Lab 2 FlankerTask","no","mono","no","18","no","white","no","yes","768","legacy","65","65","C:/Users/18177/OneDrive/Documents/School/Grad School/Fall 2020/Lab 2 FlankerTask/RW-subject-4.csv","legacy","Lentiform Loewenfeld","3.3.3","0","s","NA","s","NA","NA","s","504","NA","29610","NA","NA","504","2","legacy","1024","2","48000","-16","experiment","HHSHH","4","even","33357","NA","NA","NA","3738","NA","NA","147360","3746","NA","NA","146295","147463","147968","147358","147463","Flanker Task","66","38101","66","yes","1024"
"100","100","576.910447761","576.910447761","black","legacy","legacy","legacy","0","incongruent","uniform","1","undefined","1","h","0","0","0","66","0","66","0","66","0","0","0","66","66","66","66","66","09/16/20 21:57:37","1500","The main experiment item","yes","FlankerTask Rene Wallace.osexp","C:\Users\18177\OneDrive\Documents\School\Grad School\Fall 2020\Lab 2 FlankerTask","no","mono","no","18","no","white","no","yes","768","legacy","66","66","C:/Users/18177/OneDrive/Documents/School/Grad School/Fall 2020/Lab 2 FlankerTask/RW-subject-4.csv","legacy","Lentiform Loewenfeld","3.3.3","0","h","NA","s","NA","NA","h","552","NA","29610","NA","NA","552","2","legacy","1024","2","48000","-16","experiment","SSHSS","4","even","33357","NA","NA","NA","3738","NA","NA","149048","3746","NA","NA","147980","149151","149704","149046","149150","Flanker Task","67","38653","67","yes","1024"
"100","100","575.661764706","575.661764706","black","legacy","legacy","legacy","0","incongruent","uniform","1","undefined","1","s","0","0","0","67","0","67","0","67","0","0","0","67","67","67","67","67","09/16/20 21:57:37","1500","The main experiment item","yes","FlankerTask Rene Wallace.osexp","C:\Users\18177\OneDrive\Documents\School\Grad School\Fall 2020\Lab 2 FlankerTask","no","mono","no","18","no","white","no","yes","768","legacy","67","67","C:/Users/18177/OneDrive/Documents/School/Grad School/Fall 2020/Lab 2 FlankerTask/RW-subject-4.csv","legacy","Lentiform Loewenfeld","3.3.3","0","s","NA","s","NA","NA","s","492","NA","29610","NA","NA","492","2","legacy","1024","2","48000","-16","experiment","HHSHH","4","even","33357","NA","NA","NA","3738","NA","NA","150771","3746","NA","NA","149716","150875","151367","150768","150874","Flanker Task","68","39145","68","yes","1024"
"100","100","575.811594203","575.811594203","black","legacy","legacy","legacy","0","incongruent","uniform","1","undefined","1","s","0","0","0","68","0","68","0","68","0","0","0","68","68","68","68","68","09/16/20 21:57:37","1500","The main experiment item","yes","FlankerTask Rene Wallace.osexp","C:\Users\18177\OneDrive\Documents\School\Grad School\Fall 2020\Lab 2 FlankerTask","no","mono","no","18","no","white","no","yes","768","legacy","68","68","C:/Users/18177/OneDrive/Documents/School/Grad School/Fall 2020/Lab 2 FlankerTask/RW-subject-4.csv","legacy","Lentiform Loewenfeld","3.3.3","0","s","NA","s","NA","NA","s","586","NA","29610","NA","NA","586","2","legacy","1024","2","48000","-16","experiment","HHSHH","4","even","33357","NA","NA","NA","3738","NA","NA","152424","3746","NA","NA","151375","152525","153112","152422","152525","Flanker Task","69","39731","69","yes","1024"
"100","100","574.228571429","574.228571429","black","legacy","legacy","legacy","0","congruent","uniform","1","undefined","1","h","0","0","0","69","0","69","0","69","0","0","0","69","69","69","69","69","09/16/20 21:57:37","1500","The main experiment item","yes","FlankerTask Rene Wallace.osexp","C:\Users\18177\OneDrive\Documents\School\Grad School\Fall 2020\Lab 2 FlankerTask","no","mono","no","18","no","white","no","yes","768","legacy","69","69","C:/Users/18177/OneDrive/Documents/School/Grad School/Fall 2020/Lab 2 FlankerTask/RW-subject-4.csv","legacy","Lentiform Loewenfeld","3.3.3","0","h","NA","s","NA","NA","h","465","NA","29610","NA","NA","465","2","legacy","1024","2","48000","-16","experiment","HHHHH","4","even","33357","NA","NA","NA","3738","NA","NA","154186","3746","NA","NA","153117","154290","154755","154184","154289","Flanker Task","70","40196","70","yes","1024"
"100","100","573.887323944","573.887323944","black","legacy","legacy","legacy","0","incongruent","uniform","1","undefined","1","h","0","0","0","70","0","70","0","70","0","0","0","70","70","70","70","70","09/16/20 21:57:37","1500","The main experiment item","yes","FlankerTask Rene Wallace.osexp","C:\Users\18177\OneDrive\Documents\School\Grad School\Fall 2020\Lab 2 FlankerTask","no","mono","no","18","no","white","no","yes","768","legacy","70","70","C:/Users/18177/OneDrive/Documents/School/Grad School/Fall 2020/Lab 2 FlankerTask/RW-subject-4.csv","legacy","Lentiform Loewenfeld","3.3.3","0","h","NA","s","NA","NA","h","550","NA","29610","NA","NA","550","2","legacy","1024","2","48000","-16","experiment","SSHSS","4","even","33357","NA","NA","NA","3738","NA","NA","155824","3746","NA","NA","154770","155927","156478","155820","155927","Flanker Task","71","40746","71","yes","1024"
"100","100","572.833333333","572.833333333","black","legacy","legacy","legacy","0","congruent","uniform","1","undefined","1","s","0","0","0","71","0","71","0","71","0","0","0","71","71","71","71","71","09/16/20 21:57:37","1500","The main experiment item","yes","FlankerTask Rene Wallace.osexp","C:\Users\18177\OneDrive\Documents\School\Grad School\Fall 2020\Lab 2 FlankerTask","no","mono","no","18","no","white","no","yes","768","legacy","71","71","C:/Users/18177/OneDrive/Documents/School/Grad School/Fall 2020/Lab 2 FlankerTask/RW-subject-4.csv","legacy","Lentiform Loewenfeld","3.3.3","0","s","NA","s","NA","NA","s","498","NA","29610","NA","NA","498","2","legacy","1024","2","48000","-16","experiment","SSSSS","4","even","33357","NA","NA","NA","3738","NA","NA","157541","3746","NA","NA","156491","157642","158141","157540","157642","Flanker Task","72","41244","72","yes","1024"
"100","100","571.589041096","571.589041096","black","legacy","legacy","legacy","0","congruent","uniform","1","undefined","1","h","0","0","0","72","0","72","0","72","0","0","0","72","72","72","72","72","09/16/20 21:57:37","1500","The main experiment item","yes","FlankerTask Rene Wallace.osexp","C:\Users\18177\OneDrive\Documents\School\Grad School\Fall 2020\Lab 2 FlankerTask","no","mono","no","18","no","white","no","yes","768","legacy","72","72","C:/Users/18177/OneDrive/Documents/School/Grad School/Fall 2020/Lab 2 FlankerTask/RW-subject-4.csv","legacy","Lentiform Loewenfeld","3.3.3","0","h","NA","s","NA","NA","h","482","NA","29610","NA","NA","482","2","legacy","1024","2","48000","-16","experiment","HHHHH","4","even","33357","NA","NA","NA","3738","NA","NA","159209","3746","NA","NA","158153","159312","159795","159207","159311","Flanker Task","73","41726","73","yes","1024"
"100","100","572.986486486","572.986486486","black","legacy","legacy","legacy","0","incongruent","uniform","1","undefined","1","h","0","0","0","73","0","73","0","73","0","0","0","73","73","73","73","73","09/16/20 21:57:37","1500","The main experiment item","yes","FlankerTask Rene Wallace.osexp","C:\Users\18177\OneDrive\Documents\School\Grad School\Fall 2020\Lab 2 FlankerTask","no","mono","no","18","no","white","no","yes","768","legacy","73","73","C:/Users/18177/OneDrive/Documents/School/Grad School/Fall 2020/Lab 2 FlankerTask/RW-subject-4.csv","legacy","Lentiform Loewenfeld","3.3.3","0","h","NA","s","NA","NA","h","675","NA","29610","NA","NA","675","2","legacy","1024","2","48000","-16","experiment","SSHSS","4","even","33357","NA","NA","NA","3738","NA","NA","160859","3746","NA","NA","159807","160961","161637","160857","160960","Flanker Task","74","42401","74","yes","1024"
"100","100","572.053333333","572.053333333","black","legacy","legacy","legacy","0","incongruent","uniform","1","undefined","1","s","0","0","0","74","0","74","0","74","0","0","0","74","74","74","74","74","09/16/20 21:57:37","1500","The main experiment item","yes","FlankerTask Rene Wallace.osexp","C:\Users\18177\OneDrive\Documents\School\Grad School\Fall 2020\Lab 2 FlankerTask","no","mono","no","18","no","white","no","yes","768","legacy","74","74","C:/Users/18177/OneDrive/Documents/School/Grad School/Fall 2020/Lab 2 FlankerTask/RW-subject-4.csv","legacy","Lentiform Loewenfeld","3.3.3","0","s","NA","s","NA","NA","s","503","NA","29610","NA","NA","503","2","legacy","1024","2","48000","-16","experiment","HHSHH","4","even","33357","NA","NA","NA","3738","NA","NA","162701","3746","NA","NA","161650","162804","163307","162698","162804","Flanker Task","75","42904","75","yes","1024"
"100","100","572.263157895","572.263157895","black","legacy","legacy","legacy","0","congruent","uniform","1","undefined","1","s","0","0","0","75","0","75","0","75","0","0","0","75","75","75","75","75","09/16/20 21:57:37","1500","The main experiment item","yes","FlankerTask Rene Wallace.osexp","C:\Users\18177\OneDrive\Documents\School\Grad School\Fall 2020\Lab 2 FlankerTask","no","mono","no","18","no","white","no","yes","768","legacy","75","75","C:/Users/18177/OneDrive/Documents/School/Grad School/Fall 2020/Lab 2 FlankerTask/RW-subject-4.csv","legacy","Lentiform Loewenfeld","3.3.3","0","s","NA","s","NA","NA","s","588","NA","29610","NA","NA","588","2","legacy","1024","2","48000","-16","experiment","SSSSS","4","even","33357","NA","NA","NA","3738","NA","NA","164370","3746","NA","NA","163322","164472","165061","164368","164472","Flanker Task","76","43492","76","yes","1024"
"100","100","577.454545455","577.454545455","black","legacy","legacy","legacy","0","incongruent","uniform","1","undefined","1","h","0","0","0","76","0","76","0","76","0","0","0","76","76","76","76","76","09/16/20 21:57:37","1500","The main experiment item","yes","FlankerTask Rene Wallace.osexp","C:\Users\18177\OneDrive\Documents\School\Grad School\Fall 2020\Lab 2 FlankerTask","no","mono","no","18","no","white","no","yes","768","legacy","76","76","C:/Users/18177/OneDrive/Documents/School/Grad School/Fall 2020/Lab 2 FlankerTask/RW-subject-4.csv","legacy","Lentiform Loewenfeld","3.3.3","0","h","NA","s","NA","NA","h","972","NA","29610","NA","NA","972","2","legacy","1024","2","48000","-16","experiment","SSHSS","4","even","33357","NA","NA","NA","3738","NA","NA","166124","3746","NA","NA","165073","166225","167198","166122","166225","Flanker Task","77","44464","77","yes","1024"
"100","100","577.397435897","577.397435897","black","legacy","legacy","legacy","0","incongruent","uniform","1","undefined","1","h","0","0","0","77","0","77","0","77","0","0","0","77","77","77","77","77","09/16/20 21:57:37","1500","The main experiment item","yes","FlankerTask Rene Wallace.osexp","C:\Users\18177\OneDrive\Documents\School\Grad School\Fall 2020\Lab 2 FlankerTask","no","mono","no","18","no","white","no","yes","768","legacy","77","77","C:/Users/18177/OneDrive/Documents/School/Grad School/Fall 2020/Lab 2 FlankerTask/RW-subject-4.csv","legacy","Lentiform Loewenfeld","3.3.3","0","h","NA","s","NA","NA","h","573","NA","29610","NA","NA","573","2","legacy","1024","2","48000","-16","experiment","SSHSS","4","even","33357","NA","NA","NA","3738","NA","NA","168263","3746","NA","NA","167213","168364","168938","168260","168364","Flanker Task","78","45037","78","yes","1024"
"100","100","576.64556962","576.64556962","black","legacy","legacy","legacy","0","incongruent","uniform","1","undefined","1","h","0","0","0","78","0","78","0","78","0","0","0","78","78","78","78","78","09/16/20 21:57:37","1500","The main experiment item","yes","FlankerTask Rene Wallace.osexp","C:\Users\18177\OneDrive\Documents\School\Grad School\Fall 2020\Lab 2 FlankerTask","no","mono","no","18","no","white","no","yes","768","legacy","78","78","C:/Users/18177/OneDrive/Documents/School/Grad School/Fall 2020/Lab 2 FlankerTask/RW-subject-4.csv","legacy","Lentiform Loewenfeld","3.3.3","0","h","NA","s","NA","NA","h","518","NA","29610","NA","NA","518","2","legacy","1024","2","48000","-16","experiment","SSHSS","4","even","33357","NA","NA","NA","3738","NA","NA","169993","3746","NA","NA","168942","170094","170612","169991","170094","Flanker Task","79","45555","79","yes","1024"
"100","100","576.9375","576.9375","black","legacy","legacy","legacy","0","congruent","uniform","1","undefined","1","s","0","0","0","79","0","79","0","79","0","0","0","79","79","79","79","79","09/16/20 21:57:37","1500","The main experiment item","yes","FlankerTask Rene Wallace.osexp","C:\Users\18177\OneDrive\Documents\School\Grad School\Fall 2020\Lab 2 FlankerTask","no","mono","no","18","no","white","no","yes","768","legacy","79","79","C:/Users/18177/OneDrive/Documents/School/Grad School/Fall 2020/Lab 2 FlankerTask/RW-subject-4.csv","legacy","Lentiform Loewenfeld","3.3.3","0","s","NA","s","NA","NA","s","600","NA","29610","NA","NA","600","2","legacy","1024","2","48000","-16","experiment","SSSSS","4","even","33357","NA","NA","NA","3738","NA","NA","171675","3746","NA","NA","170625","171777","172378","171673","171777","Flanker Task","80","46155","80","yes","1024"
"100","100","577.086419753","577.086419753","black","legacy","legacy","legacy","0","incongruent","uniform","1","undefined","1","h","0","0","0","80","0","80","0","80","0","0","0","80","80","80","80","80","09/16/20 21:57:37","600","The main experiment item","yes","FlankerTask Rene Wallace.osexp","C:\Users\18177\OneDrive\Documents\School\Grad School\Fall 2020\Lab 2 FlankerTask","no","mono","no","18","no","white","no","yes","768","legacy","0","79","C:/Users/18177/OneDrive/Documents/School/Grad School/Fall 2020/Lab 2 FlankerTask/RW-subject-4.csv","legacy","Lentiform Loewenfeld","3.3.3","0","h","NA","s","s","NA","h","589","NA","29610","14453","NA","589","2","legacy","1024","2","48000","-16","experiment","SSHSS","4","even","33357","187853","NA","NA","3738","NA","NA","187906","3746","173399","NA","172389","188009","188599","187904","188008","Flanker Task","81","46744","81","yes","1024"
"100","100","575.865853659","575.865853659","black","legacy","legacy","legacy","0","incongruent","uniform","1","undefined","1","s","0","0","0","81","0","81","0","81","0","0","0","81","81","81","81","81","09/16/20 21:57:37","600","The main experiment item","yes","FlankerTask Rene Wallace.osexp","C:\Users\18177\OneDrive\Documents\School\Grad School\Fall 2020\Lab 2 FlankerTask","no","mono","no","18","no","white","no","yes","768","legacy","1","79","C:/Users/18177/OneDrive/Documents/School/Grad School/Fall 2020/Lab 2 FlankerTask/RW-subject-4.csv","legacy","Lentiform Loewenfeld","3.3.3","0","s","NA","s","s","NA","s","477","NA","29610","14453","NA","477","2","legacy","1024","2","48000","-16","experiment","HHSHH","4","even","33357","187853","NA","NA","3738","NA","NA","189661","3746","173399","NA","188611","189764","190241","189659","189764","Flanker Task","82","47221","82","yes","1024"
"100","100","574.771084337","574.771084337","black","legacy","legacy","legacy","0","incongruent","uniform","1","undefined","1","h","0","0","0","82","0","82","0","82","0","0","0","82","82","82","82","82","09/16/20 21:57:37","600","The main experiment item","yes","FlankerTask Rene Wallace.osexp","C:\Users\18177\OneDrive\Documents\School\Grad School\Fall 2020\Lab 2 FlankerTask","no","mono","no","18","no","white","no","yes","768","legacy","2","79","C:/Users/18177/OneDrive/Documents/School/Grad School/Fall 2020/Lab 2 FlankerTask/RW-subject-4.csv","legacy","Lentiform Loewenfeld","3.3.3","0","h","NA","s","s","NA","h","485","NA","29610","14453","NA","485","2","legacy","1024","2","48000","-16","experiment","SSHSS","4","even","33357","187853","NA","NA","3738","NA","NA","191296","3746","173399","NA","190246","191397","191883","191294","191397","Flanker Task","83","47706","83","yes","1024"
"100","100","574.476190476","574.476190476","black","legacy","legacy","legacy","0","incongruent","uniform","1","undefined","1","h","0","0","0","83","0","83","0","83","0","0","0","83","83","83","83","83","09/16/20 21:57:37","600","The main experiment item","yes","FlankerTask Rene Wallace.osexp","C:\Users\18177\OneDrive\Documents\School\Grad School\Fall 2020\Lab 2 FlankerTask","no","mono","no","18","no","white","no","yes","768","legacy","3","79","C:/Users/18177/OneDrive/Documents/School/Grad School/Fall 2020/Lab 2 FlankerTask/RW-subject-4.csv","legacy","Lentiform Loewenfeld","3.3.3","0","h","NA","s","s","NA","h","550","NA","29610","14453","NA","550","2","legacy","1024","2","48000","-16","experiment","SSHSS","4","even","33357","187853","NA","NA","3738","NA","NA","192945","3746","173399","NA","191896","193047","193598","192943","193047","Flanker Task","84","48256","84","yes","1024"
"100","100","572.976470588","572.976470588","black","legacy","legacy","legacy","0","incongruent","uniform","1","undefined","1","s","0","0","0","84","0","84","0","84","0","0","0","84","84","84","84","84","09/16/20 21:57:37","600","The main experiment item","yes","FlankerTask Rene Wallace.osexp","C:\Users\18177\OneDrive\Documents\School\Grad School\Fall 2020\Lab 2 FlankerTask","no","mono","no","18","no","white","no","yes","768","legacy","4","79","C:/Users/18177/OneDrive/Documents/School/Grad School/Fall 2020/Lab 2 FlankerTask/RW-subject-4.csv","legacy","Lentiform Loewenfeld","3.3.3","0","s","NA","s","s","NA","s","447","NA","29610","14453","NA","447","2","legacy","1024","2","48000","-16","experiment","HHSHH","4","even","33357","187853","NA","NA","3738","NA","NA","194658","3746","173399","NA","193610","194761","195208","194656","194761","Flanker Task","85","48703","85","yes","1024"
"100","100","571.511627907","571.511627907","black","legacy","legacy","legacy","0","congruent","uniform","1","undefined","1","h","0","0","0","85","0","85","0","85","0","0","0","85","85","85","85","85","09/16/20 21:57:37","600","The main experiment item","yes","FlankerTask Rene Wallace.osexp","C:\Users\18177\OneDrive\Documents\School\Grad School\Fall 2020\Lab 2 FlankerTask","no","mono","no","18","no","white","no","yes","768","legacy","5","79","C:/Users/18177/OneDrive/Documents/School/Grad School/Fall 2020/Lab 2 FlankerTask/RW-subject-4.csv","legacy","Lentiform Loewenfeld","3.3.3","0","h","NA","s","s","NA","h","447","NA","29610","14453","NA","447","2","legacy","1024","2","48000","-16","experiment","HHHHH","4","even","33357","187853","NA","NA","3738","NA","NA","196268","3746","173399","NA","195220","196371","196819","196266","196371","Flanker Task","86","49150","86","yes","1024"
"100","100","569.954022989","569.954022989","black","legacy","legacy","legacy","0","congruent","uniform","1","undefined","1","s","0","0","0","86","0","86","0","86","0","0","0","86","86","86","86","86","09/16/20 21:57:37","600","The main experiment item","yes","FlankerTask Rene Wallace.osexp","C:\Users\18177\OneDrive\Documents\School\Grad School\Fall 2020\Lab 2 FlankerTask","no","mono","no","18","no","white","no","yes","768","legacy","6","79","C:/Users/18177/OneDrive/Documents/School/Grad School/Fall 2020/Lab 2 FlankerTask/RW-subject-4.csv","legacy","Lentiform Loewenfeld","3.3.3","0","s","NA","s","s","NA","s","436","NA","29610","14453","NA","436","2","legacy","1024","2","48000","-16","experiment","SSSSS","4","even","33357","187853","NA","NA","3738","NA","NA","197887","3746","173399","NA","196831","197991","198427","197885","197991","Flanker Task","87","49586","87","yes","1024"
"100","100","568.318181818","568.318181818","black","legacy","legacy","legacy","0","congruent","uniform","1","undefined","1","h","0","0","0","87","0","87","0","87","0","0","0","87","87","87","87","87","09/16/20 21:57:37","600","The main experiment item","yes","FlankerTask Rene Wallace.osexp","C:\Users\18177\OneDrive\Documents\School\Grad School\Fall 2020\Lab 2 FlankerTask","no","mono","no","18","no","white","no","yes","768","legacy","7","79","C:/Users/18177/OneDrive/Documents/School/Grad School/Fall 2020/Lab 2 FlankerTask/RW-subject-4.csv","legacy","Lentiform Loewenfeld","3.3.3","0","h","NA","s","s","NA","h","426","NA","29610","14453","NA","426","2","legacy","1024","2","48000","-16","experiment","HHHHH","4","even","33357","187853","NA","NA","3738","NA","NA","199493","3746","173399","NA","198440","199597","200024","199490","199597","Flanker Task","88","50012","88","yes","1024"
"100","100","572.224719101","572.224719101","black","legacy","legacy","legacy","0","incongruent","uniform","1","undefined","1","h","0","0","0","88","0","88","0","88","0","0","0","88","88","88","88","88","09/16/20 21:57:37","600","The main experiment item","yes","FlankerTask Rene Wallace.osexp","C:\Users\18177\OneDrive\Documents\School\Grad School\Fall 2020\Lab 2 FlankerTask","no","mono","no","18","no","white","no","yes","768","legacy","8","79","C:/Users/18177/OneDrive/Documents/School/Grad School/Fall 2020/Lab 2 FlankerTask/RW-subject-4.csv","legacy","Lentiform Loewenfeld","3.3.3","0","h","NA","s","s","NA","h","916","NA","29610","14453","NA","916","2","legacy","1024","2","48000","-16","experiment","SSHSS","4","even","33357","187853","NA","NA","3738","NA","NA","201084","3746","173399","NA","200036","201186","202103","201082","201186","Flanker Task","89","50928","89","yes","1024"
"100","100","573.1","573.1","black","legacy","legacy","legacy","0","congruent","uniform","1","undefined","1","h","0","0","0","89","0","89","0","89","0","0","0","89","89","89","89","89","09/16/20 21:57:37","600","The main experiment item","yes","FlankerTask Rene Wallace.osexp","C:\Users\18177\OneDrive\Documents\School\Grad School\Fall 2020\Lab 2 FlankerTask","no","mono","no","18","no","white","no","yes","768","legacy","9","79","C:/Users/18177/OneDrive/Documents/School/Grad School/Fall 2020/Lab 2 FlankerTask/RW-subject-4.csv","legacy","Lentiform Loewenfeld","3.3.3","0","h","NA","s","s","NA","h","651","NA","29610","14453","NA","651","2","legacy","1024","2","48000","-16","experiment","HHHHH","4","even","33357","187853","NA","NA","3738","202114","NA","203662","3746","173399","NA","202615","203763","204415","203660","203763","Flanker Task","90","51579","90","yes","1024"
"100","100","571.373626374","571.373626374","black","legacy","legacy","legacy","0","congruent","uniform","1","undefined","1","h","0","0","0","90","0","90","0","90","0","0","0","90","90","90","90","90","09/16/20 21:57:37","600","The main experiment item","yes","FlankerTask Rene Wallace.osexp","C:\Users\18177\OneDrive\Documents\School\Grad School\Fall 2020\Lab 2 FlankerTask","no","mono","no","18","no","white","no","yes","768","legacy","10","79","C:/Users/18177/OneDrive/Documents/School/Grad School/Fall 2020/Lab 2 FlankerTask/RW-subject-4.csv","legacy","Lentiform Loewenfeld","3.3.3","0","h","NA","s","s","NA","h","416","NA","29610","14453","NA","416","2","legacy","1024","2","48000","-16","experiment","HHHHH","4","even","33357","187853","NA","NA","3738","204427","NA","205997","3746","173399","NA","204931","206101","206517","205995","206100","Flanker Task","91","51995","91","yes","1024"
"100","100","569.52173913","569.52173913","black","legacy","legacy","legacy","0","incongruent","uniform","1","undefined","1","h","0","0","0","91","0","91","0","91","0","0","0","91","91","91","91","91","09/16/20 21:57:37","600","The main experiment item","yes","FlankerTask Rene Wallace.osexp","C:\Users\18177\OneDrive\Documents\School\Grad School\Fall 2020\Lab 2 FlankerTask","no","mono","no","18","no","white","no","yes","768","legacy","11","79","C:/Users/18177/OneDrive/Documents/School/Grad School/Fall 2020/Lab 2 FlankerTask/RW-subject-4.csv","legacy","Lentiform Loewenfeld","3.3.3","0","h","NA","s","s","NA","h","401","NA","29610","14453","NA","401","2","legacy","1024","2","48000","-16","experiment","SSHSS","4","even","33357","187853","NA","NA","3738","204427","NA","207579","3746","173399","NA","206529","207680","208081","207576","207680","Flanker Task","92","52396","92","yes","1024"
"100","100","567.634408602","567.634408602","black","legacy","legacy","legacy","0","congruent","uniform","1","undefined","1","s","0","0","0","92","0","92","0","92","0","0","0","92","92","92","92","92","09/16/20 21:57:37","600","The main experiment item","yes","FlankerTask Rene Wallace.osexp","C:\Users\18177\OneDrive\Documents\School\Grad School\Fall 2020\Lab 2 FlankerTask","no","mono","no","18","no","white","no","yes","768","legacy","12","79","C:/Users/18177/OneDrive/Documents/School/Grad School/Fall 2020/Lab 2 FlankerTask/RW-subject-4.csv","legacy","Lentiform Loewenfeld","3.3.3","0","s","NA","s","s","NA","s","394","NA","29610","14453","NA","394","2","legacy","1024","2","48000","-16","experiment","SSSSS","4","even","33357","187853","NA","NA","3738","204427","NA","209144","3746","173399","NA","208094","209248","209643","209142","209248","Flanker Task","93","52790","93","yes","1024"
"100","100","566.063829787","566.063829787","black","legacy","legacy","legacy","0","congruent","uniform","1","undefined","1","h","0","0","0","93","0","93","0","93","0","0","0","93","93","93","93","93","09/16/20 21:57:37","600","The main experiment item","yes","FlankerTask Rene Wallace.osexp","C:\Users\18177\OneDrive\Documents\School\Grad School\Fall 2020\Lab 2 FlankerTask","no","mono","no","18","no","white","no","yes","768","legacy","13","79","C:/Users/18177/OneDrive/Documents/School/Grad School/Fall 2020/Lab 2 FlankerTask/RW-subject-4.csv","legacy","Lentiform Loewenfeld","3.3.3","0","h","NA","s","s","NA","h","420","NA","29610","14453","NA","420","2","legacy","1024","2","48000","-16","experiment","HHHHH","4","even","33357","187853","NA","NA","3738","204427","NA","210705","3746","173399","NA","209657","210808","211228","210704","210808","Flanker Task","94","53210","94","yes","1024"
"100","100","565.6","565.6","black","legacy","legacy","legacy","0","incongruent","uniform","1","undefined","1","h","0","0","0","94","0","94","0","94","0","0","0","94","94","94","94","94","09/16/20 21:57:37","600","The main experiment item","yes","FlankerTask Rene Wallace.osexp","C:\Users\18177\OneDrive\Documents\School\Grad School\Fall 2020\Lab 2 FlankerTask","no","mono","no","18","no","white","no","yes","768","legacy","14","79","C:/Users/18177/OneDrive/Documents/School/Grad School/Fall 2020/Lab 2 FlankerTask/RW-subject-4.csv","legacy","Lentiform Loewenfeld","3.3.3","0","h","NA","s","s","NA","h","522","NA","29610","14453","NA","522","2","legacy","1024","2","48000","-16","experiment","SSHSS","4","even","33357","187853","NA","NA","3738","204427","NA","212285","3746","173399","NA","211234","212388","212911","212283","212388","Flanker Task","95","53732","95","yes","1024"
"100","100","564.072916667","564.072916667","black","legacy","legacy","legacy","0","congruent","uniform","1","undefined","1","s","0","0","0","95","0","95","0","95","0","0","0","95","95","95","95","95","09/16/20 21:57:37","600","The main experiment item","yes","FlankerTask Rene Wallace.osexp","C:\Users\18177\OneDrive\Documents\School\Grad School\Fall 2020\Lab 2 FlankerTask","no","mono","no","18","no","white","no","yes","768","legacy","15","79","C:/Users/18177/OneDrive/Documents/School/Grad School/Fall 2020/Lab 2 FlankerTask/RW-subject-4.csv","legacy","Lentiform Loewenfeld","3.3.3","0","s","NA","s","s","NA","s","419","NA","29610","14453","NA","419","2","legacy","1024","2","48000","-16","experiment","SSSSS","4","even","33357","187853","NA","NA","3738","204427","NA","213966","3746","173399","NA","212917","214070","214489","213965","214070","Flanker Task","96","54151","96","yes","1024"
"100","100","562.515463918","562.515463918","black","legacy","legacy","legacy","0","congruent","uniform","1","undefined","1","s","0","0","0","96","0","96","0","96","0","0","0","96","96","96","96","96","09/16/20 21:57:37","600","The main experiment item","yes","FlankerTask Rene Wallace.osexp","C:\Users\18177\OneDrive\Documents\School\Grad School\Fall 2020\Lab 2 FlankerTask","no","mono","no","18","no","white","no","yes","768","legacy","16","79","C:/Users/18177/OneDrive/Documents/School/Grad School/Fall 2020/Lab 2 FlankerTask/RW-subject-4.csv","legacy","Lentiform Loewenfeld","3.3.3","0","s","NA","s","s","NA","s","413","NA","29610","14453","NA","413","2","legacy","1024","2","48000","-16","experiment","SSSSS","4","even","33357","187853","NA","NA","3738","204427","NA","215552","3746","173399","NA","214505","215654","216068","215550","215654","Flanker Task","97","54564","97","yes","1024"
"100","100","561.928571429","561.928571429","black","legacy","legacy","legacy","0","incongruent","uniform","1","undefined","1","s","0","0","0","97","0","97","0","97","0","0","0","97","97","97","97","97","09/16/20 21:57:37","600","The main experiment item","yes","FlankerTask Rene Wallace.osexp","C:\Users\18177\OneDrive\Documents\School\Grad School\Fall 2020\Lab 2 FlankerTask","no","mono","no","18","no","white","no","yes","768","legacy","17","79","C:/Users/18177/OneDrive/Documents/School/Grad School/Fall 2020/Lab 2 FlankerTask/RW-subject-4.csv","legacy","Lentiform Loewenfeld","3.3.3","0","s","NA","s","s","NA","s","505","NA","29610","14453","NA","505","2","legacy","1024","2","48000","-16","experiment","HHSHH","4","even","33357","187853","NA","NA","3738","204427","NA","217122","3746","173399","NA","216073","217226","217732","217121","217225","Flanker Task","98","55069","98","yes","1024"
"100","100","560.494949495","560.494949495","black","legacy","legacy","legacy","0","congruent","uniform","1","undefined","1","h","0","0","0","98","0","98","0","98","0","0","0","98","98","98","98","98","09/16/20 21:57:37","600","The main experiment item","yes","FlankerTask Rene Wallace.osexp","C:\Users\18177\OneDrive\Documents\School\Grad School\Fall 2020\Lab 2 FlankerTask","no","mono","no","18","no","white","no","yes","768","legacy","18","79","C:/Users/18177/OneDrive/Documents/School/Grad School/Fall 2020/Lab 2 FlankerTask/RW-subject-4.csv","legacy","Lentiform Loewenfeld","3.3.3","0","h","NA","s","s","NA","h","420","NA","29610","14453","NA","420","2","legacy","1024","2","48000","-16","experiment","HHHHH","4","even","33357","187853","NA","NA","3738","204427","NA","218796","3746","173399","NA","217747","218898","219319","218794","218898","Flanker Task","99","55489","99","yes","1024"
"100","100","559.78","559.78","black","legacy","legacy","legacy","0","incongruent","uniform","1","undefined","1","h","0","0","0","99","0","99","0","99","0","0","0","99","99","99","99","99","09/16/20 21:57:37","600","The main experiment item","yes","FlankerTask Rene Wallace.osexp","C:\Users\18177\OneDrive\Documents\School\Grad School\Fall 2020\Lab 2 FlankerTask","no","mono","no","18","no","white","no","yes","768","legacy","19","79","C:/Users/18177/OneDrive/Documents/School/Grad School/Fall 2020/Lab 2 FlankerTask/RW-subject-4.csv","legacy","Lentiform Loewenfeld","3.3.3","0","h","NA","s","s","NA","h","489","NA","29610","14453","NA","489","2","legacy","1024","2","48000","-16","experiment","SSHSS","4","even","33357","187853","NA","NA","3738","204427","NA","220396","3746","173399","NA","219331","220499","220989","220394","220499","Flanker Task","100","55978","100","yes","1024"
"100","100","559.643564356","559.643564356","black","legacy","legacy","legacy","0","incongruent","uniform","1","undefined","1","h","0","0","0","100","0","100","0","100","0","0","0","100","100","100","100","100","09/16/20 21:57:37","600","The main experiment item","yes","FlankerTask Rene Wallace.osexp","C:\Users\18177\OneDrive\Documents\School\Grad School\Fall 2020\Lab 2 FlankerTask","no","mono","no","18","no","white","no","yes","768","legacy","20","79","C:/Users/18177/OneDrive/Documents/School/Grad School/Fall 2020/Lab 2 FlankerTask/RW-subject-4.csv","legacy","Lentiform Loewenfeld","3.3.3","0","h","NA","s","s","NA","h","546","NA","29610","14453","NA","546","2","legacy","1024","2","48000","-16","experiment","SSHSS","4","even","33357","187853","NA","NA","3738","204427","NA","222050","3746","173399","NA","221002","222152","222699","222049","222152","Flanker Task","101","56524","101","yes","1024"
"100","100","559","559","black","legacy","legacy","legacy","0","incongruent","uniform","1","undefined","1","s","0","0","0","101","0","101","0","101","0","0","0","101","101","101","101","101","09/16/20 21:57:37","600","The main experiment item","yes","FlankerTask Rene Wallace.osexp","C:\Users\18177\OneDrive\Documents\School\Grad School\Fall 2020\Lab 2 FlankerTask","no","mono","no","18","no","white","no","yes","768","legacy","21","79","C:/Users/18177/OneDrive/Documents/School/Grad School/Fall 2020/Lab 2 FlankerTask/RW-subject-4.csv","legacy","Lentiform Loewenfeld","3.3.3","0","s","NA","s","s","NA","s","494","NA","29610","14453","NA","494","2","legacy","1024","2","48000","-16","experiment","HHSHH","4","even","33357","187853","NA","NA","3738","204427","NA","223760","3746","173399","NA","222711","223865","224360","223759","223864","Flanker Task","102","57018","102","yes","1024"
"100","100","558.13592233","558.13592233","black","legacy","legacy","legacy","0","incongruent","uniform","1","undefined","1","s","0","0","0","102","0","102","0","102","0","0","0","102","102","102","102","102","09/16/20 21:57:37","600","The main experiment item","yes","FlankerTask Rene Wallace.osexp","C:\Users\18177\OneDrive\Documents\School\Grad School\Fall 2020\Lab 2 FlankerTask","no","mono","no","18","no","white","no","yes","768","legacy","22","79","C:/Users/18177/OneDrive/Documents/School/Grad School/Fall 2020/Lab 2 FlankerTask/RW-subject-4.csv","legacy","Lentiform Loewenfeld","3.3.3","0","s","NA","s","s","NA","s","470","NA","29610","14453","NA","470","2","legacy","1024","2","48000","-16","experiment","HHSHH","4","even","33357","187853","NA","NA","3738","204427","NA","225424","3746","173399","NA","224374","225528","225999","225422","225527","Flanker Task","103","57488","103","yes","1024"
"100","100","557.798076923","557.798076923","black","legacy","legacy","legacy","0","incongruent","uniform","1","undefined","1","h","0","0","0","103","0","103","0","103","0","0","0","103","103","103","103","103","09/16/20 21:57:37","600","The main experiment item","yes","FlankerTask Rene Wallace.osexp","C:\Users\18177\OneDrive\Documents\School\Grad School\Fall 2020\Lab 2 FlankerTask","no","mono","no","18","no","white","no","yes","768","legacy","23","79","C:/Users/18177/OneDrive/Documents/School/Grad School/Fall 2020/Lab 2 FlankerTask/RW-subject-4.csv","legacy","Lentiform Loewenfeld","3.3.3","0","h","NA","s","s","NA","h","523","NA","29610","14453","NA","523","2","legacy","1024","2","48000","-16","experiment","SSHSS","4","even","33357","187853","NA","NA","3738","204427","NA","227061","3746","173399","NA","226012","227165","227689","227059","227165","Flanker Task","104","58011","104","yes","1024"
"100","100","557.942857143","557.942857143","black","legacy","legacy","legacy","0","incongruent","uniform","1","undefined","1","h","0","0","0","104","0","104","0","104","0","0","0","104","104","104","104","104","09/16/20 21:57:37","600","The main experiment item","yes","FlankerTask Rene Wallace.osexp","C:\Users\18177\OneDrive\Documents\School\Grad School\Fall 2020\Lab 2 FlankerTask","no","mono","no","18","no","white","no","yes","768","legacy","24","79","C:/Users/18177/OneDrive/Documents/School/Grad School/Fall 2020/Lab 2 FlankerTask/RW-subject-4.csv","legacy","Lentiform Loewenfeld","3.3.3","0","h","NA","s","s","NA","h","573","NA","29610","14453","NA","573","2","legacy","1024","2","48000","-16","experiment","SSHSS","4","even","33357","187853","NA","NA","3738","204427","NA","228741","3746","173399","NA","227693","228844","229418","228739","228844","Flanker Task","105","58584","105","yes","1024"
"100","100","557.179245283","557.179245283","black","legacy","legacy","legacy","0","congruent","uniform","1","undefined","1","h","0","0","0","105","0","105","0","105","0","0","0","105","105","105","105","105","09/16/20 21:57:37","600","The main experiment item","yes","FlankerTask Rene Wallace.osexp","C:\Users\18177\OneDrive\Documents\School\Grad School\Fall 2020\Lab 2 FlankerTask","no","mono","no","18","no","white","no","yes","768","legacy","25","79","C:/Users/18177/OneDrive/Documents/School/Grad School/Fall 2020/Lab 2 FlankerTask/RW-subject-4.csv","legacy","Lentiform Loewenfeld","3.3.3","0","h","NA","s","s","NA","h","477","NA","29610","14453","NA","477","2","legacy","1024","2","48000","-16","experiment","HHHHH","4","even","33357","187853","NA","NA","3738","204427","NA","230476","3746","173399","NA","229422","230577","231055","230474","230577","Flanker Task","106","59061","106","yes","1024"
"100","100","556.401869159","556.401869159","black","legacy","legacy","legacy","0","congruent","uniform","1","undefined","1","h","0","0","0","106","0","106","0","106","0","0","0","106","106","106","106","106","09/16/20 21:57:37","600","The main experiment item","yes","FlankerTask Rene Wallace.osexp","C:\Users\18177\OneDrive\Documents\School\Grad School\Fall 2020\Lab 2 FlankerTask","no","mono","no","18","no","white","no","yes","768","legacy","26","79","C:/Users/18177/OneDrive/Documents/School/Grad School/Fall 2020/Lab 2 FlankerTask/RW-subject-4.csv","legacy","Lentiform Loewenfeld","3.3.3","0","h","NA","s","s","NA","h","474","NA","29610","14453","NA","474","2","legacy","1024","2","48000","-16","experiment","HHHHH","4","even","33357","187853","NA","NA","3738","204427","NA","232106","3746","173399","NA","231060","232210","232685","232105","232209","Flanker Task","107","59535","107","yes","1024"
"100","100","555.407407407","555.407407407","black","legacy","legacy","legacy","0","congruent","uniform","1","undefined","1","s","0","0","0","107","0","107","0","107","0","0","0","107","107","107","107","107","09/16/20 21:57:37","600","The main experiment item","yes","FlankerTask Rene Wallace.osexp","C:\Users\18177\OneDrive\Documents\School\Grad School\Fall 2020\Lab 2 FlankerTask","no","mono","no","18","no","white","no","yes","768","legacy","27","79","C:/Users/18177/OneDrive/Documents/School/Grad School/Fall 2020/Lab 2 FlankerTask/RW-subject-4.csv","legacy","Lentiform Loewenfeld","3.3.3","0","s","NA","s","s","NA","s","449","NA","29610","14453","NA","449","2","legacy","1024","2","48000","-16","experiment","SSSSS","4","even","33357","187853","NA","NA","3738","204427","NA","233748","3746","173399","NA","232698","233851","234301","233746","233851","Flanker Task","108","59984","108","yes","1024"
"100","100","554.834862385","554.834862385","black","legacy","legacy","legacy","0","incongruent","uniform","1","undefined","1","h","0","0","0","108","0","108","0","108","0","0","0","108","108","108","108","108","09/16/20 21:57:37","600","The main experiment item","yes","FlankerTask Rene Wallace.osexp","C:\Users\18177\OneDrive\Documents\School\Grad School\Fall 2020\Lab 2 FlankerTask","no","mono","no","18","no","white","no","yes","768","legacy","28","79","C:/Users/18177/OneDrive/Documents/School/Grad School/Fall 2020/Lab 2 FlankerTask/RW-subject-4.csv","legacy","Lentiform Loewenfeld","3.3.3","0","h","NA","s","s","NA","h","493","NA","29610","14453","NA","493","2","legacy","1024","2","48000","-16","experiment","SSHSS","4","even","33357","187853","NA","NA","3738","204427","NA","235362","3746","173399","NA","234313","235463","235957","235360","235463","Flanker Task","109","60477","109","yes","1024"
"100","100","554.518181818","554.518181818","black","legacy","legacy","legacy","0","congruent","uniform","1","undefined","1","s","0","0","0","109","0","109","0","109","0","0","0","109","109","109","109","109","09/16/20 21:57:37","600","The main experiment item","yes","FlankerTask Rene Wallace.osexp","C:\Users\18177\OneDrive\Documents\School\Grad School\Fall 2020\Lab 2 FlankerTask","no","mono","no","18","no","white","no","yes","768","legacy","29","79","C:/Users/18177/OneDrive/Documents/School/Grad School/Fall 2020/Lab 2 FlankerTask/RW-subject-4.csv","legacy","Lentiform Loewenfeld","3.3.3","0","s","NA","s","s","NA","s","520","NA","29610","14453","NA","520","2","legacy","1024","2","48000","-16","experiment","SSSSS","4","even","33357","187853","NA","NA","3738","204427","NA","237017","3746","173399","NA","235969","237120","237641","237015","237120","Flanker Task","110","60997","110","yes","1024"
"100","100","553.441441441","553.441441441","black","legacy","legacy","legacy","0","congruent","uniform","1","undefined","1","s","0","0","0","110","0","110","0","110","0","0","0","110","110","110","110","110","09/16/20 21:57:37","600","The main experiment item","yes","FlankerTask Rene Wallace.osexp","C:\Users\18177\OneDrive\Documents\School\Grad School\Fall 2020\Lab 2 FlankerTask","no","mono","no","18","no","white","no","yes","768","legacy","30","79","C:/Users/18177/OneDrive/Documents/School/Grad School/Fall 2020/Lab 2 FlankerTask/RW-subject-4.csv","legacy","Lentiform Loewenfeld","3.3.3","0","s","NA","s","s","NA","s","435","NA","29610","14453","NA","435","2","legacy","1024","2","48000","-16","experiment","SSSSS","4","even","33357","187853","NA","NA","3738","204427","NA","238713","3746","173399","NA","237645","238815","239250","238711","238815","Flanker Task","111","61432","111","yes","1024"
