"acc","accuracy","average_response_time","avg_rt","background","canvas_backend","clock_backend","color_backend","condition","correct","correct_Instructions1","correct_keyboard_response","correct_response","count_Faster","count_Finish","count_ISI","count_Instructions1","count_Instructions2","count_Instructions3","count_block1","count_block2","count_block3","count_errorFeedback","count_experiment","count_fixation","count_keyboard_response","count_logger","count_sequence","count_stimulus","datetime","deadline","description","disable_garbage_collection","experiment_file","experiment_path","font_bold","font_family","font_italic","font_size","font_underline","foreground","form_clicks","fullscreen","height","keyboard_backend","live_row","live_row_block1","logfile","mouse_backend","opensesame_codename","opensesame_version","repeat_cycle","response","response_Finish","response_Instructions1","response_Instructions2","response_Instructions3","response_keyboard_response","response_time","response_time_Finish","response_time_Instructions1","response_time_Instructions2","response_time_Instructions3","response_time_keyboard_response","round_decimals","sampler_backend","sound_buf_size","sound_channels","sound_freq","sound_sample_size","start","stimulus","subject_nr","subject_parity","time_Faster","time_Finish","time_ISI","time_Instructions1","time_Instructions2","time_Instructions3","time_block1","time_block2","time_block3","time_errorFeedback","time_experiment","time_fixation","time_keyboard_response","time_logger","time_sequence","time_stimulus","title","total_correct","total_response_time","total_responses","width"
"100","100","878","878","black","legacy","legacy","legacy","congruent","1","undefined","1","h","0","0","0","0","0","0","0","0","0","0","0","0","0","0","0","0","Sat Sep 23 12:28:14 2023","1500","The main experiment item","True","FlankerTask.osexp","/Users/baileymcwhirter/Downloads","False","mono","False","18","no","white","no","yes","768","legacy","0","0","/Users/baileymcwhirter/Downloads/BMsubject-2.csv","legacy","Melodramatic Milgram","4.0.5","0","h","NA","h","NA","NA","h","878.0","NA","37737","NA","NA","878","2","legacy","1024","2","48000","-16","experiment","HHHHH","2","even","NA","NA","NA","1178","NA","NA","38936","NA","NA","NA","1132","38976","39079","39966","38972","39079","Flanker Task","1","878.0","1","1024"
"100","100","834","834","black","legacy","legacy","legacy","incongruent","1","undefined","1","s","1","0","1","0","0","0","0","0","0","1","0","1","1","1","1","1","Sat Sep 23 12:28:14 2023","1500","The main experiment item","True","FlankerTask.osexp","/Users/baileymcwhirter/Downloads","False","mono","False","18","no","white","no","yes","768","legacy","1","1","/Users/baileymcwhirter/Downloads/BMsubject-2.csv","legacy","Melodramatic Milgram","4.0.5","0","s","NA","h","NA","NA","s","790.0","NA","37737","NA","NA","790","2","legacy","1024","2","48000","-16","experiment","HHSHH","2","even","NA","NA","39971","1178","NA","NA","38936","NA","NA","NA","1132","41009","41112","41902","41006","41112","Flanker Task","2","1668.0","2","1024"
"100","100","715","715","black","legacy","legacy","legacy","congruent","1","undefined","1","s","2","0","2","0","0","0","0","0","0","2","0","2","2","2","2","2","Sat Sep 23 12:28:14 2023","1500","The main experiment item","True","FlankerTask.osexp","/Users/baileymcwhirter/Downloads","False","mono","False","18","no","white","no","yes","768","legacy","2","2","/Users/baileymcwhirter/Downloads/BMsubject-2.csv","legacy","Melodramatic Milgram","4.0.5","0","s","NA","h","NA","NA","s","477.0","NA","37737","NA","NA","477","2","legacy","1024","2","48000","-16","experiment","SSSSS","2","even","NA","NA","41905","1178","NA","NA","38936","NA","NA","NA","1132","42939","43041","43518","42937","43041","Flanker Task","3","2145.0","3","1024"
"75","75","672","672","black","legacy","legacy","legacy","incongruent","0","undefined","0","h","3","0","3","0","0","0","0","0","0","3","0","3","3","3","3","3","Sat Sep 23 12:28:14 2023","1500","The main experiment item","True","FlankerTask.osexp","/Users/baileymcwhirter/Downloads","False","mono","False","18","no","white","no","yes","768","legacy","3","3","/Users/baileymcwhirter/Downloads/BMsubject-2.csv","legacy","Melodramatic Milgram","4.0.5","0","s","NA","h","NA","NA","s","544.0","NA","37737","NA","NA","544","2","legacy","1024","2","48000","-16","experiment","SSHSS","2","even","NA","NA","43521","1178","NA","NA","38936","NA","NA","NA","1132","44560","44663","45207","44558","44662","Flanker Task","3","2689.0","4","1024"
"80","80","739","739","black","legacy","legacy","legacy","congruent","1","undefined","1","h","4","0","4","0","0","0","0","0","0","4","0","4","4","4","4","4","Sat Sep 23 12:28:14 2023","1500","The main experiment item","True","FlankerTask.osexp","/Users/baileymcwhirter/Downloads","False","mono","False","18","no","white","no","yes","768","legacy","4","4","/Users/baileymcwhirter/Downloads/BMsubject-2.csv","legacy","Melodramatic Milgram","4.0.5","0","h","NA","h","NA","NA","h","1006.0","NA","37737","NA","NA","1006","2","legacy","1024","2","48000","-16","experiment","HHHHH","2","even","NA","NA","45713","1178","NA","NA","38936","NA","NA","45211","1132","46753","46855","47861","46750","46855","Flanker Task","4","3695.0","5","1024"
"83","83","748","748","black","legacy","legacy","legacy","incongruent","1","undefined","1","h","5","0","5","0","0","0","0","0","0","5","0","5","5","5","5","5","Sat Sep 23 12:28:14 2023","1500","The main experiment item","True","FlankerTask.osexp","/Users/baileymcwhirter/Downloads","False","mono","False","18","no","white","no","yes","768","legacy","5","5","/Users/baileymcwhirter/Downloads/BMsubject-2.csv","legacy","Melodramatic Milgram","4.0.5","0","h","NA","h","NA","NA","h","798.0","NA","37737","NA","NA","798","2","legacy","1024","2","48000","-16","experiment","SSHSS","2","even","NA","NA","47864","1178","NA","NA","38936","NA","NA","45211","1132","48904","49006","49804","48901","49006","Flanker Task","5","4493.0","6","1024"
"85","85","745","745","black","legacy","legacy","legacy","incongruent","1","undefined","1","s","6","0","6","0","0","0","0","0","0","6","0","6","6","6","6","6","Sat Sep 23 12:28:14 2023","1500","The main experiment item","True","FlankerTask.osexp","/Users/baileymcwhirter/Downloads","False","mono","False","18","no","white","no","yes","768","legacy","6","6","/Users/baileymcwhirter/Downloads/BMsubject-2.csv","legacy","Melodramatic Milgram","4.0.5","0","s","NA","h","NA","NA","s","723.0","NA","37737","NA","NA","723","2","legacy","1024","2","48000","-16","experiment","HHSHH","2","even","NA","NA","49807","1178","NA","NA","38936","NA","NA","45211","1132","50842","50945","51668","50839","50945","Flanker Task","6","5216.0","7","1024"
"87","87","709","709","black","legacy","legacy","legacy","incongruent","1","undefined","1","h","7","0","7","0","0","0","0","0","0","7","0","7","7","7","7","7","Sat Sep 23 12:28:14 2023","1500","The main experiment item","True","FlankerTask.osexp","/Users/baileymcwhirter/Downloads","False","mono","False","18","no","white","no","yes","768","legacy","7","7","/Users/baileymcwhirter/Downloads/BMsubject-2.csv","legacy","Melodramatic Milgram","4.0.5","0","h","NA","h","NA","NA","h","463.0","NA","37737","NA","NA","463","2","legacy","1024","2","48000","-16","experiment","SSHSS","2","even","NA","NA","51671","1178","NA","NA","38936","NA","NA","45211","1132","52701","52804","53267","52699","52804","Flanker Task","7","5679.0","8","1024"
"88","88","688","688","black","legacy","legacy","legacy","congruent","1","undefined","1","h","8","0","8","0","0","0","0","0","0","8","0","8","8","8","8","8","Sat Sep 23 12:28:14 2023","1500","The main experiment item","True","FlankerTask.osexp","/Users/baileymcwhirter/Downloads","False","mono","False","18","no","white","no","yes","768","legacy","8","8","/Users/baileymcwhirter/Downloads/BMsubject-2.csv","legacy","Melodramatic Milgram","4.0.5","0","h","NA","h","NA","NA","h","521.0","NA","37737","NA","NA","521","2","legacy","1024","2","48000","-16","experiment","HHHHH","2","even","NA","NA","53269","1178","NA","NA","38936","NA","NA","45211","1132","54298","54400","54922","54295","54400","Flanker Task","8","6200.0","9","1024"
"90","90","681","681","black","legacy","legacy","legacy","incongruent","1","undefined","1","s","9","0","9","0","0","0","0","0","0","9","0","9","9","9","9","9","Sat Sep 23 12:28:14 2023","1500","The main experiment item","True","FlankerTask.osexp","/Users/baileymcwhirter/Downloads","False","mono","False","18","no","white","no","yes","768","legacy","9","9","/Users/baileymcwhirter/Downloads/BMsubject-2.csv","legacy","Melodramatic Milgram","4.0.5","0","s","NA","h","NA","NA","s","618.0","NA","37737","NA","NA","618","2","legacy","1024","2","48000","-16","experiment","HHSHH","2","even","NA","NA","54925","1178","NA","NA","38936","NA","NA","45211","1132","55957","56059","56678","55954","56059","Flanker Task","9","6818.0","10","1024"
"90","90","666","666","black","legacy","legacy","legacy","congruent","1","undefined","1","h","10","0","10","0","0","0","0","0","0","10","0","10","10","10","10","10","Sat Sep 23 12:28:14 2023","1500","The main experiment item","True","FlankerTask.osexp","/Users/baileymcwhirter/Downloads","False","mono","False","18","no","white","no","yes","768","legacy","10","10","/Users/baileymcwhirter/Downloads/BMsubject-2.csv","legacy","Melodramatic Milgram","4.0.5","0","h","NA","h","NA","NA","h","518.0","NA","37737","NA","NA","518","2","legacy","1024","2","48000","-16","experiment","HHHHH","2","even","NA","NA","56680","1178","NA","NA","38936","NA","NA","45211","1132","57716","57818","58337","57713","57818","Flanker Task","10","7336.0","11","1024"
"91","91","648","648","black","legacy","legacy","legacy","incongruent","1","undefined","1","s","11","0","11","0","0","0","0","0","0","11","0","11","11","11","11","11","Sat Sep 23 12:28:14 2023","1500","The main experiment item","True","FlankerTask.osexp","/Users/baileymcwhirter/Downloads","False","mono","False","18","no","white","no","yes","768","legacy","11","11","/Users/baileymcwhirter/Downloads/BMsubject-2.csv","legacy","Melodramatic Milgram","4.0.5","0","s","NA","h","NA","NA","s","441.0","NA","37737","NA","NA","441","2","legacy","1024","2","48000","-16","experiment","HHSHH","2","even","NA","NA","58340","1178","NA","NA","38936","NA","NA","45211","1132","59368","59470","59912","59366","59470","Flanker Task","11","7777.0","12","1024"
"84","84","645","645","black","legacy","legacy","legacy","congruent","0","undefined","0","s","12","0","12","0","0","0","0","0","0","12","0","12","12","12","12","12","Sat Sep 23 12:28:14 2023","1500","The main experiment item","True","FlankerTask.osexp","/Users/baileymcwhirter/Downloads","False","mono","False","18","no","white","no","yes","768","legacy","12","12","/Users/baileymcwhirter/Downloads/BMsubject-2.csv","legacy","Melodramatic Milgram","4.0.5","0","h","NA","h","NA","NA","h","619.0","NA","37737","NA","NA","619","2","legacy","1024","2","48000","-16","experiment","SSSSS","2","even","NA","NA","59914","1178","NA","NA","38936","NA","NA","45211","1132","60945","61047","61667","60943","61046","Flanker Task","11","8396.0","13","1024"
"85","85","655","655","black","legacy","legacy","legacy","incongruent","1","undefined","1","h","13","0","13","0","0","0","0","0","0","13","0","13","13","13","13","13","Sat Sep 23 12:28:14 2023","1500","The main experiment item","True","FlankerTask.osexp","/Users/baileymcwhirter/Downloads","False","mono","False","18","no","white","no","yes","768","legacy","13","13","/Users/baileymcwhirter/Downloads/BMsubject-2.csv","legacy","Melodramatic Milgram","4.0.5","0","h","NA","h","NA","NA","h","784.0","NA","37737","NA","NA","784","2","legacy","1024","2","48000","-16","experiment","SSHSS","2","even","NA","NA","62171","1178","NA","NA","38936","NA","NA","61669","1132","63207","63311","64096","63204","63311","Flanker Task","12","9180.0","14","1024"
"86","86","652","652","black","legacy","legacy","legacy","congruent","1","undefined","1","h","14","0","14","0","0","0","0","0","0","14","0","14","14","14","14","14","Sat Sep 23 12:28:14 2023","1500","The main experiment item","True","FlankerTask.osexp","/Users/baileymcwhirter/Downloads","False","mono","False","18","no","white","no","yes","768","legacy","14","14","/Users/baileymcwhirter/Downloads/BMsubject-2.csv","legacy","Melodramatic Milgram","4.0.5","0","h","NA","h","NA","NA","h","605.0","NA","37737","NA","NA","605","2","legacy","1024","2","48000","-16","experiment","HHHHH","2","even","NA","NA","64098","1178","NA","NA","38936","NA","NA","61669","1132","65129","65231","65837","65126","65231","Flanker Task","13","9785.0","15","1024"
"87","87","640","640","black","legacy","legacy","legacy","incongruent","1","undefined","1","s","15","0","15","0","0","0","0","0","0","15","0","15","15","15","15","15","Sat Sep 23 12:28:14 2023","1500","The main experiment item","True","FlankerTask.osexp","/Users/baileymcwhirter/Downloads","False","mono","False","18","no","white","no","yes","768","legacy","15","15","/Users/baileymcwhirter/Downloads/BMsubject-2.csv","legacy","Melodramatic Milgram","4.0.5","0","s","NA","h","NA","NA","s","459.0","NA","37737","NA","NA","459","2","legacy","1024","2","48000","-16","experiment","HHSHH","2","even","NA","NA","65840","1178","NA","NA","38936","NA","NA","61669","1132","66868","66971","67430","66866","66971","Flanker Task","14","10244.0","16","1024"
"88","88","636","636","black","legacy","legacy","legacy","incongruent","1","undefined","1","h","16","0","16","0","0","0","0","0","0","16","0","16","16","16","16","16","Sat Sep 23 12:28:14 2023","1500","The main experiment item","True","FlankerTask.osexp","/Users/baileymcwhirter/Downloads","False","mono","False","18","no","white","no","yes","768","legacy","16","16","/Users/baileymcwhirter/Downloads/BMsubject-2.csv","legacy","Melodramatic Milgram","4.0.5","0","h","NA","h","NA","NA","h","570.0","NA","37737","NA","NA","570","2","legacy","1024","2","48000","-16","experiment","SSHSS","2","even","NA","NA","67433","1178","NA","NA","38936","NA","NA","61669","1132","68460","68564","69135","68458","68564","Flanker Task","15","10814.0","17","1024"
"88","88","632","632","black","legacy","legacy","legacy","congruent","1","undefined","1","s","17","0","17","0","0","0","0","0","0","17","0","17","17","17","17","17","Sat Sep 23 12:28:14 2023","1500","The main experiment item","True","FlankerTask.osexp","/Users/baileymcwhirter/Downloads","False","mono","False","18","no","white","no","yes","768","legacy","17","17","/Users/baileymcwhirter/Downloads/BMsubject-2.csv","legacy","Melodramatic Milgram","4.0.5","0","s","NA","h","NA","NA","s","574.0","NA","37737","NA","NA","574","2","legacy","1024","2","48000","-16","experiment","SSSSS","2","even","NA","NA","69137","1178","NA","NA","38936","NA","NA","61669","1132","70167","70271","70846","70164","70271","Flanker Task","16","11388.0","18","1024"
"89","89","632","632","black","legacy","legacy","legacy","congruent","1","undefined","1","h","18","0","18","0","0","0","0","0","0","18","0","18","18","18","18","18","Sat Sep 23 12:28:14 2023","1500","The main experiment item","True","FlankerTask.osexp","/Users/baileymcwhirter/Downloads","False","mono","False","18","no","white","no","yes","768","legacy","18","18","/Users/baileymcwhirter/Downloads/BMsubject-2.csv","legacy","Melodramatic Milgram","4.0.5","0","h","NA","h","NA","NA","h","623.0","NA","37737","NA","NA","623","2","legacy","1024","2","48000","-16","experiment","HHHHH","2","even","NA","NA","70849","1178","NA","NA","38936","NA","NA","61669","1132","71877","71981","72605","71875","71981","Flanker Task","17","12011.0","19","1024"
"90","90","640","640","black","legacy","legacy","legacy","incongruent","1","undefined","1","h","19","0","19","0","0","0","0","0","0","19","0","19","19","19","19","19","Sat Sep 23 12:28:14 2023","1500","The main experiment item","True","FlankerTask.osexp","/Users/baileymcwhirter/Downloads","False","mono","False","18","no","white","no","yes","768","legacy","19","19","/Users/baileymcwhirter/Downloads/BMsubject-2.csv","legacy","Melodramatic Milgram","4.0.5","0","h","NA","h","NA","NA","h","803.0","NA","37737","NA","NA","803","2","legacy","1024","2","48000","-16","experiment","SSHSS","2","even","NA","NA","72608","1178","NA","NA","38936","NA","NA","61669","1132","73636","73740","74544","73634","73739","Flanker Task","18","12814.0","20","1024"
"90","90","636","636","black","legacy","legacy","legacy","congruent","1","undefined","1","h","20","0","20","0","0","0","0","0","0","20","0","20","20","20","20","20","Sat Sep 23 12:28:14 2023","1500","The main experiment item","True","FlankerTask.osexp","/Users/baileymcwhirter/Downloads","False","mono","False","18","no","white","no","yes","768","legacy","20","20","/Users/baileymcwhirter/Downloads/BMsubject-2.csv","legacy","Melodramatic Milgram","4.0.5","0","h","NA","h","NA","NA","h","557.0","NA","37737","NA","NA","557","2","legacy","1024","2","48000","-16","experiment","HHHHH","2","even","NA","NA","74546","1178","NA","NA","38936","NA","NA","61669","1132","75574","75677","76234","75571","75677","Flanker Task","19","13371.0","21","1024"
"90","90","629","629","black","legacy","legacy","legacy","incongruent","1","undefined","1","s","21","0","21","0","0","0","0","0","0","21","0","21","21","21","21","21","Sat Sep 23 12:28:14 2023","1500","The main experiment item","True","FlankerTask.osexp","/Users/baileymcwhirter/Downloads","False","mono","False","18","no","white","no","yes","768","legacy","21","21","/Users/baileymcwhirter/Downloads/BMsubject-2.csv","legacy","Melodramatic Milgram","4.0.5","0","s","NA","h","NA","NA","s","480.0","NA","37737","NA","NA","480","2","legacy","1024","2","48000","-16","experiment","HHSHH","2","even","NA","NA","76237","1178","NA","NA","38936","NA","NA","61669","1132","77272","77376","77857","77270","77376","Flanker Task","20","13851.0","22","1024"
"91","91","634","634","black","legacy","legacy","legacy","incongruent","1","undefined","1","h","22","0","22","0","0","0","0","0","0","22","0","22","22","22","22","22","Sat Sep 23 12:28:14 2023","1500","The main experiment item","True","FlankerTask.osexp","/Users/baileymcwhirter/Downloads","False","mono","False","18","no","white","no","yes","768","legacy","22","22","/Users/baileymcwhirter/Downloads/BMsubject-2.csv","legacy","Melodramatic Milgram","4.0.5","0","h","NA","h","NA","NA","h","751.0","NA","37737","NA","NA","751","2","legacy","1024","2","48000","-16","experiment","SSHSS","2","even","NA","NA","77860","1178","NA","NA","38936","NA","NA","61669","1132","78895","79000","79752","78893","78999","Flanker Task","21","14602.0","23","1024"
"91","91","628","628","black","legacy","legacy","legacy","incongruent","1","undefined","1","h","23","0","23","0","0","0","0","0","0","23","0","23","23","23","23","23","Sat Sep 23 12:28:14 2023","1500","The main experiment item","True","FlankerTask.osexp","/Users/baileymcwhirter/Downloads","False","mono","False","18","no","white","no","yes","768","legacy","23","23","/Users/baileymcwhirter/Downloads/BMsubject-2.csv","legacy","Melodramatic Milgram","4.0.5","0","h","NA","h","NA","NA","h","486.0","NA","37737","NA","NA","486","2","legacy","1024","2","48000","-16","experiment","SSHSS","2","even","NA","NA","79754","1178","NA","NA","38936","NA","NA","61669","1132","80783","80888","81375","80781","80887","Flanker Task","22","15088.0","24","1024"
"92","92","624","624","black","legacy","legacy","legacy","congruent","1","undefined","1","h","24","0","24","0","0","0","0","0","0","24","0","24","24","24","24","24","Sat Sep 23 12:28:14 2023","1500","The main experiment item","True","FlankerTask.osexp","/Users/baileymcwhirter/Downloads","False","mono","False","18","no","white","no","yes","768","legacy","24","24","/Users/baileymcwhirter/Downloads/BMsubject-2.csv","legacy","Melodramatic Milgram","4.0.5","0","h","NA","h","NA","NA","h","524.0","NA","37737","NA","NA","524","2","legacy","1024","2","48000","-16","experiment","HHHHH","2","even","NA","NA","81377","1178","NA","NA","38936","NA","NA","61669","1132","82402","82504","83029","82400","82504","Flanker Task","23","15612.0","25","1024"
"92","92","623","623","black","legacy","legacy","legacy","congruent","1","undefined","1","h","25","0","25","0","0","0","0","0","0","25","0","25","25","25","25","25","Sat Sep 23 12:28:14 2023","1500","The main experiment item","True","FlankerTask.osexp","/Users/baileymcwhirter/Downloads","False","mono","False","18","no","white","no","yes","768","legacy","25","25","/Users/baileymcwhirter/Downloads/BMsubject-2.csv","legacy","Melodramatic Milgram","4.0.5","0","h","NA","h","NA","NA","h","603.0","NA","37737","NA","NA","603","2","legacy","1024","2","48000","-16","experiment","HHHHH","2","even","NA","NA","83031","1178","NA","NA","38936","NA","NA","61669","1132","84056","84158","84762","84054","84158","Flanker Task","24","16215.0","26","1024"
"92","92","617","617","black","legacy","legacy","legacy","congruent","1","undefined","1","s","26","0","26","0","0","0","0","0","0","26","0","26","26","26","26","26","Sat Sep 23 12:28:14 2023","1500","The main experiment item","True","FlankerTask.osexp","/Users/baileymcwhirter/Downloads","False","mono","False","18","no","white","no","yes","768","legacy","26","26","/Users/baileymcwhirter/Downloads/BMsubject-2.csv","legacy","Melodramatic Milgram","4.0.5","0","s","NA","h","NA","NA","s","447.0","NA","37737","NA","NA","447","2","legacy","1024","2","48000","-16","experiment","SSSSS","2","even","NA","NA","84764","1178","NA","NA","38936","NA","NA","61669","1132","85792","85894","86341","85790","85894","Flanker Task","25","16662.0","27","1024"
"89","89","642","642","black","legacy","legacy","legacy","incongruent","0","undefined","0","s","27","0","27","0","0","0","0","0","0","27","0","27","27","27","27","27","Sat Sep 23 12:28:14 2023","1500","The main experiment item","True","FlankerTask.osexp","/Users/baileymcwhirter/Downloads","False","mono","False","18","no","white","no","yes","768","legacy","27","27","/Users/baileymcwhirter/Downloads/BMsubject-2.csv","legacy","Melodramatic Milgram","4.0.5","0","h","NA","h","NA","NA","h","1314.0","NA","37737","NA","NA","1314","2","legacy","1024","2","48000","-16","experiment","HHSHH","2","even","NA","NA","86344","1178","NA","NA","38936","NA","NA","61669","1132","87379","87482","88797","87377","87481","Flanker Task","25","17976.0","28","1024"
"89","89","632","632","black","legacy","legacy","legacy","congruent","1","undefined","1","h","28","0","28","0","0","0","0","0","0","28","0","28","28","28","28","28","Sat Sep 23 12:28:14 2023","1500","The main experiment item","True","FlankerTask.osexp","/Users/baileymcwhirter/Downloads","False","mono","False","18","no","white","no","yes","768","legacy","28","28","/Users/baileymcwhirter/Downloads/BMsubject-2.csv","legacy","Melodramatic Milgram","4.0.5","0","h","NA","h","NA","NA","h","374.0","NA","37737","NA","NA","374","2","legacy","1024","2","48000","-16","experiment","HHHHH","2","even","NA","NA","89303","1178","NA","NA","38936","NA","NA","88800","1132","90339","90441","90816","90336","90441","Flanker Task","26","18350.0","29","1024"
"90","90","637","637","black","legacy","legacy","legacy","congruent","1","undefined","1","s","29","0","29","0","0","0","0","0","0","29","0","29","29","29","29","29","Sat Sep 23 12:28:14 2023","1500","The main experiment item","True","FlankerTask.osexp","/Users/baileymcwhirter/Downloads","False","mono","False","18","no","white","no","yes","768","legacy","29","29","/Users/baileymcwhirter/Downloads/BMsubject-2.csv","legacy","Melodramatic Milgram","4.0.5","0","s","NA","h","NA","NA","s","767.0","NA","37737","NA","NA","767","2","legacy","1024","2","48000","-16","experiment","SSSSS","2","even","NA","NA","90818","1178","NA","NA","38936","NA","NA","88800","1132","91847","91949","92717","91845","91949","Flanker Task","27","19117.0","30","1024"
"90","90","634","634","black","legacy","legacy","legacy","incongruent","1","undefined","1","h","30","0","30","0","0","0","0","0","0","30","0","30","30","30","30","30","Sat Sep 23 12:28:14 2023","1500","The main experiment item","True","FlankerTask.osexp","/Users/baileymcwhirter/Downloads","False","mono","False","18","no","white","no","yes","768","legacy","30","30","/Users/baileymcwhirter/Downloads/BMsubject-2.csv","legacy","Melodramatic Milgram","4.0.5","0","h","NA","h","NA","NA","h","560.0","NA","37737","NA","NA","560","2","legacy","1024","2","48000","-16","experiment","SSHSS","2","even","NA","NA","92719","1178","NA","NA","38936","NA","NA","88800","1132","93748","93852","94413","93746","93852","Flanker Task","28","19677.0","31","1024"
"90","90","630","630","black","legacy","legacy","legacy","congruent","1","undefined","1","s","31","0","31","0","0","0","0","0","0","31","0","31","31","31","31","31","Sat Sep 23 12:28:14 2023","1500","The main experiment item","True","FlankerTask.osexp","/Users/baileymcwhirter/Downloads","False","mono","False","18","no","white","no","yes","768","legacy","31","31","/Users/baileymcwhirter/Downloads/BMsubject-2.csv","legacy","Melodramatic Milgram","4.0.5","0","s","NA","h","NA","NA","s","503.0","NA","37737","NA","NA","503","2","legacy","1024","2","48000","-16","experiment","SSSSS","2","even","NA","NA","94415","1178","NA","NA","38936","NA","NA","88800","1132","95442","95546","96050","95440","95546","Flanker Task","29","20180.0","32","1024"
"90","90","625","625","black","legacy","legacy","legacy","congruent","1","undefined","1","s","32","0","32","0","0","0","0","0","0","32","0","32","32","32","32","32","Sat Sep 23 12:28:14 2023","1500","The main experiment item","True","FlankerTask.osexp","/Users/baileymcwhirter/Downloads","False","mono","False","18","no","white","no","yes","768","legacy","32","32","/Users/baileymcwhirter/Downloads/BMsubject-2.csv","legacy","Melodramatic Milgram","4.0.5","0","s","NA","h","NA","NA","s","466.0","NA","37737","NA","NA","466","2","legacy","1024","2","48000","-16","experiment","SSSSS","2","even","NA","NA","96052","1178","NA","NA","38936","NA","NA","88800","1132","97083","97187","97653","97081","97187","Flanker Task","30","20646.0","33","1024"
"91","91","623","623","black","legacy","legacy","legacy","congruent","1","undefined","1","h","33","0","33","0","0","0","0","0","0","33","0","33","33","33","33","33","Sat Sep 23 12:28:14 2023","1500","The main experiment item","True","FlankerTask.osexp","/Users/baileymcwhirter/Downloads","False","mono","False","18","no","white","no","yes","768","legacy","33","33","/Users/baileymcwhirter/Downloads/BMsubject-2.csv","legacy","Melodramatic Milgram","4.0.5","0","h","NA","h","NA","NA","h","551.0","NA","37737","NA","NA","551","2","legacy","1024","2","48000","-16","experiment","HHHHH","2","even","NA","NA","97656","1178","NA","NA","38936","NA","NA","88800","1132","98681","98784","99335","98679","98784","Flanker Task","31","21197.0","34","1024"
"91","91","619","619","black","legacy","legacy","legacy","incongruent","1","undefined","1","s","34","0","34","0","0","0","0","0","0","34","0","34","34","34","34","34","Sat Sep 23 12:28:14 2023","1500","The main experiment item","True","FlankerTask.osexp","/Users/baileymcwhirter/Downloads","False","mono","False","18","no","white","no","yes","768","legacy","34","34","/Users/baileymcwhirter/Downloads/BMsubject-2.csv","legacy","Melodramatic Milgram","4.0.5","0","s","NA","h","NA","NA","s","477.0","NA","37737","NA","NA","477","2","legacy","1024","2","48000","-16","experiment","HHSHH","2","even","NA","NA","99338","1178","NA","NA","38936","NA","NA","88800","1132","100364","100468","100945","100363","100467","Flanker Task","32","21674.0","35","1024"
"91","91","626","626","black","legacy","legacy","legacy","incongruent","1","undefined","1","h","35","0","35","0","0","0","0","0","0","35","0","35","35","35","35","35","Sat Sep 23 12:28:14 2023","1500","The main experiment item","True","FlankerTask.osexp","/Users/baileymcwhirter/Downloads","False","mono","False","18","no","white","no","yes","768","legacy","35","35","/Users/baileymcwhirter/Downloads/BMsubject-2.csv","legacy","Melodramatic Milgram","4.0.5","0","h","NA","h","NA","NA","h","870.0","NA","37737","NA","NA","870","2","legacy","1024","2","48000","-16","experiment","SSHSS","2","even","NA","NA","100948","1178","NA","NA","38936","NA","NA","88800","1132","101982","102085","102955","101980","102085","Flanker Task","33","22544.0","36","1024"
"91","91","628","628","black","legacy","legacy","legacy","incongruent","1","undefined","1","h","36","0","36","0","0","0","0","0","0","36","0","36","36","36","36","36","Sat Sep 23 12:28:14 2023","1500","The main experiment item","True","FlankerTask.osexp","/Users/baileymcwhirter/Downloads","False","mono","False","18","no","white","no","yes","768","legacy","36","36","/Users/baileymcwhirter/Downloads/BMsubject-2.csv","legacy","Melodramatic Milgram","4.0.5","0","h","NA","h","NA","NA","h","724.0","NA","37737","NA","NA","724","2","legacy","1024","2","48000","-16","experiment","SSHSS","2","even","NA","NA","102958","1178","NA","NA","38936","NA","NA","88800","1132","103998","104101","104826","103995","104101","Flanker Task","34","23268.0","37","1024"
"92","92","622","622","black","legacy","legacy","legacy","incongruent","1","undefined","1","s","37","0","37","0","0","0","0","0","0","37","0","37","37","37","37","37","Sat Sep 23 12:28:14 2023","1500","The main experiment item","True","FlankerTask.osexp","/Users/baileymcwhirter/Downloads","False","mono","False","18","no","white","no","yes","768","legacy","37","37","/Users/baileymcwhirter/Downloads/BMsubject-2.csv","legacy","Melodramatic Milgram","4.0.5","0","s","NA","h","NA","NA","s","388.0","NA","37737","NA","NA","388","2","legacy","1024","2","48000","-16","experiment","HHSHH","2","even","NA","NA","104829","1178","NA","NA","38936","NA","NA","88800","1132","105856","105958","106347","105854","105957","Flanker Task","35","23656.0","38","1024"
"92","92","620","620","black","legacy","legacy","legacy","congruent","1","undefined","1","h","38","0","38","0","0","0","0","0","0","38","0","38","38","38","38","38","Sat Sep 23 12:28:14 2023","1500","The main experiment item","True","FlankerTask.osexp","/Users/baileymcwhirter/Downloads","False","mono","False","18","no","white","no","yes","768","legacy","38","38","/Users/baileymcwhirter/Downloads/BMsubject-2.csv","legacy","Melodramatic Milgram","4.0.5","0","h","NA","h","NA","NA","h","528.0","NA","37737","NA","NA","528","2","legacy","1024","2","48000","-16","experiment","HHHHH","2","even","NA","NA","106350","1178","NA","NA","38936","NA","NA","88800","1132","107378","107482","108011","107376","107482","Flanker Task","36","24184.0","39","1024"
"92","92","617","617","black","legacy","legacy","legacy","incongruent","1","undefined","1","s","39","0","39","0","0","0","0","0","0","39","0","39","39","39","39","39","Sat Sep 23 12:28:14 2023","1500","The main experiment item","True","FlankerTask.osexp","/Users/baileymcwhirter/Downloads","False","mono","False","18","no","white","no","yes","768","legacy","39","39","/Users/baileymcwhirter/Downloads/BMsubject-2.csv","legacy","Melodramatic Milgram","4.0.5","0","s","NA","h","NA","NA","s","532.0","NA","37737","NA","NA","532","2","legacy","1024","2","48000","-16","experiment","HHSHH","2","even","NA","NA","108014","1178","NA","NA","38936","NA","NA","88800","1132","109050","109154","109687","109048","109154","Flanker Task","37","24716.0","40","1024"
"92","92","616","616","black","legacy","legacy","legacy","congruent","1","undefined","1","s","40","0","40","0","0","0","0","0","0","40","0","40","40","40","40","40","Sat Sep 23 12:28:14 2023","1500","The main experiment item","True","FlankerTask.osexp","/Users/baileymcwhirter/Downloads","False","mono","False","18","no","white","no","yes","768","legacy","40","40","/Users/baileymcwhirter/Downloads/BMsubject-2.csv","legacy","Melodramatic Milgram","4.0.5","0","s","NA","h","NA","NA","s","548.0","NA","37737","NA","NA","548","2","legacy","1024","2","48000","-16","experiment","SSSSS","2","even","NA","NA","109690","1178","NA","NA","38936","NA","NA","88800","1132","110717","110819","111368","110715","110819","Flanker Task","38","25264.0","41","1024"
"92","92","614","614","black","legacy","legacy","legacy","incongruent","1","undefined","1","h","41","0","41","0","0","0","0","0","0","41","0","41","41","41","41","41","Sat Sep 23 12:28:14 2023","1500","The main experiment item","True","FlankerTask.osexp","/Users/baileymcwhirter/Downloads","False","mono","False","18","no","white","no","yes","768","legacy","41","41","/Users/baileymcwhirter/Downloads/BMsubject-2.csv","legacy","Melodramatic Milgram","4.0.5","0","h","NA","h","NA","NA","h","556.0","NA","37737","NA","NA","556","2","legacy","1024","2","48000","-16","experiment","SSHSS","2","even","NA","NA","111371","1178","NA","NA","38936","NA","NA","88800","1132","112398","112501","113058","112396","112501","Flanker Task","39","25820.0","42","1024"
"93","93","613","613","black","legacy","legacy","legacy","incongruent","1","undefined","1","s","42","0","42","0","0","0","0","0","0","42","0","42","42","42","42","42","Sat Sep 23 12:28:14 2023","1500","The main experiment item","True","FlankerTask.osexp","/Users/baileymcwhirter/Downloads","False","mono","False","18","no","white","no","yes","768","legacy","42","42","/Users/baileymcwhirter/Downloads/BMsubject-2.csv","legacy","Melodramatic Milgram","4.0.5","0","s","NA","h","NA","NA","s","547.0","NA","37737","NA","NA","547","2","legacy","1024","2","48000","-16","experiment","HHSHH","2","even","NA","NA","113060","1178","NA","NA","38936","NA","NA","88800","1132","114087","114190","114738","114085","114190","Flanker Task","40","26367.0","43","1024"
"93","93","607","607","black","legacy","legacy","legacy","incongruent","1","undefined","1","h","43","0","43","0","0","0","0","0","0","43","0","43","43","43","43","43","Sat Sep 23 12:28:14 2023","1500","The main experiment item","True","FlankerTask.osexp","/Users/baileymcwhirter/Downloads","False","mono","False","18","no","white","no","yes","768","legacy","43","43","/Users/baileymcwhirter/Downloads/BMsubject-2.csv","legacy","Melodramatic Milgram","4.0.5","0","h","NA","h","NA","NA","h","382.0","NA","37737","NA","NA","382","2","legacy","1024","2","48000","-16","experiment","SSHSS","2","even","NA","NA","114740","1178","NA","NA","38936","NA","NA","88800","1132","115765","115867","116250","115763","115866","Flanker Task","41","26749.0","44","1024"
"93","93","609","609","black","legacy","legacy","legacy","incongruent","1","undefined","1","h","44","0","44","0","0","0","0","0","0","44","0","44","44","44","44","44","Sat Sep 23 12:28:14 2023","1500","The main experiment item","True","FlankerTask.osexp","/Users/baileymcwhirter/Downloads","False","mono","False","18","no","white","no","yes","768","legacy","44","44","/Users/baileymcwhirter/Downloads/BMsubject-2.csv","legacy","Melodramatic Milgram","4.0.5","0","h","NA","h","NA","NA","h","663.0","NA","37737","NA","NA","663","2","legacy","1024","2","48000","-16","experiment","SSHSS","2","even","NA","NA","116252","1178","NA","NA","38936","NA","NA","88800","1132","117280","117384","118048","117278","117384","Flanker Task","42","27412.0","45","1024"
"93","93","606","606","black","legacy","legacy","legacy","congruent","1","undefined","1","h","45","0","45","0","0","0","0","0","0","45","0","45","45","45","45","45","Sat Sep 23 12:28:14 2023","1500","The main experiment item","True","FlankerTask.osexp","/Users/baileymcwhirter/Downloads","False","mono","False","18","no","white","no","yes","768","legacy","45","45","/Users/baileymcwhirter/Downloads/BMsubject-2.csv","legacy","Melodramatic Milgram","4.0.5","0","h","NA","h","NA","NA","h","477.0","NA","37737","NA","NA","477","2","legacy","1024","2","48000","-16","experiment","HHHHH","2","even","NA","NA","118051","1178","NA","NA","38936","NA","NA","88800","1132","119079","119182","119660","119077","119182","Flanker Task","43","27889.0","46","1024"
"93","93","603","603","black","legacy","legacy","legacy","incongruent","1","undefined","1","s","46","0","46","0","0","0","0","0","0","46","0","46","46","46","46","46","Sat Sep 23 12:28:14 2023","1500","The main experiment item","True","FlankerTask.osexp","/Users/baileymcwhirter/Downloads","False","mono","False","18","no","white","no","yes","768","legacy","46","46","/Users/baileymcwhirter/Downloads/BMsubject-2.csv","legacy","Melodramatic Milgram","4.0.5","0","s","NA","h","NA","NA","s","453.0","NA","37737","NA","NA","453","2","legacy","1024","2","48000","-16","experiment","HHSHH","2","even","NA","NA","119662","1178","NA","NA","38936","NA","NA","88800","1132","120689","120792","121245","120687","120792","Flanker Task","44","28342.0","47","1024"
"93","93","600","600","black","legacy","legacy","legacy","congruent","1","undefined","1","s","47","0","47","0","0","0","0","0","0","47","0","47","47","47","47","47","Sat Sep 23 12:28:14 2023","1500","The main experiment item","True","FlankerTask.osexp","/Users/baileymcwhirter/Downloads","False","mono","False","18","no","white","no","yes","768","legacy","47","47","/Users/baileymcwhirter/Downloads/BMsubject-2.csv","legacy","Melodramatic Milgram","4.0.5","0","s","NA","h","NA","NA","s","499.0","NA","37737","NA","NA","499","2","legacy","1024","2","48000","-16","experiment","SSSSS","2","even","NA","NA","121248","1178","NA","NA","38936","NA","NA","88800","1132","122274","122377","122877","122272","122377","Flanker Task","45","28841.0","48","1024"
"93","93","599","599","black","legacy","legacy","legacy","congruent","1","undefined","1","s","48","0","48","0","0","0","0","0","0","48","0","48","48","48","48","48","Sat Sep 23 12:28:14 2023","1500","The main experiment item","True","FlankerTask.osexp","/Users/baileymcwhirter/Downloads","False","mono","False","18","no","white","no","yes","768","legacy","48","48","/Users/baileymcwhirter/Downloads/BMsubject-2.csv","legacy","Melodramatic Milgram","4.0.5","0","s","NA","h","NA","NA","s","526.0","NA","37737","NA","NA","526","2","legacy","1024","2","48000","-16","experiment","SSSSS","2","even","NA","NA","122879","1178","NA","NA","38936","NA","NA","88800","1132","123907","124009","124535","123905","124009","Flanker Task","46","29367.0","49","1024"
"94","94","599","599","black","legacy","legacy","legacy","incongruent","1","undefined","1","s","49","0","49","0","0","0","0","0","0","49","0","49","49","49","49","49","Sat Sep 23 12:28:14 2023","1500","The main experiment item","True","FlankerTask.osexp","/Users/baileymcwhirter/Downloads","False","mono","False","18","no","white","no","yes","768","legacy","49","49","/Users/baileymcwhirter/Downloads/BMsubject-2.csv","legacy","Melodramatic Milgram","4.0.5","0","s","NA","h","NA","NA","s","616.0","NA","37737","NA","NA","616","2","legacy","1024","2","48000","-16","experiment","HHSHH","2","even","NA","NA","124538","1178","NA","NA","38936","NA","NA","88800","1132","125567","125671","126287","125565","125671","Flanker Task","47","29983.0","50","1024"
"94","94","598","598","black","legacy","legacy","legacy","congruent","1","undefined","1","h","50","0","50","0","0","0","0","0","0","50","0","50","50","50","50","50","Sat Sep 23 12:28:14 2023","1500","The main experiment item","True","FlankerTask.osexp","/Users/baileymcwhirter/Downloads","False","mono","False","18","no","white","no","yes","768","legacy","50","50","/Users/baileymcwhirter/Downloads/BMsubject-2.csv","legacy","Melodramatic Milgram","4.0.5","0","h","NA","h","NA","NA","h","528.0","NA","37737","NA","NA","528","2","legacy","1024","2","48000","-16","experiment","HHHHH","2","even","NA","NA","126290","1178","NA","NA","38936","NA","NA","88800","1132","127316","127418","127947","127314","127418","Flanker Task","48","30511.0","51","1024"
"94","94","598","598","black","legacy","legacy","legacy","incongruent","1","undefined","1","h","51","0","51","0","0","0","0","0","0","51","0","51","51","51","51","51","Sat Sep 23 12:28:14 2023","1500","The main experiment item","True","FlankerTask.osexp","/Users/baileymcwhirter/Downloads","False","mono","False","18","no","white","no","yes","768","legacy","51","51","/Users/baileymcwhirter/Downloads/BMsubject-2.csv","legacy","Melodramatic Milgram","4.0.5","0","h","NA","h","NA","NA","h","599.0","NA","37737","NA","NA","599","2","legacy","1024","2","48000","-16","experiment","SSHSS","2","even","NA","NA","127949","1178","NA","NA","38936","NA","NA","88800","1132","128974","129077","129676","128972","129077","Flanker Task","49","31110.0","52","1024"
"94","94","595","595","black","legacy","legacy","legacy","congruent","1","undefined","1","s","52","0","52","0","0","0","0","0","0","52","0","52","52","52","52","52","Sat Sep 23 12:28:14 2023","1500","The main experiment item","True","FlankerTask.osexp","/Users/baileymcwhirter/Downloads","False","mono","False","18","no","white","no","yes","768","legacy","52","52","/Users/baileymcwhirter/Downloads/BMsubject-2.csv","legacy","Melodramatic Milgram","4.0.5","0","s","NA","h","NA","NA","s","437.0","NA","37737","NA","NA","437","2","legacy","1024","2","48000","-16","experiment","SSSSS","2","even","NA","NA","129679","1178","NA","NA","38936","NA","NA","88800","1132","130708","130812","131250","130706","130812","Flanker Task","50","31547.0","53","1024"
"94","94","592","592","black","legacy","legacy","legacy","incongruent","1","undefined","1","h","53","0","53","0","0","0","0","0","0","53","0","53","53","53","53","53","Sat Sep 23 12:28:14 2023","1500","The main experiment item","True","FlankerTask.osexp","/Users/baileymcwhirter/Downloads","False","mono","False","18","no","white","no","yes","768","legacy","53","53","/Users/baileymcwhirter/Downloads/BMsubject-2.csv","legacy","Melodramatic Milgram","4.0.5","0","h","NA","h","NA","NA","h","430.0","NA","37737","NA","NA","430","2","legacy","1024","2","48000","-16","experiment","SSHSS","2","even","NA","NA","131253","1178","NA","NA","38936","NA","NA","88800","1132","132279","132382","132813","132277","132382","Flanker Task","51","31977.0","54","1024"
"94","94","588","588","black","legacy","legacy","legacy","congruent","1","undefined","1","s","54","0","54","0","0","0","0","0","0","54","0","54","54","54","54","54","Sat Sep 23 12:28:14 2023","1500","The main experiment item","True","FlankerTask.osexp","/Users/baileymcwhirter/Downloads","False","mono","False","18","no","white","no","yes","768","legacy","54","54","/Users/baileymcwhirter/Downloads/BMsubject-2.csv","legacy","Melodramatic Milgram","4.0.5","0","s","NA","h","NA","NA","s","407.0","NA","37737","NA","NA","407","2","legacy","1024","2","48000","-16","experiment","SSSSS","2","even","NA","NA","132815","1178","NA","NA","38936","NA","NA","88800","1132","133842","133945","134353","133840","133945","Flanker Task","52","32384.0","55","1024"
"94","94","586","586","black","legacy","legacy","legacy","incongruent","1","undefined","1","s","55","0","55","0","0","0","0","0","0","55","0","55","55","55","55","55","Sat Sep 23 12:28:14 2023","1500","The main experiment item","True","FlankerTask.osexp","/Users/baileymcwhirter/Downloads","False","mono","False","18","no","white","no","yes","768","legacy","55","55","/Users/baileymcwhirter/Downloads/BMsubject-2.csv","legacy","Melodramatic Milgram","4.0.5","0","s","NA","h","NA","NA","s","443.0","NA","37737","NA","NA","443","2","legacy","1024","2","48000","-16","experiment","HHSHH","2","even","NA","NA","134356","1178","NA","NA","38936","NA","NA","88800","1132","135384","135489","135933","135382","135488","Flanker Task","53","32827.0","56","1024"
"94","94","583","583","black","legacy","legacy","legacy","incongruent","1","undefined","1","h","56","0","56","0","0","0","0","0","0","56","0","56","56","56","56","56","Sat Sep 23 12:28:14 2023","1500","The main experiment item","True","FlankerTask.osexp","/Users/baileymcwhirter/Downloads","False","mono","False","18","no","white","no","yes","768","legacy","56","56","/Users/baileymcwhirter/Downloads/BMsubject-2.csv","legacy","Melodramatic Milgram","4.0.5","0","h","NA","h","NA","NA","h","431.0","NA","37737","NA","NA","431","2","legacy","1024","2","48000","-16","experiment","SSHSS","2","even","NA","NA","135936","1178","NA","NA","38936","NA","NA","88800","1132","136961","137064","137496","136959","137064","Flanker Task","54","33258.0","57","1024"
"94","94","580","580","black","legacy","legacy","legacy","congruent","1","undefined","1","s","57","0","57","0","0","0","0","0","0","57","0","57","57","57","57","57","Sat Sep 23 12:28:14 2023","1500","The main experiment item","True","FlankerTask.osexp","/Users/baileymcwhirter/Downloads","False","mono","False","18","no","white","no","yes","768","legacy","57","57","/Users/baileymcwhirter/Downloads/BMsubject-2.csv","legacy","Melodramatic Milgram","4.0.5","0","s","NA","h","NA","NA","s","384.0","NA","37737","NA","NA","384","2","legacy","1024","2","48000","-16","experiment","SSSSS","2","even","NA","NA","137499","1178","NA","NA","38936","NA","NA","88800","1132","138528","138633","139018","138526","138632","Flanker Task","55","33642.0","58","1024"
"94","94","576","576","black","legacy","legacy","legacy","congruent","1","undefined","1","h","58","0","58","0","0","0","0","0","0","58","0","58","58","58","58","58","Sat Sep 23 12:28:14 2023","1500","The main experiment item","True","FlankerTask.osexp","/Users/baileymcwhirter/Downloads","False","mono","False","18","no","white","no","yes","768","legacy","58","58","/Users/baileymcwhirter/Downloads/BMsubject-2.csv","legacy","Melodramatic Milgram","4.0.5","0","h","NA","h","NA","NA","h","382.0","NA","37737","NA","NA","382","2","legacy","1024","2","48000","-16","experiment","HHHHH","2","even","NA","NA","139021","1178","NA","NA","38936","NA","NA","88800","1132","140047","140150","140533","140045","140150","Flanker Task","56","34024.0","59","1024"
"93","93","573","573","black","legacy","legacy","legacy","incongruent","0","undefined","0","h","59","0","59","0","0","0","0","0","0","59","0","59","59","59","59","59","Sat Sep 23 12:28:14 2023","1500","The main experiment item","True","FlankerTask.osexp","/Users/baileymcwhirter/Downloads","False","mono","False","18","no","white","no","yes","768","legacy","59","59","/Users/baileymcwhirter/Downloads/BMsubject-2.csv","legacy","Melodramatic Milgram","4.0.5","0","s","NA","h","NA","NA","s","367.0","NA","37737","NA","NA","367","2","legacy","1024","2","48000","-16","experiment","SSHSS","2","even","NA","NA","140535","1178","NA","NA","38936","NA","NA","88800","1132","141561","141664","142032","141559","141664","Flanker Task","56","34391.0","60","1024"
"93","93","573","573","black","legacy","legacy","legacy","congruent","1","undefined","1","s","60","0","60","0","0","0","0","0","0","60","0","60","60","60","60","60","Sat Sep 23 12:28:14 2023","1500","The main experiment item","True","FlankerTask.osexp","/Users/baileymcwhirter/Downloads","False","mono","False","18","no","white","no","yes","768","legacy","60","60","/Users/baileymcwhirter/Downloads/BMsubject-2.csv","legacy","Melodramatic Milgram","4.0.5","0","s","NA","h","NA","NA","s","562.0","NA","37737","NA","NA","562","2","legacy","1024","2","48000","-16","experiment","SSSSS","2","even","NA","NA","142536","1178","NA","NA","38936","NA","NA","142034","1132","143564","143667","144230","143562","143667","Flanker Task","57","34953.0","61","1024"
"93","93","571","571","black","legacy","legacy","legacy","congruent","1","undefined","1","s","61","0","61","0","0","0","0","0","0","61","0","61","61","61","61","61","Sat Sep 23 12:28:14 2023","1500","The main experiment item","True","FlankerTask.osexp","/Users/baileymcwhirter/Downloads","False","mono","False","18","no","white","no","yes","768","legacy","61","61","/Users/baileymcwhirter/Downloads/BMsubject-2.csv","legacy","Melodramatic Milgram","4.0.5","0","s","NA","h","NA","NA","s","498.0","NA","37737","NA","NA","498","2","legacy","1024","2","48000","-16","experiment","SSSSS","2","even","NA","NA","144232","1178","NA","NA","38936","NA","NA","142034","1132","145264","145369","145868","145261","145368","Flanker Task","58","35451.0","62","1024"
"93","93","570","570","black","legacy","legacy","legacy","congruent","1","undefined","1","s","62","0","62","0","0","0","0","0","0","62","0","62","62","62","62","62","Sat Sep 23 12:28:14 2023","1500","The main experiment item","True","FlankerTask.osexp","/Users/baileymcwhirter/Downloads","False","mono","False","18","no","white","no","yes","768","legacy","62","62","/Users/baileymcwhirter/Downloads/BMsubject-2.csv","legacy","Melodramatic Milgram","4.0.5","0","s","NA","h","NA","NA","s","481.0","NA","37737","NA","NA","481","2","legacy","1024","2","48000","-16","experiment","SSSSS","2","even","NA","NA","145871","1178","NA","NA","38936","NA","NA","142034","1132","146898","147001","147483","146896","147001","Flanker Task","59","35932.0","63","1024"
"93","93","570","570","black","legacy","legacy","legacy","congruent","1","undefined","1","h","63","0","63","0","0","0","0","0","0","63","0","63","63","63","63","63","Sat Sep 23 12:28:14 2023","1500","The main experiment item","True","FlankerTask.osexp","/Users/baileymcwhirter/Downloads","False","mono","False","18","no","white","no","yes","768","legacy","63","63","/Users/baileymcwhirter/Downloads/BMsubject-2.csv","legacy","Melodramatic Milgram","4.0.5","0","h","NA","h","NA","NA","h","602.0","NA","37737","NA","NA","602","2","legacy","1024","2","48000","-16","experiment","HHHHH","2","even","NA","NA","147485","1178","NA","NA","38936","NA","NA","142034","1132","148510","148612","149215","148508","148612","Flanker Task","60","36534.0","64","1024"
"93","93","573","573","black","legacy","legacy","legacy","incongruent","1","undefined","1","h","64","0","64","0","0","0","0","0","0","64","0","64","64","64","64","64","Sat Sep 23 12:28:14 2023","1500","The main experiment item","True","FlankerTask.osexp","/Users/baileymcwhirter/Downloads","False","mono","False","18","no","white","no","yes","768","legacy","64","64","/Users/baileymcwhirter/Downloads/BMsubject-2.csv","legacy","Melodramatic Milgram","4.0.5","0","h","NA","h","NA","NA","h","756.0","NA","37737","NA","NA","756","2","legacy","1024","2","48000","-16","experiment","SSHSS","2","even","NA","NA","149217","1178","NA","NA","38936","NA","NA","142034","1132","150242","150345","151101","150240","150344","Flanker Task","61","37290.0","65","1024"
"93","93","571","571","black","legacy","legacy","legacy","congruent","1","undefined","1","s","65","0","65","0","0","0","0","0","0","65","0","65","65","65","65","65","Sat Sep 23 12:28:14 2023","1500","The main experiment item","True","FlankerTask.osexp","/Users/baileymcwhirter/Downloads","False","mono","False","18","no","white","no","yes","768","legacy","65","65","/Users/baileymcwhirter/Downloads/BMsubject-2.csv","legacy","Melodramatic Milgram","4.0.5","0","s","NA","h","NA","NA","s","416.0","NA","37737","NA","NA","416","2","legacy","1024","2","48000","-16","experiment","SSSSS","2","even","NA","NA","151104","1178","NA","NA","38936","NA","NA","142034","1132","152131","152235","152651","152129","152235","Flanker Task","62","37706.0","66","1024"
"94","94","573","573","black","legacy","legacy","legacy","incongruent","1","undefined","1","h","66","0","66","0","0","0","0","0","0","66","0","66","66","66","66","66","Sat Sep 23 12:28:14 2023","1500","The main experiment item","True","FlankerTask.osexp","/Users/baileymcwhirter/Downloads","False","mono","False","18","no","white","no","yes","768","legacy","66","66","/Users/baileymcwhirter/Downloads/BMsubject-2.csv","legacy","Melodramatic Milgram","4.0.5","0","h","NA","h","NA","NA","h","708.0","NA","37737","NA","NA","708","2","legacy","1024","2","48000","-16","experiment","SSHSS","2","even","NA","NA","152654","1178","NA","NA","38936","NA","NA","142034","1132","153681","153784","154493","153679","153784","Flanker Task","63","38414.0","67","1024"
"94","94","572","572","black","legacy","legacy","legacy","incongruent","1","undefined","1","s","67","0","67","0","0","0","0","0","0","67","0","67","67","67","67","67","Sat Sep 23 12:28:14 2023","1500","The main experiment item","True","FlankerTask.osexp","/Users/baileymcwhirter/Downloads","False","mono","False","18","no","white","no","yes","768","legacy","67","67","/Users/baileymcwhirter/Downloads/BMsubject-2.csv","legacy","Melodramatic Milgram","4.0.5","0","s","NA","h","NA","NA","s","531.0","NA","37737","NA","NA","531","2","legacy","1024","2","48000","-16","experiment","HHSHH","2","even","NA","NA","154496","1178","NA","NA","38936","NA","NA","142034","1132","155521","155623","156154","155519","155623","Flanker Task","64","38945.0","68","1024"
"94","94","571","571","black","legacy","legacy","legacy","congruent","1","undefined","1","s","68","0","68","0","0","0","0","0","0","68","0","68","68","68","68","68","Sat Sep 23 12:28:14 2023","1500","The main experiment item","True","FlankerTask.osexp","/Users/baileymcwhirter/Downloads","False","mono","False","18","no","white","no","yes","768","legacy","68","68","/Users/baileymcwhirter/Downloads/BMsubject-2.csv","legacy","Melodramatic Milgram","4.0.5","0","s","NA","h","NA","NA","s","521.0","NA","37737","NA","NA","521","2","legacy","1024","2","48000","-16","experiment","SSSSS","2","even","NA","NA","156157","1178","NA","NA","38936","NA","NA","142034","1132","157184","157286","157808","157182","157285","Flanker Task","65","39466.0","69","1024"
"94","94","572","572","black","legacy","legacy","legacy","congruent","1","undefined","1","h","69","0","69","0","0","0","0","0","0","69","0","69","69","69","69","69","Sat Sep 23 12:28:14 2023","1500","The main experiment item","True","FlankerTask.osexp","/Users/baileymcwhirter/Downloads","False","mono","False","18","no","white","no","yes","768","legacy","69","69","/Users/baileymcwhirter/Downloads/BMsubject-2.csv","legacy","Melodramatic Milgram","4.0.5","0","h","NA","h","NA","NA","h","578.0","NA","37737","NA","NA","578","2","legacy","1024","2","48000","-16","experiment","HHHHH","2","even","NA","NA","157811","1178","NA","NA","38936","NA","NA","142034","1132","158846","158950","159529","158844","158950","Flanker Task","66","40044.0","70","1024"
"94","94","573","573","black","legacy","legacy","legacy","congruent","1","undefined","1","h","70","0","70","0","0","0","0","0","0","70","0","70","70","70","70","70","Sat Sep 23 12:28:14 2023","1500","The main experiment item","True","FlankerTask.osexp","/Users/baileymcwhirter/Downloads","False","mono","False","18","no","white","no","yes","768","legacy","70","70","/Users/baileymcwhirter/Downloads/BMsubject-2.csv","legacy","Melodramatic Milgram","4.0.5","0","h","NA","h","NA","NA","h","683.0","NA","37737","NA","NA","683","2","legacy","1024","2","48000","-16","experiment","HHHHH","2","even","NA","NA","159532","1178","NA","NA","38936","NA","NA","142034","1132","160557","160661","161345","160555","160661","Flanker Task","67","40727.0","71","1024"
"94","94","576","576","black","legacy","legacy","legacy","incongruent","1","undefined","1","s","71","0","71","0","0","0","0","0","0","71","0","71","71","71","71","71","Sat Sep 23 12:28:14 2023","1500","The main experiment item","True","FlankerTask.osexp","/Users/baileymcwhirter/Downloads","False","mono","False","18","no","white","no","yes","768","legacy","71","71","/Users/baileymcwhirter/Downloads/BMsubject-2.csv","legacy","Melodramatic Milgram","4.0.5","0","s","NA","h","NA","NA","s","775.0","NA","37737","NA","NA","775","2","legacy","1024","2","48000","-16","experiment","HHSHH","2","even","NA","NA","161348","1178","NA","NA","38936","NA","NA","142034","1132","162374","162479","163255","162372","162478","Flanker Task","68","41502.0","72","1024"
"94","94","579","579","black","legacy","legacy","legacy","congruent","1","undefined","1","s","72","0","72","0","0","0","0","0","0","72","0","72","72","72","72","72","Sat Sep 23 12:28:14 2023","1500","The main experiment item","True","FlankerTask.osexp","/Users/baileymcwhirter/Downloads","False","mono","False","18","no","white","no","yes","768","legacy","72","72","/Users/baileymcwhirter/Downloads/BMsubject-2.csv","legacy","Melodramatic Milgram","4.0.5","0","s","NA","h","NA","NA","s","803.0","NA","37737","NA","NA","803","2","legacy","1024","2","48000","-16","experiment","SSSSS","2","even","NA","NA","163258","1178","NA","NA","38936","NA","NA","142034","1132","164285","164388","165192","164283","164388","Flanker Task","69","42305.0","73","1024"
"94","94","586","586","black","legacy","legacy","legacy","incongruent","1","undefined","1","s","73","0","73","0","0","0","0","0","0","73","0","73","73","73","73","73","Sat Sep 23 12:28:14 2023","1500","The main experiment item","True","FlankerTask.osexp","/Users/baileymcwhirter/Downloads","False","mono","False","18","no","white","no","yes","768","legacy","73","73","/Users/baileymcwhirter/Downloads/BMsubject-2.csv","legacy","Melodramatic Milgram","4.0.5","0","s","NA","h","NA","NA","s","1097.0","NA","37737","NA","NA","1097","2","legacy","1024","2","48000","-16","experiment","HHSHH","2","even","NA","NA","165195","1178","NA","NA","38936","NA","NA","142034","1132","166219","166321","167419","166217","166321","Flanker Task","70","43402.0","74","1024"
"94","94","588","588","black","legacy","legacy","legacy","incongruent","1","undefined","1","s","74","0","74","0","0","0","0","0","0","74","0","74","74","74","74","74","Sat Sep 23 12:28:14 2023","1500","The main experiment item","True","FlankerTask.osexp","/Users/baileymcwhirter/Downloads","False","mono","False","18","no","white","no","yes","768","legacy","74","74","/Users/baileymcwhirter/Downloads/BMsubject-2.csv","legacy","Melodramatic Milgram","4.0.5","0","s","NA","h","NA","NA","s","710.0","NA","37737","NA","NA","710","2","legacy","1024","2","48000","-16","experiment","HHSHH","2","even","NA","NA","167422","1178","NA","NA","38936","NA","NA","142034","1132","168456","168560","169271","168454","168559","Flanker Task","71","44112.0","75","1024"
"94","94","589","589","black","legacy","legacy","legacy","congruent","1","undefined","1","s","75","0","75","0","0","0","0","0","0","75","0","75","75","75","75","75","Sat Sep 23 12:28:14 2023","1500","The main experiment item","True","FlankerTask.osexp","/Users/baileymcwhirter/Downloads","False","mono","False","18","no","white","no","yes","768","legacy","75","75","/Users/baileymcwhirter/Downloads/BMsubject-2.csv","legacy","Melodramatic Milgram","4.0.5","0","s","NA","h","NA","NA","s","670.0","NA","37737","NA","NA","670","2","legacy","1024","2","48000","-16","experiment","SSSSS","2","even","NA","NA","169274","1178","NA","NA","38936","NA","NA","142034","1132","170301","170403","171074","170299","170403","Flanker Task","72","44782.0","76","1024"
"94","94","587","587","black","legacy","legacy","legacy","congruent","1","undefined","1","h","76","0","76","0","0","0","0","0","0","76","0","76","76","76","76","76","Sat Sep 23 12:28:14 2023","1500","The main experiment item","True","FlankerTask.osexp","/Users/baileymcwhirter/Downloads","False","mono","False","18","no","white","no","yes","768","legacy","76","76","/Users/baileymcwhirter/Downloads/BMsubject-2.csv","legacy","Melodramatic Milgram","4.0.5","0","h","NA","h","NA","NA","h","484.0","NA","37737","NA","NA","484","2","legacy","1024","2","48000","-16","experiment","HHHHH","2","even","NA","NA","171077","1178","NA","NA","38936","NA","NA","142034","1132","172105","172210","172695","172103","172210","Flanker Task","73","45266.0","77","1024"
"94","94","590","590","black","legacy","legacy","legacy","incongruent","1","undefined","1","s","77","0","77","0","0","0","0","0","0","77","0","77","77","77","77","77","Sat Sep 23 12:28:14 2023","1500","The main experiment item","True","FlankerTask.osexp","/Users/baileymcwhirter/Downloads","False","mono","False","18","no","white","no","yes","768","legacy","77","77","/Users/baileymcwhirter/Downloads/BMsubject-2.csv","legacy","Melodramatic Milgram","4.0.5","0","s","NA","h","NA","NA","s","823.0","NA","37737","NA","NA","823","2","legacy","1024","2","48000","-16","experiment","HHSHH","2","even","NA","NA","172697","1178","NA","NA","38936","NA","NA","142034","1132","173723","173826","174650","173722","173826","Flanker Task","74","46089.0","78","1024"
"94","94","588","588","black","legacy","legacy","legacy","congruent","1","undefined","1","h","78","0","78","0","0","0","0","0","0","78","0","78","78","78","78","78","Sat Sep 23 12:28:14 2023","1500","The main experiment item","True","FlankerTask.osexp","/Users/baileymcwhirter/Downloads","False","mono","False","18","no","white","no","yes","768","legacy","78","78","/Users/baileymcwhirter/Downloads/BMsubject-2.csv","legacy","Melodramatic Milgram","4.0.5","0","h","NA","h","NA","NA","h","440.0","NA","37737","NA","NA","440","2","legacy","1024","2","48000","-16","experiment","HHHHH","2","even","NA","NA","174652","1178","NA","NA","38936","NA","NA","142034","1132","175679","175781","176222","175677","175781","Flanker Task","75","46529.0","79","1024"
"95","95","588","588","black","legacy","legacy","legacy","incongruent","1","undefined","1","s","79","0","79","0","0","0","0","0","0","79","0","79","79","79","79","79","Sat Sep 23 12:28:14 2023","1500","The main experiment item","True","FlankerTask.osexp","/Users/baileymcwhirter/Downloads","False","mono","False","18","no","white","no","yes","768","legacy","79","79","/Users/baileymcwhirter/Downloads/BMsubject-2.csv","legacy","Melodramatic Milgram","4.0.5","0","s","NA","h","NA","NA","s","577.0","NA","37737","NA","NA","577","2","legacy","1024","2","48000","-16","experiment","HHSHH","2","even","NA","NA","176224","1178","NA","NA","38936","NA","NA","142034","1132","177259","177363","177941","177257","177363","Flanker Task","76","47106.0","80","1024"
"95","95","590","590","black","legacy","legacy","legacy","incongruent","1","undefined","1","s","80","0","80","0","0","0","0","0","0","80","0","80","80","80","80","80","Sat Sep 23 12:28:14 2023","600","The main experiment item","True","FlankerTask.osexp","/Users/baileymcwhirter/Downloads","False","mono","False","18","no","white","no","yes","768","legacy","0","79","/Users/baileymcwhirter/Downloads/BMsubject-2.csv","legacy","Melodramatic Milgram","4.0.5","0","s","NA","h","s","NA","s","719.0","NA","37737","18173","NA","719","2","legacy","1024","2","48000","-16","experiment","HHSHH","2","even","NA","NA","177943","1178","178949","NA","38936","197123","NA","142034","1132","197149","197250","197970","197147","197250","Flanker Task","77","47825.0","81","1024"
"93","93","588","588","black","legacy","legacy","legacy","incongruent","0","undefined","0","s","81","0","81","0","0","0","0","0","0","81","0","81","81","81","81","81","Sat Sep 23 12:28:14 2023","600","The main experiment item","True","FlankerTask.osexp","/Users/baileymcwhirter/Downloads","False","mono","False","18","no","white","no","yes","768","legacy","1","79","/Users/baileymcwhirter/Downloads/BMsubject-2.csv","legacy","Melodramatic Milgram","4.0.5","0","h","NA","h","s","NA","h","432.0","NA","37737","18173","NA","432","2","legacy","1024","2","48000","-16","experiment","HHSHH","2","even","197972","NA","198474","1178","178949","NA","38936","197123","NA","142034","1132","199500","199604","200036","199498","199604","Flanker Task","77","48257.0","82","1024"
"93","93","586","586","black","legacy","legacy","legacy","incongruent","1","undefined","1","h","82","0","82","0","0","0","0","0","0","82","0","82","82","82","82","82","Sat Sep 23 12:28:14 2023","600","The main experiment item","True","FlankerTask.osexp","/Users/baileymcwhirter/Downloads","False","mono","False","18","no","white","no","yes","768","legacy","2","79","/Users/baileymcwhirter/Downloads/BMsubject-2.csv","legacy","Melodramatic Milgram","4.0.5","0","h","NA","h","s","NA","h","391.0","NA","37737","18173","NA","391","2","legacy","1024","2","48000","-16","experiment","SSHSS","2","even","197972","NA","200541","1178","178949","NA","38936","197123","NA","200039","1132","201575","201677","202069","201573","201677","Flanker Task","78","48648.0","83","1024"
"94","94","583","583","black","legacy","legacy","legacy","congruent","1","undefined","1","s","83","0","83","0","0","0","0","0","0","83","0","83","83","83","83","83","Sat Sep 23 12:28:14 2023","600","The main experiment item","True","FlankerTask.osexp","/Users/baileymcwhirter/Downloads","False","mono","False","18","no","white","no","yes","768","legacy","3","79","/Users/baileymcwhirter/Downloads/BMsubject-2.csv","legacy","Melodramatic Milgram","4.0.5","0","s","NA","h","s","NA","s","335.0","NA","37737","18173","NA","335","2","legacy","1024","2","48000","-16","experiment","SSSSS","2","even","197972","NA","202071","1178","178949","NA","38936","197123","NA","200039","1132","203102","203204","203540","203100","203204","Flanker Task","79","48983.0","84","1024"
"94","94","580","580","black","legacy","legacy","legacy","congruent","1","undefined","1","s","84","0","84","0","0","0","0","0","0","84","0","84","84","84","84","84","Sat Sep 23 12:28:14 2023","600","The main experiment item","True","FlankerTask.osexp","/Users/baileymcwhirter/Downloads","False","mono","False","18","no","white","no","yes","768","legacy","4","79","/Users/baileymcwhirter/Downloads/BMsubject-2.csv","legacy","Melodramatic Milgram","4.0.5","0","s","NA","h","s","NA","s","352.0","NA","37737","18173","NA","352","2","legacy","1024","2","48000","-16","experiment","SSSSS","2","even","197972","NA","203543","1178","178949","NA","38936","197123","NA","200039","1132","204568","204670","205023","204566","204670","Flanker Task","80","49335.0","85","1024"
"94","94","578","578","black","legacy","legacy","legacy","incongruent","1","undefined","1","h","85","0","85","0","0","0","0","0","0","85","0","85","85","85","85","85","Sat Sep 23 12:28:14 2023","600","The main experiment item","True","FlankerTask.osexp","/Users/baileymcwhirter/Downloads","False","mono","False","18","no","white","no","yes","768","legacy","5","79","/Users/baileymcwhirter/Downloads/BMsubject-2.csv","legacy","Melodramatic Milgram","4.0.5","0","h","NA","h","s","NA","h","394.0","NA","37737","18173","NA","394","2","legacy","1024","2","48000","-16","experiment","SSHSS","2","even","197972","NA","205025","1178","178949","NA","38936","197123","NA","200039","1132","206051","206153","206547","206049","206153","Flanker Task","81","49729.0","86","1024"
"93","93","575","575","black","legacy","legacy","legacy","incongruent","0","undefined","0","h","86","0","86","0","0","0","0","0","0","86","0","86","86","86","86","86","Sat Sep 23 12:28:14 2023","600","The main experiment item","True","FlankerTask.osexp","/Users/baileymcwhirter/Downloads","False","mono","False","18","no","white","no","yes","768","legacy","6","79","/Users/baileymcwhirter/Downloads/BMsubject-2.csv","legacy","Melodramatic Milgram","4.0.5","0","s","NA","h","s","NA","s","340.0","NA","37737","18173","NA","340","2","legacy","1024","2","48000","-16","experiment","SSHSS","2","even","197972","NA","206551","1178","178949","NA","38936","197123","NA","200039","1132","207576","207678","208019","207574","207678","Flanker Task","81","50069.0","87","1024"
"93","93","573","573","black","legacy","legacy","legacy","congruent","1","undefined","1","s","87","0","87","0","0","0","0","0","0","87","0","87","87","87","87","87","Sat Sep 23 12:28:14 2023","600","The main experiment item","True","FlankerTask.osexp","/Users/baileymcwhirter/Downloads","False","mono","False","18","no","white","no","yes","768","legacy","7","79","/Users/baileymcwhirter/Downloads/BMsubject-2.csv","legacy","Melodramatic Milgram","4.0.5","0","s","NA","h","s","NA","s","359.0","NA","37737","18173","NA","359","2","legacy","1024","2","48000","-16","experiment","SSSSS","2","even","197972","NA","208526","1178","178949","NA","38936","197123","NA","208021","1132","209552","209655","210015","209550","209655","Flanker Task","82","50428.0","88","1024"
"93","93","571","571","black","legacy","legacy","legacy","congruent","1","undefined","1","h","88","0","88","0","0","0","0","0","0","88","0","88","88","88","88","88","Sat Sep 23 12:28:14 2023","600","The main experiment item","True","FlankerTask.osexp","/Users/baileymcwhirter/Downloads","False","mono","False","18","no","white","no","yes","768","legacy","8","79","/Users/baileymcwhirter/Downloads/BMsubject-2.csv","legacy","Melodramatic Milgram","4.0.5","0","h","NA","h","s","NA","h","422.0","NA","37737","18173","NA","422","2","legacy","1024","2","48000","-16","experiment","HHHHH","2","even","197972","NA","210017","1178","178949","NA","38936","197123","NA","208021","1132","211050","211154","211577","211048","211154","Flanker Task","83","50850.0","89","1024"
"93","93","569","569","black","legacy","legacy","legacy","incongruent","1","undefined","1","s","89","0","89","0","0","0","0","0","0","89","0","89","89","89","89","89","Sat Sep 23 12:28:14 2023","600","The main experiment item","True","FlankerTask.osexp","/Users/baileymcwhirter/Downloads","False","mono","False","18","no","white","no","yes","768","legacy","9","79","/Users/baileymcwhirter/Downloads/BMsubject-2.csv","legacy","Melodramatic Milgram","4.0.5","0","s","NA","h","s","NA","s","419.0","NA","37737","18173","NA","419","2","legacy","1024","2","48000","-16","experiment","HHSHH","2","even","197972","NA","211580","1178","178949","NA","38936","197123","NA","208021","1132","212605","212707","213127","212603","212707","Flanker Task","84","51269.0","90","1024"
"93","93","567","567","black","legacy","legacy","legacy","incongruent","1","undefined","1","h","90","0","90","0","0","0","0","0","0","90","0","90","90","90","90","90","Sat Sep 23 12:28:14 2023","600","The main experiment item","True","FlankerTask.osexp","/Users/baileymcwhirter/Downloads","False","mono","False","18","no","white","no","yes","768","legacy","10","79","/Users/baileymcwhirter/Downloads/BMsubject-2.csv","legacy","Melodramatic Milgram","4.0.5","0","h","NA","h","s","NA","h","405.0","NA","37737","18173","NA","405","2","legacy","1024","2","48000","-16","experiment","SSHSS","2","even","197972","NA","213129","1178","178949","NA","38936","197123","NA","208021","1132","214156","214259","214665","214154","214259","Flanker Task","85","51674.0","91","1024"
"93","93","566","566","black","legacy","legacy","legacy","incongruent","1","undefined","1","h","91","0","91","0","0","0","0","0","0","91","0","91","91","91","91","91","Sat Sep 23 12:28:14 2023","600","The main experiment item","True","FlankerTask.osexp","/Users/baileymcwhirter/Downloads","False","mono","False","18","no","white","no","yes","768","legacy","11","79","/Users/baileymcwhirter/Downloads/BMsubject-2.csv","legacy","Melodramatic Milgram","4.0.5","0","h","NA","h","s","NA","h","465.0","NA","37737","18173","NA","465","2","legacy","1024","2","48000","-16","experiment","SSHSS","2","even","197972","NA","214668","1178","178949","NA","38936","197123","NA","208021","1132","215693","215795","216261","215691","215795","Flanker Task","86","52139.0","92","1024"
"93","93","564","564","black","legacy","legacy","legacy","incongruent","1","undefined","1","s","92","0","92","0","0","0","0","0","0","92","0","92","92","92","92","92","Sat Sep 23 12:28:14 2023","600","The main experiment item","True","FlankerTask.osexp","/Users/baileymcwhirter/Downloads","False","mono","False","18","no","white","no","yes","768","legacy","12","79","/Users/baileymcwhirter/Downloads/BMsubject-2.csv","legacy","Melodramatic Milgram","4.0.5","0","s","NA","h","s","NA","s","378.0","NA","37737","18173","NA","378","2","legacy","1024","2","48000","-16","experiment","HHSHH","2","even","197972","NA","216264","1178","178949","NA","38936","197123","NA","208021","1132","217290","217392","217771","217288","217392","Flanker Task","87","52517.0","93","1024"
"93","93","562","562","black","legacy","legacy","legacy","incongruent","1","undefined","1","h","93","0","93","0","0","0","0","0","0","93","0","93","93","93","93","93","Sat Sep 23 12:28:14 2023","600","The main experiment item","True","FlankerTask.osexp","/Users/baileymcwhirter/Downloads","False","mono","False","18","no","white","no","yes","768","legacy","13","79","/Users/baileymcwhirter/Downloads/BMsubject-2.csv","legacy","Melodramatic Milgram","4.0.5","0","h","NA","h","s","NA","h","360.0","NA","37737","18173","NA","360","2","legacy","1024","2","48000","-16","experiment","SSHSS","2","even","197972","NA","217774","1178","178949","NA","38936","197123","NA","208021","1132","218803","218905","219266","218801","218905","Flanker Task","88","52877.0","94","1024"
"93","93","561","561","black","legacy","legacy","legacy","congruent","1","undefined","1","h","94","0","94","0","0","0","0","0","0","94","0","94","94","94","94","94","Sat Sep 23 12:28:14 2023","600","The main experiment item","True","FlankerTask.osexp","/Users/baileymcwhirter/Downloads","False","mono","False","18","no","white","no","yes","768","legacy","14","79","/Users/baileymcwhirter/Downloads/BMsubject-2.csv","legacy","Melodramatic Milgram","4.0.5","0","h","NA","h","s","NA","h","467.0","NA","37737","18173","NA","467","2","legacy","1024","2","48000","-16","experiment","HHHHH","2","even","197972","NA","219269","1178","178949","NA","38936","197123","NA","208021","1132","220302","220405","220873","220299","220404","Flanker Task","89","53344.0","95","1024"
"93","93","560","560","black","legacy","legacy","legacy","congruent","1","undefined","1","h","95","0","95","0","0","0","0","0","0","95","0","95","95","95","95","95","Sat Sep 23 12:28:14 2023","600","The main experiment item","True","FlankerTask.osexp","/Users/baileymcwhirter/Downloads","False","mono","False","18","no","white","no","yes","768","legacy","15","79","/Users/baileymcwhirter/Downloads/BMsubject-2.csv","legacy","Melodramatic Milgram","4.0.5","0","h","NA","h","s","NA","h","459.0","NA","37737","18173","NA","459","2","legacy","1024","2","48000","-16","experiment","HHHHH","2","even","197972","NA","220875","1178","178949","NA","38936","197123","NA","208021","1132","221900","222002","222462","221898","222002","Flanker Task","90","53803.0","96","1024"
"93","93","559","559","black","legacy","legacy","legacy","congruent","1","undefined","1","h","96","0","96","0","0","0","0","0","0","96","0","96","96","96","96","96","Sat Sep 23 12:28:14 2023","600","The main experiment item","True","FlankerTask.osexp","/Users/baileymcwhirter/Downloads","False","mono","False","18","no","white","no","yes","768","legacy","16","79","/Users/baileymcwhirter/Downloads/BMsubject-2.csv","legacy","Melodramatic Milgram","4.0.5","0","h","NA","h","s","NA","h","426.0","NA","37737","18173","NA","426","2","legacy","1024","2","48000","-16","experiment","HHHHH","2","even","197972","NA","222465","1178","178949","NA","38936","197123","NA","208021","1132","223504","223607","224034","223502","223607","Flanker Task","91","54229.0","97","1024"
"93","93","557","557","black","legacy","legacy","legacy","congruent","1","undefined","1","s","97","0","97","0","0","0","0","0","0","97","0","97","97","97","97","97","Sat Sep 23 12:28:14 2023","600","The main experiment item","True","FlankerTask.osexp","/Users/baileymcwhirter/Downloads","False","mono","False","18","no","white","no","yes","768","legacy","17","79","/Users/baileymcwhirter/Downloads/BMsubject-2.csv","legacy","Melodramatic Milgram","4.0.5","0","s","NA","h","s","NA","s","401.0","NA","37737","18173","NA","401","2","legacy","1024","2","48000","-16","experiment","SSSSS","2","even","197972","NA","224037","1178","178949","NA","38936","197123","NA","208021","1132","225074","225177","225579","225072","225177","Flanker Task","92","54630.0","98","1024"
"93","93","556","556","black","legacy","legacy","legacy","congruent","1","undefined","1","h","98","0","98","0","0","0","0","0","0","98","0","98","98","98","98","98","Sat Sep 23 12:28:14 2023","600","The main experiment item","True","FlankerTask.osexp","/Users/baileymcwhirter/Downloads","False","mono","False","18","no","white","no","yes","768","legacy","18","79","/Users/baileymcwhirter/Downloads/BMsubject-2.csv","legacy","Melodramatic Milgram","4.0.5","0","h","NA","h","s","NA","h","474.0","NA","37737","18173","NA","474","2","legacy","1024","2","48000","-16","experiment","HHHHH","2","even","197972","NA","225581","1178","178949","NA","38936","197123","NA","208021","1132","226615","226718","227193","226612","226718","Flanker Task","93","55104.0","99","1024"
"94","94","554","554","black","legacy","legacy","legacy","congruent","1","undefined","1","s","99","0","99","0","0","0","0","0","0","99","0","99","99","99","99","99","Sat Sep 23 12:28:14 2023","600","The main experiment item","True","FlankerTask.osexp","/Users/baileymcwhirter/Downloads","False","mono","False","18","no","white","no","yes","768","legacy","19","79","/Users/baileymcwhirter/Downloads/BMsubject-2.csv","legacy","Melodramatic Milgram","4.0.5","0","s","NA","h","s","NA","s","337.0","NA","37737","18173","NA","337","2","legacy","1024","2","48000","-16","experiment","SSSSS","2","even","197972","NA","227195","1178","178949","NA","38936","197123","NA","208021","1132","228230","228332","228670","228228","228332","Flanker Task","94","55441.0","100","1024"
"94","94","552","552","black","legacy","legacy","legacy","congruent","1","undefined","1","s","100","0","100","0","0","0","0","0","0","100","0","100","100","100","100","100","Sat Sep 23 12:28:14 2023","600","The main experiment item","True","FlankerTask.osexp","/Users/baileymcwhirter/Downloads","False","mono","False","18","no","white","no","yes","768","legacy","20","79","/Users/baileymcwhirter/Downloads/BMsubject-2.csv","legacy","Melodramatic Milgram","4.0.5","0","s","NA","h","s","NA","s","364.0","NA","37737","18173","NA","364","2","legacy","1024","2","48000","-16","experiment","SSSSS","2","even","197972","NA","228672","1178","178949","NA","38936","197123","NA","208021","1132","229705","229807","230172","229703","229807","Flanker Task","95","55805.0","101","1024"
"93","93","550","550","black","legacy","legacy","legacy","incongruent","0","undefined","0","s","101","0","101","0","0","0","0","0","0","101","0","101","101","101","101","101","Sat Sep 23 12:28:14 2023","600","The main experiment item","True","FlankerTask.osexp","/Users/baileymcwhirter/Downloads","False","mono","False","18","no","white","no","yes","768","legacy","21","79","/Users/baileymcwhirter/Downloads/BMsubject-2.csv","legacy","Melodramatic Milgram","4.0.5","0","h","NA","h","s","NA","h","368.0","NA","37737","18173","NA","368","2","legacy","1024","2","48000","-16","experiment","HHSHH","2","even","197972","NA","230174","1178","178949","NA","38936","197123","NA","208021","1132","231209","231312","231681","231206","231312","Flanker Task","95","56173.0","102","1024"
"93","93","549","549","black","legacy","legacy","legacy","incongruent","1","undefined","1","h","102","0","102","0","0","0","0","0","0","102","0","102","102","102","102","102","Sat Sep 23 12:28:14 2023","600","The main experiment item","True","FlankerTask.osexp","/Users/baileymcwhirter/Downloads","False","mono","False","18","no","white","no","yes","768","legacy","22","79","/Users/baileymcwhirter/Downloads/BMsubject-2.csv","legacy","Melodramatic Milgram","4.0.5","0","h","NA","h","s","NA","h","414.0","NA","37737","18173","NA","414","2","legacy","1024","2","48000","-16","experiment","SSHSS","2","even","197972","NA","232186","1178","178949","NA","38936","197123","NA","231684","1132","233218","233323","233738","233216","233322","Flanker Task","96","56587.0","103","1024"
"93","93","548","548","black","legacy","legacy","legacy","incongruent","1","undefined","1","h","103","0","103","0","0","0","0","0","0","103","0","103","103","103","103","103","Sat Sep 23 12:28:14 2023","600","The main experiment item","True","FlankerTask.osexp","/Users/baileymcwhirter/Downloads","False","mono","False","18","no","white","no","yes","768","legacy","23","79","/Users/baileymcwhirter/Downloads/BMsubject-2.csv","legacy","Melodramatic Milgram","4.0.5","0","h","NA","h","s","NA","h","479.0","NA","37737","18173","NA","479","2","legacy","1024","2","48000","-16","experiment","SSHSS","2","even","197972","NA","233740","1178","178949","NA","38936","197123","NA","231684","1132","234767","234869","235349","234765","234869","Flanker Task","97","57066.0","104","1024"
"93","93","548","548","black","legacy","legacy","legacy","congruent","1","undefined","1","h","104","0","104","0","0","0","0","0","0","104","0","104","104","104","104","104","Sat Sep 23 12:28:14 2023","600","The main experiment item","True","FlankerTask.osexp","/Users/baileymcwhirter/Downloads","False","mono","False","18","no","white","no","yes","768","legacy","24","79","/Users/baileymcwhirter/Downloads/BMsubject-2.csv","legacy","Melodramatic Milgram","4.0.5","0","h","NA","h","s","NA","h","505.0","NA","37737","18173","NA","505","2","legacy","1024","2","48000","-16","experiment","HHHHH","2","even","197972","NA","235352","1178","178949","NA","38936","197123","NA","231684","1132","236378","236481","236987","236376","236481","Flanker Task","98","57571.0","105","1024"
"93","93","549","549","black","legacy","legacy","legacy","congruent","1","undefined","1","s","105","0","105","0","0","0","0","0","0","105","0","105","105","105","105","105","Sat Sep 23 12:28:14 2023","600","The main experiment item","True","FlankerTask.osexp","/Users/baileymcwhirter/Downloads","False","mono","False","18","no","white","no","yes","768","legacy","25","79","/Users/baileymcwhirter/Downloads/BMsubject-2.csv","legacy","Melodramatic Milgram","4.0.5","0","s","NA","h","s","NA","s","626.0","NA","37737","18173","NA","626","2","legacy","1024","2","48000","-16","experiment","SSSSS","2","even","197972","NA","236990","1178","178949","NA","38936","197123","NA","231684","1132","238024","238126","238753","238021","238126","Flanker Task","99","58197.0","106","1024"
"93","93","548","548","black","legacy","legacy","legacy","incongruent","1","undefined","1","h","106","0","106","0","0","0","0","0","0","106","0","106","106","106","106","106","Sat Sep 23 12:28:14 2023","600","The main experiment item","True","FlankerTask.osexp","/Users/baileymcwhirter/Downloads","False","mono","False","18","no","white","no","yes","768","legacy","26","79","/Users/baileymcwhirter/Downloads/BMsubject-2.csv","legacy","Melodramatic Milgram","4.0.5","0","h","NA","h","s","NA","h","534.0","NA","37737","18173","NA","534","2","legacy","1024","2","48000","-16","experiment","SSHSS","2","even","238755","NA","239257","1178","178949","NA","38936","197123","NA","231684","1132","240286","240388","240923","240284","240388","Flanker Task","100","58731.0","107","1024"
"93","93","548","548","black","legacy","legacy","legacy","congruent","1","undefined","1","h","107","0","107","0","0","0","0","0","0","107","0","107","107","107","107","107","Sat Sep 23 12:28:14 2023","600","The main experiment item","True","FlankerTask.osexp","/Users/baileymcwhirter/Downloads","False","mono","False","18","no","white","no","yes","768","legacy","27","79","/Users/baileymcwhirter/Downloads/BMsubject-2.csv","legacy","Melodramatic Milgram","4.0.5","0","h","NA","h","s","NA","h","467.0","NA","37737","18173","NA","467","2","legacy","1024","2","48000","-16","experiment","HHHHH","2","even","238755","NA","240925","1178","178949","NA","38936","197123","NA","231684","1132","241958","242061","242529","241956","242061","Flanker Task","101","59198.0","108","1024"
"93","93","547","547","black","legacy","legacy","legacy","incongruent","1","undefined","1","h","108","0","108","0","0","0","0","0","0","108","0","108","108","108","108","108","Sat Sep 23 12:28:14 2023","600","The main experiment item","True","FlankerTask.osexp","/Users/baileymcwhirter/Downloads","False","mono","False","18","no","white","no","yes","768","legacy","28","79","/Users/baileymcwhirter/Downloads/BMsubject-2.csv","legacy","Melodramatic Milgram","4.0.5","0","h","NA","h","s","NA","h","476.0","NA","37737","18173","NA","476","2","legacy","1024","2","48000","-16","experiment","SSHSS","2","even","238755","NA","242532","1178","178949","NA","38936","197123","NA","231684","1132","243561","243663","244140","243559","243663","Flanker Task","102","59674.0","109","1024"
"93","93","546","546","black","legacy","legacy","legacy","incongruent","1","undefined","1","h","109","0","109","0","0","0","0","0","0","109","0","109","109","109","109","109","Sat Sep 23 12:28:14 2023","600","The main experiment item","True","FlankerTask.osexp","/Users/baileymcwhirter/Downloads","False","mono","False","18","no","white","no","yes","768","legacy","29","79","/Users/baileymcwhirter/Downloads/BMsubject-2.csv","legacy","Melodramatic Milgram","4.0.5","0","h","NA","h","s","NA","h","490.0","NA","37737","18173","NA","490","2","legacy","1024","2","48000","-16","experiment","SSHSS","2","even","238755","NA","244143","1178","178949","NA","38936","197123","NA","231684","1132","245172","245276","245767","245170","245276","Flanker Task","103","60164.0","110","1024"
"93","93","545","545","black","legacy","legacy","legacy","congruent","1","undefined","1","h","110","0","110","0","0","0","0","0","0","110","0","110","110","110","110","110","Sat Sep 23 12:28:14 2023","600","The main experiment item","True","FlankerTask.osexp","/Users/baileymcwhirter/Downloads","False","mono","False","18","no","white","no","yes","768","legacy","30","79","/Users/baileymcwhirter/Downloads/BMsubject-2.csv","legacy","Melodramatic Milgram","4.0.5","0","h","NA","h","s","NA","h","404.0","NA","37737","18173","NA","404","2","legacy","1024","2","48000","-16","experiment","HHHHH","2","even","238755","NA","245770","1178","178949","NA","38936","197123","NA","231684","1132","246799","246903","247308","246797","246903","Flanker Task","104","60568.0","111","1024"
"93","93","544","544","black","legacy","legacy","legacy","incongruent","1","undefined","1","s","111","0","111","0","0","0","0","0","0","111","0","111","111","111","111","111","Sat Sep 23 12:28:14 2023","600","The main experiment item","True","FlankerTask.osexp","/Users/baileymcwhirter/Downloads","False","mono","False","18","no","white","no","yes","768","legacy","31","79","/Users/baileymcwhirter/Downloads/BMsubject-2.csv","legacy","Melodramatic Milgram","4.0.5","0","s","NA","h","s","NA","s","382.0","NA","37737","18173","NA","382","2","legacy","1024","2","48000","-16","experiment","HHSHH","2","even","238755","NA","247311","1178","178949","NA","38936","197123","NA","231684","1132","248340","248444","248827","248338","248444","Flanker Task","105","60950.0","112","1024"
"93","93","543","543","black","legacy","legacy","legacy","congruent","1","undefined","1","s","112","0","112","0","0","0","0","0","0","112","0","112","112","112","112","112","Sat Sep 23 12:28:14 2023","600","The main experiment item","True","FlankerTask.osexp","/Users/baileymcwhirter/Downloads","False","mono","False","18","no","white","no","yes","768","legacy","32","79","/Users/baileymcwhirter/Downloads/BMsubject-2.csv","legacy","Melodramatic Milgram","4.0.5","0","s","NA","h","s","NA","s","490.0","NA","37737","18173","NA","490","2","legacy","1024","2","48000","-16","experiment","SSSSS","2","even","238755","NA","248829","1178","178949","NA","38936","197123","NA","231684","1132","249861","249963","250454","249859","249963","Flanker Task","106","61440.0","113","1024"
"93","93","542","542","black","legacy","legacy","legacy","congruent","1","undefined","1","s","113","0","113","0","0","0","0","0","0","113","0","113","113","113","113","113","Sat Sep 23 12:28:14 2023","600","The main experiment item","True","FlankerTask.osexp","/Users/baileymcwhirter/Downloads","False","mono","False","18","no","white","no","yes","768","legacy","33","79","/Users/baileymcwhirter/Downloads/BMsubject-2.csv","legacy","Melodramatic Milgram","4.0.5","0","s","NA","h","s","NA","s","443.0","NA","37737","18173","NA","443","2","legacy","1024","2","48000","-16","experiment","SSSSS","2","even","238755","NA","250457","1178","178949","NA","38936","197123","NA","231684","1132","251483","251586","252030","251481","251586","Flanker Task","107","61883.0","114","1024"
"93","93","541","541","black","legacy","legacy","legacy","incongruent","1","undefined","1","h","114","0","114","0","0","0","0","0","0","114","0","114","114","114","114","114","Sat Sep 23 12:28:14 2023","600","The main experiment item","True","FlankerTask.osexp","/Users/baileymcwhirter/Downloads","False","mono","False","18","no","white","no","yes","768","legacy","34","79","/Users/baileymcwhirter/Downloads/BMsubject-2.csv","legacy","Melodramatic Milgram","4.0.5","0","h","NA","h","s","NA","h","442.0","NA","37737","18173","NA","442","2","legacy","1024","2","48000","-16","experiment","SSHSS","2","even","238755","NA","252033","1178","178949","NA","38936","197123","NA","231684","1132","253057","253159","253602","253055","253159","Flanker Task","108","62325.0","115","1024"
"93","93","540","540","black","legacy","legacy","legacy","congruent","1","undefined","1","h","115","0","115","0","0","0","0","0","0","115","0","115","115","115","115","115","Sat Sep 23 12:28:14 2023","600","The main experiment item","True","FlankerTask.osexp","/Users/baileymcwhirter/Downloads","False","mono","False","18","no","white","no","yes","768","legacy","35","79","/Users/baileymcwhirter/Downloads/BMsubject-2.csv","legacy","Melodramatic Milgram","4.0.5","0","h","NA","h","s","NA","h","415.0","NA","37737","18173","NA","415","2","legacy","1024","2","48000","-16","experiment","HHHHH","2","even","238755","NA","253604","1178","178949","NA","38936","197123","NA","231684","1132","254639","254743","255159","254637","254743","Flanker Task","109","62740.0","116","1024"
"94","94","539","539","black","legacy","legacy","legacy","incongruent","1","undefined","1","s","116","0","116","0","0","0","0","0","0","116","0","116","116","116","116","116","Sat Sep 23 12:28:14 2023","600","The main experiment item","True","FlankerTask.osexp","/Users/baileymcwhirter/Downloads","False","mono","False","18","no","white","no","yes","768","legacy","36","79","/Users/baileymcwhirter/Downloads/BMsubject-2.csv","legacy","Melodramatic Milgram","4.0.5","0","s","NA","h","s","NA","s","419.0","NA","37737","18173","NA","419","2","legacy","1024","2","48000","-16","experiment","HHSHH","2","even","238755","NA","255161","1178","178949","NA","38936","197123","NA","231684","1132","256188","256290","256710","256186","256290","Flanker Task","110","63159.0","117","1024"
"94","94","539","539","black","legacy","legacy","legacy","incongruent","1","undefined","1","s","117","0","117","0","0","0","0","0","0","117","0","117","117","117","117","117","Sat Sep 23 12:28:14 2023","600","The main experiment item","True","FlankerTask.osexp","/Users/baileymcwhirter/Downloads","False","mono","False","18","no","white","no","yes","768","legacy","37","79","/Users/baileymcwhirter/Downloads/BMsubject-2.csv","legacy","Melodramatic Milgram","4.0.5","0","s","NA","h","s","NA","s","468.0","NA","37737","18173","NA","468","2","legacy","1024","2","48000","-16","experiment","HHSHH","2","even","238755","NA","256712","1178","178949","NA","38936","197123","NA","231684","1132","257738","257840","258309","257736","257840","Flanker Task","111","63627.0","118","1024"
"94","94","538","538","black","legacy","legacy","legacy","incongruent","1","undefined","1","s","118","0","118","0","0","0","0","0","0","118","0","118","118","118","118","118","Sat Sep 23 12:28:14 2023","600","The main experiment item","True","FlankerTask.osexp","/Users/baileymcwhirter/Downloads","False","mono","False","18","no","white","no","yes","768","legacy","38","79","/Users/baileymcwhirter/Downloads/BMsubject-2.csv","legacy","Melodramatic Milgram","4.0.5","0","s","NA","h","s","NA","s","485.0","NA","37737","18173","NA","485","2","legacy","1024","2","48000","-16","experiment","HHSHH","2","even","238755","NA","258311","1178","178949","NA","38936","197123","NA","231684","1132","259340","259443","259929","259338","259443","Flanker Task","112","64112.0","119","1024"
"94","94","537","537","black","legacy","legacy","legacy","congruent","1","undefined","1","s","119","0","119","0","0","0","0","0","0","119","0","119","119","119","119","119","Sat Sep 23 12:28:14 2023","600","The main experiment item","True","FlankerTask.osexp","/Users/baileymcwhirter/Downloads","False","mono","False","18","no","white","no","yes","768","legacy","39","79","/Users/baileymcwhirter/Downloads/BMsubject-2.csv","legacy","Melodramatic Milgram","4.0.5","0","s","NA","h","s","NA","s","425.0","NA","37737","18173","NA","425","2","legacy","1024","2","48000","-16","experiment","SSSSS","2","even","238755","NA","259931","1178","178949","NA","38936","197123","NA","231684","1132","260956","261058","261484","260954","261057","Flanker Task","113","64537.0","120","1024"
"94","94","536","536","black","legacy","legacy","legacy","incongruent","1","undefined","1","h","120","0","120","0","0","0","0","0","0","120","0","120","120","120","120","120","Sat Sep 23 12:28:14 2023","600","The main experiment item","True","FlankerTask.osexp","/Users/baileymcwhirter/Downloads","False","mono","False","18","no","white","no","yes","768","legacy","40","79","/Users/baileymcwhirter/Downloads/BMsubject-2.csv","legacy","Melodramatic Milgram","4.0.5","0","h","NA","h","s","NA","h","435.0","NA","37737","18173","NA","435","2","legacy","1024","2","48000","-16","experiment","SSHSS","2","even","238755","NA","261486","1178","178949","NA","38936","197123","NA","231684","1132","262512","262615","263051","262511","262615","Flanker Task","114","64972.0","121","1024"
"94","94","536","536","black","legacy","legacy","legacy","congruent","1","undefined","1","h","121","0","121","0","0","0","0","0","0","121","0","121","121","121","121","121","Sat Sep 23 12:28:14 2023","600","The main experiment item","True","FlankerTask.osexp","/Users/baileymcwhirter/Downloads","False","mono","False","18","no","white","no","yes","768","legacy","41","79","/Users/baileymcwhirter/Downloads/BMsubject-2.csv","legacy","Melodramatic Milgram","4.0.5","0","h","NA","h","s","NA","h","462.0","NA","37737","18173","NA","462","2","legacy","1024","2","48000","-16","experiment","HHHHH","2","even","238755","NA","263053","1178","178949","NA","38936","197123","NA","231684","1132","264079","264183","264646","264077","264183","Flanker Task","115","65434.0","122","1024"
"94","94","535","535","black","legacy","legacy","legacy","incongruent","1","undefined","1","s","122","0","122","0","0","0","0","0","0","122","0","122","122","122","122","122","Sat Sep 23 12:28:14 2023","600","The main experiment item","True","FlankerTask.osexp","/Users/baileymcwhirter/Downloads","False","mono","False","18","no","white","no","yes","768","legacy","42","79","/Users/baileymcwhirter/Downloads/BMsubject-2.csv","legacy","Melodramatic Milgram","4.0.5","0","s","NA","h","s","NA","s","382.0","NA","37737","18173","NA","382","2","legacy","1024","2","48000","-16","experiment","HHSHH","2","even","238755","NA","264649","1178","178949","NA","38936","197123","NA","231684","1132","265678","265782","266165","265676","265782","Flanker Task","116","65816.0","123","1024"
"94","94","534","534","black","legacy","legacy","legacy","incongruent","1","undefined","1","s","123","0","123","0","0","0","0","0","0","123","0","123","123","123","123","123","Sat Sep 23 12:28:14 2023","600","The main experiment item","True","FlankerTask.osexp","/Users/baileymcwhirter/Downloads","False","mono","False","18","no","white","no","yes","768","legacy","43","79","/Users/baileymcwhirter/Downloads/BMsubject-2.csv","legacy","Melodramatic Milgram","4.0.5","0","s","NA","h","s","NA","s","461.0","NA","37737","18173","NA","461","2","legacy","1024","2","48000","-16","experiment","HHSHH","2","even","238755","NA","266168","1178","178949","NA","38936","197123","NA","231684","1132","267194","267297","267759","267192","267296","Flanker Task","117","66277.0","124","1024"
"93","93","533","533","black","legacy","legacy","legacy","incongruent","0","undefined","0","h","124","0","124","0","0","0","0","0","0","124","0","124","124","124","124","124","Sat Sep 23 12:28:14 2023","600","The main experiment item","True","FlankerTask.osexp","/Users/baileymcwhirter/Downloads","False","mono","False","18","no","white","no","yes","768","legacy","44","79","/Users/baileymcwhirter/Downloads/BMsubject-2.csv","legacy","Melodramatic Milgram","4.0.5","0","s","NA","h","s","NA","s","437.0","NA","37737","18173","NA","437","2","legacy","1024","2","48000","-16","experiment","SSHSS","2","even","238755","NA","267762","1178","178949","NA","38936","197123","NA","231684","1132","268789","268892","269330","268787","268892","Flanker Task","117","66714.0","125","1024"
"93","93","532","532","black","legacy","legacy","legacy","congruent","1","undefined","1","s","125","0","125","0","0","0","0","0","0","125","0","125","125","125","125","125","Sat Sep 23 12:28:14 2023","600","The main experiment item","True","FlankerTask.osexp","/Users/baileymcwhirter/Downloads","False","mono","False","18","no","white","no","yes","768","legacy","45","79","/Users/baileymcwhirter/Downloads/BMsubject-2.csv","legacy","Melodramatic Milgram","4.0.5","0","s","NA","h","s","NA","s","383.0","NA","37737","18173","NA","383","2","legacy","1024","2","48000","-16","experiment","SSSSS","2","even","238755","NA","269835","1178","178949","NA","38936","197123","NA","269333","1132","270861","270963","271347","270859","270963","Flanker Task","118","67097.0","126","1024"
"93","93","531","531","black","legacy","legacy","legacy","congruent","1","undefined","1","h","126","0","126","0","0","0","0","0","0","126","0","126","126","126","126","126","Sat Sep 23 12:28:14 2023","600","The main experiment item","True","FlankerTask.osexp","/Users/baileymcwhirter/Downloads","False","mono","False","18","no","white","no","yes","768","legacy","46","79","/Users/baileymcwhirter/Downloads/BMsubject-2.csv","legacy","Melodramatic Milgram","4.0.5","0","h","NA","h","s","NA","h","443.0","NA","37737","18173","NA","443","2","legacy","1024","2","48000","-16","experiment","HHHHH","2","even","238755","NA","271350","1178","178949","NA","38936","197123","NA","269333","1132","272375","272477","272921","272373","272477","Flanker Task","119","67540.0","127","1024"
"93","93","531","531","black","legacy","legacy","legacy","incongruent","1","undefined","1","h","127","0","127","0","0","0","0","0","0","127","0","127","127","127","127","127","Sat Sep 23 12:28:14 2023","600","The main experiment item","True","FlankerTask.osexp","/Users/baileymcwhirter/Downloads","False","mono","False","18","no","white","no","yes","768","legacy","47","79","/Users/baileymcwhirter/Downloads/BMsubject-2.csv","legacy","Melodramatic Milgram","4.0.5","0","h","NA","h","s","NA","h","480.0","NA","37737","18173","NA","480","2","legacy","1024","2","48000","-16","experiment","SSHSS","2","even","238755","NA","272924","1178","178949","NA","38936","197123","NA","269333","1132","273950","274051","274532","273948","274051","Flanker Task","120","68020.0","128","1024"
"93","93","531","531","black","legacy","legacy","legacy","incongruent","1","undefined","1","s","128","0","128","0","0","0","0","0","0","128","0","128","128","128","128","128","Sat Sep 23 12:28:14 2023","600","The main experiment item","True","FlankerTask.osexp","/Users/baileymcwhirter/Downloads","False","mono","False","18","no","white","no","yes","768","legacy","48","79","/Users/baileymcwhirter/Downloads/BMsubject-2.csv","legacy","Melodramatic Milgram","4.0.5","0","s","NA","h","s","NA","s","482.0","NA","37737","18173","NA","482","2","legacy","1024","2","48000","-16","experiment","HHSHH","2","even","238755","NA","274535","1178","178949","NA","38936","197123","NA","269333","1132","275560","275662","276145","275558","275662","Flanker Task","121","68502.0","129","1024"
"93","93","530","530","black","legacy","legacy","legacy","incongruent","1","undefined","1","s","129","0","129","0","0","0","0","0","0","129","0","129","129","129","129","129","Sat Sep 23 12:28:14 2023","600","The main experiment item","True","FlankerTask.osexp","/Users/baileymcwhirter/Downloads","False","mono","False","18","no","white","no","yes","768","legacy","49","79","/Users/baileymcwhirter/Downloads/BMsubject-2.csv","legacy","Melodramatic Milgram","4.0.5","0","s","NA","h","s","NA","s","511.0","NA","37737","18173","NA","511","2","legacy","1024","2","48000","-16","experiment","HHSHH","2","even","238755","NA","276148","1178","178949","NA","38936","197123","NA","269333","1132","277175","277278","277790","277173","277278","Flanker Task","122","69013.0","130","1024"
