acc,accuracy,average_response_time,avg_rt,background,canvas_backend,clock_backend,color_backend,condition,correct,correct_instructions1,correct_keyboard_response,correct_response,count_ISI,count_block1,count_block2,count_block3,count_errorFeedback,count_experiment,count_faster,count_fixation,count_getting_started,count_instructions1,count_instructions2,count_instructions3,count_keyboard_response,count_logger,count_new_sketchpad,count_sequence,count_stimulus,count_welcome,datetime,deadline,description,disable_garbage_collection,experiment_file,experiment_path,font_bold,font_family,font_italic,font_size,font_underline,foreground,form_clicks,fullscreen,height,keyboard_backend,live_row,live_row_block1,logfile,mouse_backend,opensesame_codename,opensesame_version,repeat_cycle,response,response_instructions1,response_instructions2,response_instructions3,response_keyboard_response,response_new_sketchpad,response_time,response_time_instructions1,response_time_instructions2,response_time_instructions3,response_time_keyboard_response,response_time_new_sketchpad,response_time_welcome,response_welcome,round_decimals,sampler_backend,sound_buf_size,sound_channels,sound_freq,sound_sample_size,start,stimulus,subject_nr,subject_parity,time_ISI,time_block1,time_block2,time_block3,time_errorFeedback,time_experiment,time_faster,time_fixation,time_getting_started,time_instructions1,time_instructions2,time_instructions3,time_keyboard_response,time_logger,time_new_sketchpad,time_sequence,time_stimulus,time_welcome,title,total_correct,total_response_time,total_responses,width
100,100,978,978,#3d3846,legacy,legacy,legacy,incongruent,1,undefined,1,s,0,0,0,0,0,0,0,0,NA,0,0,0,0,0,0,0,0,NA,Sun Sep 24 20:47:26 2023,1500,The main experiment item,FALSE,FlankerTask.osexp,C:\Users\backs\OneDrive\Documents,FALSE,mono,FALSE,18,no,white,no,yes,768,legacy,0,0,C:/Users/backs/OneDrive/Documents/BZ-subject-4.csv,legacy,Melodramatic Milgram,4.0.5,0,s,s,NA,NA,s,NA,978,37746,NA,NA,978,NA,NA,NA,2,legacy,1024,2,48000,-16,experiment,HHSHH,4,even,NA,41384,NA,NA,NA,3633,NA,41460,NA,3636,NA,NA,41561,42540,NA,41458,41561,NA,Flanker Task ,1,978,1,1024
100,100,770,770,#3d3846,legacy,legacy,legacy,congruent,1,undefined,1,h,1,0,0,0,1,0,1,1,NA,0,0,0,1,1,0,1,1,NA,Sun Sep 24 20:47:26 2023,1500,The main experiment item,FALSE,FlankerTask.osexp,C:\Users\backs\OneDrive\Documents,FALSE,mono,FALSE,18,no,white,no,yes,768,legacy,1,1,C:/Users/backs/OneDrive/Documents/BZ-subject-4.csv,legacy,Melodramatic Milgram,4.0.5,0,h,s,NA,NA,h,NA,562,37746,NA,NA,562,NA,NA,NA,2,legacy,1024,2,48000,-16,experiment,HHHHH,4,even,42547,41384,NA,NA,NA,3633,NA,43614,NA,3636,NA,NA,43715,44277,NA,43612,43715,NA,Flanker Task ,2,1540,2,1024
100,100,715,715,#3d3846,legacy,legacy,legacy,incongruent,1,undefined,1,s,2,0,0,0,2,0,2,2,NA,0,0,0,2,2,0,2,2,NA,Sun Sep 24 20:47:26 2023,1500,The main experiment item,FALSE,FlankerTask.osexp,C:\Users\backs\OneDrive\Documents,FALSE,mono,FALSE,18,no,white,no,yes,768,legacy,2,2,C:/Users/backs/OneDrive/Documents/BZ-subject-4.csv,legacy,Melodramatic Milgram,4.0.5,0,s,s,NA,NA,s,NA,607,37746,NA,NA,607,NA,NA,NA,2,legacy,1024,2,48000,-16,experiment,HHSHH,4,even,44280,41384,NA,NA,NA,3633,NA,45356,NA,3636,NA,NA,45457,46064,NA,45353,45457,NA,Flanker Task ,3,2147,3,1024
100,100,678,678,#3d3846,legacy,legacy,legacy,incongruent,1,undefined,1,h,3,0,0,0,3,0,3,3,NA,0,0,0,3,3,0,3,3,NA,Sun Sep 24 20:47:26 2023,1500,The main experiment item,FALSE,FlankerTask.osexp,C:\Users\backs\OneDrive\Documents,FALSE,mono,FALSE,18,no,white,no,yes,768,legacy,3,3,C:/Users/backs/OneDrive/Documents/BZ-subject-4.csv,legacy,Melodramatic Milgram,4.0.5,0,h,s,NA,NA,h,NA,568,37746,NA,NA,568,NA,NA,NA,2,legacy,1024,2,48000,-16,experiment,SSHSS,4,even,46068,41384,NA,NA,NA,3633,NA,47132,NA,3636,NA,NA,47233,47802,NA,47130,47233,NA,Flanker Task ,4,2715,4,1024
100,100,662,662,#3d3846,legacy,legacy,legacy,incongruent,1,undefined,1,s,4,0,0,0,4,0,4,4,NA,0,0,0,4,4,0,4,4,NA,Sun Sep 24 20:47:26 2023,1500,The main experiment item,FALSE,FlankerTask.osexp,C:\Users\backs\OneDrive\Documents,FALSE,mono,FALSE,18,no,white,no,yes,768,legacy,4,4,C:/Users/backs/OneDrive/Documents/BZ-subject-4.csv,legacy,Melodramatic Milgram,4.0.5,0,s,s,NA,NA,s,NA,597,37746,NA,NA,597,NA,NA,NA,2,legacy,1024,2,48000,-16,experiment,HHSHH,4,even,47806,41384,NA,NA,NA,3633,NA,48874,NA,3636,NA,NA,48975,49572,NA,48872,48975,NA,Flanker Task ,5,3312,5,1024
100,100,636,636,#3d3846,legacy,legacy,legacy,congruent,1,undefined,1,s,5,0,0,0,5,0,5,5,NA,0,0,0,5,5,0,5,5,NA,Sun Sep 24 20:47:26 2023,1500,The main experiment item,FALSE,FlankerTask.osexp,C:\Users\backs\OneDrive\Documents,FALSE,mono,FALSE,18,no,white,no,yes,768,legacy,5,5,C:/Users/backs/OneDrive/Documents/BZ-subject-4.csv,legacy,Melodramatic Milgram,4.0.5,0,s,s,NA,NA,s,NA,509,37746,NA,NA,509,NA,NA,NA,2,legacy,1024,2,48000,-16,experiment,SSSSS,4,even,49576,41384,NA,NA,NA,3633,NA,50647,NA,3636,NA,NA,50749,51259,NA,50645,50749,NA,Flanker Task ,6,3821,6,1024
100,100,623,623,#3d3846,legacy,legacy,legacy,incongruent,1,undefined,1,s,6,0,0,0,6,0,6,6,NA,0,0,0,6,6,0,6,6,NA,Sun Sep 24 20:47:26 2023,1500,The main experiment item,FALSE,FlankerTask.osexp,C:\Users\backs\OneDrive\Documents,FALSE,mono,FALSE,18,no,white,no,yes,768,legacy,6,6,C:/Users/backs/OneDrive/Documents/BZ-subject-4.csv,legacy,Melodramatic Milgram,4.0.5,0,s,s,NA,NA,s,NA,541,37746,NA,NA,541,NA,NA,NA,2,legacy,1024,2,48000,-16,experiment,HHSHH,4,even,51263,41384,NA,NA,NA,3633,NA,52349,NA,3636,NA,NA,52451,52993,NA,52346,52451,NA,Flanker Task ,7,4362,7,1024
100,100,619,619,#3d3846,legacy,legacy,legacy,congruent,1,undefined,1,h,7,0,0,0,7,0,7,7,NA,0,0,0,7,7,0,7,7,NA,Sun Sep 24 20:47:26 2023,1500,The main experiment item,FALSE,FlankerTask.osexp,C:\Users\backs\OneDrive\Documents,FALSE,mono,FALSE,18,no,white,no,yes,768,legacy,7,7,C:/Users/backs/OneDrive/Documents/BZ-subject-4.csv,legacy,Melodramatic Milgram,4.0.5,0,h,s,NA,NA,h,NA,595,37746,NA,NA,595,NA,NA,NA,2,legacy,1024,2,48000,-16,experiment,HHHHH,4,even,52996,41384,NA,NA,NA,3633,NA,54082,NA,3636,NA,NA,54184,54780,NA,54080,54184,NA,Flanker Task ,8,4957,8,1024
100,100,617,617,#3d3846,legacy,legacy,legacy,congruent,1,undefined,1,h,8,0,0,0,8,0,8,8,NA,0,0,0,8,8,0,8,8,NA,Sun Sep 24 20:47:26 2023,1500,The main experiment item,FALSE,FlankerTask.osexp,C:\Users\backs\OneDrive\Documents,FALSE,mono,FALSE,18,no,white,no,yes,768,legacy,8,8,C:/Users/backs/OneDrive/Documents/BZ-subject-4.csv,legacy,Melodramatic Milgram,4.0.5,0,h,s,NA,NA,h,NA,603,37746,NA,NA,603,NA,NA,NA,2,legacy,1024,2,48000,-16,experiment,HHHHH,4,even,54784,41384,NA,NA,NA,3633,NA,55860,NA,3636,NA,NA,55962,56565,NA,55858,55962,NA,Flanker Task ,9,5560,9,1024
100,100,608,608,#3d3846,legacy,legacy,legacy,congruent,1,undefined,1,s,9,0,0,0,9,0,9,9,NA,0,0,0,9,9,0,9,9,NA,Sun Sep 24 20:47:26 2023,1500,The main experiment item,FALSE,FlankerTask.osexp,C:\Users\backs\OneDrive\Documents,FALSE,mono,FALSE,18,no,white,no,yes,768,legacy,9,9,C:/Users/backs/OneDrive/Documents/BZ-subject-4.csv,legacy,Melodramatic Milgram,4.0.5,0,s,s,NA,NA,s,NA,523,37746,NA,NA,523,NA,NA,NA,2,legacy,1024,2,48000,-16,experiment,SSSSS,4,even,56570,41384,NA,NA,NA,3633,NA,57645,NA,3636,NA,NA,57746,58270,NA,57643,57746,NA,Flanker Task ,10,6083,10,1024
100,100,596,596,#3d3846,legacy,legacy,legacy,incongruent,1,undefined,1,s,10,0,0,0,10,0,10,10,NA,0,0,0,10,10,0,10,10,NA,Sun Sep 24 20:47:26 2023,1500,The main experiment item,FALSE,FlankerTask.osexp,C:\Users\backs\OneDrive\Documents,FALSE,mono,FALSE,18,no,white,no,yes,768,legacy,10,10,C:/Users/backs/OneDrive/Documents/BZ-subject-4.csv,legacy,Melodramatic Milgram,4.0.5,0,s,s,NA,NA,s,NA,479,37746,NA,NA,479,NA,NA,NA,2,legacy,1024,2,48000,-16,experiment,HHSHH,4,even,58273,41384,NA,NA,NA,3633,NA,59344,NA,3636,NA,NA,59445,59925,NA,59342,59445,NA,Flanker Task ,11,6562,11,1024
100,100,586,586,#3d3846,legacy,legacy,legacy,incongruent,1,undefined,1,s,11,0,0,0,11,0,11,11,NA,0,0,0,11,11,0,11,11,NA,Sun Sep 24 20:47:26 2023,1500,The main experiment item,FALSE,FlankerTask.osexp,C:\Users\backs\OneDrive\Documents,FALSE,mono,FALSE,18,no,white,no,yes,768,legacy,11,11,C:/Users/backs/OneDrive/Documents/BZ-subject-4.csv,legacy,Melodramatic Milgram,4.0.5,0,s,s,NA,NA,s,NA,481,37746,NA,NA,481,NA,NA,NA,2,legacy,1024,2,48000,-16,experiment,HHSHH,4,even,59930,41384,NA,NA,NA,3633,NA,61029,NA,3636,NA,NA,61131,61613,NA,61027,61131,NA,Flanker Task ,12,7043,12,1024
100,100,573,573,#3d3846,legacy,legacy,legacy,congruent,1,undefined,1,s,12,0,0,0,12,0,12,12,NA,0,0,0,12,12,0,12,12,NA,Sun Sep 24 20:47:26 2023,1500,The main experiment item,FALSE,FlankerTask.osexp,C:\Users\backs\OneDrive\Documents,FALSE,mono,FALSE,18,no,white,no,yes,768,legacy,12,12,C:/Users/backs/OneDrive/Documents/BZ-subject-4.csv,legacy,Melodramatic Milgram,4.0.5,0,s,s,NA,NA,s,NA,414,37746,NA,NA,414,NA,NA,NA,2,legacy,1024,2,48000,-16,experiment,SSSSS,4,even,61616,41384,NA,NA,NA,3633,NA,62697,NA,3636,NA,NA,62800,63215,NA,62695,62799,NA,Flanker Task ,13,7457,13,1024
100,100,562,562,#3d3846,legacy,legacy,legacy,congruent,1,undefined,1,s,13,0,0,0,13,0,13,13,NA,0,0,0,13,13,0,13,13,NA,Sun Sep 24 20:47:26 2023,1500,The main experiment item,FALSE,FlankerTask.osexp,C:\Users\backs\OneDrive\Documents,FALSE,mono,FALSE,18,no,white,no,yes,768,legacy,13,13,C:/Users/backs/OneDrive/Documents/BZ-subject-4.csv,legacy,Melodramatic Milgram,4.0.5,0,s,s,NA,NA,s,NA,411,37746,NA,NA,411,NA,NA,NA,2,legacy,1024,2,48000,-16,experiment,SSSSS,4,even,63219,41384,NA,NA,NA,3633,NA,64314,NA,3636,NA,NA,64416,64828,NA,64311,64416,NA,Flanker Task ,14,7868,14,1024
100,100,560,560,#3d3846,legacy,legacy,legacy,incongruent,1,undefined,1,s,14,0,0,0,14,0,14,14,NA,0,0,0,14,14,0,14,14,NA,Sun Sep 24 20:47:26 2023,1500,The main experiment item,FALSE,FlankerTask.osexp,C:\Users\backs\OneDrive\Documents,FALSE,mono,FALSE,18,no,white,no,yes,768,legacy,14,14,C:/Users/backs/OneDrive/Documents/BZ-subject-4.csv,legacy,Melodramatic Milgram,4.0.5,0,s,s,NA,NA,s,NA,537,37746,NA,NA,537,NA,NA,NA,2,legacy,1024,2,48000,-16,experiment,HHSHH,4,even,64834,41384,NA,NA,NA,3633,NA,65926,NA,3636,NA,NA,66028,66566,NA,65923,66028,NA,Flanker Task ,15,8405,15,1024
100,100,554,554,#3d3846,legacy,legacy,legacy,incongruent,1,undefined,1,s,15,0,0,0,15,0,15,15,NA,0,0,0,15,15,0,15,15,NA,Sun Sep 24 20:47:26 2023,1500,The main experiment item,FALSE,FlankerTask.osexp,C:\Users\backs\OneDrive\Documents,FALSE,mono,FALSE,18,no,white,no,yes,768,legacy,15,15,C:/Users/backs/OneDrive/Documents/BZ-subject-4.csv,legacy,Melodramatic Milgram,4.0.5,0,s,s,NA,NA,s,NA,464,37746,NA,NA,464,NA,NA,NA,2,legacy,1024,2,48000,-16,experiment,HHSHH,4,even,66569,41384,NA,NA,NA,3633,NA,67622,NA,3636,NA,NA,67723,68188,NA,67620,67723,NA,Flanker Task ,16,8869,16,1024
100,100,551,551,#3d3846,legacy,legacy,legacy,congruent,1,undefined,1,s,16,0,0,0,16,0,16,16,NA,0,0,0,16,16,0,16,16,NA,Sun Sep 24 20:47:26 2023,1500,The main experiment item,FALSE,FlankerTask.osexp,C:\Users\backs\OneDrive\Documents,FALSE,mono,FALSE,18,no,white,no,yes,768,legacy,16,16,C:/Users/backs/OneDrive/Documents/BZ-subject-4.csv,legacy,Melodramatic Milgram,4.0.5,0,s,s,NA,NA,s,NA,501,37746,NA,NA,501,NA,NA,NA,2,legacy,1024,2,48000,-16,experiment,SSSSS,4,even,68192,41384,NA,NA,NA,3633,NA,69266,NA,3636,NA,NA,69368,69869,NA,69264,69367,NA,Flanker Task ,17,9370,17,1024
100,100,555,555,#3d3846,legacy,legacy,legacy,incongruent,1,undefined,1,h,17,0,0,0,17,0,17,17,NA,0,0,0,17,17,0,17,17,NA,Sun Sep 24 20:47:26 2023,1500,The main experiment item,FALSE,FlankerTask.osexp,C:\Users\backs\OneDrive\Documents,FALSE,mono,FALSE,18,no,white,no,yes,768,legacy,17,17,C:/Users/backs/OneDrive/Documents/BZ-subject-4.csv,legacy,Melodramatic Milgram,4.0.5,0,h,s,NA,NA,h,NA,629,37746,NA,NA,629,NA,NA,NA,2,legacy,1024,2,48000,-16,experiment,SSHSS,4,even,69873,41384,NA,NA,NA,3633,NA,70953,NA,3636,NA,NA,71055,71685,NA,70951,71055,NA,Flanker Task ,18,9999,18,1024
100,100,551,551,#3d3846,legacy,legacy,legacy,congruent,1,undefined,1,h,18,0,0,0,18,0,18,18,NA,0,0,0,18,18,0,18,18,NA,Sun Sep 24 20:47:26 2023,1500,The main experiment item,FALSE,FlankerTask.osexp,C:\Users\backs\OneDrive\Documents,FALSE,mono,FALSE,18,no,white,no,yes,768,legacy,18,18,C:/Users/backs/OneDrive/Documents/BZ-subject-4.csv,legacy,Melodramatic Milgram,4.0.5,0,h,s,NA,NA,h,NA,482,37746,NA,NA,482,NA,NA,NA,2,legacy,1024,2,48000,-16,experiment,HHHHH,4,even,71688,41384,NA,NA,NA,3633,NA,72758,NA,3636,NA,NA,72859,73342,NA,72756,72859,NA,Flanker Task ,19,10481,19,1024
100,100,548,548,#3d3846,legacy,legacy,legacy,incongruent,1,undefined,1,h,19,0,0,0,19,0,19,19,NA,0,0,0,19,19,0,19,19,NA,Sun Sep 24 20:47:26 2023,1500,The main experiment item,FALSE,FlankerTask.osexp,C:\Users\backs\OneDrive\Documents,FALSE,mono,FALSE,18,no,white,no,yes,768,legacy,19,19,C:/Users/backs/OneDrive/Documents/BZ-subject-4.csv,legacy,Melodramatic Milgram,4.0.5,0,h,s,NA,NA,h,NA,488,37746,NA,NA,488,NA,NA,NA,2,legacy,1024,2,48000,-16,experiment,SSHSS,4,even,73347,41384,NA,NA,NA,3633,NA,74422,NA,3636,NA,NA,74524,75013,NA,74420,74524,NA,Flanker Task ,20,10969,20,1024
100,100,543,543,#3d3846,legacy,legacy,legacy,incongruent,1,undefined,1,h,20,0,0,0,20,0,20,20,NA,0,0,0,20,20,0,20,20,NA,Sun Sep 24 20:47:26 2023,1500,The main experiment item,FALSE,FlankerTask.osexp,C:\Users\backs\OneDrive\Documents,FALSE,mono,FALSE,18,no,white,no,yes,768,legacy,20,20,C:/Users/backs/OneDrive/Documents/BZ-subject-4.csv,legacy,Melodramatic Milgram,4.0.5,0,h,s,NA,NA,h,NA,454,37746,NA,NA,454,NA,NA,NA,2,legacy,1024,2,48000,-16,experiment,SSHSS,4,even,75017,41384,NA,NA,NA,3633,NA,76114,NA,3636,NA,NA,76216,76670,NA,76112,76215,NA,Flanker Task ,21,11423,21,1024
100,100,543,543,#3d3846,legacy,legacy,legacy,incongruent,1,undefined,1,s,21,0,0,0,21,0,21,21,NA,0,0,0,21,21,0,21,21,NA,Sun Sep 24 20:47:26 2023,1500,The main experiment item,FALSE,FlankerTask.osexp,C:\Users\backs\OneDrive\Documents,FALSE,mono,FALSE,18,no,white,no,yes,768,legacy,21,21,C:/Users/backs/OneDrive/Documents/BZ-subject-4.csv,legacy,Melodramatic Milgram,4.0.5,0,s,s,NA,NA,s,NA,536,37746,NA,NA,536,NA,NA,NA,2,legacy,1024,2,48000,-16,experiment,HHSHH,4,even,76674,41384,NA,NA,NA,3633,NA,77756,NA,3636,NA,NA,77858,78395,NA,77754,77857,NA,Flanker Task ,22,11959,22,1024
100,100,549,549,#3d3846,legacy,legacy,legacy,incongruent,1,undefined,1,s,22,0,0,0,22,0,22,22,NA,0,0,0,22,22,0,22,22,NA,Sun Sep 24 20:47:26 2023,1500,The main experiment item,FALSE,FlankerTask.osexp,C:\Users\backs\OneDrive\Documents,FALSE,mono,FALSE,18,no,white,no,yes,768,legacy,22,22,C:/Users/backs/OneDrive/Documents/BZ-subject-4.csv,legacy,Melodramatic Milgram,4.0.5,0,s,s,NA,NA,s,NA,668,37746,NA,NA,668,NA,NA,NA,2,legacy,1024,2,48000,-16,experiment,HHSHH,4,even,78399,41384,NA,NA,NA,3633,NA,79474,NA,3636,NA,NA,79575,80243,NA,79472,79575,NA,Flanker Task ,23,12627,23,1024
100,100,548,548,#3d3846,legacy,legacy,legacy,incongruent,1,undefined,1,h,23,0,0,0,23,0,23,23,NA,0,0,0,23,23,0,23,23,NA,Sun Sep 24 20:47:26 2023,1500,The main experiment item,FALSE,FlankerTask.osexp,C:\Users\backs\OneDrive\Documents,FALSE,mono,FALSE,18,no,white,no,yes,768,legacy,23,23,C:/Users/backs/OneDrive/Documents/BZ-subject-4.csv,legacy,Melodramatic Milgram,4.0.5,0,h,s,NA,NA,h,NA,541,37746,NA,NA,541,NA,NA,NA,2,legacy,1024,2,48000,-16,experiment,SSHSS,4,even,80247,41384,NA,NA,NA,3633,NA,81326,NA,3636,NA,NA,81428,81969,NA,81324,81428,NA,Flanker Task ,24,13168,24,1024
100,100,547,547,#3d3846,legacy,legacy,legacy,congruent,1,undefined,1,h,24,0,0,0,24,0,24,24,NA,0,0,0,24,24,0,24,24,NA,Sun Sep 24 20:47:26 2023,1500,The main experiment item,FALSE,FlankerTask.osexp,C:\Users\backs\OneDrive\Documents,FALSE,mono,FALSE,18,no,white,no,yes,768,legacy,24,24,C:/Users/backs/OneDrive/Documents/BZ-subject-4.csv,legacy,Melodramatic Milgram,4.0.5,0,h,s,NA,NA,h,NA,518,37746,NA,NA,518,NA,NA,NA,2,legacy,1024,2,48000,-16,experiment,HHHHH,4,even,81974,41384,NA,NA,NA,3633,NA,83049,NA,3636,NA,NA,83151,83670,NA,83047,83151,NA,Flanker Task ,25,13686,25,1024
100,100,545,545,#3d3846,legacy,legacy,legacy,congruent,1,undefined,1,h,25,0,0,0,25,0,25,25,NA,0,0,0,25,25,0,25,25,NA,Sun Sep 24 20:47:26 2023,1500,The main experiment item,FALSE,FlankerTask.osexp,C:\Users\backs\OneDrive\Documents,FALSE,mono,FALSE,18,no,white,no,yes,768,legacy,25,25,C:/Users/backs/OneDrive/Documents/BZ-subject-4.csv,legacy,Melodramatic Milgram,4.0.5,0,h,s,NA,NA,h,NA,486,37746,NA,NA,486,NA,NA,NA,2,legacy,1024,2,48000,-16,experiment,HHHHH,4,even,83674,41384,NA,NA,NA,3633,NA,84747,NA,3636,NA,NA,84849,85336,NA,84745,84848,NA,Flanker Task ,26,14172,26,1024
96,96,542,542,#3d3846,legacy,legacy,legacy,incongruent,0,undefined,0,h,26,0,0,0,26,0,26,26,NA,0,0,0,26,26,0,26,26,NA,Sun Sep 24 20:47:26 2023,1500,The main experiment item,FALSE,FlankerTask.osexp,C:\Users\backs\OneDrive\Documents,FALSE,mono,FALSE,18,no,white,no,yes,768,legacy,26,26,C:/Users/backs/OneDrive/Documents/BZ-subject-4.csv,legacy,Melodramatic Milgram,4.0.5,0,s,s,NA,NA,s,NA,475,37746,NA,NA,475,NA,NA,NA,2,legacy,1024,2,48000,-16,experiment,SSHSS,4,even,85341,41384,NA,NA,NA,3633,NA,86433,NA,3636,NA,NA,86535,87010,NA,86431,86535,NA,Flanker Task ,26,14647,27,1024
96,96,541,541,#3d3846,legacy,legacy,legacy,incongruent,1,undefined,1,s,27,0,0,0,27,0,27,27,NA,0,0,0,27,27,0,27,27,NA,Sun Sep 24 20:47:26 2023,1500,The main experiment item,FALSE,FlankerTask.osexp,C:\Users\backs\OneDrive\Documents,FALSE,mono,FALSE,18,no,white,no,yes,768,legacy,27,27,C:/Users/backs/OneDrive/Documents/BZ-subject-4.csv,legacy,Melodramatic Milgram,4.0.5,0,s,s,NA,NA,s,NA,511,37746,NA,NA,511,NA,NA,NA,2,legacy,1024,2,48000,-16,experiment,HHSHH,4,even,87516,41384,NA,NA,87014,3633,NA,88589,NA,3636,NA,NA,88690,89202,NA,88587,88690,NA,Flanker Task ,27,15158,28,1024
93,93,535,535,#3d3846,legacy,legacy,legacy,incongruent,0,undefined,0,h,28,0,0,0,28,0,28,28,NA,0,0,0,28,28,0,28,28,NA,Sun Sep 24 20:47:26 2023,1500,The main experiment item,FALSE,FlankerTask.osexp,C:\Users\backs\OneDrive\Documents,FALSE,mono,FALSE,18,no,white,no,yes,768,legacy,28,28,C:/Users/backs/OneDrive/Documents/BZ-subject-4.csv,legacy,Melodramatic Milgram,4.0.5,0,s,s,NA,NA,s,NA,385,37746,NA,NA,385,NA,NA,NA,2,legacy,1024,2,48000,-16,experiment,SSHSS,4,even,89207,41384,NA,NA,87014,3633,NA,90284,NA,3636,NA,NA,90385,90771,NA,90282,90385,NA,Flanker Task ,27,15543,29,1024
93,93,536,536,#3d3846,legacy,legacy,legacy,incongruent,1,undefined,1,h,29,0,0,0,29,0,29,29,NA,0,0,0,29,29,0,29,29,NA,Sun Sep 24 20:47:26 2023,1500,The main experiment item,FALSE,FlankerTask.osexp,C:\Users\backs\OneDrive\Documents,FALSE,mono,FALSE,18,no,white,no,yes,768,legacy,29,29,C:/Users/backs/OneDrive/Documents/BZ-subject-4.csv,legacy,Melodramatic Milgram,4.0.5,0,h,s,NA,NA,h,NA,559,37746,NA,NA,559,NA,NA,NA,2,legacy,1024,2,48000,-16,experiment,SSHSS,4,even,91277,41384,NA,NA,90775,3633,NA,92372,NA,3636,NA,NA,92474,93034,NA,92370,92474,NA,Flanker Task ,28,16102,30,1024
93,93,537,537,#3d3846,legacy,legacy,legacy,congruent,1,undefined,1,s,30,0,0,0,30,0,30,30,NA,0,0,0,30,30,0,30,30,NA,Sun Sep 24 20:47:26 2023,1500,The main experiment item,FALSE,FlankerTask.osexp,C:\Users\backs\OneDrive\Documents,FALSE,mono,FALSE,18,no,white,no,yes,768,legacy,30,30,C:/Users/backs/OneDrive/Documents/BZ-subject-4.csv,legacy,Melodramatic Milgram,4.0.5,0,s,s,NA,NA,s,NA,570,37746,NA,NA,570,NA,NA,NA,2,legacy,1024,2,48000,-16,experiment,SSSSS,4,even,93038,41384,NA,NA,90775,3633,NA,94124,NA,3636,NA,NA,94226,94797,NA,94121,94225,NA,Flanker Task ,29,16672,31,1024
93,93,540,540,#3d3846,legacy,legacy,legacy,incongruent,1,undefined,1,s,31,0,0,0,31,0,31,31,NA,0,0,0,31,31,0,31,31,NA,Sun Sep 24 20:47:26 2023,1500,The main experiment item,FALSE,FlankerTask.osexp,C:\Users\backs\OneDrive\Documents,FALSE,mono,FALSE,18,no,white,no,yes,768,legacy,31,31,C:/Users/backs/OneDrive/Documents/BZ-subject-4.csv,legacy,Melodramatic Milgram,4.0.5,0,s,s,NA,NA,s,NA,611,37746,NA,NA,611,NA,NA,NA,2,legacy,1024,2,48000,-16,experiment,HHSHH,4,even,94801,41384,NA,NA,90775,3633,NA,95881,NA,3636,NA,NA,95983,96595,NA,95878,95982,NA,Flanker Task ,30,17283,32,1024
93,93,538,538,#3d3846,legacy,legacy,legacy,congruent,1,undefined,1,s,32,0,0,0,32,0,32,32,NA,0,0,0,32,32,0,32,32,NA,Sun Sep 24 20:47:26 2023,1500,The main experiment item,FALSE,FlankerTask.osexp,C:\Users\backs\OneDrive\Documents,FALSE,mono,FALSE,18,no,white,no,yes,768,legacy,32,32,C:/Users/backs/OneDrive/Documents/BZ-subject-4.csv,legacy,Melodramatic Milgram,4.0.5,0,s,s,NA,NA,s,NA,490,37746,NA,NA,490,NA,NA,NA,2,legacy,1024,2,48000,-16,experiment,SSSSS,4,even,96599,41384,NA,NA,90775,3633,NA,97679,NA,3636,NA,NA,97781,98272,NA,97677,97780,NA,Flanker Task ,31,17773,33,1024
94,94,538,538,#3d3846,legacy,legacy,legacy,congruent,1,undefined,1,h,33,0,0,0,33,0,33,33,NA,0,0,0,33,33,0,33,33,NA,Sun Sep 24 20:47:26 2023,1500,The main experiment item,FALSE,FlankerTask.osexp,C:\Users\backs\OneDrive\Documents,FALSE,mono,FALSE,18,no,white,no,yes,768,legacy,33,33,C:/Users/backs/OneDrive/Documents/BZ-subject-4.csv,legacy,Melodramatic Milgram,4.0.5,0,h,s,NA,NA,h,NA,524,37746,NA,NA,524,NA,NA,NA,2,legacy,1024,2,48000,-16,experiment,HHHHH,4,even,98276,41384,NA,NA,90775,3633,NA,99357,NA,3636,NA,NA,99459,99984,NA,99355,99458,NA,Flanker Task ,32,18297,34,1024
94,94,537,537,#3d3846,legacy,legacy,legacy,incongruent,1,undefined,1,h,34,0,0,0,34,0,34,34,NA,0,0,0,34,34,0,34,34,NA,Sun Sep 24 20:47:26 2023,1500,The main experiment item,FALSE,FlankerTask.osexp,C:\Users\backs\OneDrive\Documents,FALSE,mono,FALSE,18,no,white,no,yes,768,legacy,34,34,C:/Users/backs/OneDrive/Documents/BZ-subject-4.csv,legacy,Melodramatic Milgram,4.0.5,0,h,s,NA,NA,h,NA,503,37746,NA,NA,503,NA,NA,NA,2,legacy,1024,2,48000,-16,experiment,SSHSS,4,even,99988,41384,NA,NA,90775,3633,NA,101066,NA,3636,NA,NA,101168,101672,NA,101064,101167,NA,Flanker Task ,33,18800,35,1024
94,94,535,535,#3d3846,legacy,legacy,legacy,congruent,1,undefined,1,h,35,0,0,0,35,0,35,35,NA,0,0,0,35,35,0,35,35,NA,Sun Sep 24 20:47:26 2023,1500,The main experiment item,FALSE,FlankerTask.osexp,C:\Users\backs\OneDrive\Documents,FALSE,mono,FALSE,18,no,white,no,yes,768,legacy,35,35,C:/Users/backs/OneDrive/Documents/BZ-subject-4.csv,legacy,Melodramatic Milgram,4.0.5,0,h,s,NA,NA,h,NA,473,37746,NA,NA,473,NA,NA,NA,2,legacy,1024,2,48000,-16,experiment,HHHHH,4,even,101675,41384,NA,NA,90775,3633,NA,102758,NA,3636,NA,NA,102860,103334,NA,102756,102860,NA,Flanker Task ,34,19273,36,1024
94,94,533,533,#3d3846,legacy,legacy,legacy,congruent,1,undefined,1,s,36,0,0,0,36,0,36,36,NA,0,0,0,36,36,0,36,36,NA,Sun Sep 24 20:47:26 2023,1500,The main experiment item,FALSE,FlankerTask.osexp,C:\Users\backs\OneDrive\Documents,FALSE,mono,FALSE,18,no,white,no,yes,768,legacy,36,36,C:/Users/backs/OneDrive/Documents/BZ-subject-4.csv,legacy,Melodramatic Milgram,4.0.5,0,s,s,NA,NA,s,NA,464,37746,NA,NA,464,NA,NA,NA,2,legacy,1024,2,48000,-16,experiment,SSSSS,4,even,103338,41384,NA,NA,90775,3633,NA,104418,NA,3636,NA,NA,104520,104985,NA,104416,104520,NA,Flanker Task ,35,19737,37,1024
94,94,533,533,#3d3846,legacy,legacy,legacy,incongruent,1,undefined,1,s,37,0,0,0,37,0,37,37,NA,0,0,0,37,37,0,37,37,NA,Sun Sep 24 20:47:26 2023,1500,The main experiment item,FALSE,FlankerTask.osexp,C:\Users\backs\OneDrive\Documents,FALSE,mono,FALSE,18,no,white,no,yes,768,legacy,37,37,C:/Users/backs/OneDrive/Documents/BZ-subject-4.csv,legacy,Melodramatic Milgram,4.0.5,0,s,s,NA,NA,s,NA,535,37746,NA,NA,535,NA,NA,NA,2,legacy,1024,2,48000,-16,experiment,HHSHH,4,even,104988,41384,NA,NA,90775,3633,NA,106063,NA,3636,NA,NA,106165,106701,NA,106061,106164,NA,Flanker Task ,36,20272,38,1024
94,94,533,533,#3d3846,legacy,legacy,legacy,incongruent,1,undefined,1,h,38,0,0,0,38,0,38,38,NA,0,0,0,38,38,0,38,38,NA,Sun Sep 24 20:47:26 2023,1500,The main experiment item,FALSE,FlankerTask.osexp,C:\Users\backs\OneDrive\Documents,FALSE,mono,FALSE,18,no,white,no,yes,768,legacy,38,38,C:/Users/backs/OneDrive/Documents/BZ-subject-4.csv,legacy,Melodramatic Milgram,4.0.5,0,h,s,NA,NA,h,NA,552,37746,NA,NA,552,NA,NA,NA,2,legacy,1024,2,48000,-16,experiment,SSHSS,4,even,106705,41384,NA,NA,90775,3633,NA,107792,NA,3636,NA,NA,107894,108447,NA,107790,107893,NA,Flanker Task ,37,20824,39,1024
95,95,534,534,#3d3846,legacy,legacy,legacy,incongruent,1,undefined,1,h,39,0,0,0,39,0,39,39,NA,0,0,0,39,39,0,39,39,NA,Sun Sep 24 20:47:26 2023,1500,The main experiment item,FALSE,FlankerTask.osexp,C:\Users\backs\OneDrive\Documents,FALSE,mono,FALSE,18,no,white,no,yes,768,legacy,39,39,C:/Users/backs/OneDrive/Documents/BZ-subject-4.csv,legacy,Melodramatic Milgram,4.0.5,0,h,s,NA,NA,h,NA,537,37746,NA,NA,537,NA,NA,NA,2,legacy,1024,2,48000,-16,experiment,SSHSS,4,even,108451,41384,NA,NA,90775,3633,NA,109525,NA,3636,NA,NA,109627,110165,NA,109523,109626,NA,Flanker Task ,38,21361,40,1024
95,95,534,534,#3d3846,legacy,legacy,legacy,congruent,1,undefined,1,s,40,0,0,0,40,0,40,40,NA,0,0,0,40,40,0,40,40,NA,Sun Sep 24 20:47:26 2023,1500,The main experiment item,FALSE,FlankerTask.osexp,C:\Users\backs\OneDrive\Documents,FALSE,mono,FALSE,18,no,white,no,yes,768,legacy,40,40,C:/Users/backs/OneDrive/Documents/BZ-subject-4.csv,legacy,Melodramatic Milgram,4.0.5,0,s,s,NA,NA,s,NA,566,37746,NA,NA,566,NA,NA,NA,2,legacy,1024,2,48000,-16,experiment,SSSSS,4,even,110170,41384,NA,NA,90775,3633,NA,111239,NA,3636,NA,NA,111340,111907,NA,111237,111340,NA,Flanker Task ,39,21927,41,1024
95,95,534,534,#3d3846,legacy,legacy,legacy,congruent,1,undefined,1,h,41,0,0,0,41,0,41,41,NA,0,0,0,41,41,0,41,41,NA,Sun Sep 24 20:47:26 2023,1500,The main experiment item,FALSE,FlankerTask.osexp,C:\Users\backs\OneDrive\Documents,FALSE,mono,FALSE,18,no,white,no,yes,768,legacy,41,41,C:/Users/backs/OneDrive/Documents/BZ-subject-4.csv,legacy,Melodramatic Milgram,4.0.5,0,h,s,NA,NA,h,NA,508,37746,NA,NA,508,NA,NA,NA,2,legacy,1024,2,48000,-16,experiment,HHHHH,4,even,111910,41384,NA,NA,90775,3633,NA,112981,NA,3636,NA,NA,113083,113592,NA,112979,113082,NA,Flanker Task ,40,22435,42,1024
95,95,534,534,#3d3846,legacy,legacy,legacy,congruent,1,undefined,1,s,42,0,0,0,42,0,42,42,NA,0,0,0,42,42,0,42,42,NA,Sun Sep 24 20:47:26 2023,1500,The main experiment item,FALSE,FlankerTask.osexp,C:\Users\backs\OneDrive\Documents,FALSE,mono,FALSE,18,no,white,no,yes,768,legacy,42,42,C:/Users/backs/OneDrive/Documents/BZ-subject-4.csv,legacy,Melodramatic Milgram,4.0.5,0,s,s,NA,NA,s,NA,560,37746,NA,NA,560,NA,NA,NA,2,legacy,1024,2,48000,-16,experiment,SSSSS,4,even,113596,41384,NA,NA,90775,3633,NA,114666,NA,3636,NA,NA,114768,115329,NA,114664,114767,NA,Flanker Task ,41,22995,43,1024
95,95,534,534,#3d3846,legacy,legacy,legacy,congruent,1,undefined,1,h,43,0,0,0,43,0,43,43,NA,0,0,0,43,43,0,43,43,NA,Sun Sep 24 20:47:26 2023,1500,The main experiment item,FALSE,FlankerTask.osexp,C:\Users\backs\OneDrive\Documents,FALSE,mono,FALSE,18,no,white,no,yes,768,legacy,43,43,C:/Users/backs/OneDrive/Documents/BZ-subject-4.csv,legacy,Melodramatic Milgram,4.0.5,0,h,s,NA,NA,h,NA,532,37746,NA,NA,532,NA,NA,NA,2,legacy,1024,2,48000,-16,experiment,HHHHH,4,even,115334,41384,NA,NA,90775,3633,NA,116413,NA,3636,NA,NA,116515,117049,NA,116411,116514,NA,Flanker Task ,42,23527,44,1024
95,95,536,536,#3d3846,legacy,legacy,legacy,incongruent,1,undefined,1,s,44,0,0,0,44,0,44,44,NA,0,0,0,44,44,0,44,44,NA,Sun Sep 24 20:47:26 2023,1500,The main experiment item,FALSE,FlankerTask.osexp,C:\Users\backs\OneDrive\Documents,FALSE,mono,FALSE,18,no,white,no,yes,768,legacy,44,44,C:/Users/backs/OneDrive/Documents/BZ-subject-4.csv,legacy,Melodramatic Milgram,4.0.5,0,s,s,NA,NA,s,NA,606,37746,NA,NA,606,NA,NA,NA,2,legacy,1024,2,48000,-16,experiment,HHSHH,4,even,117053,41384,NA,NA,90775,3633,NA,118125,NA,3636,NA,NA,118227,118834,NA,118123,118227,NA,Flanker Task ,43,24133,45,1024
95,95,537,537,#3d3846,legacy,legacy,legacy,congruent,1,undefined,1,s,45,0,0,0,45,0,45,45,NA,0,0,0,45,45,0,45,45,NA,Sun Sep 24 20:47:26 2023,1500,The main experiment item,FALSE,FlankerTask.osexp,C:\Users\backs\OneDrive\Documents,FALSE,mono,FALSE,18,no,white,no,yes,768,legacy,45,45,C:/Users/backs/OneDrive/Documents/BZ-subject-4.csv,legacy,Melodramatic Milgram,4.0.5,0,s,s,NA,NA,s,NA,571,37746,NA,NA,571,NA,NA,NA,2,legacy,1024,2,48000,-16,experiment,SSSSS,4,even,118837,41384,NA,NA,90775,3633,NA,119905,NA,3636,NA,NA,120006,120578,NA,119903,120006,NA,Flanker Task ,44,24704,46,1024
95,95,538,538,#3d3846,legacy,legacy,legacy,incongruent,1,undefined,1,h,46,0,0,0,46,0,46,46,NA,0,0,0,46,46,0,46,46,NA,Sun Sep 24 20:47:26 2023,1500,The main experiment item,FALSE,FlankerTask.osexp,C:\Users\backs\OneDrive\Documents,FALSE,mono,FALSE,18,no,white,no,yes,768,legacy,46,46,C:/Users/backs/OneDrive/Documents/BZ-subject-4.csv,legacy,Melodramatic Milgram,4.0.5,0,h,s,NA,NA,h,NA,607,37746,NA,NA,607,NA,NA,NA,2,legacy,1024,2,48000,-16,experiment,SSHSS,4,even,120584,41384,NA,NA,90775,3633,NA,121661,NA,3636,NA,NA,121763,122371,NA,121659,121762,NA,Flanker Task ,45,25311,47,1024
95,95,538,538,#3d3846,legacy,legacy,legacy,congruent,1,undefined,1,s,47,0,0,0,47,0,47,47,NA,0,0,0,47,47,0,47,47,NA,Sun Sep 24 20:47:26 2023,1500,The main experiment item,FALSE,FlankerTask.osexp,C:\Users\backs\OneDrive\Documents,FALSE,mono,FALSE,18,no,white,no,yes,768,legacy,47,47,C:/Users/backs/OneDrive/Documents/BZ-subject-4.csv,legacy,Melodramatic Milgram,4.0.5,0,s,s,NA,NA,s,NA,534,37746,NA,NA,534,NA,NA,NA,2,legacy,1024,2,48000,-16,experiment,SSSSS,4,even,122375,41384,NA,NA,90775,3633,NA,123467,NA,3636,NA,NA,123569,124104,NA,123465,123568,NA,Flanker Task ,46,25845,48,1024
95,95,536,536,#3d3846,legacy,legacy,legacy,congruent,1,undefined,1,s,48,0,0,0,48,0,48,48,NA,0,0,0,48,48,0,48,48,NA,Sun Sep 24 20:47:26 2023,1500,The main experiment item,FALSE,FlankerTask.osexp,C:\Users\backs\OneDrive\Documents,FALSE,mono,FALSE,18,no,white,no,yes,768,legacy,48,48,C:/Users/backs/OneDrive/Documents/BZ-subject-4.csv,legacy,Melodramatic Milgram,4.0.5,0,s,s,NA,NA,s,NA,467,37746,NA,NA,467,NA,NA,NA,2,legacy,1024,2,48000,-16,experiment,SSSSS,4,even,124108,41384,NA,NA,90775,3633,NA,125188,NA,3636,NA,NA,125290,125759,NA,125185,125290,NA,Flanker Task ,47,26312,49,1024
96,96,536,536,#3d3846,legacy,legacy,legacy,incongruent,1,undefined,1,s,49,0,0,0,49,0,49,49,NA,0,0,0,49,49,0,49,49,NA,Sun Sep 24 20:47:26 2023,1500,The main experiment item,FALSE,FlankerTask.osexp,C:\Users\backs\OneDrive\Documents,FALSE,mono,FALSE,18,no,white,no,yes,768,legacy,49,49,C:/Users/backs/OneDrive/Documents/BZ-subject-4.csv,legacy,Melodramatic Milgram,4.0.5,0,s,s,NA,NA,s,NA,525,37746,NA,NA,525,NA,NA,NA,2,legacy,1024,2,48000,-16,experiment,HHSHH,4,even,125764,41384,NA,NA,90775,3633,NA,126855,NA,3636,NA,NA,126957,127483,NA,126852,126957,NA,Flanker Task ,48,26837,50,1024
96,96,535,535,#3d3846,legacy,legacy,legacy,congruent,1,undefined,1,h,50,0,0,0,50,0,50,50,NA,0,0,0,50,50,0,50,50,NA,Sun Sep 24 20:47:26 2023,1500,The main experiment item,FALSE,FlankerTask.osexp,C:\Users\backs\OneDrive\Documents,FALSE,mono,FALSE,18,no,white,no,yes,768,legacy,50,50,C:/Users/backs/OneDrive/Documents/BZ-subject-4.csv,legacy,Melodramatic Milgram,4.0.5,0,h,s,NA,NA,h,NA,498,37746,NA,NA,498,NA,NA,NA,2,legacy,1024,2,48000,-16,experiment,HHHHH,4,even,127486,41384,NA,NA,90775,3633,NA,128572,NA,3636,NA,NA,128673,129172,NA,128569,128673,NA,Flanker Task ,49,27335,51,1024
96,96,535,535,#3d3846,legacy,legacy,legacy,congruent,1,undefined,1,s,51,0,0,0,51,0,51,51,NA,0,0,0,51,51,0,51,51,NA,Sun Sep 24 20:47:26 2023,1500,The main experiment item,FALSE,FlankerTask.osexp,C:\Users\backs\OneDrive\Documents,FALSE,mono,FALSE,18,no,white,no,yes,768,legacy,51,51,C:/Users/backs/OneDrive/Documents/BZ-subject-4.csv,legacy,Melodramatic Milgram,4.0.5,0,s,s,NA,NA,s,NA,532,37746,NA,NA,532,NA,NA,NA,2,legacy,1024,2,48000,-16,experiment,SSSSS,4,even,129177,41384,NA,NA,90775,3633,NA,130253,NA,3636,NA,NA,130354,130887,NA,130250,130354,NA,Flanker Task ,50,27867,52,1024
96,96,534,534,#3d3846,legacy,legacy,legacy,congruent,1,undefined,1,s,52,0,0,0,52,0,52,52,NA,0,0,0,52,52,0,52,52,NA,Sun Sep 24 20:47:26 2023,1500,The main experiment item,FALSE,FlankerTask.osexp,C:\Users\backs\OneDrive\Documents,FALSE,mono,FALSE,18,no,white,no,yes,768,legacy,52,52,C:/Users/backs/OneDrive/Documents/BZ-subject-4.csv,legacy,Melodramatic Milgram,4.0.5,0,s,s,NA,NA,s,NA,461,37746,NA,NA,461,NA,NA,NA,2,legacy,1024,2,48000,-16,experiment,SSSSS,4,even,130894,41384,NA,NA,90775,3633,NA,131966,NA,3636,NA,NA,132067,132529,NA,131964,132067,NA,Flanker Task ,51,28328,53,1024
96,96,534,534,#3d3846,legacy,legacy,legacy,incongruent,1,undefined,1,s,53,0,0,0,53,0,53,53,NA,0,0,0,53,53,0,53,53,NA,Sun Sep 24 20:47:26 2023,1500,The main experiment item,FALSE,FlankerTask.osexp,C:\Users\backs\OneDrive\Documents,FALSE,mono,FALSE,18,no,white,no,yes,768,legacy,53,53,C:/Users/backs/OneDrive/Documents/BZ-subject-4.csv,legacy,Melodramatic Milgram,4.0.5,0,s,s,NA,NA,s,NA,543,37746,NA,NA,543,NA,NA,NA,2,legacy,1024,2,48000,-16,experiment,HHSHH,4,even,132532,41384,NA,NA,90775,3633,NA,133608,NA,3636,NA,NA,133710,134254,NA,133606,133710,NA,Flanker Task ,52,28871,54,1024
96,96,533,533,#3d3846,legacy,legacy,legacy,congruent,1,undefined,1,s,54,0,0,0,54,0,54,54,NA,0,0,0,54,54,0,54,54,NA,Sun Sep 24 20:47:26 2023,1500,The main experiment item,FALSE,FlankerTask.osexp,C:\Users\backs\OneDrive\Documents,FALSE,mono,FALSE,18,no,white,no,yes,768,legacy,54,54,C:/Users/backs/OneDrive/Documents/BZ-subject-4.csv,legacy,Melodramatic Milgram,4.0.5,0,s,s,NA,NA,s,NA,449,37746,NA,NA,449,NA,NA,NA,2,legacy,1024,2,48000,-16,experiment,SSSSS,4,even,134258,41384,NA,NA,90775,3633,NA,135332,NA,3636,NA,NA,135434,135884,NA,135330,135434,NA,Flanker Task ,53,29320,55,1024
96,96,533,533,#3d3846,legacy,legacy,legacy,congruent,1,undefined,1,h,55,0,0,0,55,0,55,55,NA,0,0,0,55,55,0,55,55,NA,Sun Sep 24 20:47:26 2023,1500,The main experiment item,FALSE,FlankerTask.osexp,C:\Users\backs\OneDrive\Documents,FALSE,mono,FALSE,18,no,white,no,yes,768,legacy,55,55,C:/Users/backs/OneDrive/Documents/BZ-subject-4.csv,legacy,Melodramatic Milgram,4.0.5,0,h,s,NA,NA,h,NA,579,37746,NA,NA,579,NA,NA,NA,2,legacy,1024,2,48000,-16,experiment,HHHHH,4,even,135888,41384,NA,NA,90775,3633,NA,136974,NA,3636,NA,NA,137076,137656,NA,136972,137075,NA,Flanker Task ,54,29899,56,1024
96,96,532,532,#3d3846,legacy,legacy,legacy,congruent,1,undefined,1,h,56,0,0,0,56,0,56,56,NA,0,0,0,56,56,0,56,56,NA,Sun Sep 24 20:47:26 2023,1500,The main experiment item,FALSE,FlankerTask.osexp,C:\Users\backs\OneDrive\Documents,FALSE,mono,FALSE,18,no,white,no,yes,768,legacy,56,56,C:/Users/backs/OneDrive/Documents/BZ-subject-4.csv,legacy,Melodramatic Milgram,4.0.5,0,h,s,NA,NA,h,NA,477,37746,NA,NA,477,NA,NA,NA,2,legacy,1024,2,48000,-16,experiment,HHHHH,4,even,137659,41384,NA,NA,90775,3633,NA,138753,NA,3636,NA,NA,138855,139333,NA,138751,138854,NA,Flanker Task ,55,30376,57,1024
96,96,532,532,#3d3846,legacy,legacy,legacy,incongruent,1,undefined,1,h,57,0,0,0,57,0,57,57,NA,0,0,0,57,57,0,57,57,NA,Sun Sep 24 20:47:26 2023,1500,The main experiment item,FALSE,FlankerTask.osexp,C:\Users\backs\OneDrive\Documents,FALSE,mono,FALSE,18,no,white,no,yes,768,legacy,57,57,C:/Users/backs/OneDrive/Documents/BZ-subject-4.csv,legacy,Melodramatic Milgram,4.0.5,0,h,s,NA,NA,h,NA,518,37746,NA,NA,518,NA,NA,NA,2,legacy,1024,2,48000,-16,experiment,SSHSS,4,even,139337,41384,NA,NA,90775,3633,NA,140415,NA,3636,NA,NA,140517,141036,NA,140413,140516,NA,Flanker Task ,56,30894,58,1024
96,96,532,532,#3d3846,legacy,legacy,legacy,incongruent,1,undefined,1,h,58,0,0,0,58,0,58,58,NA,0,0,0,58,58,0,58,58,NA,Sun Sep 24 20:47:26 2023,1500,The main experiment item,FALSE,FlankerTask.osexp,C:\Users\backs\OneDrive\Documents,FALSE,mono,FALSE,18,no,white,no,yes,768,legacy,58,58,C:/Users/backs/OneDrive/Documents/BZ-subject-4.csv,legacy,Melodramatic Milgram,4.0.5,0,h,s,NA,NA,h,NA,522,37746,NA,NA,522,NA,NA,NA,2,legacy,1024,2,48000,-16,experiment,SSHSS,4,even,141040,41384,NA,NA,90775,3633,NA,142116,NA,3636,NA,NA,142218,142741,NA,142114,142218,NA,Flanker Task ,57,31416,59,1024
96,96,532,532,#3d3846,legacy,legacy,legacy,congruent,1,undefined,1,s,59,0,0,0,59,0,59,59,NA,0,0,0,59,59,0,59,59,NA,Sun Sep 24 20:47:26 2023,1500,The main experiment item,FALSE,FlankerTask.osexp,C:\Users\backs\OneDrive\Documents,FALSE,mono,FALSE,18,no,white,no,yes,768,legacy,59,59,C:/Users/backs/OneDrive/Documents/BZ-subject-4.csv,legacy,Melodramatic Milgram,4.0.5,0,s,s,NA,NA,s,NA,505,37746,NA,NA,505,NA,NA,NA,2,legacy,1024,2,48000,-16,experiment,SSSSS,4,even,142744,41384,NA,NA,90775,3633,NA,143823,NA,3636,NA,NA,143925,144431,NA,143821,143924,NA,Flanker Task ,58,31921,60,1024
96,96,533,533,#3d3846,legacy,legacy,legacy,congruent,1,undefined,1,h,60,0,0,0,60,0,60,60,NA,0,0,0,60,60,0,60,60,NA,Sun Sep 24 20:47:26 2023,1500,The main experiment item,FALSE,FlankerTask.osexp,C:\Users\backs\OneDrive\Documents,FALSE,mono,FALSE,18,no,white,no,yes,768,legacy,60,60,C:/Users/backs/OneDrive/Documents/BZ-subject-4.csv,legacy,Melodramatic Milgram,4.0.5,0,h,s,NA,NA,h,NA,593,37746,NA,NA,593,NA,NA,NA,2,legacy,1024,2,48000,-16,experiment,HHHHH,4,even,144434,41384,NA,NA,90775,3633,NA,145510,NA,3636,NA,NA,145612,146206,NA,145508,145612,NA,Flanker Task ,59,32514,61,1024
96,96,532,532,#3d3846,legacy,legacy,legacy,congruent,1,undefined,1,h,61,0,0,0,61,0,61,61,NA,0,0,0,61,61,0,61,61,NA,Sun Sep 24 20:47:26 2023,1500,The main experiment item,FALSE,FlankerTask.osexp,C:\Users\backs\OneDrive\Documents,FALSE,mono,FALSE,18,no,white,no,yes,768,legacy,61,61,C:/Users/backs/OneDrive/Documents/BZ-subject-4.csv,legacy,Melodramatic Milgram,4.0.5,0,h,s,NA,NA,h,NA,524,37746,NA,NA,524,NA,NA,NA,2,legacy,1024,2,48000,-16,experiment,HHHHH,4,even,146210,41384,NA,NA,90775,3633,NA,147283,NA,3636,NA,NA,147385,147911,NA,147281,147384,NA,Flanker Task ,60,33038,62,1024
96,96,532,532,#3d3846,legacy,legacy,legacy,incongruent,1,undefined,1,h,62,0,0,0,62,0,62,62,NA,0,0,0,62,62,0,62,62,NA,Sun Sep 24 20:47:26 2023,1500,The main experiment item,FALSE,FlankerTask.osexp,C:\Users\backs\OneDrive\Documents,FALSE,mono,FALSE,18,no,white,no,yes,768,legacy,62,62,C:/Users/backs/OneDrive/Documents/BZ-subject-4.csv,legacy,Melodramatic Milgram,4.0.5,0,h,s,NA,NA,h,NA,530,37746,NA,NA,530,NA,NA,NA,2,legacy,1024,2,48000,-16,experiment,SSHSS,4,even,147915,41384,NA,NA,90775,3633,NA,148986,NA,3636,NA,NA,149087,149618,NA,148984,149087,NA,Flanker Task ,61,33568,63,1024
96,96,531,531,#3d3846,legacy,legacy,legacy,incongruent,1,undefined,1,h,63,0,0,0,63,0,63,63,NA,0,0,0,63,63,0,63,63,NA,Sun Sep 24 20:47:26 2023,1500,The main experiment item,FALSE,FlankerTask.osexp,C:\Users\backs\OneDrive\Documents,FALSE,mono,FALSE,18,no,white,no,yes,768,legacy,63,63,C:/Users/backs/OneDrive/Documents/BZ-subject-4.csv,legacy,Melodramatic Milgram,4.0.5,0,h,s,NA,NA,h,NA,477,37746,NA,NA,477,NA,NA,NA,2,legacy,1024,2,48000,-16,experiment,SSHSS,4,even,149622,41384,NA,NA,90775,3633,NA,150693,NA,3636,NA,NA,150795,151274,NA,150691,150794,NA,Flanker Task ,62,34045,64,1024
96,96,531,531,#3d3846,legacy,legacy,legacy,congruent,1,undefined,1,h,64,0,0,0,64,0,64,64,NA,0,0,0,64,64,0,64,64,NA,Sun Sep 24 20:47:26 2023,1500,The main experiment item,FALSE,FlankerTask.osexp,C:\Users\backs\OneDrive\Documents,FALSE,mono,FALSE,18,no,white,no,yes,768,legacy,64,64,C:/Users/backs/OneDrive/Documents/BZ-subject-4.csv,legacy,Melodramatic Milgram,4.0.5,0,h,s,NA,NA,h,NA,503,37746,NA,NA,503,NA,NA,NA,2,legacy,1024,2,48000,-16,experiment,HHHHH,4,even,151278,41384,NA,NA,90775,3633,NA,152365,NA,3636,NA,NA,152467,152971,NA,152363,152467,NA,Flanker Task ,63,34548,65,1024
96,96,531,531,#3d3846,legacy,legacy,legacy,congruent,1,undefined,1,s,65,0,0,0,65,0,65,65,NA,0,0,0,65,65,0,65,65,NA,Sun Sep 24 20:47:26 2023,1500,The main experiment item,FALSE,FlankerTask.osexp,C:\Users\backs\OneDrive\Documents,FALSE,mono,FALSE,18,no,white,no,yes,768,legacy,65,65,C:/Users/backs/OneDrive/Documents/BZ-subject-4.csv,legacy,Melodramatic Milgram,4.0.5,0,s,s,NA,NA,s,NA,559,37746,NA,NA,559,NA,NA,NA,2,legacy,1024,2,48000,-16,experiment,SSSSS,4,even,152975,41384,NA,NA,90775,3633,NA,154078,NA,3636,NA,NA,154180,154740,NA,154077,154179,NA,Flanker Task ,64,35107,66,1024
97,97,532,532,#3d3846,legacy,legacy,legacy,incongruent,1,undefined,1,s,66,0,0,0,66,0,66,66,NA,0,0,0,66,66,0,66,66,NA,Sun Sep 24 20:47:26 2023,1500,The main experiment item,FALSE,FlankerTask.osexp,C:\Users\backs\OneDrive\Documents,FALSE,mono,FALSE,18,no,white,no,yes,768,legacy,66,66,C:/Users/backs/OneDrive/Documents/BZ-subject-4.csv,legacy,Melodramatic Milgram,4.0.5,0,s,s,NA,NA,s,NA,545,37746,NA,NA,545,NA,NA,NA,2,legacy,1024,2,48000,-16,experiment,HHSHH,4,even,154745,41384,NA,NA,90775,3633,NA,155816,NA,3636,NA,NA,155918,156464,NA,155814,155917,NA,Flanker Task ,65,35652,67,1024
97,97,531,531,#3d3846,legacy,legacy,legacy,incongruent,1,undefined,1,s,67,0,0,0,67,0,67,67,NA,0,0,0,67,67,0,67,67,NA,Sun Sep 24 20:47:26 2023,1500,The main experiment item,FALSE,FlankerTask.osexp,C:\Users\backs\OneDrive\Documents,FALSE,mono,FALSE,18,no,white,no,yes,768,legacy,67,67,C:/Users/backs/OneDrive/Documents/BZ-subject-4.csv,legacy,Melodramatic Milgram,4.0.5,0,s,s,NA,NA,s,NA,505,37746,NA,NA,505,NA,NA,NA,2,legacy,1024,2,48000,-16,experiment,HHSHH,4,even,156468,41384,NA,NA,90775,3633,NA,157541,NA,3636,NA,NA,157643,158149,NA,157539,157642,NA,Flanker Task ,66,36157,68,1024
97,97,531,531,#3d3846,legacy,legacy,legacy,congruent,1,undefined,1,h,68,0,0,0,68,0,68,68,NA,0,0,0,68,68,0,68,68,NA,Sun Sep 24 20:47:26 2023,1500,The main experiment item,FALSE,FlankerTask.osexp,C:\Users\backs\OneDrive\Documents,FALSE,mono,FALSE,18,no,white,no,yes,768,legacy,68,68,C:/Users/backs/OneDrive/Documents/BZ-subject-4.csv,legacy,Melodramatic Milgram,4.0.5,0,h,s,NA,NA,h,NA,489,37746,NA,NA,489,NA,NA,NA,2,legacy,1024,2,48000,-16,experiment,HHHHH,4,even,158154,41384,NA,NA,90775,3633,NA,159226,NA,3636,NA,NA,159328,159818,NA,159224,159328,NA,Flanker Task ,67,36646,69,1024
97,97,531,531,#3d3846,legacy,legacy,legacy,congruent,1,undefined,1,h,69,0,0,0,69,0,69,69,NA,0,0,0,69,69,0,69,69,NA,Sun Sep 24 20:47:26 2023,1500,The main experiment item,FALSE,FlankerTask.osexp,C:\Users\backs\OneDrive\Documents,FALSE,mono,FALSE,18,no,white,no,yes,768,legacy,69,69,C:/Users/backs/OneDrive/Documents/BZ-subject-4.csv,legacy,Melodramatic Milgram,4.0.5,0,h,s,NA,NA,h,NA,535,37746,NA,NA,535,NA,NA,NA,2,legacy,1024,2,48000,-16,experiment,HHHHH,4,even,159823,41384,NA,NA,90775,3633,NA,160916,NA,3636,NA,NA,161018,161554,NA,160913,161018,NA,Flanker Task ,68,37181,70,1024
97,97,531,531,#3d3846,legacy,legacy,legacy,congruent,1,undefined,1,s,70,0,0,0,70,0,70,70,NA,0,0,0,70,70,0,70,70,NA,Sun Sep 24 20:47:26 2023,1500,The main experiment item,FALSE,FlankerTask.osexp,C:\Users\backs\OneDrive\Documents,FALSE,mono,FALSE,18,no,white,no,yes,768,legacy,70,70,C:/Users/backs/OneDrive/Documents/BZ-subject-4.csv,legacy,Melodramatic Milgram,4.0.5,0,s,s,NA,NA,s,NA,526,37746,NA,NA,526,NA,NA,NA,2,legacy,1024,2,48000,-16,experiment,SSSSS,4,even,161557,41384,NA,NA,90775,3633,NA,162634,NA,3636,NA,NA,162736,163263,NA,162631,162736,NA,Flanker Task ,69,37707,71,1024
97,97,530,530,#3d3846,legacy,legacy,legacy,congruent,1,undefined,1,h,71,0,0,0,71,0,71,71,NA,0,0,0,71,71,0,71,71,NA,Sun Sep 24 20:47:26 2023,1500,The main experiment item,FALSE,FlankerTask.osexp,C:\Users\backs\OneDrive\Documents,FALSE,mono,FALSE,18,no,white,no,yes,768,legacy,71,71,C:/Users/backs/OneDrive/Documents/BZ-subject-4.csv,legacy,Melodramatic Milgram,4.0.5,0,h,s,NA,NA,h,NA,507,37746,NA,NA,507,NA,NA,NA,2,legacy,1024,2,48000,-16,experiment,HHHHH,4,even,163267,41384,NA,NA,90775,3633,NA,164340,NA,3636,NA,NA,164441,164949,NA,164335,164441,NA,Flanker Task ,70,38214,72,1024
97,97,530,530,#3d3846,legacy,legacy,legacy,incongruent,1,undefined,1,h,72,0,0,0,72,0,72,72,NA,0,0,0,72,72,0,72,72,NA,Sun Sep 24 20:47:26 2023,1500,The main experiment item,FALSE,FlankerTask.osexp,C:\Users\backs\OneDrive\Documents,FALSE,mono,FALSE,18,no,white,no,yes,768,legacy,72,72,C:/Users/backs/OneDrive/Documents/BZ-subject-4.csv,legacy,Melodramatic Milgram,4.0.5,0,h,s,NA,NA,h,NA,517,37746,NA,NA,517,NA,NA,NA,2,legacy,1024,2,48000,-16,experiment,SSHSS,4,even,164953,41384,NA,NA,90775,3633,NA,166024,NA,3636,NA,NA,166126,166644,NA,166022,166125,NA,Flanker Task ,71,38731,73,1024
97,97,529,529,#3d3846,legacy,legacy,legacy,congruent,1,undefined,1,s,73,0,0,0,73,0,73,73,NA,0,0,0,73,73,0,73,73,NA,Sun Sep 24 20:47:26 2023,1500,The main experiment item,FALSE,FlankerTask.osexp,C:\Users\backs\OneDrive\Documents,FALSE,mono,FALSE,18,no,white,no,yes,768,legacy,73,73,C:/Users/backs/OneDrive/Documents/BZ-subject-4.csv,legacy,Melodramatic Milgram,4.0.5,0,s,s,NA,NA,s,NA,448,37746,NA,NA,448,NA,NA,NA,2,legacy,1024,2,48000,-16,experiment,SSSSS,4,even,166648,41384,NA,NA,90775,3633,NA,167727,NA,3636,NA,NA,167829,168278,NA,167725,167828,NA,Flanker Task ,72,39179,74,1024
97,97,531,531,#3d3846,legacy,legacy,legacy,incongruent,1,undefined,1,h,74,0,0,0,74,0,74,74,NA,0,0,0,74,74,0,74,74,NA,Sun Sep 24 20:47:26 2023,1500,The main experiment item,FALSE,FlankerTask.osexp,C:\Users\backs\OneDrive\Documents,FALSE,mono,FALSE,18,no,white,no,yes,768,legacy,74,74,C:/Users/backs/OneDrive/Documents/BZ-subject-4.csv,legacy,Melodramatic Milgram,4.0.5,0,h,s,NA,NA,h,NA,717,37746,NA,NA,717,NA,NA,NA,2,legacy,1024,2,48000,-16,experiment,SSHSS,4,even,168282,41384,NA,NA,90775,3633,NA,169366,NA,3636,NA,NA,169468,170187,NA,169364,169467,NA,Flanker Task ,73,39896,75,1024
97,97,531,531,#3d3846,legacy,legacy,legacy,incongruent,1,undefined,1,s,75,0,0,0,75,0,75,75,NA,0,0,0,75,75,0,75,75,NA,Sun Sep 24 20:47:26 2023,1500,The main experiment item,FALSE,FlankerTask.osexp,C:\Users\backs\OneDrive\Documents,FALSE,mono,FALSE,18,no,white,no,yes,768,legacy,75,75,C:/Users/backs/OneDrive/Documents/BZ-subject-4.csv,legacy,Melodramatic Milgram,4.0.5,0,s,s,NA,NA,s,NA,523,37746,NA,NA,523,NA,NA,NA,2,legacy,1024,2,48000,-16,experiment,HHSHH,4,even,170190,41384,NA,NA,90775,3633,NA,171262,NA,3636,NA,NA,171363,171887,NA,171260,171363,NA,Flanker Task ,74,40419,76,1024
97,97,531,531,#3d3846,legacy,legacy,legacy,incongruent,1,undefined,1,h,76,0,0,0,76,0,76,76,NA,0,0,0,76,76,0,76,76,NA,Sun Sep 24 20:47:26 2023,1500,The main experiment item,FALSE,FlankerTask.osexp,C:\Users\backs\OneDrive\Documents,FALSE,mono,FALSE,18,no,white,no,yes,768,legacy,76,76,C:/Users/backs/OneDrive/Documents/BZ-subject-4.csv,legacy,Melodramatic Milgram,4.0.5,0,h,s,NA,NA,h,NA,505,37746,NA,NA,505,NA,NA,NA,2,legacy,1024,2,48000,-16,experiment,SSHSS,4,even,171890,41384,NA,NA,90775,3633,NA,172970,NA,3636,NA,NA,173072,173579,NA,172968,173071,NA,Flanker Task ,75,40924,77,1024
97,97,532,532,#3d3846,legacy,legacy,legacy,congruent,1,undefined,1,h,77,0,0,0,77,0,77,77,NA,0,0,0,77,77,0,77,77,NA,Sun Sep 24 20:47:26 2023,1500,The main experiment item,FALSE,FlankerTask.osexp,C:\Users\backs\OneDrive\Documents,FALSE,mono,FALSE,18,no,white,no,yes,768,legacy,77,77,C:/Users/backs/OneDrive/Documents/BZ-subject-4.csv,legacy,Melodramatic Milgram,4.0.5,0,h,s,NA,NA,h,NA,584,37746,NA,NA,584,NA,NA,NA,2,legacy,1024,2,48000,-16,experiment,HHHHH,4,even,173583,41384,NA,NA,90775,3633,NA,174661,NA,3636,NA,NA,174763,175348,NA,174659,174763,NA,Flanker Task ,76,41508,78,1024
97,97,532,532,#3d3846,legacy,legacy,legacy,incongruent,1,undefined,1,s,78,0,0,0,78,0,78,78,NA,0,0,0,78,78,0,78,78,NA,Sun Sep 24 20:47:26 2023,1500,The main experiment item,FALSE,FlankerTask.osexp,C:\Users\backs\OneDrive\Documents,FALSE,mono,FALSE,18,no,white,no,yes,768,legacy,78,78,C:/Users/backs/OneDrive/Documents/BZ-subject-4.csv,legacy,Melodramatic Milgram,4.0.5,0,s,s,NA,NA,s,NA,583,37746,NA,NA,583,NA,NA,NA,2,legacy,1024,2,48000,-16,experiment,HHSHH,4,even,175352,41384,NA,NA,90775,3633,NA,176424,NA,3636,NA,NA,176525,177109,NA,176422,176525,NA,Flanker Task ,77,42091,79,1024
97,97,532,532,#3d3846,legacy,legacy,legacy,incongruent,1,undefined,1,h,79,0,0,0,79,0,79,79,NA,0,0,0,79,79,0,79,79,NA,Sun Sep 24 20:47:26 2023,1500,The main experiment item,FALSE,FlankerTask.osexp,C:\Users\backs\OneDrive\Documents,FALSE,mono,FALSE,18,no,white,no,yes,768,legacy,79,79,C:/Users/backs/OneDrive/Documents/BZ-subject-4.csv,legacy,Melodramatic Milgram,4.0.5,0,h,s,NA,NA,h,NA,509,37746,NA,NA,509,NA,NA,NA,2,legacy,1024,2,48000,-16,experiment,SSHSS,4,even,177112,41384,NA,NA,90775,3633,NA,178176,NA,3636,NA,NA,178278,178788,NA,178174,178278,NA,Flanker Task ,78,42600,80,1024
97,97,533,533,#3d3846,legacy,legacy,legacy,incongruent,1,undefined,1,h,80,0,0,0,80,0,80,80,NA,0,0,0,80,80,0,80,80,NA,Sun Sep 24 20:47:26 2023,600,The main experiment item,FALSE,FlankerTask.osexp,C:\Users\backs\OneDrive\Documents,FALSE,mono,FALSE,18,no,white,no,yes,768,legacy,0,79,C:/Users/backs/OneDrive/Documents/BZ-subject-4.csv,legacy,Melodramatic Milgram,4.0.5,0,h,s,h,NA,h,NA,618,37746,13434,NA,618,NA,NA,NA,2,legacy,1024,2,48000,-16,experiment,SSHSS,4,even,178793,41384,193230,NA,90775,3633,NA,193275,NA,3636,179795,NA,193376,193995,NA,193274,193376,NA,Flanker Task ,79,43218,81,1024
97,97,532,532,#3d3846,legacy,legacy,legacy,incongruent,1,undefined,1,h,81,0,0,0,81,0,81,81,NA,0,0,0,81,81,0,81,81,NA,Sun Sep 24 20:47:26 2023,600,The main experiment item,FALSE,FlankerTask.osexp,C:\Users\backs\OneDrive\Documents,FALSE,mono,FALSE,18,no,white,no,yes,768,legacy,1,79,C:/Users/backs/OneDrive/Documents/BZ-subject-4.csv,legacy,Melodramatic Milgram,4.0.5,0,h,s,h,NA,h,NA,413,37746,13434,NA,413,NA,NA,NA,2,legacy,1024,2,48000,-16,experiment,SSHSS,4,even,194499,41384,193230,NA,90775,3633,193998,195564,NA,3636,179795,NA,195665,196079,NA,195562,195665,NA,Flanker Task ,80,43631,82,1024
96,96,529,529,#3d3846,legacy,legacy,legacy,incongruent,0,undefined,0,s,82,0,0,0,82,0,82,82,NA,0,0,0,82,82,0,82,82,NA,Sun Sep 24 20:47:26 2023,600,The main experiment item,FALSE,FlankerTask.osexp,C:\Users\backs\OneDrive\Documents,FALSE,mono,FALSE,18,no,white,no,yes,768,legacy,2,79,C:/Users/backs/OneDrive/Documents/BZ-subject-4.csv,legacy,Melodramatic Milgram,4.0.5,0,h,s,h,NA,h,NA,331,37746,13434,NA,331,NA,NA,NA,2,legacy,1024,2,48000,-16,experiment,HHSHH,4,even,196084,41384,193230,NA,90775,3633,193998,197164,NA,3636,179795,NA,197266,197599,NA,197162,197265,NA,Flanker Task ,80,43962,83,1024
96,96,528,528,#3d3846,legacy,legacy,legacy,incongruent,1,undefined,1,h,83,0,0,0,83,0,83,83,NA,0,0,0,83,83,0,83,83,NA,Sun Sep 24 20:47:26 2023,600,The main experiment item,FALSE,FlankerTask.osexp,C:\Users\backs\OneDrive\Documents,FALSE,mono,FALSE,18,no,white,no,yes,768,legacy,3,79,C:/Users/backs/OneDrive/Documents/BZ-subject-4.csv,legacy,Melodramatic Milgram,4.0.5,0,h,s,h,NA,h,NA,425,37746,13434,NA,425,NA,NA,NA,2,legacy,1024,2,48000,-16,experiment,SSHSS,4,even,198104,41384,193230,NA,197602,3633,193998,199176,NA,3636,179795,NA,199277,199704,NA,199174,199277,NA,Flanker Task ,81,44387,84,1024
96,96,526,526,#3d3846,legacy,legacy,legacy,congruent,1,undefined,1,h,84,0,0,0,84,0,84,84,NA,0,0,0,84,84,0,84,84,NA,Sun Sep 24 20:47:26 2023,600,The main experiment item,FALSE,FlankerTask.osexp,C:\Users\backs\OneDrive\Documents,FALSE,mono,FALSE,18,no,white,no,yes,768,legacy,4,79,C:/Users/backs/OneDrive/Documents/BZ-subject-4.csv,legacy,Melodramatic Milgram,4.0.5,0,h,s,h,NA,h,NA,387,37746,13434,NA,387,NA,NA,NA,2,legacy,1024,2,48000,-16,experiment,HHHHH,4,even,199708,41384,193230,NA,197602,3633,193998,200781,NA,3636,179795,NA,200883,201272,NA,200779,200882,NA,Flanker Task ,82,44774,85,1024
96,96,526,526,#3d3846,legacy,legacy,legacy,congruent,1,undefined,1,s,85,0,0,0,85,0,85,85,NA,0,0,0,85,85,0,85,85,NA,Sun Sep 24 20:47:26 2023,600,The main experiment item,FALSE,FlankerTask.osexp,C:\Users\backs\OneDrive\Documents,FALSE,mono,FALSE,18,no,white,no,yes,768,legacy,5,79,C:/Users/backs/OneDrive/Documents/BZ-subject-4.csv,legacy,Melodramatic Milgram,4.0.5,0,s,s,h,NA,s,NA,471,37746,13434,NA,471,NA,NA,NA,2,legacy,1024,2,48000,-16,experiment,SSSSS,4,even,201275,41384,193230,NA,197602,3633,193998,202353,NA,3636,179795,NA,202454,202926,NA,202351,202454,NA,Flanker Task ,83,45245,86,1024
96,96,526,526,#3d3846,legacy,legacy,legacy,incongruent,1,undefined,1,s,86,0,0,0,86,0,86,86,NA,0,0,0,86,86,0,86,86,NA,Sun Sep 24 20:47:26 2023,600,The main experiment item,FALSE,FlankerTask.osexp,C:\Users\backs\OneDrive\Documents,FALSE,mono,FALSE,18,no,white,no,yes,768,legacy,6,79,C:/Users/backs/OneDrive/Documents/BZ-subject-4.csv,legacy,Melodramatic Milgram,4.0.5,0,s,s,h,NA,s,NA,584,37746,13434,NA,584,NA,NA,NA,2,legacy,1024,2,48000,-16,experiment,HHSHH,4,even,202930,41384,193230,NA,197602,3633,193998,204000,NA,3636,179795,NA,204102,204687,NA,203998,204101,NA,Flanker Task ,84,45829,87,1024
96,96,525,525,#3d3846,legacy,legacy,legacy,congruent,1,undefined,1,s,87,0,0,0,87,0,87,87,NA,0,0,0,87,87,0,87,87,NA,Sun Sep 24 20:47:26 2023,600,The main experiment item,FALSE,FlankerTask.osexp,C:\Users\backs\OneDrive\Documents,FALSE,mono,FALSE,18,no,white,no,yes,768,legacy,7,79,C:/Users/backs/OneDrive/Documents/BZ-subject-4.csv,legacy,Melodramatic Milgram,4.0.5,0,s,s,h,NA,s,NA,388,37746,13434,NA,388,NA,NA,NA,2,legacy,1024,2,48000,-16,experiment,SSSSS,4,even,204691,41384,193230,NA,197602,3633,193998,205759,NA,3636,179795,NA,205861,206251,NA,205757,205861,NA,Flanker Task ,85,46217,88,1024
96,96,523,523,#3d3846,legacy,legacy,legacy,incongruent,1,undefined,1,s,88,0,0,0,88,0,88,88,NA,0,0,0,88,88,0,88,88,NA,Sun Sep 24 20:47:26 2023,600,The main experiment item,FALSE,FlankerTask.osexp,C:\Users\backs\OneDrive\Documents,FALSE,mono,FALSE,18,no,white,no,yes,768,legacy,8,79,C:/Users/backs/OneDrive/Documents/BZ-subject-4.csv,legacy,Melodramatic Milgram,4.0.5,0,s,s,h,NA,s,NA,398,37746,13434,NA,398,NA,NA,NA,2,legacy,1024,2,48000,-16,experiment,HHSHH,4,even,206256,41384,193230,NA,197602,3633,193998,207337,NA,3636,179795,NA,207439,207839,NA,207335,207439,NA,Flanker Task ,86,46615,89,1024
95,95,521,521,#3d3846,legacy,legacy,legacy,incongruent,0,undefined,0,h,89,0,0,0,89,0,89,89,NA,0,0,0,89,89,0,89,89,NA,Sun Sep 24 20:47:26 2023,600,The main experiment item,FALSE,FlankerTask.osexp,C:\Users\backs\OneDrive\Documents,FALSE,mono,FALSE,18,no,white,no,yes,768,legacy,9,79,C:/Users/backs/OneDrive/Documents/BZ-subject-4.csv,legacy,Melodramatic Milgram,4.0.5,0,s,s,h,NA,s,NA,324,37746,13434,NA,324,NA,NA,NA,2,legacy,1024,2,48000,-16,experiment,SSHSS,4,even,207843,41384,193230,NA,197602,3633,193998,208935,NA,3636,179795,NA,209036,209361,NA,208933,209036,NA,Flanker Task ,86,46939,90,1024
95,95,520,520,#3d3846,legacy,legacy,legacy,incongruent,1,undefined,1,s,90,0,0,0,90,0,90,90,NA,0,0,0,90,90,0,90,90,NA,Sun Sep 24 20:47:26 2023,600,The main experiment item,FALSE,FlankerTask.osexp,C:\Users\backs\OneDrive\Documents,FALSE,mono,FALSE,18,no,white,no,yes,768,legacy,10,79,C:/Users/backs/OneDrive/Documents/BZ-subject-4.csv,legacy,Melodramatic Milgram,4.0.5,0,s,s,h,NA,s,NA,464,37746,13434,NA,464,NA,NA,NA,2,legacy,1024,2,48000,-16,experiment,HHSHH,4,even,209867,41384,193230,NA,209365,3633,193998,210937,NA,3636,179795,NA,211038,211503,NA,210935,211038,NA,Flanker Task ,87,47403,91,1024
95,95,520,520,#3d3846,legacy,legacy,legacy,incongruent,1,undefined,1,h,91,0,0,0,91,0,91,91,NA,0,0,0,91,91,0,91,91,NA,Sun Sep 24 20:47:26 2023,600,The main experiment item,FALSE,FlankerTask.osexp,C:\Users\backs\OneDrive\Documents,FALSE,mono,FALSE,18,no,white,no,yes,768,legacy,11,79,C:/Users/backs/OneDrive/Documents/BZ-subject-4.csv,legacy,Melodramatic Milgram,4.0.5,0,h,s,h,NA,h,NA,495,37746,13434,NA,495,NA,NA,NA,2,legacy,1024,2,48000,-16,experiment,SSHSS,4,even,211507,41384,193230,NA,209365,3633,193998,212584,NA,3636,179795,NA,212686,213182,NA,212581,212685,NA,Flanker Task ,88,47898,92,1024
95,95,519,519,#3d3846,legacy,legacy,legacy,congruent,1,undefined,1,s,92,0,0,0,92,0,92,92,NA,0,0,0,92,92,0,92,92,NA,Sun Sep 24 20:47:26 2023,600,The main experiment item,FALSE,FlankerTask.osexp,C:\Users\backs\OneDrive\Documents,FALSE,mono,FALSE,18,no,white,no,yes,768,legacy,12,79,C:/Users/backs/OneDrive/Documents/BZ-subject-4.csv,legacy,Melodramatic Milgram,4.0.5,0,s,s,h,NA,s,NA,441,37746,13434,NA,441,NA,NA,NA,2,legacy,1024,2,48000,-16,experiment,SSSSS,4,even,213186,41384,193230,NA,209365,3633,193998,214264,NA,3636,179795,NA,214365,214808,NA,214261,214365,NA,Flanker Task ,89,48339,93,1024
95,95,519,519,#3d3846,legacy,legacy,legacy,incongruent,1,undefined,1,s,93,0,0,0,93,0,93,93,NA,0,0,0,93,93,0,93,93,NA,Sun Sep 24 20:47:26 2023,600,The main experiment item,FALSE,FlankerTask.osexp,C:\Users\backs\OneDrive\Documents,FALSE,mono,FALSE,18,no,white,no,yes,768,legacy,13,79,C:/Users/backs/OneDrive/Documents/BZ-subject-4.csv,legacy,Melodramatic Milgram,4.0.5,0,s,s,h,NA,s,NA,515,37746,13434,NA,515,NA,NA,NA,2,legacy,1024,2,48000,-16,experiment,HHSHH,4,even,214813,41384,193230,NA,209365,3633,193998,215892,NA,3636,179795,NA,215994,216510,NA,215890,215993,NA,Flanker Task ,90,48854,94,1024
95,95,518,518,#3d3846,legacy,legacy,legacy,congruent,1,undefined,1,s,94,0,0,0,94,0,94,94,NA,0,0,0,94,94,0,94,94,NA,Sun Sep 24 20:47:26 2023,600,The main experiment item,FALSE,FlankerTask.osexp,C:\Users\backs\OneDrive\Documents,FALSE,mono,FALSE,18,no,white,no,yes,768,legacy,14,79,C:/Users/backs/OneDrive/Documents/BZ-subject-4.csv,legacy,Melodramatic Milgram,4.0.5,0,s,s,h,NA,s,NA,401,37746,13434,NA,401,NA,NA,NA,2,legacy,1024,2,48000,-16,experiment,SSSSS,4,even,216514,41384,193230,NA,209365,3633,193998,217589,NA,3636,179795,NA,217691,218093,NA,217587,217691,NA,Flanker Task ,91,49255,95,1024
95,95,517,517,#3d3846,legacy,legacy,legacy,congruent,1,undefined,1,s,95,0,0,0,95,0,95,95,NA,0,0,0,95,95,0,95,95,NA,Sun Sep 24 20:47:26 2023,600,The main experiment item,FALSE,FlankerTask.osexp,C:\Users\backs\OneDrive\Documents,FALSE,mono,FALSE,18,no,white,no,yes,768,legacy,15,79,C:/Users/backs/OneDrive/Documents/BZ-subject-4.csv,legacy,Melodramatic Milgram,4.0.5,0,s,s,h,NA,s,NA,392,37746,13434,NA,392,NA,NA,NA,2,legacy,1024,2,48000,-16,experiment,SSSSS,4,even,218098,41384,193230,NA,209365,3633,193998,219184,NA,3636,179795,NA,219287,219680,NA,219182,219287,NA,Flanker Task ,92,49647,96,1024
95,95,516,516,#3d3846,legacy,legacy,legacy,congruent,1,undefined,1,s,96,0,0,0,96,0,96,96,NA,0,0,0,96,96,0,96,96,NA,Sun Sep 24 20:47:26 2023,600,The main experiment item,FALSE,FlankerTask.osexp,C:\Users\backs\OneDrive\Documents,FALSE,mono,FALSE,18,no,white,no,yes,768,legacy,16,79,C:/Users/backs/OneDrive/Documents/BZ-subject-4.csv,legacy,Melodramatic Milgram,4.0.5,0,s,s,h,NA,s,NA,455,37746,13434,NA,455,NA,NA,NA,2,legacy,1024,2,48000,-16,experiment,SSSSS,4,even,219686,41384,193230,NA,209365,3633,193998,220766,NA,3636,179795,NA,220868,221324,NA,220763,220867,NA,Flanker Task ,93,50102,97,1024
95,95,516,516,#3d3846,legacy,legacy,legacy,congruent,1,undefined,1,h,97,0,0,0,97,0,97,97,NA,0,0,0,97,97,0,97,97,NA,Sun Sep 24 20:47:26 2023,600,The main experiment item,FALSE,FlankerTask.osexp,C:\Users\backs\OneDrive\Documents,FALSE,mono,FALSE,18,no,white,no,yes,768,legacy,17,79,C:/Users/backs/OneDrive/Documents/BZ-subject-4.csv,legacy,Melodramatic Milgram,4.0.5,0,h,s,h,NA,h,NA,517,37746,13434,NA,517,NA,NA,NA,2,legacy,1024,2,48000,-16,experiment,HHHHH,4,even,221328,41384,193230,NA,209365,3633,193998,222414,NA,3636,179795,NA,222516,223034,NA,222411,222516,NA,Flanker Task ,94,50619,98,1024
95,95,515,515,#3d3846,legacy,legacy,legacy,incongruent,1,undefined,1,h,98,0,0,0,98,0,98,98,NA,0,0,0,98,98,0,98,98,NA,Sun Sep 24 20:47:26 2023,600,The main experiment item,FALSE,FlankerTask.osexp,C:\Users\backs\OneDrive\Documents,FALSE,mono,FALSE,18,no,white,no,yes,768,legacy,18,79,C:/Users/backs/OneDrive/Documents/BZ-subject-4.csv,legacy,Melodramatic Milgram,4.0.5,0,h,s,h,NA,h,NA,416,37746,13434,NA,416,NA,NA,NA,2,legacy,1024,2,48000,-16,experiment,SSHSS,4,even,223038,41384,193230,NA,209365,3633,193998,224129,NA,3636,179795,NA,224231,224648,NA,224127,224230,NA,Flanker Task ,95,51035,99,1024
96,96,515,515,#3d3846,legacy,legacy,legacy,incongruent,1,undefined,1,h,99,0,0,0,99,0,99,99,NA,0,0,0,99,99,0,99,99,NA,Sun Sep 24 20:47:26 2023,600,The main experiment item,FALSE,FlankerTask.osexp,C:\Users\backs\OneDrive\Documents,FALSE,mono,FALSE,18,no,white,no,yes,768,legacy,19,79,C:/Users/backs/OneDrive/Documents/BZ-subject-4.csv,legacy,Melodramatic Milgram,4.0.5,0,h,s,h,NA,h,NA,499,37746,13434,NA,499,NA,NA,NA,2,legacy,1024,2,48000,-16,experiment,SSHSS,4,even,224652,41384,193230,NA,209365,3633,193998,225728,NA,3636,179795,NA,225829,226329,NA,225726,225829,NA,Flanker Task ,96,51534,100,1024
96,96,514,514,#3d3846,legacy,legacy,legacy,congruent,1,undefined,1,h,100,0,0,0,100,0,100,100,NA,0,0,0,100,100,0,100,100,NA,Sun Sep 24 20:47:26 2023,600,The main experiment item,FALSE,FlankerTask.osexp,C:\Users\backs\OneDrive\Documents,FALSE,mono,FALSE,18,no,white,no,yes,768,legacy,20,79,C:/Users/backs/OneDrive/Documents/BZ-subject-4.csv,legacy,Melodramatic Milgram,4.0.5,0,h,s,h,NA,h,NA,473,37746,13434,NA,473,NA,NA,NA,2,legacy,1024,2,48000,-16,experiment,HHHHH,4,even,226333,41384,193230,NA,209365,3633,193998,227409,NA,3636,179795,NA,227511,227985,NA,227407,227510,NA,Flanker Task ,97,52007,101,1024
96,96,514,514,#3d3846,legacy,legacy,legacy,incongruent,1,undefined,1,h,101,0,0,0,101,0,101,101,NA,0,0,0,101,101,0,101,101,NA,Sun Sep 24 20:47:26 2023,600,The main experiment item,FALSE,FlankerTask.osexp,C:\Users\backs\OneDrive\Documents,FALSE,mono,FALSE,18,no,white,no,yes,768,legacy,21,79,C:/Users/backs/OneDrive/Documents/BZ-subject-4.csv,legacy,Melodramatic Milgram,4.0.5,0,h,s,h,NA,h,NA,463,37746,13434,NA,463,NA,NA,NA,2,legacy,1024,2,48000,-16,experiment,SSHSS,4,even,227989,41384,193230,NA,209365,3633,193998,229063,NA,3636,179795,NA,229164,229628,NA,229061,229164,NA,Flanker Task ,98,52470,102,1024
96,96,513,513,#3d3846,legacy,legacy,legacy,incongruent,1,undefined,1,h,102,0,0,0,102,0,102,102,NA,0,0,0,102,102,0,102,102,NA,Sun Sep 24 20:47:26 2023,600,The main experiment item,FALSE,FlankerTask.osexp,C:\Users\backs\OneDrive\Documents,FALSE,mono,FALSE,18,no,white,no,yes,768,legacy,22,79,C:/Users/backs/OneDrive/Documents/BZ-subject-4.csv,legacy,Melodramatic Milgram,4.0.5,0,h,s,h,NA,h,NA,431,37746,13434,NA,431,NA,NA,NA,2,legacy,1024,2,48000,-16,experiment,SSHSS,4,even,229633,41384,193230,NA,209365,3633,193998,230715,NA,3636,179795,NA,230817,231249,NA,230713,230816,NA,Flanker Task ,99,52901,103,1024
96,96,513,513,#3d3846,legacy,legacy,legacy,incongruent,1,undefined,1,s,103,0,0,0,103,0,103,103,NA,0,0,0,103,103,0,103,103,NA,Sun Sep 24 20:47:26 2023,600,The main experiment item,FALSE,FlankerTask.osexp,C:\Users\backs\OneDrive\Documents,FALSE,mono,FALSE,18,no,white,no,yes,768,legacy,23,79,C:/Users/backs/OneDrive/Documents/BZ-subject-4.csv,legacy,Melodramatic Milgram,4.0.5,0,s,s,h,NA,s,NA,486,37746,13434,NA,486,NA,NA,NA,2,legacy,1024,2,48000,-16,experiment,HHSHH,4,even,231253,41384,193230,NA,209365,3633,193998,232327,NA,3636,179795,NA,232429,232916,NA,232325,232429,NA,Flanker Task ,100,53387,104,1024
96,96,512,512,#3d3846,legacy,legacy,legacy,congruent,1,undefined,1,h,104,0,0,0,104,0,104,104,NA,0,0,0,104,104,0,104,104,NA,Sun Sep 24 20:47:26 2023,600,The main experiment item,FALSE,FlankerTask.osexp,C:\Users\backs\OneDrive\Documents,FALSE,mono,FALSE,18,no,white,no,yes,768,legacy,24,79,C:/Users/backs/OneDrive/Documents/BZ-subject-4.csv,legacy,Melodramatic Milgram,4.0.5,0,h,s,h,NA,h,NA,450,37746,13434,NA,450,NA,NA,NA,2,legacy,1024,2,48000,-16,experiment,HHHHH,4,even,232920,41384,193230,NA,209365,3633,193998,233988,NA,3636,179795,NA,234089,234540,NA,233986,234089,NA,Flanker Task ,101,53837,105,1024
96,96,513,513,#3d3846,legacy,legacy,legacy,incongruent,1,undefined,1,h,105,0,0,0,105,0,105,105,NA,0,0,0,105,105,0,105,105,NA,Sun Sep 24 20:47:26 2023,600,The main experiment item,FALSE,FlankerTask.osexp,C:\Users\backs\OneDrive\Documents,FALSE,mono,FALSE,18,no,white,no,yes,768,legacy,25,79,C:/Users/backs/OneDrive/Documents/BZ-subject-4.csv,legacy,Melodramatic Milgram,4.0.5,0,h,s,h,NA,h,NA,572,37746,13434,NA,572,NA,NA,NA,2,legacy,1024,2,48000,-16,experiment,SSHSS,4,even,234544,41384,193230,NA,209365,3633,193998,235614,NA,3636,179795,NA,235715,236288,NA,235613,235715,NA,Flanker Task ,102,54409,106,1024
96,96,513,513,#3d3846,legacy,legacy,legacy,incongruent,1,undefined,1,h,106,0,0,0,106,0,106,106,NA,0,0,0,106,106,0,106,106,NA,Sun Sep 24 20:47:26 2023,600,The main experiment item,FALSE,FlankerTask.osexp,C:\Users\backs\OneDrive\Documents,FALSE,mono,FALSE,18,no,white,no,yes,768,legacy,26,79,C:/Users/backs/OneDrive/Documents/BZ-subject-4.csv,legacy,Melodramatic Milgram,4.0.5,0,h,s,h,NA,h,NA,507,37746,13434,NA,507,NA,NA,NA,2,legacy,1024,2,48000,-16,experiment,SSHSS,4,even,236294,41384,193230,NA,209365,3633,193998,237379,NA,3636,179795,NA,237481,237990,NA,237377,237481,NA,Flanker Task ,103,54916,107,1024
96,96,512,512,#3d3846,legacy,legacy,legacy,congruent,1,undefined,1,h,107,0,0,0,107,0,107,107,NA,0,0,0,107,107,0,107,107,NA,Sun Sep 24 20:47:26 2023,600,The main experiment item,FALSE,FlankerTask.osexp,C:\Users\backs\OneDrive\Documents,FALSE,mono,FALSE,18,no,white,no,yes,768,legacy,27,79,C:/Users/backs/OneDrive/Documents/BZ-subject-4.csv,legacy,Melodramatic Milgram,4.0.5,0,h,s,h,NA,h,NA,429,37746,13434,NA,429,NA,NA,NA,2,legacy,1024,2,48000,-16,experiment,HHHHH,4,even,237995,41384,193230,NA,209365,3633,193998,239086,NA,3636,179795,NA,239188,239619,NA,239084,239187,NA,Flanker Task ,104,55345,108,1024
96,96,512,512,#3d3846,legacy,legacy,legacy,incongruent,1,undefined,1,s,108,0,0,0,108,0,108,108,NA,0,0,0,108,108,0,108,108,NA,Sun Sep 24 20:47:26 2023,600,The main experiment item,FALSE,FlankerTask.osexp,C:\Users\backs\OneDrive\Documents,FALSE,mono,FALSE,18,no,white,no,yes,768,legacy,28,79,C:/Users/backs/OneDrive/Documents/BZ-subject-4.csv,legacy,Melodramatic Milgram,4.0.5,0,s,s,h,NA,s,NA,487,37746,13434,NA,487,NA,NA,NA,2,legacy,1024,2,48000,-16,experiment,HHSHH,4,even,239622,41384,193230,NA,209365,3633,193998,240696,NA,3636,179795,NA,240797,241285,NA,240694,240797,NA,Flanker Task ,105,55832,109,1024
96,96,511,511,#3d3846,legacy,legacy,legacy,incongruent,1,undefined,1,h,109,0,0,0,109,0,109,109,NA,0,0,0,109,109,0,109,109,NA,Sun Sep 24 20:47:26 2023,600,The main experiment item,FALSE,FlankerTask.osexp,C:\Users\backs\OneDrive\Documents,FALSE,mono,FALSE,18,no,white,no,yes,768,legacy,29,79,C:/Users/backs/OneDrive/Documents/BZ-subject-4.csv,legacy,Melodramatic Milgram,4.0.5,0,h,s,h,NA,h,NA,466,37746,13434,NA,466,NA,NA,NA,2,legacy,1024,2,48000,-16,experiment,SSHSS,4,even,241289,41384,193230,NA,209365,3633,193998,242359,NA,3636,179795,NA,242461,242928,NA,242357,242461,NA,Flanker Task ,106,56298,110,1024
96,96,510,510,#3d3846,legacy,legacy,legacy,congruent,1,undefined,1,h,110,0,0,0,110,0,110,110,NA,0,0,0,110,110,0,110,110,NA,Sun Sep 24 20:47:26 2023,600,The main experiment item,FALSE,FlankerTask.osexp,C:\Users\backs\OneDrive\Documents,FALSE,mono,FALSE,18,no,white,no,yes,768,legacy,30,79,C:/Users/backs/OneDrive/Documents/BZ-subject-4.csv,legacy,Melodramatic Milgram,4.0.5,0,h,s,h,NA,h,NA,394,37746,13434,NA,394,NA,NA,NA,2,legacy,1024,2,48000,-16,experiment,HHHHH,4,even,242932,41384,193230,NA,209365,3633,193998,244016,NA,3636,179795,NA,244118,244513,NA,244014,244117,NA,Flanker Task ,107,56692,111,1024
96,96,511,511,#3d3846,legacy,legacy,legacy,incongruent,1,undefined,1,s,111,0,0,0,111,0,111,111,NA,0,0,0,111,111,0,111,111,NA,Sun Sep 24 20:47:26 2023,600,The main experiment item,FALSE,FlankerTask.osexp,C:\Users\backs\OneDrive\Documents,FALSE,mono,FALSE,18,no,white,no,yes,768,legacy,31,79,C:/Users/backs/OneDrive/Documents/BZ-subject-4.csv,legacy,Melodramatic Milgram,4.0.5,0,s,s,h,NA,s,NA,576,37746,13434,NA,576,NA,NA,NA,2,legacy,1024,2,48000,-16,experiment,HHSHH,4,even,244517,41384,193230,NA,209365,3633,193998,245594,NA,3636,179795,NA,245696,246273,NA,245592,245695,NA,Flanker Task ,108,57268,112,1024
96,96,510,510,#3d3846,legacy,legacy,legacy,incongruent,1,undefined,1,s,112,0,0,0,112,0,112,112,NA,0,0,0,112,112,0,112,112,NA,Sun Sep 24 20:47:26 2023,600,The main experiment item,FALSE,FlankerTask.osexp,C:\Users\backs\OneDrive\Documents,FALSE,mono,FALSE,18,no,white,no,yes,768,legacy,32,79,C:/Users/backs/OneDrive/Documents/BZ-subject-4.csv,legacy,Melodramatic Milgram,4.0.5,0,s,s,h,NA,s,NA,430,37746,13434,NA,430,NA,NA,NA,2,legacy,1024,2,48000,-16,experiment,HHSHH,4,even,246279,41384,193230,NA,209365,3633,193998,247353,NA,3636,179795,NA,247454,247886,NA,247351,247454,NA,Flanker Task ,109,57698,113,1024
96,96,510,510,#3d3846,legacy,legacy,legacy,incongruent,1,undefined,1,s,113,0,0,0,113,0,113,113,NA,0,0,0,113,113,0,113,113,NA,Sun Sep 24 20:47:26 2023,600,The main experiment item,FALSE,FlankerTask.osexp,C:\Users\backs\OneDrive\Documents,FALSE,mono,FALSE,18,no,white,no,yes,768,legacy,33,79,C:/Users/backs/OneDrive/Documents/BZ-subject-4.csv,legacy,Melodramatic Milgram,4.0.5,0,s,s,h,NA,s,NA,500,37746,13434,NA,500,NA,NA,NA,2,legacy,1024,2,48000,-16,experiment,HHSHH,4,even,247890,41384,193230,NA,209365,3633,193998,248977,NA,3636,179795,NA,249079,249581,NA,248976,249079,NA,Flanker Task ,110,58198,114,1024
96,96,510,510,#3d3846,legacy,legacy,legacy,incongruent,1,undefined,1,s,114,0,0,0,114,0,114,114,NA,0,0,0,114,114,0,114,114,NA,Sun Sep 24 20:47:26 2023,600,The main experiment item,FALSE,FlankerTask.osexp,C:\Users\backs\OneDrive\Documents,FALSE,mono,FALSE,18,no,white,no,yes,768,legacy,34,79,C:/Users/backs/OneDrive/Documents/BZ-subject-4.csv,legacy,Melodramatic Milgram,4.0.5,0,s,s,h,NA,s,NA,506,37746,13434,NA,506,NA,NA,NA,2,legacy,1024,2,48000,-16,experiment,HHSHH,4,even,249585,41384,193230,NA,209365,3633,193998,250669,NA,3636,179795,NA,250772,251280,NA,250667,250772,NA,Flanker Task ,111,58704,115,1024
96,96,509,509,#3d3846,legacy,legacy,legacy,congruent,1,undefined,1,h,115,0,0,0,115,0,115,115,NA,0,0,0,115,115,0,115,115,NA,Sun Sep 24 20:47:26 2023,600,The main experiment item,FALSE,FlankerTask.osexp,C:\Users\backs\OneDrive\Documents,FALSE,mono,FALSE,18,no,white,no,yes,768,legacy,35,79,C:/Users/backs/OneDrive/Documents/BZ-subject-4.csv,legacy,Melodramatic Milgram,4.0.5,0,h,s,h,NA,h,NA,432,37746,13434,NA,432,NA,NA,NA,2,legacy,1024,2,48000,-16,experiment,HHHHH,4,even,251284,41384,193230,NA,209365,3633,193998,252362,NA,3636,179795,NA,252464,252897,NA,252359,252464,NA,Flanker Task ,112,59136,116,1024
96,96,508,508,#3d3846,legacy,legacy,legacy,congruent,1,undefined,1,s,116,0,0,0,116,0,116,116,NA,0,0,0,116,116,0,116,116,NA,Sun Sep 24 20:47:26 2023,600,The main experiment item,FALSE,FlankerTask.osexp,C:\Users\backs\OneDrive\Documents,FALSE,mono,FALSE,18,no,white,no,yes,768,legacy,36,79,C:/Users/backs/OneDrive/Documents/BZ-subject-4.csv,legacy,Melodramatic Milgram,4.0.5,0,s,s,h,NA,s,NA,391,37746,13434,NA,391,NA,NA,NA,2,legacy,1024,2,48000,-16,experiment,SSSSS,4,even,252903,41384,193230,NA,209365,3633,193998,254007,NA,3636,179795,NA,254110,254503,NA,254006,254110,NA,Flanker Task ,113,59527,117,1024
96,96,507,507,#3d3846,legacy,legacy,legacy,congruent,1,undefined,1,s,117,0,0,0,117,0,117,117,NA,0,0,0,117,117,0,117,117,NA,Sun Sep 24 20:47:26 2023,600,The main experiment item,FALSE,FlankerTask.osexp,C:\Users\backs\OneDrive\Documents,FALSE,mono,FALSE,18,no,white,no,yes,768,legacy,37,79,C:/Users/backs/OneDrive/Documents/BZ-subject-4.csv,legacy,Melodramatic Milgram,4.0.5,0,s,s,h,NA,s,NA,412,37746,13434,NA,412,NA,NA,NA,2,legacy,1024,2,48000,-16,experiment,SSSSS,4,even,254508,41384,193230,NA,209365,3633,193998,255585,NA,3636,179795,NA,255687,256100,NA,255583,255686,NA,Flanker Task ,114,59939,118,1024
96,96,506,506,#3d3846,legacy,legacy,legacy,congruent,1,undefined,1,s,118,0,0,0,118,0,118,118,NA,0,0,0,118,118,0,118,118,NA,Sun Sep 24 20:47:26 2023,600,The main experiment item,FALSE,FlankerTask.osexp,C:\Users\backs\OneDrive\Documents,FALSE,mono,FALSE,18,no,white,no,yes,768,legacy,38,79,C:/Users/backs/OneDrive/Documents/BZ-subject-4.csv,legacy,Melodramatic Milgram,4.0.5,0,s,s,h,NA,s,NA,388,37746,13434,NA,388,NA,NA,NA,2,legacy,1024,2,48000,-16,experiment,SSSSS,4,even,256104,41384,193230,NA,209365,3633,193998,257182,NA,3636,179795,NA,257284,257673,NA,257180,257284,NA,Flanker Task ,115,60327,119,1024
96,96,506,506,#3d3846,legacy,legacy,legacy,congruent,1,undefined,1,h,119,0,0,0,119,0,119,119,NA,0,0,0,119,119,0,119,119,NA,Sun Sep 24 20:47:26 2023,600,The main experiment item,FALSE,FlankerTask.osexp,C:\Users\backs\OneDrive\Documents,FALSE,mono,FALSE,18,no,white,no,yes,768,legacy,39,79,C:/Users/backs/OneDrive/Documents/BZ-subject-4.csv,legacy,Melodramatic Milgram,4.0.5,0,h,s,h,NA,h,NA,437,37746,13434,NA,437,NA,NA,NA,2,legacy,1024,2,48000,-16,experiment,HHHHH,4,even,257678,41384,193230,NA,209365,3633,193998,258762,NA,3636,179795,NA,258864,259303,NA,258760,258864,NA,Flanker Task ,116,60764,120,1024
96,96,505,505,#3d3846,legacy,legacy,legacy,congruent,1,undefined,1,h,120,0,0,0,120,0,120,120,NA,0,0,0,120,120,0,120,120,NA,Sun Sep 24 20:47:26 2023,600,The main experiment item,FALSE,FlankerTask.osexp,C:\Users\backs\OneDrive\Documents,FALSE,mono,FALSE,18,no,white,no,yes,768,legacy,40,79,C:/Users/backs/OneDrive/Documents/BZ-subject-4.csv,legacy,Melodramatic Milgram,4.0.5,0,h,s,h,NA,h,NA,404,37746,13434,NA,404,NA,NA,NA,2,legacy,1024,2,48000,-16,experiment,HHHHH,4,even,259308,41384,193230,NA,209365,3633,193998,260389,NA,3636,179795,NA,260491,260896,NA,260387,260491,NA,Flanker Task ,117,61168,121,1024
96,96,505,505,#3d3846,legacy,legacy,legacy,incongruent,1,undefined,1,s,121,0,0,0,121,0,121,121,NA,0,0,0,121,121,0,121,121,NA,Sun Sep 24 20:47:26 2023,600,The main experiment item,FALSE,FlankerTask.osexp,C:\Users\backs\OneDrive\Documents,FALSE,mono,FALSE,18,no,white,no,yes,768,legacy,41,79,C:/Users/backs/OneDrive/Documents/BZ-subject-4.csv,legacy,Melodramatic Milgram,4.0.5,0,s,s,h,NA,s,NA,461,37746,13434,NA,461,NA,NA,NA,2,legacy,1024,2,48000,-16,experiment,HHSHH,4,even,260900,41384,193230,NA,209365,3633,193998,261988,NA,3636,179795,NA,262090,262552,NA,261985,262090,NA,Flanker Task ,118,61629,122,1024
96,96,504,504,#3d3846,legacy,legacy,legacy,congruent,1,undefined,1,h,122,0,0,0,122,0,122,122,NA,0,0,0,122,122,0,122,122,NA,Sun Sep 24 20:47:26 2023,600,The main experiment item,FALSE,FlankerTask.osexp,C:\Users\backs\OneDrive\Documents,FALSE,mono,FALSE,18,no,white,no,yes,768,legacy,42,79,C:/Users/backs/OneDrive/Documents/BZ-subject-4.csv,legacy,Melodramatic Milgram,4.0.5,0,h,s,h,NA,h,NA,457,37746,13434,NA,457,NA,NA,NA,2,legacy,1024,2,48000,-16,experiment,HHHHH,4,even,262556,41384,193230,NA,209365,3633,193998,263643,NA,3636,179795,NA,263746,264205,NA,263641,263746,NA,Flanker Task ,119,62086,123,1024
96,96,504,504,#3d3846,legacy,legacy,legacy,congruent,1,undefined,1,s,123,0,0,0,123,0,123,123,NA,0,0,0,123,123,0,123,123,NA,Sun Sep 24 20:47:26 2023,600,The main experiment item,FALSE,FlankerTask.osexp,C:\Users\backs\OneDrive\Documents,FALSE,mono,FALSE,18,no,white,no,yes,768,legacy,43,79,C:/Users/backs/OneDrive/Documents/BZ-subject-4.csv,legacy,Melodramatic Milgram,4.0.5,0,s,s,h,NA,s,NA,436,37746,13434,NA,436,NA,NA,NA,2,legacy,1024,2,48000,-16,experiment,SSSSS,4,even,264209,41384,193230,NA,209365,3633,193998,265283,NA,3636,179795,NA,265385,265822,NA,265281,265384,NA,Flanker Task ,120,62522,124,1024
96,96,504,504,#3d3846,legacy,legacy,legacy,incongruent,1,undefined,1,h,124,0,0,0,124,0,124,124,NA,0,0,0,124,124,0,124,124,NA,Sun Sep 24 20:47:26 2023,600,The main experiment item,FALSE,FlankerTask.osexp,C:\Users\backs\OneDrive\Documents,FALSE,mono,FALSE,18,no,white,no,yes,768,legacy,44,79,C:/Users/backs/OneDrive/Documents/BZ-subject-4.csv,legacy,Melodramatic Milgram,4.0.5,0,h,s,h,NA,h,NA,485,37746,13434,NA,485,NA,NA,NA,2,legacy,1024,2,48000,-16,experiment,SSHSS,4,even,265826,41384,193230,NA,209365,3633,193998,266900,NA,3636,179795,NA,267003,267489,NA,266898,267002,NA,Flanker Task ,121,63007,125,1024
96,96,503,503,#3d3846,legacy,legacy,legacy,congruent,1,undefined,1,s,125,0,0,0,125,0,125,125,NA,0,0,0,125,125,0,125,125,NA,Sun Sep 24 20:47:26 2023,600,The main experiment item,FALSE,FlankerTask.osexp,C:\Users\backs\OneDrive\Documents,FALSE,mono,FALSE,18,no,white,no,yes,768,legacy,45,79,C:/Users/backs/OneDrive/Documents/BZ-subject-4.csv,legacy,Melodramatic Milgram,4.0.5,0,s,s,h,NA,s,NA,389,37746,13434,NA,389,NA,NA,NA,2,legacy,1024,2,48000,-16,experiment,SSSSS,4,even,267495,41384,193230,NA,209365,3633,193998,268592,NA,3636,179795,NA,268694,269085,NA,268590,268694,NA,Flanker Task ,122,63396,126,1024
96,96,502,502,#3d3846,legacy,legacy,legacy,congruent,1,undefined,1,h,126,0,0,0,126,0,126,126,NA,0,0,0,126,126,0,126,126,NA,Sun Sep 24 20:47:26 2023,600,The main experiment item,FALSE,FlankerTask.osexp,C:\Users\backs\OneDrive\Documents,FALSE,mono,FALSE,18,no,white,no,yes,768,legacy,46,79,C:/Users/backs/OneDrive/Documents/BZ-subject-4.csv,legacy,Melodramatic Milgram,4.0.5,0,h,s,h,NA,h,NA,438,37746,13434,NA,438,NA,NA,NA,2,legacy,1024,2,48000,-16,experiment,HHHHH,4,even,269090,41384,193230,NA,209365,3633,193998,270170,NA,3636,179795,NA,270272,270712,NA,270168,270271,NA,Flanker Task ,123,63834,127,1024
96,96,501,501,#3d3846,legacy,legacy,legacy,incongruent,0,undefined,0,h,127,0,0,0,127,0,127,127,NA,0,0,0,127,127,0,127,127,NA,Sun Sep 24 20:47:26 2023,600,The main experiment item,FALSE,FlankerTask.osexp,C:\Users\backs\OneDrive\Documents,FALSE,mono,FALSE,18,no,white,no,yes,768,legacy,47,79,C:/Users/backs/OneDrive/Documents/BZ-subject-4.csv,legacy,Melodramatic Milgram,4.0.5,0,s,s,h,NA,s,NA,419,37746,13434,NA,419,NA,NA,NA,2,legacy,1024,2,48000,-16,experiment,SSHSS,4,even,270716,41384,193230,NA,209365,3633,193998,271809,NA,3636,179795,NA,271912,272333,NA,271807,271912,NA,Flanker Task ,123,64253,128,1024
96,96,501,501,#3d3846,legacy,legacy,legacy,congruent,1,undefined,1,s,128,0,0,0,128,0,128,128,NA,0,0,0,128,128,0,128,128,NA,Sun Sep 24 20:47:26 2023,600,The main experiment item,FALSE,FlankerTask.osexp,C:\Users\backs\OneDrive\Documents,FALSE,mono,FALSE,18,no,white,no,yes,768,legacy,48,79,C:/Users/backs/OneDrive/Documents/BZ-subject-4.csv,legacy,Melodramatic Milgram,4.0.5,0,s,s,h,NA,s,NA,451,37746,13434,NA,451,NA,NA,NA,2,legacy,1024,2,48000,-16,experiment,SSSSS,4,even,272840,41384,193230,NA,272338,3633,193998,273930,NA,3636,179795,NA,274032,274484,NA,273928,274032,NA,Flanker Task ,124,64704,129,1024
96,96,501,501,#3d3846,legacy,legacy,legacy,incongruent,1,undefined,1,h,129,0,0,0,129,0,129,129,NA,0,0,0,129,129,0,129,129,NA,Sun Sep 24 20:47:26 2023,600,The main experiment item,FALSE,FlankerTask.osexp,C:\Users\backs\OneDrive\Documents,FALSE,mono,FALSE,18,no,white,no,yes,768,legacy,49,79,C:/Users/backs/OneDrive/Documents/BZ-subject-4.csv,legacy,Melodramatic Milgram,4.0.5,0,h,s,h,NA,h,NA,507,37746,13434,NA,507,NA,NA,NA,2,legacy,1024,2,48000,-16,experiment,SSHSS,4,even,274488,41384,193230,NA,272338,3633,193998,275578,NA,3636,179795,NA,275680,276188,NA,275575,275680,NA,Flanker Task ,125,65211,130,1024
96,96,501,501,#3d3846,legacy,legacy,legacy,incongruent,1,undefined,1,h,130,0,0,0,130,0,130,130,NA,0,0,0,130,130,0,130,130,NA,Sun Sep 24 20:47:26 2023,600,The main experiment item,FALSE,FlankerTask.osexp,C:\Users\backs\OneDrive\Documents,FALSE,mono,FALSE,18,no,white,no,yes,768,legacy,50,79,C:/Users/backs/OneDrive/Documents/BZ-subject-4.csv,legacy,Melodramatic Milgram,4.0.5,0,h,s,h,NA,h,NA,486,37746,13434,NA,486,NA,NA,NA,2,legacy,1024,2,48000,-16,experiment,SSHSS,4,even,276192,41384,193230,NA,272338,3633,193998,277280,NA,3636,179795,NA,277382,277870,NA,277277,277381,NA,Flanker Task ,126,65697,131,1024
96,96,501,501,#3d3846,legacy,legacy,legacy,congruent,1,undefined,1,s,131,0,0,0,131,0,131,131,NA,0,0,0,131,131,0,131,131,NA,Sun Sep 24 20:47:26 2023,600,The main experiment item,FALSE,FlankerTask.osexp,C:\Users\backs\OneDrive\Documents,FALSE,mono,FALSE,18,no,white,no,yes,768,legacy,51,79,C:/Users/backs/OneDrive/Documents/BZ-subject-4.csv,legacy,Melodramatic Milgram,4.0.5,0,s,s,h,NA,s,NA,478,37746,13434,NA,478,NA,NA,NA,2,legacy,1024,2,48000,-16,experiment,SSSSS,4,even,277875,41384,193230,NA,272338,3633,193998,278965,NA,3636,179795,NA,279067,279546,NA,278962,279067,NA,Flanker Task ,127,66175,132,1024
96,96,501,501,#3d3846,legacy,legacy,legacy,incongruent,1,undefined,1,s,132,0,0,0,132,0,132,132,NA,0,0,0,132,132,0,132,132,NA,Sun Sep 24 20:47:26 2023,600,The main experiment item,FALSE,FlankerTask.osexp,C:\Users\backs\OneDrive\Documents,FALSE,mono,FALSE,18,no,white,no,yes,768,legacy,52,79,C:/Users/backs/OneDrive/Documents/BZ-subject-4.csv,legacy,Melodramatic Milgram,4.0.5,0,s,s,h,NA,s,NA,585,37746,13434,NA,585,NA,NA,NA,2,legacy,1024,2,48000,-16,experiment,HHSHH,4,even,279550,41384,193230,NA,272338,3633,193998,280645,NA,3636,179795,NA,280750,281336,NA,280643,280750,NA,Flanker Task ,128,66760,133,1024
96,96,502,502,#3d3846,legacy,legacy,legacy,incongruent,1,undefined,1,s,133,0,0,0,133,0,133,133,NA,0,0,0,133,133,0,133,133,NA,Sun Sep 24 20:47:26 2023,600,The main experiment item,FALSE,FlankerTask.osexp,C:\Users\backs\OneDrive\Documents,FALSE,mono,FALSE,18,no,white,no,yes,768,legacy,53,79,C:/Users/backs/OneDrive/Documents/BZ-subject-4.csv,legacy,Melodramatic Milgram,4.0.5,0,s,s,h,NA,s,NA,509,37746,13434,NA,509,NA,NA,NA,2,legacy,1024,2,48000,-16,experiment,HHSHH,4,even,281340,41384,193230,NA,272338,3633,193998,282438,NA,3636,179795,NA,282540,283050,NA,282436,282540,NA,Flanker Task ,129,67269,134,1024
96,96,501,501,#3d3846,legacy,legacy,legacy,incongruent,1,undefined,1,s,134,0,0,0,134,0,134,134,NA,0,0,0,134,134,0,134,134,NA,Sun Sep 24 20:47:26 2023,600,The main experiment item,FALSE,FlankerTask.osexp,C:\Users\backs\OneDrive\Documents,FALSE,mono,FALSE,18,no,white,no,yes,768,legacy,54,79,C:/Users/backs/OneDrive/Documents/BZ-subject-4.csv,legacy,Melodramatic Milgram,4.0.5,0,s,s,h,NA,s,NA,464,37746,13434,NA,464,NA,NA,NA,2,legacy,1024,2,48000,-16,experiment,HHSHH,4,even,283053,41384,193230,NA,272338,3633,193998,284153,NA,3636,179795,NA,284255,284721,NA,284151,284254,NA,Flanker Task ,130,67733,135,1024
96,96,501,501,#3d3846,legacy,legacy,legacy,incongruent,1,undefined,1,s,135,0,0,0,135,0,135,135,NA,0,0,0,135,135,0,135,135,NA,Sun Sep 24 20:47:26 2023,600,The main experiment item,FALSE,FlankerTask.osexp,C:\Users\backs\OneDrive\Documents,FALSE,mono,FALSE,18,no,white,no,yes,768,legacy,55,79,C:/Users/backs/OneDrive/Documents/BZ-subject-4.csv,legacy,Melodramatic Milgram,4.0.5,0,s,s,h,NA,s,NA,471,37746,13434,NA,471,NA,NA,NA,2,legacy,1024,2,48000,-16,experiment,HHSHH,4,even,284725,41384,193230,NA,272338,3633,193998,285801,NA,3636,179795,NA,285903,286376,NA,285799,285902,NA,Flanker Task ,131,68204,136,1024
96,96,502,502,#3d3846,legacy,legacy,legacy,incongruent,1,undefined,1,s,136,0,0,0,136,0,136,136,NA,0,0,0,136,136,0,136,136,NA,Sun Sep 24 20:47:26 2023,600,The main experiment item,FALSE,FlankerTask.osexp,C:\Users\backs\OneDrive\Documents,FALSE,mono,FALSE,18,no,white,no,yes,768,legacy,56,79,C:/Users/backs/OneDrive/Documents/BZ-subject-4.csv,legacy,Melodramatic Milgram,4.0.5,0,s,s,h,NA,s,NA,571,37746,13434,NA,571,NA,NA,NA,2,legacy,1024,2,48000,-16,experiment,HHSHH,4,even,286380,41384,193230,NA,272338,3633,193998,287451,NA,3636,179795,NA,287553,288125,NA,287449,287552,NA,Flanker Task ,132,68775,137,1024
96,96,502,502,#3d3846,legacy,legacy,legacy,congruent,1,undefined,1,h,137,0,0,0,137,0,137,137,NA,0,0,0,137,137,0,137,137,NA,Sun Sep 24 20:47:26 2023,600,The main experiment item,FALSE,FlankerTask.osexp,C:\Users\backs\OneDrive\Documents,FALSE,mono,FALSE,18,no,white,no,yes,768,legacy,57,79,C:/Users/backs/OneDrive/Documents/BZ-subject-4.csv,legacy,Melodramatic Milgram,4.0.5,0,h,s,h,NA,h,NA,517,37746,13434,NA,517,NA,NA,NA,2,legacy,1024,2,48000,-16,experiment,HHHHH,4,even,288129,41384,193230,NA,272338,3633,193998,289218,NA,3636,179795,NA,289321,289840,NA,289216,289321,NA,Flanker Task ,133,69292,138,1024
96,96,502,502,#3d3846,legacy,legacy,legacy,congruent,1,undefined,1,s,138,0,0,0,138,0,138,138,NA,0,0,0,138,138,0,138,138,NA,Sun Sep 24 20:47:26 2023,600,The main experiment item,FALSE,FlankerTask.osexp,C:\Users\backs\OneDrive\Documents,FALSE,mono,FALSE,18,no,white,no,yes,768,legacy,58,79,C:/Users/backs/OneDrive/Documents/BZ-subject-4.csv,legacy,Melodramatic Milgram,4.0.5,0,s,s,h,NA,s,NA,531,37746,13434,NA,531,NA,NA,NA,2,legacy,1024,2,48000,-16,experiment,SSSSS,4,even,289845,41384,193230,NA,272338,3633,193998,290929,NA,3636,179795,NA,291031,291564,NA,290927,291031,NA,Flanker Task ,134,69823,139,1024
96,96,502,502,#3d3846,legacy,legacy,legacy,congruent,1,undefined,1,h,139,0,0,0,139,0,139,139,NA,0,0,0,139,139,0,139,139,NA,Sun Sep 24 20:47:26 2023,600,The main experiment item,FALSE,FlankerTask.osexp,C:\Users\backs\OneDrive\Documents,FALSE,mono,FALSE,18,no,white,no,yes,768,legacy,59,79,C:/Users/backs/OneDrive/Documents/BZ-subject-4.csv,legacy,Melodramatic Milgram,4.0.5,0,h,s,h,NA,h,NA,492,37746,13434,NA,492,NA,NA,NA,2,legacy,1024,2,48000,-16,experiment,HHHHH,4,even,291568,41384,193230,NA,272338,3633,193998,292643,NA,3636,179795,NA,292745,293239,NA,292641,292744,NA,Flanker Task ,135,70315,140,1024
96,96,501,501,#3d3846,legacy,legacy,legacy,congruent,1,undefined,1,s,140,0,0,0,140,0,140,140,NA,0,0,0,140,140,0,140,140,NA,Sun Sep 24 20:47:26 2023,600,The main experiment item,FALSE,FlankerTask.osexp,C:\Users\backs\OneDrive\Documents,FALSE,mono,FALSE,18,no,white,no,yes,768,legacy,60,79,C:/Users/backs/OneDrive/Documents/BZ-subject-4.csv,legacy,Melodramatic Milgram,4.0.5,0,s,s,h,NA,s,NA,465,37746,13434,NA,465,NA,NA,NA,2,legacy,1024,2,48000,-16,experiment,SSSSS,4,even,293243,41384,193230,NA,272338,3633,193998,294321,NA,3636,179795,NA,294423,294890,NA,294319,294423,NA,Flanker Task ,136,70780,141,1024
96,96,502,502,#3d3846,legacy,legacy,legacy,incongruent,1,undefined,1,s,141,0,0,0,141,0,141,141,NA,0,0,0,141,141,0,141,141,NA,Sun Sep 24 20:47:26 2023,600,The main experiment item,FALSE,FlankerTask.osexp,C:\Users\backs\OneDrive\Documents,FALSE,mono,FALSE,18,no,white,no,yes,768,legacy,61,79,C:/Users/backs/OneDrive/Documents/BZ-subject-4.csv,legacy,Melodramatic Milgram,4.0.5,0,s,s,h,NA,s,NA,509,37746,13434,NA,509,NA,NA,NA,2,legacy,1024,2,48000,-16,experiment,HHSHH,4,even,294893,41384,193230,NA,272338,3633,193998,295968,NA,3636,179795,NA,296070,296580,NA,295966,296070,NA,Flanker Task ,137,71289,142,1024
96,96,502,502,#3d3846,legacy,legacy,legacy,incongruent,1,undefined,1,s,142,0,0,0,142,0,142,142,NA,0,0,0,142,142,0,142,142,NA,Sun Sep 24 20:47:26 2023,600,The main experiment item,FALSE,FlankerTask.osexp,C:\Users\backs\OneDrive\Documents,FALSE,mono,FALSE,18,no,white,no,yes,768,legacy,62,79,C:/Users/backs/OneDrive/Documents/BZ-subject-4.csv,legacy,Melodramatic Milgram,4.0.5,0,s,s,h,NA,s,NA,535,37746,13434,NA,535,NA,NA,NA,2,legacy,1024,2,48000,-16,experiment,HHSHH,4,even,296585,41384,193230,NA,272338,3633,193998,297668,NA,3636,179795,NA,297770,298307,NA,297666,297769,NA,Flanker Task ,138,71824,143,1024
96,96,501,501,#3d3846,legacy,legacy,legacy,congruent,1,undefined,1,h,143,0,0,0,143,0,143,143,NA,0,0,0,143,143,0,143,143,NA,Sun Sep 24 20:47:26 2023,600,The main experiment item,FALSE,FlankerTask.osexp,C:\Users\backs\OneDrive\Documents,FALSE,mono,FALSE,18,no,white,no,yes,768,legacy,63,79,C:/Users/backs/OneDrive/Documents/BZ-subject-4.csv,legacy,Melodramatic Milgram,4.0.5,0,h,s,h,NA,h,NA,442,37746,13434,NA,442,NA,NA,NA,2,legacy,1024,2,48000,-16,experiment,HHHHH,4,even,298311,41384,193230,NA,272338,3633,193998,299415,NA,3636,179795,NA,299517,299961,NA,299414,299517,NA,Flanker Task ,139,72266,144,1024
96,96,502,502,#3d3846,legacy,legacy,legacy,incongruent,1,undefined,1,s,144,0,0,0,144,0,144,144,NA,0,0,0,144,144,0,144,144,NA,Sun Sep 24 20:47:26 2023,600,The main experiment item,FALSE,FlankerTask.osexp,C:\Users\backs\OneDrive\Documents,FALSE,mono,FALSE,18,no,white,no,yes,768,legacy,64,79,C:/Users/backs/OneDrive/Documents/BZ-subject-4.csv,legacy,Melodramatic Milgram,4.0.5,0,s,s,h,NA,s,NA,583,37746,13434,NA,583,NA,NA,NA,2,legacy,1024,2,48000,-16,experiment,HHSHH,4,even,299965,41384,193230,NA,272338,3633,193998,301044,NA,3636,179795,NA,301146,301731,NA,301042,301146,NA,Flanker Task ,140,72849,145,1024
96,96,502,502,#3d3846,legacy,legacy,legacy,congruent,1,undefined,1,s,145,0,0,0,145,0,145,145,NA,0,0,0,145,145,0,145,145,NA,Sun Sep 24 20:47:26 2023,600,The main experiment item,FALSE,FlankerTask.osexp,C:\Users\backs\OneDrive\Documents,FALSE,mono,FALSE,18,no,white,no,yes,768,legacy,65,79,C:/Users/backs/OneDrive/Documents/BZ-subject-4.csv,legacy,Melodramatic Milgram,4.0.5,0,s,s,h,NA,s,NA,467,37746,13434,NA,467,NA,NA,NA,2,legacy,1024,2,48000,-16,experiment,SSSSS,4,even,301737,41384,193230,NA,272338,3633,193998,302810,NA,3636,179795,NA,302911,303379,NA,302807,302911,NA,Flanker Task ,141,73316,146,1024
96,96,501,501,#3d3846,legacy,legacy,legacy,congruent,1,undefined,1,s,146,0,0,0,146,0,146,146,NA,0,0,0,146,146,0,146,146,NA,Sun Sep 24 20:47:26 2023,600,The main experiment item,FALSE,FlankerTask.osexp,C:\Users\backs\OneDrive\Documents,FALSE,mono,FALSE,18,no,white,no,yes,768,legacy,66,79,C:/Users/backs/OneDrive/Documents/BZ-subject-4.csv,legacy,Melodramatic Milgram,4.0.5,0,s,s,h,NA,s,NA,418,37746,13434,NA,418,NA,NA,NA,2,legacy,1024,2,48000,-16,experiment,SSSSS,4,even,303383,41384,193230,NA,272338,3633,193998,304448,NA,3636,179795,NA,304549,304968,NA,304447,304549,NA,Flanker Task ,142,73734,147,1024
96,96,501,501,#3d3846,legacy,legacy,legacy,congruent,1,undefined,1,s,147,0,0,0,147,0,147,147,NA,0,0,0,147,147,0,147,147,NA,Sun Sep 24 20:47:26 2023,600,The main experiment item,FALSE,FlankerTask.osexp,C:\Users\backs\OneDrive\Documents,FALSE,mono,FALSE,18,no,white,no,yes,768,legacy,67,79,C:/Users/backs/OneDrive/Documents/BZ-subject-4.csv,legacy,Melodramatic Milgram,4.0.5,0,s,s,h,NA,s,NA,415,37746,13434,NA,415,NA,NA,NA,2,legacy,1024,2,48000,-16,experiment,SSSSS,4,even,304974,41384,193230,NA,272338,3633,193998,306044,NA,3636,179795,NA,306146,306563,NA,306042,306145,NA,Flanker Task ,143,74149,148,1024
96,96,500,500,#3d3846,legacy,legacy,legacy,congruent,1,undefined,1,s,148,0,0,0,148,0,148,148,NA,0,0,0,148,148,0,148,148,NA,Sun Sep 24 20:47:26 2023,600,The main experiment item,FALSE,FlankerTask.osexp,C:\Users\backs\OneDrive\Documents,FALSE,mono,FALSE,18,no,white,no,yes,768,legacy,68,79,C:/Users/backs/OneDrive/Documents/BZ-subject-4.csv,legacy,Melodramatic Milgram,4.0.5,0,s,s,h,NA,s,NA,401,37746,13434,NA,401,NA,NA,NA,2,legacy,1024,2,48000,-16,experiment,SSSSS,4,even,306566,41384,193230,NA,272338,3633,193998,307640,NA,3636,179795,NA,307742,308144,NA,307638,307741,NA,Flanker Task ,144,74550,149,1024
96,96,500,500,#3d3846,legacy,legacy,legacy,congruent,1,undefined,1,h,149,0,0,0,149,0,149,149,NA,0,0,0,149,149,0,149,149,NA,Sun Sep 24 20:47:26 2023,600,The main experiment item,FALSE,FlankerTask.osexp,C:\Users\backs\OneDrive\Documents,FALSE,mono,FALSE,18,no,white,no,yes,768,legacy,69,79,C:/Users/backs/OneDrive/Documents/BZ-subject-4.csv,legacy,Melodramatic Milgram,4.0.5,0,h,s,h,NA,h,NA,463,37746,13434,NA,463,NA,NA,NA,2,legacy,1024,2,48000,-16,experiment,HHHHH,4,even,308148,41384,193230,NA,272338,3633,193998,309225,NA,3636,179795,NA,309327,309792,NA,309223,309326,NA,Flanker Task ,145,75013,150,1024
96,96,499,499,#3d3846,legacy,legacy,legacy,incongruent,1,undefined,1,h,150,0,0,0,150,0,150,150,NA,0,0,0,150,150,0,150,150,NA,Sun Sep 24 20:47:26 2023,600,The main experiment item,FALSE,FlankerTask.osexp,C:\Users\backs\OneDrive\Documents,FALSE,mono,FALSE,18,no,white,no,yes,768,legacy,70,79,C:/Users/backs/OneDrive/Documents/BZ-subject-4.csv,legacy,Melodramatic Milgram,4.0.5,0,h,s,h,NA,h,NA,483,37746,13434,NA,483,NA,NA,NA,2,legacy,1024,2,48000,-16,experiment,SSHSS,4,even,309797,41384,193230,NA,272338,3633,193998,310887,NA,3636,179795,NA,310989,311473,NA,310885,310989,NA,Flanker Task ,146,75496,151,1024
96,96,499,499,#3d3846,legacy,legacy,legacy,incongruent,1,undefined,1,h,151,0,0,0,151,0,151,151,NA,0,0,0,151,151,0,151,151,NA,Sun Sep 24 20:47:26 2023,600,The main experiment item,FALSE,FlankerTask.osexp,C:\Users\backs\OneDrive\Documents,FALSE,mono,FALSE,18,no,white,no,yes,768,legacy,71,79,C:/Users/backs/OneDrive/Documents/BZ-subject-4.csv,legacy,Melodramatic Milgram,4.0.5,0,h,s,h,NA,h,NA,450,37746,13434,NA,450,NA,NA,NA,2,legacy,1024,2,48000,-16,experiment,SSHSS,4,even,311478,41384,193230,NA,272338,3633,193998,312566,NA,3636,179795,NA,312669,313121,NA,312564,312669,NA,Flanker Task ,147,75946,152,1024
96,96,499,499,#3d3846,legacy,legacy,legacy,congruent,1,undefined,1,h,152,0,0,0,152,0,152,152,NA,0,0,0,152,152,0,152,152,NA,Sun Sep 24 20:47:26 2023,600,The main experiment item,FALSE,FlankerTask.osexp,C:\Users\backs\OneDrive\Documents,FALSE,mono,FALSE,18,no,white,no,yes,768,legacy,72,79,C:/Users/backs/OneDrive/Documents/BZ-subject-4.csv,legacy,Melodramatic Milgram,4.0.5,0,h,s,h,NA,h,NA,479,37746,13434,NA,479,NA,NA,NA,2,legacy,1024,2,48000,-16,experiment,HHHHH,4,even,313125,41384,193230,NA,272338,3633,193998,314225,NA,3636,179795,NA,314327,314808,NA,314223,314326,NA,Flanker Task ,148,76425,153,1024
96,96,499,499,#3d3846,legacy,legacy,legacy,congruent,1,undefined,1,h,153,0,0,0,153,0,153,153,NA,0,0,0,153,153,0,153,153,NA,Sun Sep 24 20:47:26 2023,600,The main experiment item,FALSE,FlankerTask.osexp,C:\Users\backs\OneDrive\Documents,FALSE,mono,FALSE,18,no,white,no,yes,768,legacy,73,79,C:/Users/backs/OneDrive/Documents/BZ-subject-4.csv,legacy,Melodramatic Milgram,4.0.5,0,h,s,h,NA,h,NA,435,37746,13434,NA,435,NA,NA,NA,2,legacy,1024,2,48000,-16,experiment,HHHHH,4,even,314811,41384,193230,NA,272338,3633,193998,315883,NA,3636,179795,NA,315985,316422,NA,315881,315984,NA,Flanker Task ,149,76860,154,1024
96,96,498,498,#3d3846,legacy,legacy,legacy,congruent,1,undefined,1,h,154,0,0,0,154,0,154,154,NA,0,0,0,154,154,0,154,154,NA,Sun Sep 24 20:47:26 2023,600,The main experiment item,FALSE,FlankerTask.osexp,C:\Users\backs\OneDrive\Documents,FALSE,mono,FALSE,18,no,white,no,yes,768,legacy,74,79,C:/Users/backs/OneDrive/Documents/BZ-subject-4.csv,legacy,Melodramatic Milgram,4.0.5,0,h,s,h,NA,h,NA,429,37746,13434,NA,429,NA,NA,NA,2,legacy,1024,2,48000,-16,experiment,HHHHH,4,even,316426,41384,193230,NA,272338,3633,193998,317496,NA,3636,179795,NA,317597,318027,NA,317494,317597,NA,Flanker Task ,150,77289,155,1024
96,96,497,497,#3d3846,legacy,legacy,legacy,congruent,1,undefined,1,h,155,0,0,0,155,0,155,155,NA,0,0,0,155,155,0,155,155,NA,Sun Sep 24 20:47:26 2023,600,The main experiment item,FALSE,FlankerTask.osexp,C:\Users\backs\OneDrive\Documents,FALSE,mono,FALSE,18,no,white,no,yes,768,legacy,75,79,C:/Users/backs/OneDrive/Documents/BZ-subject-4.csv,legacy,Melodramatic Milgram,4.0.5,0,h,s,h,NA,h,NA,386,37746,13434,NA,386,NA,NA,NA,2,legacy,1024,2,48000,-16,experiment,HHHHH,4,even,318031,41384,193230,NA,272338,3633,193998,319113,NA,3636,179795,NA,319215,319603,NA,319110,319214,NA,Flanker Task ,151,77675,156,1024
96,96,497,497,#3d3846,legacy,legacy,legacy,congruent,1,undefined,1,h,156,0,0,0,156,0,156,156,NA,0,0,0,156,156,0,156,156,NA,Sun Sep 24 20:47:26 2023,600,The main experiment item,FALSE,FlankerTask.osexp,C:\Users\backs\OneDrive\Documents,FALSE,mono,FALSE,18,no,white,no,yes,768,legacy,76,79,C:/Users/backs/OneDrive/Documents/BZ-subject-4.csv,legacy,Melodramatic Milgram,4.0.5,0,h,s,h,NA,h,NA,363,37746,13434,NA,363,NA,NA,NA,2,legacy,1024,2,48000,-16,experiment,HHHHH,4,even,319607,41384,193230,NA,272338,3633,193998,320691,NA,3636,179795,NA,320793,321157,NA,320689,320793,NA,Flanker Task ,152,78038,157,1024
96,96,496,496,#3d3846,legacy,legacy,legacy,congruent,0,undefined,0,s,157,0,0,0,157,0,157,157,NA,0,0,0,157,157,0,157,157,NA,Sun Sep 24 20:47:26 2023,600,The main experiment item,FALSE,FlankerTask.osexp,C:\Users\backs\OneDrive\Documents,FALSE,mono,FALSE,18,no,white,no,yes,768,legacy,77,79,C:/Users/backs/OneDrive/Documents/BZ-subject-4.csv,legacy,Melodramatic Milgram,4.0.5,0,h,s,h,NA,h,NA,400,37746,13434,NA,400,NA,NA,NA,2,legacy,1024,2,48000,-16,experiment,SSSSS,4,even,321163,41384,193230,NA,272338,3633,193998,322242,NA,3636,179795,NA,322344,322746,NA,322240,322344,NA,Flanker Task ,152,78438,158,1024
96,96,496,496,#3d3846,legacy,legacy,legacy,incongruent,1,undefined,1,h,158,0,0,0,158,0,158,158,NA,0,0,0,158,158,0,158,158,NA,Sun Sep 24 20:47:26 2023,600,The main experiment item,FALSE,FlankerTask.osexp,C:\Users\backs\OneDrive\Documents,FALSE,mono,FALSE,18,no,white,no,yes,768,legacy,78,79,C:/Users/backs/OneDrive/Documents/BZ-subject-4.csv,legacy,Melodramatic Milgram,4.0.5,0,h,s,h,NA,h,NA,547,37746,13434,NA,547,NA,NA,NA,2,legacy,1024,2,48000,-16,experiment,SSHSS,4,even,323252,41384,193230,NA,322750,3633,193998,324335,NA,3636,179795,NA,324437,324986,NA,324332,324437,NA,Flanker Task ,153,78985,159,1024
96,96,497,497,#3d3846,legacy,legacy,legacy,incongruent,1,undefined,1,h,159,0,0,0,159,0,159,159,NA,0,0,0,159,159,0,159,159,NA,Sun Sep 24 20:47:26 2023,600,The main experiment item,FALSE,FlankerTask.osexp,C:\Users\backs\OneDrive\Documents,FALSE,mono,FALSE,18,no,white,no,yes,768,legacy,79,79,C:/Users/backs/OneDrive/Documents/BZ-subject-4.csv,legacy,Melodramatic Milgram,4.0.5,0,h,s,h,NA,h,NA,602,37746,13434,NA,602,NA,NA,NA,2,legacy,1024,2,48000,-16,experiment,SSHSS,4,even,324990,41384,193230,NA,322750,3633,193998,326074,NA,3636,179795,NA,326176,326779,NA,326072,326175,NA,Flanker Task ,154,79587,160,1024
96,96,497,497,#3d3846,legacy,legacy,legacy,congruent,1,undefined,1,s,160,0,0,0,160,0,160,160,NA,0,0,0,160,160,0,160,160,NA,Sun Sep 24 20:47:26 2023,300,The main experiment item,FALSE,FlankerTask.osexp,C:\Users\backs\OneDrive\Documents,FALSE,mono,FALSE,18,no,white,no,yes,768,legacy,0,79,C:/Users/backs/OneDrive/Documents/BZ-subject-4.csv,legacy,Melodramatic Milgram,4.0.5,0,s,s,h,s,s,NA,432,37746,13434,4856,432,NA,NA,NA,2,legacy,1024,2,48000,-16,experiment,SSSSS,4,even,327285,41384,193230,333146,322750,3633,326783,333231,NA,3636,179795,328288,333332,333766,NA,333229,333332,NA,Flanker Task ,155,80019,161,1024
96,96,495,495,#3d3846,legacy,legacy,legacy,congruent,1,undefined,1,s,161,0,0,0,161,0,161,161,NA,0,0,0,161,161,0,161,161,NA,Sun Sep 24 20:47:26 2023,300,The main experiment item,FALSE,FlankerTask.osexp,C:\Users\backs\OneDrive\Documents,FALSE,mono,FALSE,18,no,white,no,yes,768,legacy,1,79,C:/Users/backs/OneDrive/Documents/BZ-subject-4.csv,legacy,Melodramatic Milgram,4.0.5,0,s,s,h,s,s,NA,326,37746,13434,4856,326,NA,NA,NA,2,legacy,1024,2,48000,-16,experiment,SSSSS,4,even,334318,41384,193230,333146,322750,3633,333817,335398,NA,3636,179795,328288,335500,335828,NA,335396,335499,NA,Flanker Task ,156,80345,162,1024
96,96,495,495,#3d3846,legacy,legacy,legacy,congruent,1,undefined,1,s,162,0,0,0,162,0,162,162,NA,0,0,0,162,162,0,162,162,NA,Sun Sep 24 20:47:26 2023,300,The main experiment item,FALSE,FlankerTask.osexp,C:\Users\backs\OneDrive\Documents,FALSE,mono,FALSE,18,no,white,no,yes,768,legacy,2,79,C:/Users/backs/OneDrive/Documents/BZ-subject-4.csv,legacy,Melodramatic Milgram,4.0.5,0,s,s,h,s,s,NA,396,37746,13434,4856,396,NA,NA,NA,2,legacy,1024,2,48000,-16,experiment,SSSSS,4,even,336333,41384,193230,333146,322750,3633,335832,337408,NA,3636,179795,328288,337510,337908,NA,337406,337509,NA,Flanker Task ,157,80741,163,1024
95,95,493,493,#3d3846,legacy,legacy,legacy,incongruent,0,undefined,0,h,163,0,0,0,163,0,163,163,NA,0,0,0,163,163,0,163,163,NA,Sun Sep 24 20:47:26 2023,300,The main experiment item,FALSE,FlankerTask.osexp,C:\Users\backs\OneDrive\Documents,FALSE,mono,FALSE,18,no,white,no,yes,768,legacy,3,79,C:/Users/backs/OneDrive/Documents/BZ-subject-4.csv,legacy,Melodramatic Milgram,4.0.5,0,s,s,h,s,s,NA,167,37746,13434,4856,167,NA,NA,NA,2,legacy,1024,2,48000,-16,experiment,SSHSS,4,even,338412,41384,193230,333146,322750,3633,337911,339489,NA,3636,179795,328288,339591,339759,NA,339487,339590,NA,Flanker Task ,157,80908,164,1024
95,95,492,492,#3d3846,legacy,legacy,legacy,congruent,1,undefined,1,s,164,0,0,0,164,0,164,164,NA,0,0,0,164,164,0,164,164,NA,Sun Sep 24 20:47:26 2023,300,The main experiment item,FALSE,FlankerTask.osexp,C:\Users\backs\OneDrive\Documents,FALSE,mono,FALSE,18,no,white,no,yes,768,legacy,4,79,C:/Users/backs/OneDrive/Documents/BZ-subject-4.csv,legacy,Melodramatic Milgram,4.0.5,0,s,s,h,s,s,NA,371,37746,13434,4856,371,NA,NA,NA,2,legacy,1024,2,48000,-16,experiment,SSSSS,4,even,340265,41384,193230,333146,339763,3633,337911,341342,NA,3636,179795,328288,341444,341817,NA,341339,341443,NA,Flanker Task ,158,81279,165,1024
95,95,491,491,#3d3846,legacy,legacy,legacy,congruent,0,undefined,0,s,165,0,0,0,165,0,165,165,NA,0,0,0,165,165,0,165,165,NA,Sun Sep 24 20:47:26 2023,300,The main experiment item,FALSE,FlankerTask.osexp,C:\Users\backs\OneDrive\Documents,FALSE,mono,FALSE,18,no,white,no,yes,768,legacy,5,79,C:/Users/backs/OneDrive/Documents/BZ-subject-4.csv,legacy,Melodramatic Milgram,4.0.5,0,h,s,h,s,h,NA,304,37746,13434,4856,304,NA,NA,NA,2,legacy,1024,2,48000,-16,experiment,SSSSS,4,even,342322,41384,193230,333146,339763,3633,341820,343399,NA,3636,179795,328288,343500,343806,NA,343397,343500,NA,Flanker Task ,158,81583,166,1024
