"acc","accuracy","average_response_time","avg_rt","background","canvas_backend","clock_backend","color_backend","condition","correct","correct_instructions1_sketchpad","correct_keyboard_response","correct_response","count_Block1","count_Block2","count_Block3","count_Finish_sketchpad","count_ISI_sketchpad","count_Sequence","count_errorFeedback_sketchpad","count_experiment","count_faster_sketchpad","count_fixation_sketchpad","count_instructions1_sketchpad","count_keyboard_response","count_logger","count_new_1_sketchpad","count_new_sketchpad","count_stimulus_sketchpad","datetime","deadline","description","disable_garbage_collection","experiment_file","experiment_path","font_bold","font_family","font_italic","font_size","font_underline","foreground","form_clicks","fullscreen","height","keyboard_backend","live_row","live_row_Block1","logfile","mouse_backend","opensesame_codename","opensesame_version","repeat_cycle","response","response_Finish_sketchpad","response_instructions1_sketchpad","response_keyboard_response","response_new_1_sketchpad","response_new_sketchpad","response_time","response_time_Finish_sketchpad","response_time_instructions1_sketchpad","response_time_keyboard_response","response_time_new_1_sketchpad","response_time_new_sketchpad","round_decimals","sampler_backend","sound_buf_size","sound_channels","sound_freq","sound_sample_size","start","stimulus","subject_nr","subject_parity","time_Block1","time_Block2","time_Block3","time_Finish_sketchpad","time_ISI_sketchpad","time_Sequence","time_errorFeedback_sketchpad","time_experiment","time_faster_sketchpad","time_fixation_sketchpad","time_instructions1_sketchpad","time_keyboard_response","time_logger","time_new_1_sketchpad","time_new_sketchpad","time_stimulus_sketchpad","title","total_correct","total_response_time","total_responses","width"
"100","100","1062","1062","#3d3846","legacy","legacy","legacy","incongruent","1","undefined","1","h","0","0","0","0","0","0","0","0","0","0","0","0","0","0","0","0","Wed Sep  6 11:12:49 2023","1500","The main experiment item","True","Flankertask.osexp","C:/Users/juzal/OneDrive/Documents/Masters of Equine Science/Advanced Quantitative Methods and Experiment Design","False","mono","False","18","no","white","no","yes","768","legacy","0","0","C:/Users/juzal/OneDrive/Documents/Masters of Equine Science/Advanced Quantitative Methods and Experiment Design/CH-subject-3.csv","legacy","Melodramatic Milgram","4.0.5","0","h","NA","space","h","NA","NA","1062.0","NA","22335","1062","NA","NA","2","legacy","1024","2","48000","-16","experiment","SSHSS","3","odd","24391","NA","NA","NA","NA","24558","NA","2047","NA","24562","2055","24662","25724","NA","NA","24662","Flanker task","1","1062.0","1","1024"
"100","100","863","863","#3d3846","legacy","legacy","legacy","incongruent","1","undefined","1","s","0","0","0","0","1","1","1","0","1","1","0","1","1","0","0","1","Wed Sep  6 11:12:49 2023","1500","The main experiment item","True","Flankertask.osexp","C:/Users/juzal/OneDrive/Documents/Masters of Equine Science/Advanced Quantitative Methods and Experiment Design","False","mono","False","18","no","white","no","yes","768","legacy","1","1","C:/Users/juzal/OneDrive/Documents/Masters of Equine Science/Advanced Quantitative Methods and Experiment Design/CH-subject-3.csv","legacy","Melodramatic Milgram","4.0.5","0","s","NA","space","s","NA","NA","664.0","NA","22335","664","NA","NA","2","legacy","1024","2","48000","-16","experiment","HHSHH","3","odd","24391","NA","NA","NA","25782","26808","NA","2047","NA","26809","2055","26909","27573","NA","NA","26909","Flanker task","2","1726.0","2","1024"
"100","100","787","787","#3d3846","legacy","legacy","legacy","congruent","1","undefined","1","s","0","0","0","0","2","2","2","0","2","2","0","2","2","0","0","2","Wed Sep  6 11:12:49 2023","1500","The main experiment item","True","Flankertask.osexp","C:/Users/juzal/OneDrive/Documents/Masters of Equine Science/Advanced Quantitative Methods and Experiment Design","False","mono","False","18","no","white","no","yes","768","legacy","2","2","C:/Users/juzal/OneDrive/Documents/Masters of Equine Science/Advanced Quantitative Methods and Experiment Design/CH-subject-3.csv","legacy","Melodramatic Milgram","4.0.5","0","s","NA","space","s","NA","NA","636.0","NA","22335","636","NA","NA","2","legacy","1024","2","48000","-16","experiment","SSSSS","3","odd","24391","NA","NA","NA","27608","28636","NA","2047","NA","28638","2055","28738","29374","NA","NA","28738","Flanker task","3","2362.0","3","1024"
"100","100","752","752","#3d3846","legacy","legacy","legacy","incongruent","1","undefined","1","s","0","0","0","0","3","3","3","0","3","3","0","3","3","0","0","3","Wed Sep  6 11:12:49 2023","1500","The main experiment item","True","Flankertask.osexp","C:/Users/juzal/OneDrive/Documents/Masters of Equine Science/Advanced Quantitative Methods and Experiment Design","False","mono","False","18","no","white","no","yes","768","legacy","3","3","C:/Users/juzal/OneDrive/Documents/Masters of Equine Science/Advanced Quantitative Methods and Experiment Design/CH-subject-3.csv","legacy","Melodramatic Milgram","4.0.5","0","s","NA","space","s","NA","NA","646.0","NA","22335","646","NA","NA","2","legacy","1024","2","48000","-16","experiment","HHSHH","3","odd","24391","NA","NA","NA","29409","30435","NA","2047","NA","30436","2055","30537","31183","NA","NA","30536","Flanker task","4","3008.0","4","1024"
"100","100","717","717","#3d3846","legacy","legacy","legacy","congruent","1","undefined","1","h","0","0","0","0","4","4","4","0","4","4","0","4","4","0","0","4","Wed Sep  6 11:12:49 2023","1500","The main experiment item","True","Flankertask.osexp","C:/Users/juzal/OneDrive/Documents/Masters of Equine Science/Advanced Quantitative Methods and Experiment Design","False","mono","False","18","no","white","no","yes","768","legacy","4","4","C:/Users/juzal/OneDrive/Documents/Masters of Equine Science/Advanced Quantitative Methods and Experiment Design/CH-subject-3.csv","legacy","Melodramatic Milgram","4.0.5","0","h","NA","space","h","NA","NA","578.0","NA","22335","578","NA","NA","2","legacy","1024","2","48000","-16","experiment","HHHHH","3","odd","24391","NA","NA","NA","31229","32259","NA","2047","NA","32260","2055","32362","32940","NA","NA","32361","Flanker task","5","3586.0","5","1024"
"100","100","678","678","#3d3846","legacy","legacy","legacy","incongruent","1","undefined","1","h","0","0","0","0","5","5","5","0","5","5","0","5","5","0","0","5","Wed Sep  6 11:12:49 2023","1500","The main experiment item","True","Flankertask.osexp","C:/Users/juzal/OneDrive/Documents/Masters of Equine Science/Advanced Quantitative Methods and Experiment Design","False","mono","False","18","no","white","no","yes","768","legacy","5","5","C:/Users/juzal/OneDrive/Documents/Masters of Equine Science/Advanced Quantitative Methods and Experiment Design/CH-subject-3.csv","legacy","Melodramatic Milgram","4.0.5","0","h","NA","space","h","NA","NA","487.0","NA","22335","487","NA","NA","2","legacy","1024","2","48000","-16","experiment","SSHSS","3","odd","24391","NA","NA","NA","32992","34017","NA","2047","NA","34019","2055","34120","34608","NA","NA","34119","Flanker task","6","4073.0","6","1024"
"100","100","667","667","#3d3846","legacy","legacy","legacy","congruent","1","undefined","1","s","0","0","0","0","6","6","6","0","6","6","0","6","6","0","0","6","Wed Sep  6 11:12:49 2023","1500","The main experiment item","True","Flankertask.osexp","C:/Users/juzal/OneDrive/Documents/Masters of Equine Science/Advanced Quantitative Methods and Experiment Design","False","mono","False","18","no","white","no","yes","768","legacy","6","6","C:/Users/juzal/OneDrive/Documents/Masters of Equine Science/Advanced Quantitative Methods and Experiment Design/CH-subject-3.csv","legacy","Melodramatic Milgram","4.0.5","0","s","NA","space","s","NA","NA","598.0","NA","22335","598","NA","NA","2","legacy","1024","2","48000","-16","experiment","SSSSS","3","odd","24391","NA","NA","NA","34651","35674","NA","2047","NA","35675","2055","35775","36374","NA","NA","35775","Flanker task","7","4671.0","7","1024"
"100","100","646","646","#3d3846","legacy","legacy","legacy","congruent","1","undefined","1","s","0","0","0","0","7","7","7","0","7","7","0","7","7","0","0","7","Wed Sep  6 11:12:49 2023","1500","The main experiment item","True","Flankertask.osexp","C:/Users/juzal/OneDrive/Documents/Masters of Equine Science/Advanced Quantitative Methods and Experiment Design","False","mono","False","18","no","white","no","yes","768","legacy","7","7","C:/Users/juzal/OneDrive/Documents/Masters of Equine Science/Advanced Quantitative Methods and Experiment Design/CH-subject-3.csv","legacy","Melodramatic Milgram","4.0.5","0","s","NA","space","s","NA","NA","502.0","NA","22335","502","NA","NA","2","legacy","1024","2","48000","-16","experiment","SSSSS","3","odd","24391","NA","NA","NA","36412","37436","NA","2047","NA","37437","2055","37537","38040","NA","NA","37537","Flanker task","8","5173.0","8","1024"
"100","100","629","629","#3d3846","legacy","legacy","legacy","congruent","1","undefined","1","h","0","0","0","0","8","8","8","0","8","8","0","8","8","0","0","8","Wed Sep  6 11:12:49 2023","1500","The main experiment item","True","Flankertask.osexp","C:/Users/juzal/OneDrive/Documents/Masters of Equine Science/Advanced Quantitative Methods and Experiment Design","False","mono","False","18","no","white","no","yes","768","legacy","8","8","C:/Users/juzal/OneDrive/Documents/Masters of Equine Science/Advanced Quantitative Methods and Experiment Design/CH-subject-3.csv","legacy","Melodramatic Milgram","4.0.5","0","h","NA","space","h","NA","NA","495.0","NA","22335","495","NA","NA","2","legacy","1024","2","48000","-16","experiment","HHHHH","3","odd","24391","NA","NA","NA","38072","39098","NA","2047","NA","39099","2055","39199","39694","NA","NA","39199","Flanker task","9","5668.0","9","1024"
"100","100","617","617","#3d3846","legacy","legacy","legacy","congruent","1","undefined","1","h","0","0","0","0","9","9","9","0","9","9","0","9","9","0","0","9","Wed Sep  6 11:12:49 2023","1500","The main experiment item","True","Flankertask.osexp","C:/Users/juzal/OneDrive/Documents/Masters of Equine Science/Advanced Quantitative Methods and Experiment Design","False","mono","False","18","no","white","no","yes","768","legacy","9","9","C:/Users/juzal/OneDrive/Documents/Masters of Equine Science/Advanced Quantitative Methods and Experiment Design/CH-subject-3.csv","legacy","Melodramatic Milgram","4.0.5","0","h","NA","space","h","NA","NA","505.0","NA","22335","505","NA","NA","2","legacy","1024","2","48000","-16","experiment","HHHHH","3","odd","24391","NA","NA","NA","39729","40755","NA","2047","NA","40756","2055","40857","41362","NA","NA","40857","Flanker task","10","6173.0","10","1024"
"100","100","596","596","#3d3846","legacy","legacy","legacy","incongruent","1","undefined","1","h","0","0","0","0","10","10","10","0","10","10","0","10","10","0","0","10","Wed Sep  6 11:12:49 2023","1500","The main experiment item","True","Flankertask.osexp","C:/Users/juzal/OneDrive/Documents/Masters of Equine Science/Advanced Quantitative Methods and Experiment Design","False","mono","False","18","no","white","no","yes","768","legacy","10","10","C:/Users/juzal/OneDrive/Documents/Masters of Equine Science/Advanced Quantitative Methods and Experiment Design/CH-subject-3.csv","legacy","Melodramatic Milgram","4.0.5","0","h","NA","space","h","NA","NA","386.0","NA","22335","386","NA","NA","2","legacy","1024","2","48000","-16","experiment","SSHSS","3","odd","24391","NA","NA","NA","41370","42407","NA","2047","NA","42408","2055","42508","42894","NA","NA","42508","Flanker task","11","6559.0","11","1024"
"100","100","591","591","#3d3846","legacy","legacy","legacy","congruent","1","undefined","1","s","0","0","0","0","11","11","11","0","11","11","0","11","11","0","0","11","Wed Sep  6 11:12:49 2023","1500","The main experiment item","True","Flankertask.osexp","C:/Users/juzal/OneDrive/Documents/Masters of Equine Science/Advanced Quantitative Methods and Experiment Design","False","mono","False","18","no","white","no","yes","768","legacy","11","11","C:/Users/juzal/OneDrive/Documents/Masters of Equine Science/Advanced Quantitative Methods and Experiment Design/CH-subject-3.csv","legacy","Melodramatic Milgram","4.0.5","0","s","NA","space","s","NA","NA","537.0","NA","22335","537","NA","NA","2","legacy","1024","2","48000","-16","experiment","SSSSS","3","odd","24391","NA","NA","NA","42930","43955","NA","2047","NA","43958","2055","44058","44595","NA","NA","44058","Flanker task","12","7096.0","12","1024"
"100","100","581","581","#3d3846","legacy","legacy","legacy","congruent","1","undefined","1","h","0","0","0","0","12","12","12","0","12","12","0","12","12","0","0","12","Wed Sep  6 11:12:49 2023","1500","The main experiment item","True","Flankertask.osexp","C:/Users/juzal/OneDrive/Documents/Masters of Equine Science/Advanced Quantitative Methods and Experiment Design","False","mono","False","18","no","white","no","yes","768","legacy","12","12","C:/Users/juzal/OneDrive/Documents/Masters of Equine Science/Advanced Quantitative Methods and Experiment Design/CH-subject-3.csv","legacy","Melodramatic Milgram","4.0.5","0","h","NA","space","h","NA","NA","469.0","NA","22335","469","NA","NA","2","legacy","1024","2","48000","-16","experiment","HHHHH","3","odd","24391","NA","NA","NA","44634","45660","NA","2047","NA","45661","2055","45761","46230","NA","NA","45761","Flanker task","13","7565.0","13","1024"
"100","100","574","574","#3d3846","legacy","legacy","legacy","incongruent","1","undefined","1","h","0","0","0","0","13","13","13","0","13","13","0","13","13","0","0","13","Wed Sep  6 11:12:49 2023","1500","The main experiment item","True","Flankertask.osexp","C:/Users/juzal/OneDrive/Documents/Masters of Equine Science/Advanced Quantitative Methods and Experiment Design","False","mono","False","18","no","white","no","yes","768","legacy","13","13","C:/Users/juzal/OneDrive/Documents/Masters of Equine Science/Advanced Quantitative Methods and Experiment Design/CH-subject-3.csv","legacy","Melodramatic Milgram","4.0.5","0","h","NA","space","h","NA","NA","478.0","NA","22335","478","NA","NA","2","legacy","1024","2","48000","-16","experiment","SSHSS","3","odd","24391","NA","NA","NA","46285","47314","NA","2047","NA","47315","2055","47415","47893","NA","NA","47415","Flanker task","14","8043.0","14","1024"
"100","100","574","574","#3d3846","legacy","legacy","legacy","congruent","1","undefined","1","h","0","0","0","0","14","14","14","0","14","14","0","14","14","0","0","14","Wed Sep  6 11:12:49 2023","1500","The main experiment item","True","Flankertask.osexp","C:/Users/juzal/OneDrive/Documents/Masters of Equine Science/Advanced Quantitative Methods and Experiment Design","False","mono","False","18","no","white","no","yes","768","legacy","14","14","C:/Users/juzal/OneDrive/Documents/Masters of Equine Science/Advanced Quantitative Methods and Experiment Design/CH-subject-3.csv","legacy","Melodramatic Milgram","4.0.5","0","h","NA","space","h","NA","NA","580.0","NA","22335","580","NA","NA","2","legacy","1024","2","48000","-16","experiment","HHHHH","3","odd","24391","NA","NA","NA","47929","48953","NA","2047","NA","48954","2055","49054","49635","NA","NA","49054","Flanker task","15","8623.0","15","1024"
"100","100","565","565","#3d3846","legacy","legacy","legacy","incongruent","1","undefined","1","s","0","0","0","0","15","15","15","0","15","15","0","15","15","0","0","15","Wed Sep  6 11:12:49 2023","1500","The main experiment item","True","Flankertask.osexp","C:/Users/juzal/OneDrive/Documents/Masters of Equine Science/Advanced Quantitative Methods and Experiment Design","False","mono","False","18","no","white","no","yes","768","legacy","15","15","C:/Users/juzal/OneDrive/Documents/Masters of Equine Science/Advanced Quantitative Methods and Experiment Design/CH-subject-3.csv","legacy","Melodramatic Milgram","4.0.5","0","s","NA","space","s","NA","NA","417.0","NA","22335","417","NA","NA","2","legacy","1024","2","48000","-16","experiment","HHSHH","3","odd","24391","NA","NA","NA","49639","50663","NA","2047","NA","50664","2055","50764","51182","NA","NA","50764","Flanker task","16","9040.0","16","1024"
"100","100","558","558","#3d3846","legacy","legacy","legacy","incongruent","1","undefined","1","h","0","0","0","0","16","16","16","0","16","16","0","16","16","0","0","16","Wed Sep  6 11:12:49 2023","1500","The main experiment item","True","Flankertask.osexp","C:/Users/juzal/OneDrive/Documents/Masters of Equine Science/Advanced Quantitative Methods and Experiment Design","False","mono","False","18","no","white","no","yes","768","legacy","16","16","C:/Users/juzal/OneDrive/Documents/Masters of Equine Science/Advanced Quantitative Methods and Experiment Design/CH-subject-3.csv","legacy","Melodramatic Milgram","4.0.5","0","h","NA","space","h","NA","NA","458.0","NA","22335","458","NA","NA","2","legacy","1024","2","48000","-16","experiment","SSHSS","3","odd","24391","NA","NA","NA","51226","52250","NA","2047","NA","52251","2055","52351","52810","NA","NA","52351","Flanker task","17","9498.0","17","1024"
"94","94","548","548","#3d3846","legacy","legacy","legacy","incongruent","0","undefined","0","h","0","0","0","0","17","17","17","0","17","17","0","17","17","0","0","17","Wed Sep  6 11:12:49 2023","1500","The main experiment item","True","Flankertask.osexp","C:/Users/juzal/OneDrive/Documents/Masters of Equine Science/Advanced Quantitative Methods and Experiment Design","False","mono","False","18","no","white","no","yes","768","legacy","17","17","C:/Users/juzal/OneDrive/Documents/Masters of Equine Science/Advanced Quantitative Methods and Experiment Design/CH-subject-3.csv","legacy","Melodramatic Milgram","4.0.5","0","s","NA","space","s","NA","NA","382.0","NA","22335","382","NA","NA","2","legacy","1024","2","48000","-16","experiment","SSHSS","3","odd","24391","NA","NA","NA","52846","53872","NA","2047","NA","53873","2055","53974","54356","NA","NA","53973","Flanker task","17","9880.0","18","1024"
"94","94","556","556","#3d3846","legacy","legacy","legacy","incongruent","1","undefined","1","s","0","0","0","0","18","18","18","0","18","18","0","18","18","0","0","18","Wed Sep  6 11:12:49 2023","1500","The main experiment item","True","Flankertask.osexp","C:/Users/juzal/OneDrive/Documents/Masters of Equine Science/Advanced Quantitative Methods and Experiment Design","False","mono","False","18","no","white","no","yes","768","legacy","18","18","C:/Users/juzal/OneDrive/Documents/Masters of Equine Science/Advanced Quantitative Methods and Experiment Design/CH-subject-3.csv","legacy","Melodramatic Milgram","4.0.5","0","s","NA","space","s","NA","NA","693.0","NA","22335","693","NA","NA","2","legacy","1024","2","48000","-16","experiment","HHSHH","3","odd","24391","NA","NA","NA","54899","55925","54399","2047","NA","55926","2055","56027","56720","NA","NA","56026","Flanker task","18","10573.0","19","1024"
"95","95","552","552","#3d3846","legacy","legacy","legacy","incongruent","1","undefined","1","h","0","0","0","0","19","19","19","0","19","19","0","19","19","0","0","19","Wed Sep  6 11:12:49 2023","1500","The main experiment item","True","Flankertask.osexp","C:/Users/juzal/OneDrive/Documents/Masters of Equine Science/Advanced Quantitative Methods and Experiment Design","False","mono","False","18","no","white","no","yes","768","legacy","19","19","C:/Users/juzal/OneDrive/Documents/Masters of Equine Science/Advanced Quantitative Methods and Experiment Design/CH-subject-3.csv","legacy","Melodramatic Milgram","4.0.5","0","h","NA","space","h","NA","NA","467.0","NA","22335","467","NA","NA","2","legacy","1024","2","48000","-16","experiment","SSHSS","3","odd","24391","NA","NA","NA","56745","57788","54399","2047","NA","57790","2055","57890","58358","NA","NA","57890","Flanker task","19","11040.0","20","1024"
"95","95","550","550","#3d3846","legacy","legacy","legacy","congruent","1","undefined","1","h","0","0","0","0","20","20","20","0","20","20","0","20","20","0","0","20","Wed Sep  6 11:12:49 2023","1500","The main experiment item","True","Flankertask.osexp","C:/Users/juzal/OneDrive/Documents/Masters of Equine Science/Advanced Quantitative Methods and Experiment Design","False","mono","False","18","no","white","no","yes","768","legacy","20","20","C:/Users/juzal/OneDrive/Documents/Masters of Equine Science/Advanced Quantitative Methods and Experiment Design/CH-subject-3.csv","legacy","Melodramatic Milgram","4.0.5","0","h","NA","space","h","NA","NA","530.0","NA","22335","530","NA","NA","2","legacy","1024","2","48000","-16","experiment","HHHHH","3","odd","24391","NA","NA","NA","58398","59426","54399","2047","NA","59427","2055","59527","60058","NA","NA","59527","Flanker task","20","11570.0","21","1024"
"95","95","547","547","#3d3846","legacy","legacy","legacy","incongruent","1","undefined","1","h","0","0","0","0","21","21","21","0","21","21","0","21","21","0","0","21","Wed Sep  6 11:12:49 2023","1500","The main experiment item","True","Flankertask.osexp","C:/Users/juzal/OneDrive/Documents/Masters of Equine Science/Advanced Quantitative Methods and Experiment Design","False","mono","False","18","no","white","no","yes","768","legacy","21","21","C:/Users/juzal/OneDrive/Documents/Masters of Equine Science/Advanced Quantitative Methods and Experiment Design/CH-subject-3.csv","legacy","Melodramatic Milgram","4.0.5","0","h","NA","space","h","NA","NA","474.0","NA","22335","474","NA","NA","2","legacy","1024","2","48000","-16","experiment","SSHSS","3","odd","24391","NA","NA","NA","60102","61129","54399","2047","NA","61130","2055","61231","61706","NA","NA","61230","Flanker task","21","12044.0","22","1024"
"95","95","543","543","#3d3846","legacy","legacy","legacy","congruent","1","undefined","1","h","0","0","0","0","22","22","22","0","22","22","0","22","22","0","0","22","Wed Sep  6 11:12:49 2023","1500","The main experiment item","True","Flankertask.osexp","C:/Users/juzal/OneDrive/Documents/Masters of Equine Science/Advanced Quantitative Methods and Experiment Design","False","mono","False","18","no","white","no","yes","768","legacy","22","22","C:/Users/juzal/OneDrive/Documents/Masters of Equine Science/Advanced Quantitative Methods and Experiment Design/CH-subject-3.csv","legacy","Melodramatic Milgram","4.0.5","0","h","NA","space","h","NA","NA","453.0","NA","22335","453","NA","NA","2","legacy","1024","2","48000","-16","experiment","HHHHH","3","odd","24391","NA","NA","NA","61710","62747","54399","2047","NA","62748","2055","62850","63303","NA","NA","62850","Flanker task","22","12497.0","23","1024"
"95","95","544","544","#3d3846","legacy","legacy","legacy","incongruent","1","undefined","1","s","0","0","0","0","23","23","23","0","23","23","0","23","23","0","0","23","Wed Sep  6 11:12:49 2023","1500","The main experiment item","True","Flankertask.osexp","C:/Users/juzal/OneDrive/Documents/Masters of Equine Science/Advanced Quantitative Methods and Experiment Design","False","mono","False","18","no","white","no","yes","768","legacy","23","23","C:/Users/juzal/OneDrive/Documents/Masters of Equine Science/Advanced Quantitative Methods and Experiment Design/CH-subject-3.csv","legacy","Melodramatic Milgram","4.0.5","0","s","NA","space","s","NA","NA","565.0","NA","22335","565","NA","NA","2","legacy","1024","2","48000","-16","experiment","HHSHH","3","odd","24391","NA","NA","NA","63308","64332","54399","2047","NA","64333","2055","64434","65000","NA","NA","64434","Flanker task","23","13062.0","24","1024"
"96","96","538","538","#3d3846","legacy","legacy","legacy","congruent","1","undefined","1","h","0","0","0","0","24","24","24","0","24","24","0","24","24","0","0","24","Wed Sep  6 11:12:49 2023","1500","The main experiment item","True","Flankertask.osexp","C:/Users/juzal/OneDrive/Documents/Masters of Equine Science/Advanced Quantitative Methods and Experiment Design","False","mono","False","18","no","white","no","yes","768","legacy","24","24","C:/Users/juzal/OneDrive/Documents/Masters of Equine Science/Advanced Quantitative Methods and Experiment Design/CH-subject-3.csv","legacy","Melodramatic Milgram","4.0.5","0","h","NA","space","h","NA","NA","390.0","NA","22335","390","NA","NA","2","legacy","1024","2","48000","-16","experiment","HHHHH","3","odd","24391","NA","NA","NA","65024","66050","54399","2047","NA","66051","2055","66151","66546","NA","NA","66151","Flanker task","24","13452.0","25","1024"
"96","96","539","539","#3d3846","legacy","legacy","legacy","incongruent","1","undefined","1","s","0","0","0","0","25","25","25","0","25","25","0","25","25","0","0","25","Wed Sep  6 11:12:49 2023","1500","The main experiment item","True","Flankertask.osexp","C:/Users/juzal/OneDrive/Documents/Masters of Equine Science/Advanced Quantitative Methods and Experiment Design","False","mono","False","18","no","white","no","yes","768","legacy","25","25","C:/Users/juzal/OneDrive/Documents/Masters of Equine Science/Advanced Quantitative Methods and Experiment Design/CH-subject-3.csv","legacy","Melodramatic Milgram","4.0.5","0","s","NA","space","s","NA","NA","573.0","NA","22335","573","NA","NA","2","legacy","1024","2","48000","-16","experiment","HHSHH","3","odd","24391","NA","NA","NA","66552","67576","54399","2047","NA","67578","2055","67678","68252","NA","NA","67678","Flanker task","25","14025.0","26","1024"
"96","96","537","537","#3d3846","legacy","legacy","legacy","incongruent","1","undefined","1","h","0","0","0","0","26","26","26","0","26","26","0","26","26","0","0","26","Wed Sep  6 11:12:49 2023","1500","The main experiment item","True","Flankertask.osexp","C:/Users/juzal/OneDrive/Documents/Masters of Equine Science/Advanced Quantitative Methods and Experiment Design","False","mono","False","18","no","white","no","yes","768","legacy","26","26","C:/Users/juzal/OneDrive/Documents/Masters of Equine Science/Advanced Quantitative Methods and Experiment Design/CH-subject-3.csv","legacy","Melodramatic Milgram","4.0.5","0","h","NA","space","h","NA","NA","487.0","NA","22335","487","NA","NA","2","legacy","1024","2","48000","-16","experiment","SSHSS","3","odd","24391","NA","NA","NA","68287","69311","54399","2047","NA","69312","2055","69412","69900","NA","NA","69412","Flanker task","26","14512.0","27","1024"
"92","92","531","531","#3d3846","legacy","legacy","legacy","incongruent","0","undefined","0","h","0","0","0","0","27","27","27","0","27","27","0","27","27","0","0","27","Wed Sep  6 11:12:49 2023","1500","The main experiment item","True","Flankertask.osexp","C:/Users/juzal/OneDrive/Documents/Masters of Equine Science/Advanced Quantitative Methods and Experiment Design","False","mono","False","18","no","white","no","yes","768","legacy","27","27","C:/Users/juzal/OneDrive/Documents/Masters of Equine Science/Advanced Quantitative Methods and Experiment Design/CH-subject-3.csv","legacy","Melodramatic Milgram","4.0.5","0","s","NA","space","s","NA","NA","382.0","NA","22335","382","NA","NA","2","legacy","1024","2","48000","-16","experiment","SSHSS","3","odd","24391","NA","NA","NA","69917","70942","54399","2047","NA","70944","2055","71044","71427","NA","NA","71044","Flanker task","26","14894.0","28","1024"
"93","93","530","530","#3d3846","legacy","legacy","legacy","congruent","1","undefined","1","h","0","0","0","0","28","28","28","0","28","28","0","28","28","0","0","28","Wed Sep  6 11:12:49 2023","1500","The main experiment item","True","Flankertask.osexp","C:/Users/juzal/OneDrive/Documents/Masters of Equine Science/Advanced Quantitative Methods and Experiment Design","False","mono","False","18","no","white","no","yes","768","legacy","28","28","C:/Users/juzal/OneDrive/Documents/Masters of Equine Science/Advanced Quantitative Methods and Experiment Design/CH-subject-3.csv","legacy","Melodramatic Milgram","4.0.5","0","h","NA","space","h","NA","NA","485.0","NA","22335","485","NA","NA","2","legacy","1024","2","48000","-16","experiment","HHHHH","3","odd","24391","NA","NA","NA","71961","72990","71461","2047","NA","72991","2055","73091","73577","NA","NA","73091","Flanker task","27","15379.0","29","1024"
"93","93","532","532","#3d3846","legacy","legacy","legacy","congruent","1","undefined","1","s","0","0","0","0","29","29","29","0","29","29","0","29","29","0","0","29","Wed Sep  6 11:12:49 2023","1500","The main experiment item","True","Flankertask.osexp","C:/Users/juzal/OneDrive/Documents/Masters of Equine Science/Advanced Quantitative Methods and Experiment Design","False","mono","False","18","no","white","no","yes","768","legacy","29","29","C:/Users/juzal/OneDrive/Documents/Masters of Equine Science/Advanced Quantitative Methods and Experiment Design/CH-subject-3.csv","legacy","Melodramatic Milgram","4.0.5","0","s","NA","space","s","NA","NA","595.0","NA","22335","595","NA","NA","2","legacy","1024","2","48000","-16","experiment","SSSSS","3","odd","24391","NA","NA","NA","73614","74644","71461","2047","NA","74645","2055","74745","75340","NA","NA","74745","Flanker task","28","15974.0","30","1024"
"90","90","528","528","#3d3846","legacy","legacy","legacy","incongruent","0","undefined","0","h","0","0","0","0","30","30","30","0","30","30","0","30","30","0","0","30","Wed Sep  6 11:12:49 2023","1500","The main experiment item","True","Flankertask.osexp","C:/Users/juzal/OneDrive/Documents/Masters of Equine Science/Advanced Quantitative Methods and Experiment Design","False","mono","False","18","no","white","no","yes","768","legacy","30","30","C:/Users/juzal/OneDrive/Documents/Masters of Equine Science/Advanced Quantitative Methods and Experiment Design/CH-subject-3.csv","legacy","Melodramatic Milgram","4.0.5","0","s","NA","space","s","NA","NA","415.0","NA","22335","415","NA","NA","2","legacy","1024","2","48000","-16","experiment","SSHSS","3","odd","24391","NA","NA","NA","75361","76397","71461","2047","NA","76399","2055","76499","76914","NA","NA","76499","Flanker task","28","16389.0","31","1024"
"90","90","539","539","#3d3846","legacy","legacy","legacy","congruent","1","undefined","1","s","0","0","0","0","31","31","31","0","31","31","0","31","31","0","0","31","Wed Sep  6 11:12:49 2023","1500","The main experiment item","True","Flankertask.osexp","C:/Users/juzal/OneDrive/Documents/Masters of Equine Science/Advanced Quantitative Methods and Experiment Design","False","mono","False","18","no","white","no","yes","768","legacy","31","31","C:/Users/juzal/OneDrive/Documents/Masters of Equine Science/Advanced Quantitative Methods and Experiment Design/CH-subject-3.csv","legacy","Melodramatic Milgram","4.0.5","0","s","NA","space","s","NA","NA","890.0","NA","22335","890","NA","NA","2","legacy","1024","2","48000","-16","experiment","SSSSS","3","odd","24391","NA","NA","NA","77445","78470","76945","2047","NA","78472","2055","78572","79462","NA","NA","78572","Flanker task","29","17279.0","32","1024"
"90","90","538","538","#3d3846","legacy","legacy","legacy","congruent","1","undefined","1","h","0","0","0","0","32","32","32","0","32","32","0","32","32","0","0","32","Wed Sep  6 11:12:49 2023","1500","The main experiment item","True","Flankertask.osexp","C:/Users/juzal/OneDrive/Documents/Masters of Equine Science/Advanced Quantitative Methods and Experiment Design","False","mono","False","18","no","white","no","yes","768","legacy","32","32","C:/Users/juzal/OneDrive/Documents/Masters of Equine Science/Advanced Quantitative Methods and Experiment Design/CH-subject-3.csv","legacy","Melodramatic Milgram","4.0.5","0","h","NA","space","h","NA","NA","494.0","NA","22335","494","NA","NA","2","legacy","1024","2","48000","-16","experiment","HHHHH","3","odd","24391","NA","NA","NA","79467","80495","76945","2047","NA","80496","2055","80596","81090","NA","NA","80596","Flanker task","30","17773.0","33","1024"
"91","91","539","539","#3d3846","legacy","legacy","legacy","incongruent","1","undefined","1","s","0","0","0","0","33","33","33","0","33","33","0","33","33","0","0","33","Wed Sep  6 11:12:49 2023","1500","The main experiment item","True","Flankertask.osexp","C:/Users/juzal/OneDrive/Documents/Masters of Equine Science/Advanced Quantitative Methods and Experiment Design","False","mono","False","18","no","white","no","yes","768","legacy","33","33","C:/Users/juzal/OneDrive/Documents/Masters of Equine Science/Advanced Quantitative Methods and Experiment Design/CH-subject-3.csv","legacy","Melodramatic Milgram","4.0.5","0","s","NA","space","s","NA","NA","562.0","NA","22335","562","NA","NA","2","legacy","1024","2","48000","-16","experiment","HHSHH","3","odd","24391","NA","NA","NA","81127","82158","76945","2047","NA","82159","2055","82261","82824","NA","NA","82260","Flanker task","31","18335.0","34","1024"
"91","91","537","537","#3d3846","legacy","legacy","legacy","incongruent","1","undefined","1","s","0","0","0","0","34","34","34","0","34","34","0","34","34","0","0","34","Wed Sep  6 11:12:49 2023","1500","The main experiment item","True","Flankertask.osexp","C:/Users/juzal/OneDrive/Documents/Masters of Equine Science/Advanced Quantitative Methods and Experiment Design","False","mono","False","18","no","white","no","yes","768","legacy","34","34","C:/Users/juzal/OneDrive/Documents/Masters of Equine Science/Advanced Quantitative Methods and Experiment Design/CH-subject-3.csv","legacy","Melodramatic Milgram","4.0.5","0","s","NA","space","s","NA","NA","463.0","NA","22335","463","NA","NA","2","legacy","1024","2","48000","-16","experiment","HHSHH","3","odd","24391","NA","NA","NA","82848","83873","76945","2047","NA","83875","2055","83975","84438","NA","NA","83975","Flanker task","32","18798.0","35","1024"
"91","91","537","537","#3d3846","legacy","legacy","legacy","incongruent","1","undefined","1","s","0","0","0","0","35","35","35","0","35","35","0","35","35","0","0","35","Wed Sep  6 11:12:49 2023","1500","The main experiment item","True","Flankertask.osexp","C:/Users/juzal/OneDrive/Documents/Masters of Equine Science/Advanced Quantitative Methods and Experiment Design","False","mono","False","18","no","white","no","yes","768","legacy","35","35","C:/Users/juzal/OneDrive/Documents/Masters of Equine Science/Advanced Quantitative Methods and Experiment Design/CH-subject-3.csv","legacy","Melodramatic Milgram","4.0.5","0","s","NA","space","s","NA","NA","567.0","NA","22335","567","NA","NA","2","legacy","1024","2","48000","-16","experiment","HHSHH","3","odd","24391","NA","NA","NA","84483","85511","76945","2047","NA","85513","2055","85614","86182","NA","NA","85614","Flanker task","33","19365.0","36","1024"
"91","91","540","540","#3d3846","legacy","legacy","legacy","incongruent","1","undefined","1","s","0","0","0","0","36","36","36","0","36","36","0","36","36","0","0","36","Wed Sep  6 11:12:49 2023","1500","The main experiment item","True","Flankertask.osexp","C:/Users/juzal/OneDrive/Documents/Masters of Equine Science/Advanced Quantitative Methods and Experiment Design","False","mono","False","18","no","white","no","yes","768","legacy","36","36","C:/Users/juzal/OneDrive/Documents/Masters of Equine Science/Advanced Quantitative Methods and Experiment Design/CH-subject-3.csv","legacy","Melodramatic Milgram","4.0.5","0","s","NA","space","s","NA","NA","635.0","NA","22335","635","NA","NA","2","legacy","1024","2","48000","-16","experiment","HHSHH","3","odd","24391","NA","NA","NA","86221","87246","76945","2047","NA","87247","2055","87348","87984","NA","NA","87347","Flanker task","34","20000.0","37","1024"
"92","92","541","541","#3d3846","legacy","legacy","legacy","congruent","1","undefined","1","h","0","0","0","0","37","37","37","0","37","37","0","37","37","0","0","37","Wed Sep  6 11:12:49 2023","1500","The main experiment item","True","Flankertask.osexp","C:/Users/juzal/OneDrive/Documents/Masters of Equine Science/Advanced Quantitative Methods and Experiment Design","False","mono","False","18","no","white","no","yes","768","legacy","37","37","C:/Users/juzal/OneDrive/Documents/Masters of Equine Science/Advanced Quantitative Methods and Experiment Design/CH-subject-3.csv","legacy","Melodramatic Milgram","4.0.5","0","h","NA","space","h","NA","NA","589.0","NA","22335","589","NA","NA","2","legacy","1024","2","48000","-16","experiment","HHHHH","3","odd","24391","NA","NA","NA","88028","89057","76945","2047","NA","89058","2055","89160","89750","NA","NA","89160","Flanker task","35","20589.0","38","1024"
"92","92","542","542","#3d3846","legacy","legacy","legacy","congruent","1","undefined","1","s","0","0","0","0","38","38","38","0","38","38","0","38","38","0","0","38","Wed Sep  6 11:12:49 2023","1500","The main experiment item","True","Flankertask.osexp","C:/Users/juzal/OneDrive/Documents/Masters of Equine Science/Advanced Quantitative Methods and Experiment Design","False","mono","False","18","no","white","no","yes","768","legacy","38","38","C:/Users/juzal/OneDrive/Documents/Masters of Equine Science/Advanced Quantitative Methods and Experiment Design/CH-subject-3.csv","legacy","Melodramatic Milgram","4.0.5","0","s","NA","space","s","NA","NA","560.0","NA","22335","560","NA","NA","2","legacy","1024","2","48000","-16","experiment","SSSSS","3","odd","24391","NA","NA","NA","89754","90789","76945","2047","NA","90791","2055","90892","91453","NA","NA","90891","Flanker task","36","21149.0","39","1024"
"92","92","544","544","#3d3846","legacy","legacy","legacy","incongruent","1","undefined","1","h","0","0","0","0","39","39","39","0","39","39","0","39","39","0","0","39","Wed Sep  6 11:12:49 2023","1500","The main experiment item","True","Flankertask.osexp","C:/Users/juzal/OneDrive/Documents/Masters of Equine Science/Advanced Quantitative Methods and Experiment Design","False","mono","False","18","no","white","no","yes","768","legacy","39","39","C:/Users/juzal/OneDrive/Documents/Masters of Equine Science/Advanced Quantitative Methods and Experiment Design/CH-subject-3.csv","legacy","Melodramatic Milgram","4.0.5","0","h","NA","space","h","NA","NA","628.0","NA","22335","628","NA","NA","2","legacy","1024","2","48000","-16","experiment","SSHSS","3","odd","24391","NA","NA","NA","91490","92516","76945","2047","NA","92518","2055","92618","93247","NA","NA","92618","Flanker task","37","21777.0","40","1024"
"92","92","545","545","#3d3846","legacy","legacy","legacy","congruent","1","undefined","1","h","0","0","0","0","40","40","40","0","40","40","0","40","40","0","0","40","Wed Sep  6 11:12:49 2023","1500","The main experiment item","True","Flankertask.osexp","C:/Users/juzal/OneDrive/Documents/Masters of Equine Science/Advanced Quantitative Methods and Experiment Design","False","mono","False","18","no","white","no","yes","768","legacy","40","40","C:/Users/juzal/OneDrive/Documents/Masters of Equine Science/Advanced Quantitative Methods and Experiment Design/CH-subject-3.csv","legacy","Melodramatic Milgram","4.0.5","0","h","NA","space","h","NA","NA","578.0","NA","22335","578","NA","NA","2","legacy","1024","2","48000","-16","experiment","HHHHH","3","odd","24391","NA","NA","NA","93284","94309","76945","2047","NA","94310","2055","94410","94988","NA","NA","94410","Flanker task","38","22355.0","41","1024"
"92","92","545","545","#3d3846","legacy","legacy","legacy","incongruent","1","undefined","1","h","0","0","0","0","41","41","41","0","41","41","0","41","41","0","0","41","Wed Sep  6 11:12:49 2023","1500","The main experiment item","True","Flankertask.osexp","C:/Users/juzal/OneDrive/Documents/Masters of Equine Science/Advanced Quantitative Methods and Experiment Design","False","mono","False","18","no","white","no","yes","768","legacy","41","41","C:/Users/juzal/OneDrive/Documents/Masters of Equine Science/Advanced Quantitative Methods and Experiment Design/CH-subject-3.csv","legacy","Melodramatic Milgram","4.0.5","0","h","NA","space","h","NA","NA","535.0","NA","22335","535","NA","NA","2","legacy","1024","2","48000","-16","experiment","SSHSS","3","odd","24391","NA","NA","NA","94993","96020","76945","2047","NA","96021","2055","96121","96657","NA","NA","96121","Flanker task","39","22890.0","42","1024"
"93","93","546","546","#3d3846","legacy","legacy","legacy","incongruent","1","undefined","1","h","0","0","0","0","42","42","42","0","42","42","0","42","42","0","0","42","Wed Sep  6 11:12:49 2023","1500","The main experiment item","True","Flankertask.osexp","C:/Users/juzal/OneDrive/Documents/Masters of Equine Science/Advanced Quantitative Methods and Experiment Design","False","mono","False","18","no","white","no","yes","768","legacy","42","42","C:/Users/juzal/OneDrive/Documents/Masters of Equine Science/Advanced Quantitative Methods and Experiment Design/CH-subject-3.csv","legacy","Melodramatic Milgram","4.0.5","0","h","NA","space","h","NA","NA","613.0","NA","22335","613","NA","NA","2","legacy","1024","2","48000","-16","experiment","SSHSS","3","odd","24391","NA","NA","NA","96689","97715","76945","2047","NA","97716","2055","97817","98430","NA","NA","97817","Flanker task","40","23503.0","43","1024"
"93","93","546","546","#3d3846","legacy","legacy","legacy","congruent","1","undefined","1","h","0","0","0","0","43","43","43","0","43","43","0","43","43","0","0","43","Wed Sep  6 11:12:49 2023","1500","The main experiment item","True","Flankertask.osexp","C:/Users/juzal/OneDrive/Documents/Masters of Equine Science/Advanced Quantitative Methods and Experiment Design","False","mono","False","18","no","white","no","yes","768","legacy","43","43","C:/Users/juzal/OneDrive/Documents/Masters of Equine Science/Advanced Quantitative Methods and Experiment Design/CH-subject-3.csv","legacy","Melodramatic Milgram","4.0.5","0","h","NA","space","h","NA","NA","524.0","NA","22335","524","NA","NA","2","legacy","1024","2","48000","-16","experiment","HHHHH","3","odd","24391","NA","NA","NA","98435","99460","76945","2047","NA","99461","2055","99561","100085","NA","NA","99561","Flanker task","41","24027.0","44","1024"
"93","93","546","546","#3d3846","legacy","legacy","legacy","congruent","1","undefined","1","s","0","0","0","0","44","44","44","0","44","44","0","44","44","0","0","44","Wed Sep  6 11:12:49 2023","1500","The main experiment item","True","Flankertask.osexp","C:/Users/juzal/OneDrive/Documents/Masters of Equine Science/Advanced Quantitative Methods and Experiment Design","False","mono","False","18","no","white","no","yes","768","legacy","44","44","C:/Users/juzal/OneDrive/Documents/Masters of Equine Science/Advanced Quantitative Methods and Experiment Design/CH-subject-3.csv","legacy","Melodramatic Milgram","4.0.5","0","s","NA","space","s","NA","NA","570.0","NA","22335","570","NA","NA","2","legacy","1024","2","48000","-16","experiment","SSSSS","3","odd","24391","NA","NA","NA","100120","101144","76945","2047","NA","101146","2055","101246","101818","NA","NA","101246","Flanker task","42","24597.0","45","1024"
"93","93","547","547","#3d3846","legacy","legacy","legacy","congruent","1","undefined","1","s","0","0","0","0","45","45","45","0","45","45","0","45","45","0","0","45","Wed Sep  6 11:12:49 2023","1500","The main experiment item","True","Flankertask.osexp","C:/Users/juzal/OneDrive/Documents/Masters of Equine Science/Advanced Quantitative Methods and Experiment Design","False","mono","False","18","no","white","no","yes","768","legacy","45","45","C:/Users/juzal/OneDrive/Documents/Masters of Equine Science/Advanced Quantitative Methods and Experiment Design/CH-subject-3.csv","legacy","Melodramatic Milgram","4.0.5","0","s","NA","space","s","NA","NA","566.0","NA","22335","566","NA","NA","2","legacy","1024","2","48000","-16","experiment","SSSSS","3","odd","24391","NA","NA","NA","101851","102876","76945","2047","NA","102877","2055","102979","103545","NA","NA","102978","Flanker task","43","25163.0","46","1024"
"93","93","547","547","#3d3846","legacy","legacy","legacy","incongruent","1","undefined","1","s","0","0","0","0","46","46","46","0","46","46","0","46","46","0","0","46","Wed Sep  6 11:12:49 2023","1500","The main experiment item","True","Flankertask.osexp","C:/Users/juzal/OneDrive/Documents/Masters of Equine Science/Advanced Quantitative Methods and Experiment Design","False","mono","False","18","no","white","no","yes","768","legacy","46","46","C:/Users/juzal/OneDrive/Documents/Masters of Equine Science/Advanced Quantitative Methods and Experiment Design/CH-subject-3.csv","legacy","Melodramatic Milgram","4.0.5","0","s","NA","space","s","NA","NA","562.0","NA","22335","562","NA","NA","2","legacy","1024","2","48000","-16","experiment","HHSHH","3","odd","24391","NA","NA","NA","103556","104585","76945","2047","NA","104586","2055","104686","105249","NA","NA","104686","Flanker task","44","25725.0","47","1024"
"93","93","548","548","#3d3846","legacy","legacy","legacy","incongruent","1","undefined","1","h","0","0","0","0","47","47","47","0","47","47","0","47","47","0","0","47","Wed Sep  6 11:12:49 2023","1500","The main experiment item","True","Flankertask.osexp","C:/Users/juzal/OneDrive/Documents/Masters of Equine Science/Advanced Quantitative Methods and Experiment Design","False","mono","False","18","no","white","no","yes","768","legacy","47","47","C:/Users/juzal/OneDrive/Documents/Masters of Equine Science/Advanced Quantitative Methods and Experiment Design/CH-subject-3.csv","legacy","Melodramatic Milgram","4.0.5","0","h","NA","space","h","NA","NA","587.0","NA","22335","587","NA","NA","2","legacy","1024","2","48000","-16","experiment","SSHSS","3","odd","24391","NA","NA","NA","105299","106324","76945","2047","NA","106325","2055","106426","107014","NA","NA","106425","Flanker task","45","26312.0","48","1024"
"93","93","548","548","#3d3846","legacy","legacy","legacy","incongruent","1","undefined","1","h","0","0","0","0","48","48","48","0","48","48","0","48","48","0","0","48","Wed Sep  6 11:12:49 2023","1500","The main experiment item","True","Flankertask.osexp","C:/Users/juzal/OneDrive/Documents/Masters of Equine Science/Advanced Quantitative Methods and Experiment Design","False","mono","False","18","no","white","no","yes","768","legacy","48","48","C:/Users/juzal/OneDrive/Documents/Masters of Equine Science/Advanced Quantitative Methods and Experiment Design/CH-subject-3.csv","legacy","Melodramatic Milgram","4.0.5","0","h","NA","space","h","NA","NA","549.0","NA","22335","549","NA","NA","2","legacy","1024","2","48000","-16","experiment","SSHSS","3","odd","24391","NA","NA","NA","107055","108080","76945","2047","NA","108081","2055","108181","108731","NA","NA","108181","Flanker task","46","26861.0","49","1024"
"94","94","547","547","#3d3846","legacy","legacy","legacy","congruent","1","undefined","1","s","0","0","0","0","49","49","49","0","49","49","0","49","49","0","0","49","Wed Sep  6 11:12:49 2023","1500","The main experiment item","True","Flankertask.osexp","C:/Users/juzal/OneDrive/Documents/Masters of Equine Science/Advanced Quantitative Methods and Experiment Design","False","mono","False","18","no","white","no","yes","768","legacy","49","49","C:/Users/juzal/OneDrive/Documents/Masters of Equine Science/Advanced Quantitative Methods and Experiment Design/CH-subject-3.csv","legacy","Melodramatic Milgram","4.0.5","0","s","NA","space","s","NA","NA","502.0","NA","22335","502","NA","NA","2","legacy","1024","2","48000","-16","experiment","SSSSS","3","odd","24391","NA","NA","NA","108780","109814","76945","2047","NA","109815","2055","109917","110419","NA","NA","109916","Flanker task","47","27363.0","50","1024"
"94","94","546","546","#3d3846","legacy","legacy","legacy","congruent","1","undefined","1","s","0","0","0","0","50","50","50","0","50","50","0","50","50","0","0","50","Wed Sep  6 11:12:49 2023","1500","The main experiment item","True","Flankertask.osexp","C:/Users/juzal/OneDrive/Documents/Masters of Equine Science/Advanced Quantitative Methods and Experiment Design","False","mono","False","18","no","white","no","yes","768","legacy","50","50","C:/Users/juzal/OneDrive/Documents/Masters of Equine Science/Advanced Quantitative Methods and Experiment Design/CH-subject-3.csv","legacy","Melodramatic Milgram","4.0.5","0","s","NA","space","s","NA","NA","518.0","NA","22335","518","NA","NA","2","legacy","1024","2","48000","-16","experiment","SSSSS","3","odd","24391","NA","NA","NA","110475","111499","76945","2047","NA","111500","2055","111600","112119","NA","NA","111600","Flanker task","48","27881.0","51","1024"
"94","94","544","544","#3d3846","legacy","legacy","legacy","congruent","1","undefined","1","s","0","0","0","0","51","51","51","0","51","51","0","51","51","0","0","51","Wed Sep  6 11:12:49 2023","1500","The main experiment item","True","Flankertask.osexp","C:/Users/juzal/OneDrive/Documents/Masters of Equine Science/Advanced Quantitative Methods and Experiment Design","False","mono","False","18","no","white","no","yes","768","legacy","51","51","C:/Users/juzal/OneDrive/Documents/Masters of Equine Science/Advanced Quantitative Methods and Experiment Design/CH-subject-3.csv","legacy","Melodramatic Milgram","4.0.5","0","s","NA","space","s","NA","NA","448.0","NA","22335","448","NA","NA","2","legacy","1024","2","48000","-16","experiment","SSSSS","3","odd","24391","NA","NA","NA","112144","113170","76945","2047","NA","113171","2055","113271","113720","NA","NA","113271","Flanker task","49","28329.0","52","1024"
"94","94","542","542","#3d3846","legacy","legacy","legacy","congruent","1","undefined","1","s","0","0","0","0","52","52","52","0","52","52","0","52","52","0","0","52","Wed Sep  6 11:12:49 2023","1500","The main experiment item","True","Flankertask.osexp","C:/Users/juzal/OneDrive/Documents/Masters of Equine Science/Advanced Quantitative Methods and Experiment Design","False","mono","False","18","no","white","no","yes","768","legacy","52","52","C:/Users/juzal/OneDrive/Documents/Masters of Equine Science/Advanced Quantitative Methods and Experiment Design/CH-subject-3.csv","legacy","Melodramatic Milgram","4.0.5","0","s","NA","space","s","NA","NA","429.0","NA","22335","429","NA","NA","2","legacy","1024","2","48000","-16","experiment","SSSSS","3","odd","24391","NA","NA","NA","113728","114754","76945","2047","NA","114755","2055","114855","115284","NA","NA","114855","Flanker task","50","28758.0","53","1024"
"94","94","543","543","#3d3846","legacy","legacy","legacy","incongruent","1","undefined","1","h","0","0","0","0","53","53","53","0","53","53","0","53","53","0","0","53","Wed Sep  6 11:12:49 2023","1500","The main experiment item","True","Flankertask.osexp","C:/Users/juzal/OneDrive/Documents/Masters of Equine Science/Advanced Quantitative Methods and Experiment Design","False","mono","False","18","no","white","no","yes","768","legacy","53","53","C:/Users/juzal/OneDrive/Documents/Masters of Equine Science/Advanced Quantitative Methods and Experiment Design/CH-subject-3.csv","legacy","Melodramatic Milgram","4.0.5","0","h","NA","space","h","NA","NA","608.0","NA","22335","608","NA","NA","2","legacy","1024","2","48000","-16","experiment","SSHSS","3","odd","24391","NA","NA","NA","115333","116359","76945","2047","NA","116360","2055","116460","117068","NA","NA","116460","Flanker task","51","29366.0","54","1024"
"94","94","544","544","#3d3846","legacy","legacy","legacy","congruent","1","undefined","1","h","0","0","0","0","54","54","54","0","54","54","0","54","54","0","0","54","Wed Sep  6 11:12:49 2023","1500","The main experiment item","True","Flankertask.osexp","C:/Users/juzal/OneDrive/Documents/Masters of Equine Science/Advanced Quantitative Methods and Experiment Design","False","mono","False","18","no","white","no","yes","768","legacy","54","54","C:/Users/juzal/OneDrive/Documents/Masters of Equine Science/Advanced Quantitative Methods and Experiment Design/CH-subject-3.csv","legacy","Melodramatic Milgram","4.0.5","0","h","NA","space","h","NA","NA","572.0","NA","22335","572","NA","NA","2","legacy","1024","2","48000","-16","experiment","HHHHH","3","odd","24391","NA","NA","NA","117119","118143","76945","2047","NA","118144","2055","118244","118817","NA","NA","118244","Flanker task","52","29938.0","55","1024"
"94","94","544","544","#3d3846","legacy","legacy","legacy","incongruent","1","undefined","1","s","0","0","0","0","55","55","55","0","55","55","0","55","55","0","0","55","Wed Sep  6 11:12:49 2023","1500","The main experiment item","True","Flankertask.osexp","C:/Users/juzal/OneDrive/Documents/Masters of Equine Science/Advanced Quantitative Methods and Experiment Design","False","mono","False","18","no","white","no","yes","768","legacy","55","55","C:/Users/juzal/OneDrive/Documents/Masters of Equine Science/Advanced Quantitative Methods and Experiment Design/CH-subject-3.csv","legacy","Melodramatic Milgram","4.0.5","0","s","NA","space","s","NA","NA","532.0","NA","22335","532","NA","NA","2","legacy","1024","2","48000","-16","experiment","HHSHH","3","odd","24391","NA","NA","NA","118845","119876","76945","2047","NA","119877","2055","119977","120510","NA","NA","119977","Flanker task","53","30470.0","56","1024"
"94","94","543","543","#3d3846","legacy","legacy","legacy","congruent","1","undefined","1","h","0","0","0","0","56","56","56","0","56","56","0","56","56","0","0","56","Wed Sep  6 11:12:49 2023","1500","The main experiment item","True","Flankertask.osexp","C:/Users/juzal/OneDrive/Documents/Masters of Equine Science/Advanced Quantitative Methods and Experiment Design","False","mono","False","18","no","white","no","yes","768","legacy","56","56","C:/Users/juzal/OneDrive/Documents/Masters of Equine Science/Advanced Quantitative Methods and Experiment Design/CH-subject-3.csv","legacy","Melodramatic Milgram","4.0.5","0","h","NA","space","h","NA","NA","527.0","NA","22335","527","NA","NA","2","legacy","1024","2","48000","-16","experiment","HHHHH","3","odd","24391","NA","NA","NA","120537","121560","76945","2047","NA","121561","2055","121661","122188","NA","NA","121661","Flanker task","54","30997.0","57","1024"
"94","94","541","541","#3d3846","legacy","legacy","legacy","incongruent","1","undefined","1","s","0","0","0","0","57","57","57","0","57","57","0","57","57","0","0","57","Wed Sep  6 11:12:49 2023","1500","The main experiment item","True","Flankertask.osexp","C:/Users/juzal/OneDrive/Documents/Masters of Equine Science/Advanced Quantitative Methods and Experiment Design","False","mono","False","18","no","white","no","yes","768","legacy","57","57","C:/Users/juzal/OneDrive/Documents/Masters of Equine Science/Advanced Quantitative Methods and Experiment Design/CH-subject-3.csv","legacy","Melodramatic Milgram","4.0.5","0","s","NA","space","s","NA","NA","428.0","NA","22335","428","NA","NA","2","legacy","1024","2","48000","-16","experiment","HHSHH","3","odd","24391","NA","NA","NA","122240","123266","76945","2047","NA","123267","2055","123367","123796","NA","NA","123367","Flanker task","55","31425.0","58","1024"
"94","94","542","542","#3d3846","legacy","legacy","legacy","incongruent","1","undefined","1","s","0","0","0","0","58","58","58","0","58","58","0","58","58","0","0","58","Wed Sep  6 11:12:49 2023","1500","The main experiment item","True","Flankertask.osexp","C:/Users/juzal/OneDrive/Documents/Masters of Equine Science/Advanced Quantitative Methods and Experiment Design","False","mono","False","18","no","white","no","yes","768","legacy","58","58","C:/Users/juzal/OneDrive/Documents/Masters of Equine Science/Advanced Quantitative Methods and Experiment Design/CH-subject-3.csv","legacy","Melodramatic Milgram","4.0.5","0","s","NA","space","s","NA","NA","582.0","NA","22335","582","NA","NA","2","legacy","1024","2","48000","-16","experiment","HHSHH","3","odd","24391","NA","NA","NA","123810","124837","76945","2047","NA","124839","2055","124940","125522","NA","NA","124939","Flanker task","56","32007.0","59","1024"
"95","95","542","542","#3d3846","legacy","legacy","legacy","incongruent","1","undefined","1","s","0","0","0","0","59","59","59","0","59","59","0","59","59","0","0","59","Wed Sep  6 11:12:49 2023","1500","The main experiment item","True","Flankertask.osexp","C:/Users/juzal/OneDrive/Documents/Masters of Equine Science/Advanced Quantitative Methods and Experiment Design","False","mono","False","18","no","white","no","yes","768","legacy","59","59","C:/Users/juzal/OneDrive/Documents/Masters of Equine Science/Advanced Quantitative Methods and Experiment Design/CH-subject-3.csv","legacy","Melodramatic Milgram","4.0.5","0","s","NA","space","s","NA","NA","518.0","NA","22335","518","NA","NA","2","legacy","1024","2","48000","-16","experiment","HHSHH","3","odd","24391","NA","NA","NA","125573","126598","76945","2047","NA","126599","2055","126699","127217","NA","NA","126699","Flanker task","57","32525.0","60","1024"
"95","95","542","542","#3d3846","legacy","legacy","legacy","congruent","1","undefined","1","s","0","0","0","0","60","60","60","0","60","60","0","60","60","0","0","60","Wed Sep  6 11:12:49 2023","1500","The main experiment item","True","Flankertask.osexp","C:/Users/juzal/OneDrive/Documents/Masters of Equine Science/Advanced Quantitative Methods and Experiment Design","False","mono","False","18","no","white","no","yes","768","legacy","60","60","C:/Users/juzal/OneDrive/Documents/Masters of Equine Science/Advanced Quantitative Methods and Experiment Design/CH-subject-3.csv","legacy","Melodramatic Milgram","4.0.5","0","s","NA","space","s","NA","NA","537.0","NA","22335","537","NA","NA","2","legacy","1024","2","48000","-16","experiment","SSSSS","3","odd","24391","NA","NA","NA","127222","128247","76945","2047","NA","128248","2055","128348","128885","NA","NA","128348","Flanker task","58","33062.0","61","1024"
"95","95","541","541","#3d3846","legacy","legacy","legacy","congruent","1","undefined","1","h","0","0","0","0","61","61","61","0","61","61","0","61","61","0","0","61","Wed Sep  6 11:12:49 2023","1500","The main experiment item","True","Flankertask.osexp","C:/Users/juzal/OneDrive/Documents/Masters of Equine Science/Advanced Quantitative Methods and Experiment Design","False","mono","False","18","no","white","no","yes","768","legacy","61","61","C:/Users/juzal/OneDrive/Documents/Masters of Equine Science/Advanced Quantitative Methods and Experiment Design/CH-subject-3.csv","legacy","Melodramatic Milgram","4.0.5","0","h","NA","space","h","NA","NA","503.0","NA","22335","503","NA","NA","2","legacy","1024","2","48000","-16","experiment","HHHHH","3","odd","24391","NA","NA","NA","128923","129953","76945","2047","NA","129955","2055","130055","130559","NA","NA","130055","Flanker task","59","33565.0","62","1024"
"95","95","540","540","#3d3846","legacy","legacy","legacy","congruent","1","undefined","1","s","0","0","0","0","62","62","62","0","62","62","0","62","62","0","0","62","Wed Sep  6 11:12:49 2023","1500","The main experiment item","True","Flankertask.osexp","C:/Users/juzal/OneDrive/Documents/Masters of Equine Science/Advanced Quantitative Methods and Experiment Design","False","mono","False","18","no","white","no","yes","768","legacy","62","62","C:/Users/juzal/OneDrive/Documents/Masters of Equine Science/Advanced Quantitative Methods and Experiment Design/CH-subject-3.csv","legacy","Melodramatic Milgram","4.0.5","0","s","NA","space","s","NA","NA","483.0","NA","22335","483","NA","NA","2","legacy","1024","2","48000","-16","experiment","SSSSS","3","odd","24391","NA","NA","NA","130596","131620","76945","2047","NA","131621","2055","131721","132204","NA","NA","131721","Flanker task","60","34048.0","63","1024"
"95","95","540","540","#3d3846","legacy","legacy","legacy","incongruent","1","undefined","1","s","0","0","0","0","63","63","63","0","63","63","0","63","63","0","0","63","Wed Sep  6 11:12:49 2023","1500","The main experiment item","True","Flankertask.osexp","C:/Users/juzal/OneDrive/Documents/Masters of Equine Science/Advanced Quantitative Methods and Experiment Design","False","mono","False","18","no","white","no","yes","768","legacy","63","63","C:/Users/juzal/OneDrive/Documents/Masters of Equine Science/Advanced Quantitative Methods and Experiment Design/CH-subject-3.csv","legacy","Melodramatic Milgram","4.0.5","0","s","NA","space","s","NA","NA","512.0","NA","22335","512","NA","NA","2","legacy","1024","2","48000","-16","experiment","HHSHH","3","odd","24391","NA","NA","NA","132241","133269","76945","2047","NA","133270","2055","133370","133883","NA","NA","133370","Flanker task","61","34560.0","64","1024"
"95","95","541","541","#3d3846","legacy","legacy","legacy","incongruent","1","undefined","1","h","0","0","0","0","64","64","64","0","64","64","0","64","64","0","0","64","Wed Sep  6 11:12:49 2023","1500","The main experiment item","True","Flankertask.osexp","C:/Users/juzal/OneDrive/Documents/Masters of Equine Science/Advanced Quantitative Methods and Experiment Design","False","mono","False","18","no","white","no","yes","768","legacy","64","64","C:/Users/juzal/OneDrive/Documents/Masters of Equine Science/Advanced Quantitative Methods and Experiment Design/CH-subject-3.csv","legacy","Melodramatic Milgram","4.0.5","0","h","NA","space","h","NA","NA","607.0","NA","22335","607","NA","NA","2","legacy","1024","2","48000","-16","experiment","SSHSS","3","odd","24391","NA","NA","NA","133911","134943","76945","2047","NA","134944","2055","135044","135651","NA","NA","135044","Flanker task","62","35167.0","65","1024"
"95","95","540","540","#3d3846","legacy","legacy","legacy","congruent","1","undefined","1","s","0","0","0","0","65","65","65","0","65","65","0","65","65","0","0","65","Wed Sep  6 11:12:49 2023","1500","The main experiment item","True","Flankertask.osexp","C:/Users/juzal/OneDrive/Documents/Masters of Equine Science/Advanced Quantitative Methods and Experiment Design","False","mono","False","18","no","white","no","yes","768","legacy","65","65","C:/Users/juzal/OneDrive/Documents/Masters of Equine Science/Advanced Quantitative Methods and Experiment Design/CH-subject-3.csv","legacy","Melodramatic Milgram","4.0.5","0","s","NA","space","s","NA","NA","474.0","NA","22335","474","NA","NA","2","legacy","1024","2","48000","-16","experiment","SSSSS","3","odd","24391","NA","NA","NA","135689","136714","76945","2047","NA","136715","2055","136815","137289","NA","NA","136815","Flanker task","63","35641.0","66","1024"
"95","95","539","539","#3d3846","legacy","legacy","legacy","congruent","1","undefined","1","s","0","0","0","0","66","66","66","0","66","66","0","66","66","0","0","66","Wed Sep  6 11:12:49 2023","1500","The main experiment item","True","Flankertask.osexp","C:/Users/juzal/OneDrive/Documents/Masters of Equine Science/Advanced Quantitative Methods and Experiment Design","False","mono","False","18","no","white","no","yes","768","legacy","66","66","C:/Users/juzal/OneDrive/Documents/Masters of Equine Science/Advanced Quantitative Methods and Experiment Design/CH-subject-3.csv","legacy","Melodramatic Milgram","4.0.5","0","s","NA","space","s","NA","NA","477.0","NA","22335","477","NA","NA","2","legacy","1024","2","48000","-16","experiment","SSSSS","3","odd","24391","NA","NA","NA","137293","138320","76945","2047","NA","138321","2055","138421","138899","NA","NA","138421","Flanker task","64","36118.0","67","1024"
"95","95","539","539","#3d3846","legacy","legacy","legacy","incongruent","1","undefined","1","s","0","0","0","0","67","67","67","0","67","67","0","67","67","0","0","67","Wed Sep  6 11:12:49 2023","1500","The main experiment item","True","Flankertask.osexp","C:/Users/juzal/OneDrive/Documents/Masters of Equine Science/Advanced Quantitative Methods and Experiment Design","False","mono","False","18","no","white","no","yes","768","legacy","67","67","C:/Users/juzal/OneDrive/Documents/Masters of Equine Science/Advanced Quantitative Methods and Experiment Design/CH-subject-3.csv","legacy","Melodramatic Milgram","4.0.5","0","s","NA","space","s","NA","NA","542.0","NA","22335","542","NA","NA","2","legacy","1024","2","48000","-16","experiment","HHSHH","3","odd","24391","NA","NA","NA","138941","139971","76945","2047","NA","139972","2055","140073","140615","NA","NA","140073","Flanker task","65","36660.0","68","1024"
"95","95","539","539","#3d3846","legacy","legacy","legacy","incongruent","1","undefined","1","h","0","0","0","0","68","68","68","0","68","68","0","68","68","0","0","68","Wed Sep  6 11:12:49 2023","1500","The main experiment item","True","Flankertask.osexp","C:/Users/juzal/OneDrive/Documents/Masters of Equine Science/Advanced Quantitative Methods and Experiment Design","False","mono","False","18","no","white","no","yes","768","legacy","68","68","C:/Users/juzal/OneDrive/Documents/Masters of Equine Science/Advanced Quantitative Methods and Experiment Design/CH-subject-3.csv","legacy","Melodramatic Milgram","4.0.5","0","h","NA","space","h","NA","NA","565.0","NA","22335","565","NA","NA","2","legacy","1024","2","48000","-16","experiment","SSHSS","3","odd","24391","NA","NA","NA","140653","141677","76945","2047","NA","141678","2055","141778","142344","NA","NA","141778","Flanker task","66","37225.0","69","1024"
"95","95","538","538","#3d3846","legacy","legacy","legacy","incongruent","1","undefined","1","s","0","0","0","0","69","69","69","0","69","69","0","69","69","0","0","69","Wed Sep  6 11:12:49 2023","1500","The main experiment item","True","Flankertask.osexp","C:/Users/juzal/OneDrive/Documents/Masters of Equine Science/Advanced Quantitative Methods and Experiment Design","False","mono","False","18","no","white","no","yes","768","legacy","69","69","C:/Users/juzal/OneDrive/Documents/Masters of Equine Science/Advanced Quantitative Methods and Experiment Design/CH-subject-3.csv","legacy","Melodramatic Milgram","4.0.5","0","s","NA","space","s","NA","NA","496.0","NA","22335","496","NA","NA","2","legacy","1024","2","48000","-16","experiment","HHSHH","3","odd","24391","NA","NA","NA","142381","143406","76945","2047","NA","143407","2055","143507","144004","NA","NA","143507","Flanker task","67","37721.0","70","1024"
"95","95","539","539","#3d3846","legacy","legacy","legacy","incongruent","1","undefined","1","h","0","0","0","0","70","70","70","0","70","70","0","70","70","0","0","70","Wed Sep  6 11:12:49 2023","1500","The main experiment item","True","Flankertask.osexp","C:/Users/juzal/OneDrive/Documents/Masters of Equine Science/Advanced Quantitative Methods and Experiment Design","False","mono","False","18","no","white","no","yes","768","legacy","70","70","C:/Users/juzal/OneDrive/Documents/Masters of Equine Science/Advanced Quantitative Methods and Experiment Design/CH-subject-3.csv","legacy","Melodramatic Milgram","4.0.5","0","h","NA","space","h","NA","NA","577.0","NA","22335","577","NA","NA","2","legacy","1024","2","48000","-16","experiment","SSHSS","3","odd","24391","NA","NA","NA","144048","145071","76945","2047","NA","145072","2055","145173","145751","NA","NA","145173","Flanker task","68","38298.0","71","1024"
"95","95","540","540","#3d3846","legacy","legacy","legacy","incongruent","1","undefined","1","s","0","0","0","0","71","71","71","0","71","71","0","71","71","0","0","71","Wed Sep  6 11:12:49 2023","1500","The main experiment item","True","Flankertask.osexp","C:/Users/juzal/OneDrive/Documents/Masters of Equine Science/Advanced Quantitative Methods and Experiment Design","False","mono","False","18","no","white","no","yes","768","legacy","71","71","C:/Users/juzal/OneDrive/Documents/Masters of Equine Science/Advanced Quantitative Methods and Experiment Design/CH-subject-3.csv","legacy","Melodramatic Milgram","4.0.5","0","s","NA","space","s","NA","NA","604.0","NA","22335","604","NA","NA","2","legacy","1024","2","48000","-16","experiment","HHSHH","3","odd","24391","NA","NA","NA","145794","146818","76945","2047","NA","146818","2055","146920","147525","NA","NA","146919","Flanker task","69","38902.0","72","1024"
"95","95","540","540","#3d3846","legacy","legacy","legacy","congruent","1","undefined","1","s","0","0","0","0","72","72","72","0","72","72","0","72","72","0","0","72","Wed Sep  6 11:12:49 2023","1500","The main experiment item","True","Flankertask.osexp","C:/Users/juzal/OneDrive/Documents/Masters of Equine Science/Advanced Quantitative Methods and Experiment Design","False","mono","False","18","no","white","no","yes","768","legacy","72","72","C:/Users/juzal/OneDrive/Documents/Masters of Equine Science/Advanced Quantitative Methods and Experiment Design/CH-subject-3.csv","legacy","Melodramatic Milgram","4.0.5","0","s","NA","space","s","NA","NA","530.0","NA","22335","530","NA","NA","2","legacy","1024","2","48000","-16","experiment","SSSSS","3","odd","24391","NA","NA","NA","147567","148590","76945","2047","NA","148591","2055","148692","149223","NA","NA","148692","Flanker task","70","39432.0","73","1024"
"95","95","538","538","#3d3846","legacy","legacy","legacy","congruent","1","undefined","1","s","0","0","0","0","73","73","73","0","73","73","0","73","73","0","0","73","Wed Sep  6 11:12:49 2023","1500","The main experiment item","True","Flankertask.osexp","C:/Users/juzal/OneDrive/Documents/Masters of Equine Science/Advanced Quantitative Methods and Experiment Design","False","mono","False","18","no","white","no","yes","768","legacy","73","73","C:/Users/juzal/OneDrive/Documents/Masters of Equine Science/Advanced Quantitative Methods and Experiment Design/CH-subject-3.csv","legacy","Melodramatic Milgram","4.0.5","0","s","NA","space","s","NA","NA","426.0","NA","22335","426","NA","NA","2","legacy","1024","2","48000","-16","experiment","SSSSS","3","odd","24391","NA","NA","NA","149263","150297","76945","2047","NA","150298","2055","150399","150825","NA","NA","150399","Flanker task","71","39858.0","74","1024"
"96","96","539","539","#3d3846","legacy","legacy","legacy","congruent","1","undefined","1","h","0","0","0","0","74","74","74","0","74","74","0","74","74","0","0","74","Wed Sep  6 11:12:49 2023","1500","The main experiment item","True","Flankertask.osexp","C:/Users/juzal/OneDrive/Documents/Masters of Equine Science/Advanced Quantitative Methods and Experiment Design","False","mono","False","18","no","white","no","yes","768","legacy","74","74","C:/Users/juzal/OneDrive/Documents/Masters of Equine Science/Advanced Quantitative Methods and Experiment Design/CH-subject-3.csv","legacy","Melodramatic Milgram","4.0.5","0","h","NA","space","h","NA","NA","569.0","NA","22335","569","NA","NA","2","legacy","1024","2","48000","-16","experiment","HHHHH","3","odd","24391","NA","NA","NA","150868","151891","76945","2047","NA","151893","2055","151994","152564","NA","NA","151994","Flanker task","72","40427.0","75","1024"
"96","96","538","538","#3d3846","legacy","legacy","legacy","congruent","1","undefined","1","h","0","0","0","0","75","75","75","0","75","75","0","75","75","0","0","75","Wed Sep  6 11:12:49 2023","1500","The main experiment item","True","Flankertask.osexp","C:/Users/juzal/OneDrive/Documents/Masters of Equine Science/Advanced Quantitative Methods and Experiment Design","False","mono","False","18","no","white","no","yes","768","legacy","75","75","C:/Users/juzal/OneDrive/Documents/Masters of Equine Science/Advanced Quantitative Methods and Experiment Design/CH-subject-3.csv","legacy","Melodramatic Milgram","4.0.5","0","h","NA","space","h","NA","NA","518.0","NA","22335","518","NA","NA","2","legacy","1024","2","48000","-16","experiment","HHHHH","3","odd","24391","NA","NA","NA","152609","153632","76945","2047","NA","153633","2055","153734","154256","NA","NA","153734","Flanker task","73","40945.0","76","1024"
"96","96","535","535","#3d3846","legacy","legacy","legacy","congruent","1","undefined","1","h","0","0","0","0","76","76","76","0","76","76","0","76","76","0","0","76","Wed Sep  6 11:12:49 2023","1500","The main experiment item","True","Flankertask.osexp","C:/Users/juzal/OneDrive/Documents/Masters of Equine Science/Advanced Quantitative Methods and Experiment Design","False","mono","False","18","no","white","no","yes","768","legacy","76","76","C:/Users/juzal/OneDrive/Documents/Masters of Equine Science/Advanced Quantitative Methods and Experiment Design/CH-subject-3.csv","legacy","Melodramatic Milgram","4.0.5","0","h","NA","space","h","NA","NA","305.0","NA","22335","305","NA","NA","2","legacy","1024","2","48000","-16","experiment","HHHHH","3","odd","24391","NA","NA","NA","154260","155285","76945","2047","NA","155287","2055","155388","155693","NA","NA","155388","Flanker task","74","41250.0","77","1024"
"96","96","534","534","#3d3846","legacy","legacy","legacy","congruent","1","undefined","1","h","0","0","0","0","77","77","77","0","77","77","0","77","77","0","0","77","Wed Sep  6 11:12:49 2023","1500","The main experiment item","True","Flankertask.osexp","C:/Users/juzal/OneDrive/Documents/Masters of Equine Science/Advanced Quantitative Methods and Experiment Design","False","mono","False","18","no","white","no","yes","768","legacy","77","77","C:/Users/juzal/OneDrive/Documents/Masters of Equine Science/Advanced Quantitative Methods and Experiment Design/CH-subject-3.csv","legacy","Melodramatic Milgram","4.0.5","0","h","NA","space","h","NA","NA","442.0","NA","22335","442","NA","NA","2","legacy","1024","2","48000","-16","experiment","HHHHH","3","odd","24391","NA","NA","NA","155736","156762","76945","2047","NA","156762","2055","156863","157306","NA","NA","156863","Flanker task","75","41692.0","78","1024"
"96","96","535","535","#3d3846","legacy","legacy","legacy","incongruent","1","undefined","1","s","0","0","0","0","78","78","78","0","78","78","0","78","78","0","0","78","Wed Sep  6 11:12:49 2023","1500","The main experiment item","True","Flankertask.osexp","C:/Users/juzal/OneDrive/Documents/Masters of Equine Science/Advanced Quantitative Methods and Experiment Design","False","mono","False","18","no","white","no","yes","768","legacy","78","78","C:/Users/juzal/OneDrive/Documents/Masters of Equine Science/Advanced Quantitative Methods and Experiment Design/CH-subject-3.csv","legacy","Melodramatic Milgram","4.0.5","0","s","NA","space","s","NA","NA","643.0","NA","22335","643","NA","NA","2","legacy","1024","2","48000","-16","experiment","HHSHH","3","odd","24391","NA","NA","NA","157347","158370","76945","2047","NA","158371","2055","158472","159116","NA","NA","158472","Flanker task","76","42335.0","79","1024"
"96","96","534","534","#3d3846","legacy","legacy","legacy","congruent","1","undefined","1","s","0","0","0","0","79","79","79","0","79","79","0","79","79","0","0","79","Wed Sep  6 11:12:49 2023","1500","The main experiment item","True","Flankertask.osexp","C:/Users/juzal/OneDrive/Documents/Masters of Equine Science/Advanced Quantitative Methods and Experiment Design","False","mono","False","18","no","white","no","yes","768","legacy","79","79","C:/Users/juzal/OneDrive/Documents/Masters of Equine Science/Advanced Quantitative Methods and Experiment Design/CH-subject-3.csv","legacy","Melodramatic Milgram","4.0.5","0","s","NA","space","s","NA","NA","445.0","NA","22335","445","NA","NA","2","legacy","1024","2","48000","-16","experiment","SSSSS","3","odd","24391","NA","NA","NA","159161","160184","76945","2047","NA","160186","2055","160287","160733","NA","NA","160287","Flanker task","77","42780.0","80","1024"
"96","96","537","537","#3d3846","legacy","legacy","legacy","congruent","1","undefined","1","s","0","0","0","0","80","80","80","0","80","80","0","80","80","0","0","80","Wed Sep  6 11:12:49 2023","600","The main experiment item","True","Flankertask.osexp","C:/Users/juzal/OneDrive/Documents/Masters of Equine Science/Advanced Quantitative Methods and Experiment Design","False","mono","False","18","no","white","no","yes","768","legacy","0","79","C:/Users/juzal/OneDrive/Documents/Masters of Equine Science/Advanced Quantitative Methods and Experiment Design/CH-subject-3.csv","legacy","Melodramatic Milgram","4.0.5","0","s","NA","space","s","NA","space","755.0","NA","22335","755","NA","17098","2","legacy","1024","2","48000","-16","experiment","SSSSS","3","odd","24391","178874","NA","NA","160774","178909","76945","2047","NA","178910","2055","179010","179766","NA","161775","179010","Flanker task","78","43535.0","81","1024"
"96","96","538","538","#3d3846","legacy","legacy","legacy","incongruent","1","undefined","1","h","0","0","0","0","81","81","81","0","81","81","0","81","81","0","0","81","Wed Sep  6 11:12:49 2023","600","The main experiment item","True","Flankertask.osexp","C:/Users/juzal/OneDrive/Documents/Masters of Equine Science/Advanced Quantitative Methods and Experiment Design","False","mono","False","18","no","white","no","yes","768","legacy","1","79","C:/Users/juzal/OneDrive/Documents/Masters of Equine Science/Advanced Quantitative Methods and Experiment Design/CH-subject-3.csv","legacy","Melodramatic Milgram","4.0.5","0","h","NA","space","h","NA","space","599.0","NA","22335","599","NA","17098","2","legacy","1024","2","48000","-16","experiment","SSHSS","3","odd","24391","178874","NA","NA","180298","181322","76945","2047","179797","181323","2055","181424","182024","NA","161775","181424","Flanker task","79","44134.0","82","1024"
"96","96","537","537","#3d3846","legacy","legacy","legacy","congruent","1","undefined","1","s","0","0","0","0","82","82","82","0","82","82","0","82","82","0","0","82","Wed Sep  6 11:12:49 2023","600","The main experiment item","True","Flankertask.osexp","C:/Users/juzal/OneDrive/Documents/Masters of Equine Science/Advanced Quantitative Methods and Experiment Design","False","mono","False","18","no","white","no","yes","768","legacy","2","79","C:/Users/juzal/OneDrive/Documents/Masters of Equine Science/Advanced Quantitative Methods and Experiment Design/CH-subject-3.csv","legacy","Melodramatic Milgram","4.0.5","0","s","NA","space","s","NA","space","465.0","NA","22335","465","NA","17098","2","legacy","1024","2","48000","-16","experiment","SSSSS","3","odd","24391","178874","NA","NA","182060","183083","76945","2047","179797","183084","2055","183185","183651","NA","161775","183185","Flanker task","80","44599.0","83","1024"
"96","96","537","537","#3d3846","legacy","legacy","legacy","congruent","1","undefined","1","h","0","0","0","0","83","83","83","0","83","83","0","83","83","0","0","83","Wed Sep  6 11:12:49 2023","600","The main experiment item","True","Flankertask.osexp","C:/Users/juzal/OneDrive/Documents/Masters of Equine Science/Advanced Quantitative Methods and Experiment Design","False","mono","False","18","no","white","no","yes","768","legacy","3","79","C:/Users/juzal/OneDrive/Documents/Masters of Equine Science/Advanced Quantitative Methods and Experiment Design/CH-subject-3.csv","legacy","Melodramatic Milgram","4.0.5","0","h","NA","space","h","NA","space","512.0","NA","22335","512","NA","17098","2","legacy","1024","2","48000","-16","experiment","HHHHH","3","odd","24391","178874","NA","NA","183692","184715","76945","2047","179797","184716","2055","184817","185329","NA","161775","184817","Flanker task","81","45111.0","84","1024"
"96","96","534","534","#3d3846","legacy","legacy","legacy","congruent","1","undefined","1","s","0","0","0","0","84","84","84","0","84","84","0","84","84","0","0","84","Wed Sep  6 11:12:49 2023","600","The main experiment item","True","Flankertask.osexp","C:/Users/juzal/OneDrive/Documents/Masters of Equine Science/Advanced Quantitative Methods and Experiment Design","False","mono","False","18","no","white","no","yes","768","legacy","4","79","C:/Users/juzal/OneDrive/Documents/Masters of Equine Science/Advanced Quantitative Methods and Experiment Design/CH-subject-3.csv","legacy","Melodramatic Milgram","4.0.5","0","s","NA","space","s","NA","space","354.0","NA","22335","354","NA","17098","2","legacy","1024","2","48000","-16","experiment","SSSSS","3","odd","24391","178874","NA","NA","185366","186389","76945","2047","179797","186390","2055","186491","186846","NA","161775","186491","Flanker task","82","45465.0","85","1024"
"96","96","532","532","#3d3846","legacy","legacy","legacy","congruent","1","undefined","1","h","0","0","0","0","85","85","85","0","85","85","0","85","85","0","0","85","Wed Sep  6 11:12:49 2023","600","The main experiment item","True","Flankertask.osexp","C:/Users/juzal/OneDrive/Documents/Masters of Equine Science/Advanced Quantitative Methods and Experiment Design","False","mono","False","18","no","white","no","yes","768","legacy","5","79","C:/Users/juzal/OneDrive/Documents/Masters of Equine Science/Advanced Quantitative Methods and Experiment Design/CH-subject-3.csv","legacy","Melodramatic Milgram","4.0.5","0","h","NA","space","h","NA","space","346.0","NA","22335","346","NA","17098","2","legacy","1024","2","48000","-16","experiment","HHHHH","3","odd","24391","178874","NA","NA","186885","187908","76945","2047","179797","187910","2055","188011","188358","NA","161775","188011","Flanker task","83","45811.0","86","1024"
"96","96","531","531","#3d3846","legacy","legacy","legacy","congruent","1","undefined","1","s","0","0","0","0","86","86","86","0","86","86","0","86","86","0","0","86","Wed Sep  6 11:12:49 2023","600","The main experiment item","True","Flankertask.osexp","C:/Users/juzal/OneDrive/Documents/Masters of Equine Science/Advanced Quantitative Methods and Experiment Design","False","mono","False","18","no","white","no","yes","768","legacy","6","79","C:/Users/juzal/OneDrive/Documents/Masters of Equine Science/Advanced Quantitative Methods and Experiment Design/CH-subject-3.csv","legacy","Melodramatic Milgram","4.0.5","0","s","NA","space","s","NA","space","456.0","NA","22335","456","NA","17098","2","legacy","1024","2","48000","-16","experiment","SSSSS","3","odd","24391","178874","NA","NA","188399","189422","76945","2047","179797","189423","2055","189524","189981","NA","161775","189524","Flanker task","84","46267.0","87","1024"
"96","96","532","532","#3d3846","legacy","legacy","legacy","incongruent","1","undefined","1","h","0","0","0","0","87","87","87","0","87","87","0","87","87","0","0","87","Wed Sep  6 11:12:49 2023","600","The main experiment item","True","Flankertask.osexp","C:/Users/juzal/OneDrive/Documents/Masters of Equine Science/Advanced Quantitative Methods and Experiment Design","False","mono","False","18","no","white","no","yes","768","legacy","7","79","C:/Users/juzal/OneDrive/Documents/Masters of Equine Science/Advanced Quantitative Methods and Experiment Design/CH-subject-3.csv","legacy","Melodramatic Milgram","4.0.5","0","h","NA","space","h","NA","space","594.0","NA","22335","594","NA","17098","2","legacy","1024","2","48000","-16","experiment","SSHSS","3","odd","24391","178874","NA","NA","190017","191041","76945","2047","179797","191043","2055","191144","191739","NA","161775","191144","Flanker task","85","46861.0","88","1024"
"96","96","530","530","#3d3846","legacy","legacy","legacy","incongruent","1","undefined","1","s","0","0","0","0","88","88","88","0","88","88","0","88","88","0","0","88","Wed Sep  6 11:12:49 2023","600","The main experiment item","True","Flankertask.osexp","C:/Users/juzal/OneDrive/Documents/Masters of Equine Science/Advanced Quantitative Methods and Experiment Design","False","mono","False","18","no","white","no","yes","768","legacy","8","79","C:/Users/juzal/OneDrive/Documents/Masters of Equine Science/Advanced Quantitative Methods and Experiment Design/CH-subject-3.csv","legacy","Melodramatic Milgram","4.0.5","0","s","NA","space","s","NA","space","373.0","NA","22335","373","NA","17098","2","legacy","1024","2","48000","-16","experiment","HHSHH","3","odd","24391","178874","NA","NA","191771","192800","76945","2047","179797","192801","2055","192902","193277","NA","161775","192902","Flanker task","86","47234.0","89","1024"
"96","96","531","531","#3d3846","legacy","legacy","legacy","incongruent","1","undefined","1","s","0","0","0","0","89","89","89","0","89","89","0","89","89","0","0","89","Wed Sep  6 11:12:49 2023","600","The main experiment item","True","Flankertask.osexp","C:/Users/juzal/OneDrive/Documents/Masters of Equine Science/Advanced Quantitative Methods and Experiment Design","False","mono","False","18","no","white","no","yes","768","legacy","9","79","C:/Users/juzal/OneDrive/Documents/Masters of Equine Science/Advanced Quantitative Methods and Experiment Design/CH-subject-3.csv","legacy","Melodramatic Milgram","4.0.5","0","s","NA","space","s","NA","space","575.0","NA","22335","575","NA","17098","2","legacy","1024","2","48000","-16","experiment","HHSHH","3","odd","24391","178874","NA","NA","193318","194342","76945","2047","179797","194343","2055","194444","195020","NA","161775","194444","Flanker task","87","47809.0","90","1024"
"96","96","530","530","#3d3846","legacy","legacy","legacy","congruent","1","undefined","1","h","0","0","0","0","90","90","90","0","90","90","0","90","90","0","0","90","Wed Sep  6 11:12:49 2023","600","The main experiment item","True","Flankertask.osexp","C:/Users/juzal/OneDrive/Documents/Masters of Equine Science/Advanced Quantitative Methods and Experiment Design","False","mono","False","18","no","white","no","yes","768","legacy","10","79","C:/Users/juzal/OneDrive/Documents/Masters of Equine Science/Advanced Quantitative Methods and Experiment Design/CH-subject-3.csv","legacy","Melodramatic Milgram","4.0.5","0","h","NA","space","h","NA","space","502.0","NA","22335","502","NA","17098","2","legacy","1024","2","48000","-16","experiment","HHHHH","3","odd","24391","178874","NA","NA","195044","196068","76945","2047","179797","196069","2055","196170","196673","NA","161775","196170","Flanker task","88","48311.0","91","1024"
"96","96","532","532","#3d3846","legacy","legacy","legacy","incongruent","1","undefined","1","h","0","0","0","0","91","91","91","0","91","91","0","91","91","0","0","91","Wed Sep  6 11:12:49 2023","600","The main experiment item","True","Flankertask.osexp","C:/Users/juzal/OneDrive/Documents/Masters of Equine Science/Advanced Quantitative Methods and Experiment Design","False","mono","False","18","no","white","no","yes","768","legacy","11","79","C:/Users/juzal/OneDrive/Documents/Masters of Equine Science/Advanced Quantitative Methods and Experiment Design/CH-subject-3.csv","legacy","Melodramatic Milgram","4.0.5","0","h","NA","space","h","NA","space","679.0","NA","22335","679","NA","17098","2","legacy","1024","2","48000","-16","experiment","SSHSS","3","odd","24391","178874","NA","NA","196686","197709","76945","2047","179797","197710","2055","197811","198491","NA","161775","197811","Flanker task","89","48990.0","92","1024"
"96","96","531","531","#3d3846","legacy","legacy","legacy","incongruent","1","undefined","1","h","0","0","0","0","92","92","92","0","92","92","0","92","92","0","0","92","Wed Sep  6 11:12:49 2023","600","The main experiment item","True","Flankertask.osexp","C:/Users/juzal/OneDrive/Documents/Masters of Equine Science/Advanced Quantitative Methods and Experiment Design","False","mono","False","18","no","white","no","yes","768","legacy","12","79","C:/Users/juzal/OneDrive/Documents/Masters of Equine Science/Advanced Quantitative Methods and Experiment Design/CH-subject-3.csv","legacy","Melodramatic Milgram","4.0.5","0","h","NA","space","h","NA","space","478.0","NA","22335","478","NA","17098","2","legacy","1024","2","48000","-16","experiment","SSHSS","3","odd","24391","178874","NA","NA","199033","200056","76945","2047","198532","200058","2055","200159","200638","NA","161775","200159","Flanker task","90","49468.0","93","1024"
"96","96","531","531","#3d3846","legacy","legacy","legacy","congruent","1","undefined","1","h","0","0","0","0","93","93","93","0","93","93","0","93","93","0","0","93","Wed Sep  6 11:12:49 2023","600","The main experiment item","True","Flankertask.osexp","C:/Users/juzal/OneDrive/Documents/Masters of Equine Science/Advanced Quantitative Methods and Experiment Design","False","mono","False","18","no","white","no","yes","768","legacy","13","79","C:/Users/juzal/OneDrive/Documents/Masters of Equine Science/Advanced Quantitative Methods and Experiment Design/CH-subject-3.csv","legacy","Melodramatic Milgram","4.0.5","0","h","NA","space","h","NA","space","538.0","NA","22335","538","NA","17098","2","legacy","1024","2","48000","-16","experiment","HHHHH","3","odd","24391","178874","NA","NA","200677","201700","76945","2047","198532","201701","2055","201802","202341","NA","161775","201802","Flanker task","91","50006.0","94","1024"
"96","96","532","532","#3d3846","legacy","legacy","legacy","incongruent","1","undefined","1","h","0","0","0","0","94","94","94","0","94","94","0","94","94","0","0","94","Wed Sep  6 11:12:49 2023","600","The main experiment item","True","Flankertask.osexp","C:/Users/juzal/OneDrive/Documents/Masters of Equine Science/Advanced Quantitative Methods and Experiment Design","False","mono","False","18","no","white","no","yes","768","legacy","14","79","C:/Users/juzal/OneDrive/Documents/Masters of Equine Science/Advanced Quantitative Methods and Experiment Design/CH-subject-3.csv","legacy","Melodramatic Milgram","4.0.5","0","h","NA","space","h","NA","space","625.0","NA","22335","625","NA","17098","2","legacy","1024","2","48000","-16","experiment","SSHSS","3","odd","24391","178874","NA","NA","202389","203412","76945","2047","198532","203413","2055","203514","204141","NA","161775","203514","Flanker task","92","50631.0","95","1024"
"96","96","533","533","#3d3846","legacy","legacy","legacy","incongruent","1","undefined","1","s","0","0","0","0","95","95","95","0","95","95","0","95","95","0","0","95","Wed Sep  6 11:12:49 2023","600","The main experiment item","True","Flankertask.osexp","C:/Users/juzal/OneDrive/Documents/Masters of Equine Science/Advanced Quantitative Methods and Experiment Design","False","mono","False","18","no","white","no","yes","768","legacy","15","79","C:/Users/juzal/OneDrive/Documents/Masters of Equine Science/Advanced Quantitative Methods and Experiment Design/CH-subject-3.csv","legacy","Melodramatic Milgram","4.0.5","0","s","NA","space","s","NA","space","557.0","NA","22335","557","NA","17098","2","legacy","1024","2","48000","-16","experiment","HHSHH","3","odd","24391","178874","NA","NA","204683","205708","76945","2047","204183","205709","2055","205809","206367","NA","161775","205809","Flanker task","93","51188.0","96","1024"
"95","95","531","531","#3d3846","legacy","legacy","legacy","congruent","0","undefined","0","s","0","0","0","0","96","96","96","0","96","96","0","96","96","0","0","96","Wed Sep  6 11:12:49 2023","600","The main experiment item","True","Flankertask.osexp","C:/Users/juzal/OneDrive/Documents/Masters of Equine Science/Advanced Quantitative Methods and Experiment Design","False","mono","False","18","no","white","no","yes","768","legacy","16","79","C:/Users/juzal/OneDrive/Documents/Masters of Equine Science/Advanced Quantitative Methods and Experiment Design/CH-subject-3.csv","legacy","Melodramatic Milgram","4.0.5","0","h","NA","space","h","NA","space","397.0","NA","22335","397","NA","17098","2","legacy","1024","2","48000","-16","experiment","SSSSS","3","odd","24391","178874","NA","NA","206406","207430","76945","2047","204183","207430","2055","207531","207929","NA","161775","207531","Flanker task","93","51585.0","97","1024"
"95","95","531","531","#3d3846","legacy","legacy","legacy","congruent","1","undefined","1","s","0","0","0","0","97","97","97","0","97","97","0","97","97","0","0","97","Wed Sep  6 11:12:49 2023","600","The main experiment item","True","Flankertask.osexp","C:/Users/juzal/OneDrive/Documents/Masters of Equine Science/Advanced Quantitative Methods and Experiment Design","False","mono","False","18","no","white","no","yes","768","legacy","17","79","C:/Users/juzal/OneDrive/Documents/Masters of Equine Science/Advanced Quantitative Methods and Experiment Design/CH-subject-3.csv","legacy","Melodramatic Milgram","4.0.5","0","s","NA","space","s","NA","space","485.0","NA","22335","485","NA","17098","2","legacy","1024","2","48000","-16","experiment","SSSSS","3","odd","24391","178874","NA","NA","208478","209508","207978","2047","204183","209509","2055","209610","210096","NA","161775","209610","Flanker task","94","52070.0","98","1024"
"95","95","530","530","#3d3846","legacy","legacy","legacy","congruent","1","undefined","1","s","0","0","0","0","98","98","98","0","98","98","0","98","98","0","0","98","Wed Sep  6 11:12:49 2023","600","The main experiment item","True","Flankertask.osexp","C:/Users/juzal/OneDrive/Documents/Masters of Equine Science/Advanced Quantitative Methods and Experiment Design","False","mono","False","18","no","white","no","yes","768","legacy","18","79","C:/Users/juzal/OneDrive/Documents/Masters of Equine Science/Advanced Quantitative Methods and Experiment Design/CH-subject-3.csv","legacy","Melodramatic Milgram","4.0.5","0","s","NA","space","s","NA","space","440.0","NA","22335","440","NA","17098","2","legacy","1024","2","48000","-16","experiment","SSSSS","3","odd","24391","178874","NA","NA","210142","211165","207978","2047","204183","211166","2055","211267","211709","NA","161775","211267","Flanker task","95","52510.0","99","1024"
"96","96","530","530","#3d3846","legacy","legacy","legacy","incongruent","1","undefined","1","h","0","0","0","0","99","99","99","0","99","99","0","99","99","0","0","99","Wed Sep  6 11:12:49 2023","600","The main experiment item","True","Flankertask.osexp","C:/Users/juzal/OneDrive/Documents/Masters of Equine Science/Advanced Quantitative Methods and Experiment Design","False","mono","False","18","no","white","no","yes","768","legacy","19","79","C:/Users/juzal/OneDrive/Documents/Masters of Equine Science/Advanced Quantitative Methods and Experiment Design/CH-subject-3.csv","legacy","Melodramatic Milgram","4.0.5","0","h","NA","space","h","NA","space","551.0","NA","22335","551","NA","17098","2","legacy","1024","2","48000","-16","experiment","SSHSS","3","odd","24391","178874","NA","NA","211713","212737","207978","2047","204183","212738","2055","212839","213391","NA","161775","212839","Flanker task","96","53061.0","100","1024"
"96","96","530","530","#3d3846","legacy","legacy","legacy","incongruent","1","undefined","1","s","0","0","0","0","100","100","100","0","100","100","0","100","100","0","0","100","Wed Sep  6 11:12:49 2023","600","The main experiment item","True","Flankertask.osexp","C:/Users/juzal/OneDrive/Documents/Masters of Equine Science/Advanced Quantitative Methods and Experiment Design","False","mono","False","18","no","white","no","yes","768","legacy","20","79","C:/Users/juzal/OneDrive/Documents/Masters of Equine Science/Advanced Quantitative Methods and Experiment Design/CH-subject-3.csv","legacy","Melodramatic Milgram","4.0.5","0","s","NA","space","s","NA","space","538.0","NA","22335","538","NA","17098","2","legacy","1024","2","48000","-16","experiment","HHSHH","3","odd","24391","178874","NA","NA","213418","214444","207978","2047","204183","214445","2055","214546","215084","NA","161775","214546","Flanker task","97","53599.0","101","1024"
"96","96","530","530","#3d3846","legacy","legacy","legacy","incongruent","1","undefined","1","s","0","0","0","0","101","101","101","0","101","101","0","101","101","0","0","101","Wed Sep  6 11:12:49 2023","600","The main experiment item","True","Flankertask.osexp","C:/Users/juzal/OneDrive/Documents/Masters of Equine Science/Advanced Quantitative Methods and Experiment Design","False","mono","False","18","no","white","no","yes","768","legacy","21","79","C:/Users/juzal/OneDrive/Documents/Masters of Equine Science/Advanced Quantitative Methods and Experiment Design/CH-subject-3.csv","legacy","Melodramatic Milgram","4.0.5","0","s","NA","space","s","NA","space","490.0","NA","22335","490","NA","17098","2","legacy","1024","2","48000","-16","experiment","HHSHH","3","odd","24391","178874","NA","NA","215125","216149","207978","2047","204183","216150","2055","216251","216742","NA","161775","216251","Flanker task","98","54089.0","102","1024"
"96","96","529","529","#3d3846","legacy","legacy","legacy","incongruent","1","undefined","1","s","0","0","0","0","102","102","102","0","102","102","0","102","102","0","0","102","Wed Sep  6 11:12:49 2023","600","The main experiment item","True","Flankertask.osexp","C:/Users/juzal/OneDrive/Documents/Masters of Equine Science/Advanced Quantitative Methods and Experiment Design","False","mono","False","18","no","white","no","yes","768","legacy","22","79","C:/Users/juzal/OneDrive/Documents/Masters of Equine Science/Advanced Quantitative Methods and Experiment Design/CH-subject-3.csv","legacy","Melodramatic Milgram","4.0.5","0","s","NA","space","s","NA","space","417.0","NA","22335","417","NA","17098","2","legacy","1024","2","48000","-16","experiment","HHSHH","3","odd","24391","178874","NA","NA","216775","217799","207978","2047","204183","217800","2055","217901","218319","NA","161775","217901","Flanker task","99","54506.0","103","1024"
"96","96","528","528","#3d3846","legacy","legacy","legacy","congruent","1","undefined","1","h","0","0","0","0","103","103","103","0","103","103","0","103","103","0","0","103","Wed Sep  6 11:12:49 2023","600","The main experiment item","True","Flankertask.osexp","C:/Users/juzal/OneDrive/Documents/Masters of Equine Science/Advanced Quantitative Methods and Experiment Design","False","mono","False","18","no","white","no","yes","768","legacy","23","79","C:/Users/juzal/OneDrive/Documents/Masters of Equine Science/Advanced Quantitative Methods and Experiment Design/CH-subject-3.csv","legacy","Melodramatic Milgram","4.0.5","0","h","NA","space","h","NA","space","491.0","NA","22335","491","NA","17098","2","legacy","1024","2","48000","-16","experiment","HHHHH","3","odd","24391","178874","NA","NA","218354","219379","207978","2047","204183","219379","2055","219480","219972","NA","161775","219480","Flanker task","100","54997.0","104","1024"
"96","96","528","528","#3d3846","legacy","legacy","legacy","incongruent","1","undefined","1","s","0","0","0","0","104","104","104","0","104","104","0","104","104","0","0","104","Wed Sep  6 11:12:49 2023","600","The main experiment item","True","Flankertask.osexp","C:/Users/juzal/OneDrive/Documents/Masters of Equine Science/Advanced Quantitative Methods and Experiment Design","False","mono","False","18","no","white","no","yes","768","legacy","24","79","C:/Users/juzal/OneDrive/Documents/Masters of Equine Science/Advanced Quantitative Methods and Experiment Design/CH-subject-3.csv","legacy","Melodramatic Milgram","4.0.5","0","s","NA","space","s","NA","space","515.0","NA","22335","515","NA","17098","2","legacy","1024","2","48000","-16","experiment","HHSHH","3","odd","24391","178874","NA","NA","220010","221033","207978","2047","204183","221034","2055","221135","221651","NA","161775","221135","Flanker task","101","55512.0","105","1024"
"96","96","529","529","#3d3846","legacy","legacy","legacy","incongruent","1","undefined","1","s","0","0","0","0","105","105","105","0","105","105","0","105","105","0","0","105","Wed Sep  6 11:12:49 2023","600","The main experiment item","True","Flankertask.osexp","C:/Users/juzal/OneDrive/Documents/Masters of Equine Science/Advanced Quantitative Methods and Experiment Design","False","mono","False","18","no","white","no","yes","768","legacy","25","79","C:/Users/juzal/OneDrive/Documents/Masters of Equine Science/Advanced Quantitative Methods and Experiment Design/CH-subject-3.csv","legacy","Melodramatic Milgram","4.0.5","0","s","NA","space","s","NA","space","667.0","NA","22335","667","NA","17098","2","legacy","1024","2","48000","-16","experiment","HHSHH","3","odd","24391","178874","NA","NA","221684","222709","207978","2047","204183","222710","2055","222811","223479","NA","161775","222811","Flanker task","102","56179.0","106","1024"
"96","96","531","531","#3d3846","legacy","legacy","legacy","incongruent","1","undefined","1","s","0","0","0","0","106","106","106","0","106","106","0","106","106","0","0","106","Wed Sep  6 11:12:49 2023","600","The main experiment item","True","Flankertask.osexp","C:/Users/juzal/OneDrive/Documents/Masters of Equine Science/Advanced Quantitative Methods and Experiment Design","False","mono","False","18","no","white","no","yes","768","legacy","26","79","C:/Users/juzal/OneDrive/Documents/Masters of Equine Science/Advanced Quantitative Methods and Experiment Design/CH-subject-3.csv","legacy","Melodramatic Milgram","4.0.5","0","s","NA","space","s","NA","space","645.0","NA","22335","645","NA","17098","2","legacy","1024","2","48000","-16","experiment","HHSHH","3","odd","24391","178874","NA","NA","224010","225038","207978","2047","223510","225040","2055","225141","225786","NA","161775","225141","Flanker task","103","56824.0","107","1024"
