acc,accuracy,average_response_time,avg_rt,background,canvas_backend,clock_backend,color_backend,compensation,condition,coordinates,correct,correct_instructions1,correct_keyboard_response,correct_response,count_ISI,count_block1,count_block2,count_block3,count_errorfeedback,count_experiment,count_faster,count_finish,count_fixation,count_instructions1,count_instructions2,count_instructions3,count_keyboard_response,count_logger,count_sequence,count_stimulus,datetime,deadline,description,disable_garbage_collection,experiment_file,experiment_path,font_bold,font_family,font_italic,font_size,font_underline,foreground,form_clicks,fullscreen,height,keyboard_backend,live_row,live_row_block1,logfile,mouse_backend,opensesame_codename,opensesame_version,repeat_cycle,response,response_finish,response_instructions1,response_instructions2,response_instructions3,response_keyboard_response,response_time,response_time_finish,response_time_instructions1,response_time_instructions2,response_time_instructions3,response_time_keyboard_response,round_decimals,sampler_backend,sound_buf_size,sound_channels,sound_freq,sound_sample_size,start,stimulus,subject_nr,subject_parity,time_ISI,time_block1,time_block2,time_block3,time_errorfeedback,time_experiment,time_faster,time_finish,time_fixation,time_instructions1,time_instructions2,time_instructions3,time_keyboard_response,time_logger,time_sequence,time_stimulus,title,total_correct,total_response_time,total_responses,uniform_coordinates,width
100,100,531,531,black,legacy,legacy,legacy,0,congruent,uniform,1,undefined,1,s,0,0,0,0,0,0,0,0,0,0,0,0,0,0,0,0,9/26/19 17:39,1500,The main experiment item,yes,FlankertaskSL.osexp,C:/Users/Sarah Linan/Desktop,no,mono,no,18,no,white,no,yes,768,legacy,0,0,C:/Users/Sarah Linan/Desktop/SL-subject-3.csv,legacy,Kafkaesque Koffka,3.2.8,0,s,NA,h,NA,NA,s,531,NA,10762,NA,NA,531,2,legacy,1024,2,48000,-16,experiment,SSSSS,3,odd,NA,12645,NA,NA,NA,1873,NA,NA,12744,1882,NA,NA,12847,13378,12741,12847,Flanker task SL,1,531,1,yes,1024
100,100,506,506,black,legacy,legacy,legacy,0,incongruent,uniform,1,undefined,1,h,1,0,0,0,1,0,1,0,1,0,0,0,1,1,1,1,9/26/19 17:39,1500,The main experiment item,yes,FlankertaskSL.osexp,C:/Users/Sarah Linan/Desktop,no,mono,no,18,no,white,no,yes,768,legacy,1,1,C:/Users/Sarah Linan/Desktop/SL-subject-3.csv,legacy,Kafkaesque Koffka,3.2.8,0,h,NA,h,NA,NA,h,481,NA,10762,NA,NA,481,2,legacy,1024,2,48000,-16,experiment,SSHSS,3,odd,13495,12645,NA,NA,NA,1873,NA,NA,14598,1882,NA,NA,14701,15183,14595,14700,Flanker task SL,2,1012,2,yes,1024
100,100,534,534,black,legacy,legacy,legacy,0,incongruent,uniform,1,undefined,1,h,2,0,0,0,2,0,2,0,2,0,0,0,2,2,2,2,9/26/19 17:39,1500,The main experiment item,yes,FlankertaskSL.osexp,C:/Users/Sarah Linan/Desktop,no,mono,no,18,no,white,no,yes,768,legacy,2,2,C:/Users/Sarah Linan/Desktop/SL-subject-3.csv,legacy,Kafkaesque Koffka,3.2.8,0,h,NA,h,NA,NA,h,590,NA,10762,NA,NA,590,2,legacy,1024,2,48000,-16,experiment,SSHSS,3,odd,15237,12645,NA,NA,NA,1873,NA,NA,16337,1882,NA,NA,16440,17030,16334,16440,Flanker task SL,3,1602,3,yes,1024
100,100,502.5,502.5,black,legacy,legacy,legacy,0,congruent,uniform,1,undefined,1,s,3,0,0,0,3,0,3,0,3,0,0,0,3,3,3,3,9/26/19 17:39,1500,The main experiment item,yes,FlankertaskSL.osexp,C:/Users/Sarah Linan/Desktop,no,mono,no,18,no,white,no,yes,768,legacy,3,3,C:/Users/Sarah Linan/Desktop/SL-subject-3.csv,legacy,Kafkaesque Koffka,3.2.8,0,s,NA,h,NA,NA,s,408,NA,10762,NA,NA,408,2,legacy,1024,2,48000,-16,experiment,SSSSS,3,odd,17119,12645,NA,NA,NA,1873,NA,NA,18222,1882,NA,NA,18325,18735,18219,18324,Flanker task SL,4,2010,4,yes,1024
100,100,516.4,516.4,black,legacy,legacy,legacy,0,incongruent ,uniform,1,undefined,1,s,4,0,0,0,4,0,4,0,4,0,0,0,4,4,4,4,9/26/19 17:39,1500,The main experiment item,yes,FlankertaskSL.osexp,C:/Users/Sarah Linan/Desktop,no,mono,no,18,no,white,no,yes,768,legacy,4,4,C:/Users/Sarah Linan/Desktop/SL-subject-3.csv,legacy,Kafkaesque Koffka,3.2.8,0,s,NA,h,NA,NA,s,572,NA,10762,NA,NA,572,2,legacy,1024,2,48000,-16,experiment,HHSHH,3,odd,18784,12645,NA,NA,NA,1873,NA,NA,19886,1882,NA,NA,19989,20561,19883,19989,Flanker task SL,5,2582,5,yes,1024
100,100,538,538,black,legacy,legacy,legacy,0,incongruent,uniform,1,undefined,1,h,5,0,0,0,5,0,5,0,5,0,0,0,5,5,5,5,9/26/19 17:39,1500,The main experiment item,yes,FlankertaskSL.osexp,C:/Users/Sarah Linan/Desktop,no,mono,no,18,no,white,no,yes,768,legacy,5,5,C:/Users/Sarah Linan/Desktop/SL-subject-3.csv,legacy,Kafkaesque Koffka,3.2.8,0,h,NA,h,NA,NA,h,646,NA,10762,NA,NA,646,2,legacy,1024,2,48000,-16,experiment,SSHSS,3,odd,20653,12645,NA,NA,NA,1873,NA,NA,21752,1882,NA,NA,21854,22501,21749,21854,Flanker task SL,6,3228,6,yes,1024
100,100,531.1428571,531.1428571,black,legacy,legacy,legacy,0,congruent,uniform,1,undefined,1,s,6,0,0,0,6,0,6,0,6,0,0,0,6,6,6,6,9/26/19 17:39,1500,The main experiment item,yes,FlankertaskSL.osexp,C:/Users/Sarah Linan/Desktop,no,mono,no,18,no,white,no,yes,768,legacy,6,6,C:/Users/Sarah Linan/Desktop/SL-subject-3.csv,legacy,Kafkaesque Koffka,3.2.8,0,s,NA,h,NA,NA,s,490,NA,10762,NA,NA,490,2,legacy,1024,2,48000,-16,experiment,SSSSS,3,odd,22583,12645,NA,NA,NA,1873,NA,NA,23697,1882,NA,NA,23800,24291,23694,23800,Flanker task SL,7,3718,7,yes,1024
100,100,525.125,525.125,black,legacy,legacy,legacy,0,congruent,uniform,1,undefined,1,h,7,0,0,0,7,0,7,0,7,0,0,0,7,7,7,7,9/26/19 17:39,1500,The main experiment item,yes,FlankertaskSL.osexp,C:/Users/Sarah Linan/Desktop,no,mono,no,18,no,white,no,yes,768,legacy,7,7,C:/Users/Sarah Linan/Desktop/SL-subject-3.csv,legacy,Kafkaesque Koffka,3.2.8,0,h,NA,h,NA,NA,h,483,NA,10762,NA,NA,483,2,legacy,1024,2,48000,-16,experiment,HHHHH,3,odd,24381,12645,NA,NA,NA,1873,NA,NA,25482,1882,NA,NA,25584,26068,25478,25584,Flanker task SL,8,4201,8,yes,1024
100,100,519.5555556,519.5555556,black,legacy,legacy,legacy,0,incongruent ,uniform,1,undefined,1,s,8,0,0,0,8,0,8,0,8,0,0,0,8,8,8,8,9/26/19 17:39,1500,The main experiment item,yes,FlankertaskSL.osexp,C:/Users/Sarah Linan/Desktop,no,mono,no,18,no,white,no,yes,768,legacy,8,8,C:/Users/Sarah Linan/Desktop/SL-subject-3.csv,legacy,Kafkaesque Koffka,3.2.8,0,s,NA,h,NA,NA,s,475,NA,10762,NA,NA,475,2,legacy,1024,2,48000,-16,experiment,HHSHH,3,odd,26157,12645,NA,NA,NA,1873,NA,NA,27258,1882,NA,NA,27360,27836,27255,27360,Flanker task SL,9,4676,9,yes,1024
100,100,517.5,517.5,black,legacy,legacy,legacy,0,congruent,uniform,1,undefined,1,h,9,0,0,0,9,0,9,0,9,0,0,0,9,9,9,9,9/26/19 17:39,1500,The main experiment item,yes,FlankertaskSL.osexp,C:/Users/Sarah Linan/Desktop,no,mono,no,18,no,white,no,yes,768,legacy,9,9,C:/Users/Sarah Linan/Desktop/SL-subject-3.csv,legacy,Kafkaesque Koffka,3.2.8,0,h,NA,h,NA,NA,h,499,NA,10762,NA,NA,499,2,legacy,1024,2,48000,-16,experiment,HHHHH,3,odd,27921,12645,NA,NA,NA,1873,NA,NA,29016,1882,NA,NA,29118,29617,29013,29118,Flanker task SL,10,5175,10,yes,1024
100,100,508,508,black,legacy,legacy,legacy,0,congruent,uniform,1,undefined,1,h,10,0,0,0,10,0,10,0,10,0,0,0,10,10,10,10,9/26/19 17:39,1500,The main experiment item,yes,FlankertaskSL.osexp,C:/Users/Sarah Linan/Desktop,no,mono,no,18,no,white,no,yes,768,legacy,10,10,C:/Users/Sarah Linan/Desktop/SL-subject-3.csv,legacy,Kafkaesque Koffka,3.2.8,0,h,NA,h,NA,NA,h,413,NA,10762,NA,NA,413,2,legacy,1024,2,48000,-16,experiment,HHHHH,3,odd,29707,12645,NA,NA,NA,1873,NA,NA,30803,1882,NA,NA,30905,31319,30800,30905,Flanker task SL,11,5588,11,yes,1024
100,100,508.9166667,508.9166667,black,legacy,legacy,legacy,0,incongruent,uniform,1,undefined,1,h,11,0,0,0,11,0,11,0,11,0,0,0,11,11,11,11,9/26/19 17:39,1500,The main experiment item,yes,FlankertaskSL.osexp,C:/Users/Sarah Linan/Desktop,no,mono,no,18,no,white,no,yes,768,legacy,11,11,C:/Users/Sarah Linan/Desktop/SL-subject-3.csv,legacy,Kafkaesque Koffka,3.2.8,0,h,NA,h,NA,NA,h,519,NA,10762,NA,NA,519,2,legacy,1024,2,48000,-16,experiment,SSHSS,3,odd,31404,12645,NA,NA,NA,1873,NA,NA,32502,1882,NA,NA,32605,33125,32498,32605,Flanker task SL,12,6107,12,yes,1024
100,100,506.3846154,506.3846154,black,legacy,legacy,legacy,0,incongruent ,uniform,1,undefined,1,s,12,0,0,0,12,0,12,0,12,0,0,0,12,12,12,12,9/26/19 17:39,1500,The main experiment item,yes,FlankertaskSL.osexp,C:/Users/Sarah Linan/Desktop,no,mono,no,18,no,white,no,yes,768,legacy,12,12,C:/Users/Sarah Linan/Desktop/SL-subject-3.csv,legacy,Kafkaesque Koffka,3.2.8,0,s,NA,h,NA,NA,s,476,NA,10762,NA,NA,476,2,legacy,1024,2,48000,-16,experiment,HHSHH,3,odd,33213,12645,NA,NA,NA,1873,NA,NA,34315,1882,NA,NA,34417,34894,34312,34417,Flanker task SL,13,6583,13,yes,1024
100,100,505.1428571,505.1428571,black,legacy,legacy,legacy,0,incongruent ,uniform,1,undefined,1,s,13,0,0,0,13,0,13,0,13,0,0,0,13,13,13,13,9/26/19 17:39,1500,The main experiment item,yes,FlankertaskSL.osexp,C:/Users/Sarah Linan/Desktop,no,mono,no,18,no,white,no,yes,768,legacy,13,13,C:/Users/Sarah Linan/Desktop/SL-subject-3.csv,legacy,Kafkaesque Koffka,3.2.8,0,s,NA,h,NA,NA,s,489,NA,10762,NA,NA,489,2,legacy,1024,2,48000,-16,experiment,HHSHH,3,odd,34926,12645,NA,NA,NA,1873,NA,NA,36025,1882,NA,NA,36127,36617,36022,36127,Flanker task SL,14,7072,14,yes,1024
100,100,501.7333333,501.7333333,black,legacy,legacy,legacy,0,incongruent ,uniform,1,undefined,1,s,14,0,0,0,14,0,14,0,14,0,0,0,14,14,14,14,9/26/19 17:39,1500,The main experiment item,yes,FlankertaskSL.osexp,C:/Users/Sarah Linan/Desktop,no,mono,no,18,no,white,no,yes,768,legacy,14,14,C:/Users/Sarah Linan/Desktop/SL-subject-3.csv,legacy,Kafkaesque Koffka,3.2.8,0,s,NA,h,NA,NA,s,454,NA,10762,NA,NA,454,2,legacy,1024,2,48000,-16,experiment,HHSHH,3,odd,36708,12645,NA,NA,NA,1873,NA,NA,37803,1882,NA,NA,37906,38360,37800,37906,Flanker task SL,15,7526,15,yes,1024
100,100,498.8125,498.8125,black,legacy,legacy,legacy,0,incongruent ,uniform,1,undefined,1,s,15,0,0,0,15,0,15,0,15,0,0,0,15,15,15,15,9/26/19 17:39,1500,The main experiment item,yes,FlankertaskSL.osexp,C:/Users/Sarah Linan/Desktop,no,mono,no,18,no,white,no,yes,768,legacy,15,15,C:/Users/Sarah Linan/Desktop/SL-subject-3.csv,legacy,Kafkaesque Koffka,3.2.8,0,s,NA,h,NA,NA,s,455,NA,10762,NA,NA,455,2,legacy,1024,2,48000,-16,experiment,HHSHH,3,odd,38404,12645,NA,NA,NA,1873,NA,NA,39512,1882,NA,NA,39616,40072,39509,39616,Flanker task SL,16,7981,16,yes,1024
100,100,499.4117647,499.4117647,black,legacy,legacy,legacy,0,incongruent,uniform,1,undefined,1,h,16,0,0,0,16,0,16,0,16,0,0,0,16,16,16,16,9/26/19 17:39,1500,The main experiment item,yes,FlankertaskSL.osexp,C:/Users/Sarah Linan/Desktop,no,mono,no,18,no,white,no,yes,768,legacy,16,16,C:/Users/Sarah Linan/Desktop/SL-subject-3.csv,legacy,Kafkaesque Koffka,3.2.8,0,h,NA,h,NA,NA,h,509,NA,10762,NA,NA,509,2,legacy,1024,2,48000,-16,experiment,SSHSS,3,odd,40159,12645,NA,NA,NA,1873,NA,NA,41259,1882,NA,NA,41361,41871,41256,41361,Flanker task SL,17,8490,17,yes,1024
100,100,495.7777778,495.7777778,black,legacy,legacy,legacy,0,incongruent ,uniform,1,undefined,1,s,17,0,0,0,17,0,17,0,17,0,0,0,17,17,17,17,9/26/19 17:39,1500,The main experiment item,yes,FlankertaskSL.osexp,C:/Users/Sarah Linan/Desktop,no,mono,no,18,no,white,no,yes,768,legacy,17,17,C:/Users/Sarah Linan/Desktop/SL-subject-3.csv,legacy,Kafkaesque Koffka,3.2.8,0,s,NA,h,NA,NA,s,434,NA,10762,NA,NA,434,2,legacy,1024,2,48000,-16,experiment,HHSHH,3,odd,41956,12645,NA,NA,NA,1873,NA,NA,43050,1882,NA,NA,43152,43587,43045,43152,Flanker task SL,18,8924,18,yes,1024
100,100,496,496,black,legacy,legacy,legacy,0,congruent,uniform,1,undefined,1,h,18,0,0,0,18,0,18,0,18,0,0,0,18,18,18,18,9/26/19 17:39,1500,The main experiment item,yes,FlankertaskSL.osexp,C:/Users/Sarah Linan/Desktop,no,mono,no,18,no,white,no,yes,768,legacy,18,18,C:/Users/Sarah Linan/Desktop/SL-subject-3.csv,legacy,Kafkaesque Koffka,3.2.8,0,h,NA,h,NA,NA,h,500,NA,10762,NA,NA,500,2,legacy,1024,2,48000,-16,experiment,HHHHH,3,odd,43676,12645,NA,NA,NA,1873,NA,NA,44776,1882,NA,NA,44879,45380,44773,44879,Flanker task SL,19,9424,19,yes,1024
100,100,491.5,491.5,black,legacy,legacy,legacy,0,congruent,uniform,1,undefined,1,s,19,0,0,0,19,0,19,0,19,0,0,0,19,19,19,19,9/26/19 17:39,1500,The main experiment item,yes,FlankertaskSL.osexp,C:/Users/Sarah Linan/Desktop,no,mono,no,18,no,white,no,yes,768,legacy,19,19,C:/Users/Sarah Linan/Desktop/SL-subject-3.csv,legacy,Kafkaesque Koffka,3.2.8,0,s,NA,h,NA,NA,s,406,NA,10762,NA,NA,406,2,legacy,1024,2,48000,-16,experiment,SSSSS,3,odd,45416,12645,NA,NA,NA,1873,NA,NA,46514,1882,NA,NA,46616,47022,46511,46616,Flanker task SL,20,9830,20,yes,1024
100,100,488.5238095,488.5238095,black,legacy,legacy,legacy,0,congruent,uniform,1,undefined,1,s,20,0,0,0,20,0,20,0,20,0,0,0,20,20,20,20,9/26/19 17:39,1500,The main experiment item,yes,FlankertaskSL.osexp,C:/Users/Sarah Linan/Desktop,no,mono,no,18,no,white,no,yes,768,legacy,20,20,C:/Users/Sarah Linan/Desktop/SL-subject-3.csv,legacy,Kafkaesque Koffka,3.2.8,0,s,NA,h,NA,NA,s,429,NA,10762,NA,NA,429,2,legacy,1024,2,48000,-16,experiment,SSSSS,3,odd,47107,12645,NA,NA,NA,1873,NA,NA,48204,1882,NA,NA,48307,48737,48201,48307,Flanker task SL,21,10259,21,yes,1024
100,100,485.9545455,485.9545455,black,legacy,legacy,legacy,0,congruent,uniform,1,undefined,1,h,21,0,0,0,21,0,21,0,21,0,0,0,21,21,21,21,9/26/19 17:39,1500,The main experiment item,yes,FlankertaskSL.osexp,C:/Users/Sarah Linan/Desktop,no,mono,no,18,no,white,no,yes,768,legacy,21,21,C:/Users/Sarah Linan/Desktop/SL-subject-3.csv,legacy,Kafkaesque Koffka,3.2.8,0,h,NA,h,NA,NA,h,432,NA,10762,NA,NA,432,2,legacy,1024,2,48000,-16,experiment,HHHHH,3,odd,48826,12645,NA,NA,NA,1873,NA,NA,49930,1882,NA,NA,50032,50464,49927,50032,Flanker task SL,22,10691,22,yes,1024
100,100,486.7826087,486.7826087,black,legacy,legacy,legacy,0,congruent,uniform,1,undefined,1,h,22,0,0,0,22,0,22,0,22,0,0,0,22,22,22,22,9/26/19 17:39,1500,The main experiment item,yes,FlankertaskSL.osexp,C:/Users/Sarah Linan/Desktop,no,mono,no,18,no,white,no,yes,768,legacy,22,22,C:/Users/Sarah Linan/Desktop/SL-subject-3.csv,legacy,Kafkaesque Koffka,3.2.8,0,h,NA,h,NA,NA,h,505,NA,10762,NA,NA,505,2,legacy,1024,2,48000,-16,experiment,HHHHH,3,odd,50502,12645,NA,NA,NA,1873,NA,NA,51589,1882,NA,NA,51691,52197,51586,51691,Flanker task SL,23,11196,23,yes,1024
100,100,485.4583333,485.4583333,black,legacy,legacy,legacy,0,incongruent ,uniform,1,undefined,1,s,23,0,0,0,23,0,23,0,23,0,0,0,23,23,23,23,9/26/19 17:39,1500,The main experiment item,yes,FlankertaskSL.osexp,C:/Users/Sarah Linan/Desktop,no,mono,no,18,no,white,no,yes,768,legacy,23,23,C:/Users/Sarah Linan/Desktop/SL-subject-3.csv,legacy,Kafkaesque Koffka,3.2.8,0,s,NA,h,NA,NA,s,455,NA,10762,NA,NA,455,2,legacy,1024,2,48000,-16,experiment,HHSHH,3,odd,52288,12645,NA,NA,NA,1873,NA,NA,53386,1882,NA,NA,53489,53945,53383,53489,Flanker task SL,24,11651,24,yes,1024
100,100,492.64,492.64,black,legacy,legacy,legacy,0,incongruent,uniform,1,undefined,1,h,24,0,0,0,24,0,24,0,24,0,0,0,24,24,24,24,9/26/19 17:39,1500,The main experiment item,yes,FlankertaskSL.osexp,C:/Users/Sarah Linan/Desktop,no,mono,no,18,no,white,no,yes,768,legacy,24,24,C:/Users/Sarah Linan/Desktop/SL-subject-3.csv,legacy,Kafkaesque Koffka,3.2.8,0,h,NA,h,NA,NA,h,665,NA,10762,NA,NA,665,2,legacy,1024,2,48000,-16,experiment,SSHSS,3,odd,54031,12645,NA,NA,NA,1873,NA,NA,55137,1882,NA,NA,55239,55905,55133,55239,Flanker task SL,25,12316,25,yes,1024
100,100,490.9230769,490.9230769,black,legacy,legacy,legacy,0,incongruent,uniform,1,undefined,1,h,25,0,0,0,25,0,25,0,25,0,0,0,25,25,25,25,9/26/19 17:39,1500,The main experiment item,yes,FlankertaskSL.osexp,C:/Users/Sarah Linan/Desktop,no,mono,no,18,no,white,no,yes,768,legacy,25,25,C:/Users/Sarah Linan/Desktop/SL-subject-3.csv,legacy,Kafkaesque Koffka,3.2.8,0,h,NA,h,NA,NA,h,448,NA,10762,NA,NA,448,2,legacy,1024,2,48000,-16,experiment,SSHSS,3,odd,55994,12645,NA,NA,NA,1873,NA,NA,57094,1882,NA,NA,57196,57645,57091,57196,Flanker task SL,26,12764,26,yes,1024
100,100,491.4074074,491.4074074,black,legacy,legacy,legacy,0,incongruent ,uniform,1,undefined,1,s,26,0,0,0,26,0,26,0,26,0,0,0,26,26,26,26,9/26/19 17:39,1500,The main experiment item,yes,FlankertaskSL.osexp,C:/Users/Sarah Linan/Desktop,no,mono,no,18,no,white,no,yes,768,legacy,26,26,C:/Users/Sarah Linan/Desktop/SL-subject-3.csv,legacy,Kafkaesque Koffka,3.2.8,0,s,NA,h,NA,NA,s,504,NA,10762,NA,NA,504,2,legacy,1024,2,48000,-16,experiment,HHSHH,3,odd,57736,12645,NA,NA,NA,1873,NA,NA,58835,1882,NA,NA,58937,59442,58832,58937,Flanker task SL,27,13268,27,yes,1024
100,100,491.3214286,491.3214286,black,legacy,legacy,legacy,0,congruent,uniform,1,undefined,1,h,27,0,0,0,27,0,27,0,27,0,0,0,27,27,27,27,9/26/19 17:39,1500,The main experiment item,yes,FlankertaskSL.osexp,C:/Users/Sarah Linan/Desktop,no,mono,no,18,no,white,no,yes,768,legacy,27,27,C:/Users/Sarah Linan/Desktop/SL-subject-3.csv,legacy,Kafkaesque Koffka,3.2.8,0,h,NA,h,NA,NA,h,489,NA,10762,NA,NA,489,2,legacy,1024,2,48000,-16,experiment,HHHHH,3,odd,59534,12645,NA,NA,NA,1873,NA,NA,60653,1882,NA,NA,60755,61245,60650,60755,Flanker task SL,28,13757,28,yes,1024
96.55172414,96.55172414,490.0689655,490.0689655,black,legacy,legacy,legacy,0,incongruent,uniform,0,undefined,0,h,28,0,0,0,28,0,28,0,28,0,0,0,28,28,28,28,9/26/19 17:39,1500,The main experiment item,yes,FlankertaskSL.osexp,C:/Users/Sarah Linan/Desktop,no,mono,no,18,no,white,no,yes,768,legacy,28,28,C:/Users/Sarah Linan/Desktop/SL-subject-3.csv,legacy,Kafkaesque Koffka,3.2.8,0,s,NA,h,NA,NA,s,455,NA,10762,NA,NA,455,2,legacy,1024,2,48000,-16,experiment,SSHSS,3,odd,61331,12645,NA,NA,NA,1873,NA,NA,62429,1882,NA,NA,62531,62987,62425,62531,Flanker task SL,28,14212,29,yes,1024
96.66666667,96.66666667,493.3666667,493.3666667,black,legacy,legacy,legacy,0,incongruent,uniform,1,undefined,1,h,29,0,0,0,29,0,29,0,29,0,0,0,29,29,29,29,9/26/19 17:39,1500,The main experiment item,yes,FlankertaskSL.osexp,C:/Users/Sarah Linan/Desktop,no,mono,no,18,no,white,no,yes,768,legacy,29,29,C:/Users/Sarah Linan/Desktop/SL-subject-3.csv,legacy,Kafkaesque Koffka,3.2.8,0,h,NA,h,NA,NA,h,589,NA,10762,NA,NA,589,2,legacy,1024,2,48000,-16,experiment,SSHSS,3,odd,63577,12645,NA,NA,63073,1873,NA,NA,64682,1882,NA,NA,64786,65376,64679,64786,Flanker task SL,29,14801,30,yes,1024
96.77419355,96.77419355,494.6129032,494.6129032,black,legacy,legacy,legacy,0,incongruent,uniform,1,undefined,1,h,30,0,0,0,30,0,30,0,30,0,0,0,30,30,30,30,9/26/19 17:39,1500,The main experiment item,yes,FlankertaskSL.osexp,C:/Users/Sarah Linan/Desktop,no,mono,no,18,no,white,no,yes,768,legacy,30,30,C:/Users/Sarah Linan/Desktop/SL-subject-3.csv,legacy,Kafkaesque Koffka,3.2.8,0,h,NA,h,NA,NA,h,532,NA,10762,NA,NA,532,2,legacy,1024,2,48000,-16,experiment,SSHSS,3,odd,65499,12645,NA,NA,63073,1873,NA,NA,66597,1882,NA,NA,66700,67233,66594,66700,Flanker task SL,30,15333,31,yes,1024
96.875,96.875,496.09375,496.09375,black,legacy,legacy,legacy,0,incongruent,uniform,1,undefined,1,h,31,0,0,0,31,0,31,0,31,0,0,0,31,31,31,31,9/26/19 17:39,1500,The main experiment item,yes,FlankertaskSL.osexp,C:/Users/Sarah Linan/Desktop,no,mono,no,18,no,white,no,yes,768,legacy,31,31,C:/Users/Sarah Linan/Desktop/SL-subject-3.csv,legacy,Kafkaesque Koffka,3.2.8,0,h,NA,h,NA,NA,h,542,NA,10762,NA,NA,542,2,legacy,1024,2,48000,-16,experiment,SSHSS,3,odd,67323,12645,NA,NA,63073,1873,NA,NA,68419,1882,NA,NA,68521,69064,68415,68521,Flanker task SL,31,15875,32,yes,1024
96.96969697,96.96969697,498.030303,498.030303,black,legacy,legacy,legacy,0,incongruent ,uniform,1,undefined,1,s,32,0,0,0,32,0,32,0,32,0,0,0,32,32,32,32,9/26/19 17:39,1500,The main experiment item,yes,FlankertaskSL.osexp,C:/Users/Sarah Linan/Desktop,no,mono,no,18,no,white,no,yes,768,legacy,32,32,C:/Users/Sarah Linan/Desktop/SL-subject-3.csv,legacy,Kafkaesque Koffka,3.2.8,0,s,NA,h,NA,NA,s,560,NA,10762,NA,NA,560,2,legacy,1024,2,48000,-16,experiment,HHSHH,3,odd,69153,12645,NA,NA,63073,1873,NA,NA,70254,1882,NA,NA,70357,70917,70250,70357,Flanker task SL,32,16435,33,yes,1024
97.05882353,97.05882353,498.8529412,498.8529412,black,legacy,legacy,legacy,0,incongruent,uniform,1,undefined,1,h,33,0,0,0,33,0,33,0,33,0,0,0,33,33,33,33,9/26/19 17:39,1500,The main experiment item,yes,FlankertaskSL.osexp,C:/Users/Sarah Linan/Desktop,no,mono,no,18,no,white,no,yes,768,legacy,33,33,C:/Users/Sarah Linan/Desktop/SL-subject-3.csv,legacy,Kafkaesque Koffka,3.2.8,0,h,NA,h,NA,NA,h,526,NA,10762,NA,NA,526,2,legacy,1024,2,48000,-16,experiment,SSHSS,3,odd,71006,12645,NA,NA,63073,1873,NA,NA,72105,1882,NA,NA,72207,72733,72102,72207,Flanker task SL,33,16961,34,yes,1024
97.14285714,97.14285714,500.5714286,500.5714286,black,legacy,legacy,legacy,0,incongruent ,uniform,1,undefined,1,s,34,0,0,0,34,0,34,0,34,0,0,0,34,34,34,34,9/26/19 17:39,1500,The main experiment item,yes,FlankertaskSL.osexp,C:/Users/Sarah Linan/Desktop,no,mono,no,18,no,white,no,yes,768,legacy,34,34,C:/Users/Sarah Linan/Desktop/SL-subject-3.csv,legacy,Kafkaesque Koffka,3.2.8,0,s,NA,h,NA,NA,s,559,NA,10762,NA,NA,559,2,legacy,1024,2,48000,-16,experiment,HHSHH,3,odd,72826,12645,NA,NA,63073,1873,NA,NA,73924,1882,NA,NA,74027,74587,73921,74027,Flanker task SL,34,17520,35,yes,1024
97.22222222,97.22222222,501.8055556,501.8055556,black,legacy,legacy,legacy,0,congruent,uniform,1,undefined,1,s,35,0,0,0,35,0,35,0,35,0,0,0,35,35,35,35,9/26/19 17:39,1500,The main experiment item,yes,FlankertaskSL.osexp,C:/Users/Sarah Linan/Desktop,no,mono,no,18,no,white,no,yes,768,legacy,35,35,C:/Users/Sarah Linan/Desktop/SL-subject-3.csv,legacy,Kafkaesque Koffka,3.2.8,0,s,NA,h,NA,NA,s,545,NA,10762,NA,NA,545,2,legacy,1024,2,48000,-16,experiment,SSSSS,3,odd,74681,12645,NA,NA,63073,1873,NA,NA,75773,1882,NA,NA,75876,76422,75770,75876,Flanker task SL,35,18065,36,yes,1024
97.2972973,97.2972973,500.9459459,500.9459459,black,legacy,legacy,legacy,0,congruent,uniform,1,undefined,1,h,36,0,0,0,36,0,36,0,36,0,0,0,36,36,36,36,9/26/19 17:39,1500,The main experiment item,yes,FlankertaskSL.osexp,C:/Users/Sarah Linan/Desktop,no,mono,no,18,no,white,no,yes,768,legacy,36,36,C:/Users/Sarah Linan/Desktop/SL-subject-3.csv,legacy,Kafkaesque Koffka,3.2.8,0,h,NA,h,NA,NA,h,470,NA,10762,NA,NA,470,2,legacy,1024,2,48000,-16,experiment,HHHHH,3,odd,76554,12645,NA,NA,63073,1873,NA,NA,77659,1882,NA,NA,77762,78233,77656,77761,Flanker task SL,36,18535,37,yes,1024
97.36842105,97.36842105,498.0526316,498.0526316,black,legacy,legacy,legacy,0,congruent,uniform,1,undefined,1,s,37,0,0,0,37,0,37,0,37,0,0,0,37,37,37,37,9/26/19 17:39,1500,The main experiment item,yes,FlankertaskSL.osexp,C:/Users/Sarah Linan/Desktop,no,mono,no,18,no,white,no,yes,768,legacy,37,37,C:/Users/Sarah Linan/Desktop/SL-subject-3.csv,legacy,Kafkaesque Koffka,3.2.8,0,s,NA,h,NA,NA,s,391,NA,10762,NA,NA,391,2,legacy,1024,2,48000,-16,experiment,SSSSS,3,odd,78317,12645,NA,NA,63073,1873,NA,NA,79414,1882,NA,NA,79517,79909,79410,79517,Flanker task SL,37,18926,38,yes,1024
97.43589744,97.43589744,499.4358974,499.4358974,black,legacy,legacy,legacy,0,congruent,uniform,1,undefined,1,h,38,0,0,0,38,0,38,0,38,0,0,0,38,38,38,38,9/26/19 17:39,1500,The main experiment item,yes,FlankertaskSL.osexp,C:/Users/Sarah Linan/Desktop,no,mono,no,18,no,white,no,yes,768,legacy,38,38,C:/Users/Sarah Linan/Desktop/SL-subject-3.csv,legacy,Kafkaesque Koffka,3.2.8,0,h,NA,h,NA,NA,h,552,NA,10762,NA,NA,552,2,legacy,1024,2,48000,-16,experiment,HHHHH,3,odd,80005,12645,NA,NA,63073,1873,NA,NA,81105,1882,NA,NA,81207,81759,81102,81207,Flanker task SL,38,19478,39,yes,1024
97.5,97.5,499.325,499.325,black,legacy,legacy,legacy,0,incongruent ,uniform,1,undefined,1,s,39,0,0,0,39,0,39,0,39,0,0,0,39,39,39,39,9/26/19 17:39,1500,The main experiment item,yes,FlankertaskSL.osexp,C:/Users/Sarah Linan/Desktop,no,mono,no,18,no,white,no,yes,768,legacy,39,39,C:/Users/Sarah Linan/Desktop/SL-subject-3.csv,legacy,Kafkaesque Koffka,3.2.8,0,s,NA,h,NA,NA,s,495,NA,10762,NA,NA,495,2,legacy,1024,2,48000,-16,experiment,HHSHH,3,odd,81846,12645,NA,NA,63073,1873,NA,NA,82948,1882,NA,NA,83051,83547,82945,83050,Flanker task SL,39,19973,40,yes,1024
97.56097561,97.56097561,501.7317073,501.7317073,black,legacy,legacy,legacy,0,congruent,uniform,1,undefined,1,h,40,0,0,0,40,0,40,0,40,0,0,0,40,40,40,40,9/26/19 17:39,1500,The main experiment item,yes,FlankertaskSL.osexp,C:/Users/Sarah Linan/Desktop,no,mono,no,18,no,white,no,yes,768,legacy,40,40,C:/Users/Sarah Linan/Desktop/SL-subject-3.csv,legacy,Kafkaesque Koffka,3.2.8,0,h,NA,h,NA,NA,h,598,NA,10762,NA,NA,598,2,legacy,1024,2,48000,-16,experiment,HHHHH,3,odd,83633,12645,NA,NA,63073,1873,NA,NA,84726,1882,NA,NA,84828,85427,84722,84828,Flanker task SL,40,20571,41,yes,1024
97.61904762,97.61904762,500.6904762,500.6904762,black,legacy,legacy,legacy,0,congruent,uniform,1,undefined,1,h,41,0,0,0,41,0,41,0,41,0,0,0,41,41,41,41,9/26/19 17:39,1500,The main experiment item,yes,FlankertaskSL.osexp,C:/Users/Sarah Linan/Desktop,no,mono,no,18,no,white,no,yes,768,legacy,41,41,C:/Users/Sarah Linan/Desktop/SL-subject-3.csv,legacy,Kafkaesque Koffka,3.2.8,0,h,NA,h,NA,NA,h,458,NA,10762,NA,NA,458,2,legacy,1024,2,48000,-16,experiment,HHHHH,3,odd,85519,12645,NA,NA,63073,1873,NA,NA,86621,1882,NA,NA,86723,87182,86618,86723,Flanker task SL,41,21029,42,yes,1024
97.6744186,97.6744186,499.6511628,499.6511628,black,legacy,legacy,legacy,0,congruent,uniform,1,undefined,1,s,42,0,0,0,42,0,42,0,42,0,0,0,42,42,42,42,9/26/19 17:39,1500,The main experiment item,yes,FlankertaskSL.osexp,C:/Users/Sarah Linan/Desktop,no,mono,no,18,no,white,no,yes,768,legacy,42,42,C:/Users/Sarah Linan/Desktop/SL-subject-3.csv,legacy,Kafkaesque Koffka,3.2.8,0,s,NA,h,NA,NA,s,456,NA,10762,NA,NA,456,2,legacy,1024,2,48000,-16,experiment,SSSSS,3,odd,87272,12645,NA,NA,63073,1873,NA,NA,88365,1882,NA,NA,88467,88923,88361,88467,Flanker task SL,42,21485,43,yes,1024
97.72727273,97.72727273,501.0681818,501.0681818,black,legacy,legacy,legacy,0,incongruent ,uniform,1,undefined,1,s,43,0,0,0,43,0,43,0,43,0,0,0,43,43,43,43,9/26/19 17:39,1500,The main experiment item,yes,FlankertaskSL.osexp,C:/Users/Sarah Linan/Desktop,no,mono,no,18,no,white,no,yes,768,legacy,43,43,C:/Users/Sarah Linan/Desktop/SL-subject-3.csv,legacy,Kafkaesque Koffka,3.2.8,0,s,NA,h,NA,NA,s,562,NA,10762,NA,NA,562,2,legacy,1024,2,48000,-16,experiment,HHSHH,3,odd,89014,12645,NA,NA,63073,1873,NA,NA,90113,1882,NA,NA,90216,90779,90111,90216,Flanker task SL,43,22047,44,yes,1024
97.77777778,97.77777778,501.4,501.4,black,legacy,legacy,legacy,0,incongruent,uniform,1,undefined,1,h,44,0,0,0,44,0,44,0,44,0,0,0,44,44,44,44,9/26/19 17:39,1500,The main experiment item,yes,FlankertaskSL.osexp,C:/Users/Sarah Linan/Desktop,no,mono,no,18,no,white,no,yes,768,legacy,44,44,C:/Users/Sarah Linan/Desktop/SL-subject-3.csv,legacy,Kafkaesque Koffka,3.2.8,0,h,NA,h,NA,NA,h,516,NA,10762,NA,NA,516,2,legacy,1024,2,48000,-16,experiment,SSHSS,3,odd,90866,12645,NA,NA,63073,1873,NA,NA,91959,1882,NA,NA,92063,92579,91956,92062,Flanker task SL,44,22563,45,yes,1024
97.82608696,97.82608696,501.7391304,501.7391304,black,legacy,legacy,legacy,0,congruent,uniform,1,undefined,1,h,45,0,0,0,45,0,45,0,45,0,0,0,45,45,45,45,9/26/19 17:39,1500,The main experiment item,yes,FlankertaskSL.osexp,C:/Users/Sarah Linan/Desktop,no,mono,no,18,no,white,no,yes,768,legacy,45,45,C:/Users/Sarah Linan/Desktop/SL-subject-3.csv,legacy,Kafkaesque Koffka,3.2.8,0,h,NA,h,NA,NA,h,517,NA,10762,NA,NA,517,2,legacy,1024,2,48000,-16,experiment,HHHHH,3,odd,92664,12645,NA,NA,63073,1873,NA,NA,93772,1882,NA,NA,93875,94393,93768,93875,Flanker task SL,45,23080,46,yes,1024
97.87234043,97.87234043,501.4468085,501.4468085,black,legacy,legacy,legacy,0,congruent,uniform,1,undefined,1,h,46,0,0,0,46,0,46,0,46,0,0,0,46,46,46,46,9/26/19 17:39,1500,The main experiment item,yes,FlankertaskSL.osexp,C:/Users/Sarah Linan/Desktop,no,mono,no,18,no,white,no,yes,768,legacy,46,46,C:/Users/Sarah Linan/Desktop/SL-subject-3.csv,legacy,Kafkaesque Koffka,3.2.8,0,h,NA,h,NA,NA,h,488,NA,10762,NA,NA,488,2,legacy,1024,2,48000,-16,experiment,HHHHH,3,odd,94483,12645,NA,NA,63073,1873,NA,NA,95580,1882,NA,NA,95683,96172,95577,95683,Flanker task SL,46,23568,47,yes,1024
97.91666667,97.91666667,502.1875,502.1875,black,legacy,legacy,legacy,0,congruent,uniform,1,undefined,1,h,47,0,0,0,47,0,47,0,47,0,0,0,47,47,47,47,9/26/19 17:39,1500,The main experiment item,yes,FlankertaskSL.osexp,C:/Users/Sarah Linan/Desktop,no,mono,no,18,no,white,no,yes,768,legacy,47,47,C:/Users/Sarah Linan/Desktop/SL-subject-3.csv,legacy,Kafkaesque Koffka,3.2.8,0,h,NA,h,NA,NA,h,537,NA,10762,NA,NA,537,2,legacy,1024,2,48000,-16,experiment,HHHHH,3,odd,96260,12645,NA,NA,63073,1873,NA,NA,97360,1882,NA,NA,97463,98001,97357,97463,Flanker task SL,47,24105,48,yes,1024
97.95918367,97.95918367,500.1836735,500.1836735,black,legacy,legacy,legacy,0,congruent,uniform,1,undefined,1,s,48,0,0,0,48,0,48,0,48,0,0,0,48,48,48,48,9/26/19 17:39,1500,The main experiment item,yes,FlankertaskSL.osexp,C:/Users/Sarah Linan/Desktop,no,mono,no,18,no,white,no,yes,768,legacy,48,48,C:/Users/Sarah Linan/Desktop/SL-subject-3.csv,legacy,Kafkaesque Koffka,3.2.8,0,s,NA,h,NA,NA,s,404,NA,10762,NA,NA,404,2,legacy,1024,2,48000,-16,experiment,SSSSS,3,odd,98090,12645,NA,NA,63073,1873,NA,NA,99188,1882,NA,NA,99290,99695,99185,99290,Flanker task SL,48,24509,49,yes,1024
98,98,499.1,499.1,black,legacy,legacy,legacy,0,incongruent ,uniform,1,undefined,1,s,49,0,0,0,49,0,49,0,49,0,0,0,49,49,49,49,9/26/19 17:39,1500,The main experiment item,yes,FlankertaskSL.osexp,C:/Users/Sarah Linan/Desktop,no,mono,no,18,no,white,no,yes,768,legacy,49,49,C:/Users/Sarah Linan/Desktop/SL-subject-3.csv,legacy,Kafkaesque Koffka,3.2.8,0,s,NA,h,NA,NA,s,446,NA,10762,NA,NA,446,2,legacy,1024,2,48000,-16,experiment,HHSHH,3,odd,99787,12645,NA,NA,63073,1873,NA,NA,100906,1882,NA,NA,101008,101455,100903,101008,Flanker task SL,49,24955,50,yes,1024
98.03921569,98.03921569,497.7254902,497.7254902,black,legacy,legacy,legacy,0,incongruent ,uniform,1,undefined,1,s,50,0,0,0,50,0,50,0,50,0,0,0,50,50,50,50,9/26/19 17:39,1500,The main experiment item,yes,FlankertaskSL.osexp,C:/Users/Sarah Linan/Desktop,no,mono,no,18,no,white,no,yes,768,legacy,50,50,C:/Users/Sarah Linan/Desktop/SL-subject-3.csv,legacy,Kafkaesque Koffka,3.2.8,0,s,NA,h,NA,NA,s,429,NA,10762,NA,NA,429,2,legacy,1024,2,48000,-16,experiment,HHSHH,3,odd,101495,12645,NA,NA,63073,1873,NA,NA,102591,1882,NA,NA,102693,103123,102589,102693,Flanker task SL,50,25384,51,yes,1024
98.07692308,98.07692308,498.4230769,498.4230769,black,legacy,legacy,legacy,0,incongruent,uniform,1,undefined,1,h,51,0,0,0,51,0,51,0,51,0,0,0,51,51,51,51,9/26/19 17:39,1500,The main experiment item,yes,FlankertaskSL.osexp,C:/Users/Sarah Linan/Desktop,no,mono,no,18,no,white,no,yes,768,legacy,51,51,C:/Users/Sarah Linan/Desktop/SL-subject-3.csv,legacy,Kafkaesque Koffka,3.2.8,0,h,NA,h,NA,NA,h,534,NA,10762,NA,NA,534,2,legacy,1024,2,48000,-16,experiment,SSHSS,3,odd,103216,12645,NA,NA,63073,1873,NA,NA,104308,1882,NA,NA,104410,104945,104305,104410,Flanker task SL,51,25918,52,yes,1024
98.11320755,98.11320755,498.9622642,498.9622642,black,legacy,legacy,legacy,0,incongruent,uniform,1,undefined,1,h,52,0,0,0,52,0,52,0,52,0,0,0,52,52,52,52,9/26/19 17:39,1500,The main experiment item,yes,FlankertaskSL.osexp,C:/Users/Sarah Linan/Desktop,no,mono,no,18,no,white,no,yes,768,legacy,52,52,C:/Users/Sarah Linan/Desktop/SL-subject-3.csv,legacy,Kafkaesque Koffka,3.2.8,0,h,NA,h,NA,NA,h,527,NA,10762,NA,NA,527,2,legacy,1024,2,48000,-16,experiment,SSHSS,3,odd,105035,12645,NA,NA,63073,1873,NA,NA,106139,1882,NA,NA,106243,106771,106136,106242,Flanker task SL,52,26445,53,yes,1024
98.14814815,98.14814815,497.3148148,497.3148148,black,legacy,legacy,legacy,0,congruent,uniform,1,undefined,1,s,53,0,0,0,53,0,53,0,53,0,0,0,53,53,53,53,9/26/19 17:39,1500,The main experiment item,yes,FlankertaskSL.osexp,C:/Users/Sarah Linan/Desktop,no,mono,no,18,no,white,no,yes,768,legacy,53,53,C:/Users/Sarah Linan/Desktop/SL-subject-3.csv,legacy,Kafkaesque Koffka,3.2.8,0,s,NA,h,NA,NA,s,410,NA,10762,NA,NA,410,2,legacy,1024,2,48000,-16,experiment,SSSSS,3,odd,106865,12645,NA,NA,63073,1873,NA,NA,107962,1882,NA,NA,108065,108476,107959,108064,Flanker task SL,53,26855,54,yes,1024
98.18181818,98.18181818,496.8363636,496.8363636,black,legacy,legacy,legacy,0,congruent,uniform,1,undefined,1,s,54,0,0,0,54,0,54,0,54,0,0,0,54,54,54,54,9/26/19 17:39,1500,The main experiment item,yes,FlankertaskSL.osexp,C:/Users/Sarah Linan/Desktop,no,mono,no,18,no,white,no,yes,768,legacy,54,54,C:/Users/Sarah Linan/Desktop/SL-subject-3.csv,legacy,Kafkaesque Koffka,3.2.8,0,s,NA,h,NA,NA,s,471,NA,10762,NA,NA,471,2,legacy,1024,2,48000,-16,experiment,SSSSS,3,odd,108563,12645,NA,NA,63073,1873,NA,NA,109665,1882,NA,NA,109768,110240,109662,109768,Flanker task SL,54,27326,55,yes,1024
98.21428571,98.21428571,500.6607143,500.6607143,black,legacy,legacy,legacy,0,incongruent ,uniform,1,undefined,1,s,55,0,0,0,55,0,55,0,55,0,0,0,55,55,55,55,9/26/19 17:39,1500,The main experiment item,yes,FlankertaskSL.osexp,C:/Users/Sarah Linan/Desktop,no,mono,no,18,no,white,no,yes,768,legacy,55,55,C:/Users/Sarah Linan/Desktop/SL-subject-3.csv,legacy,Kafkaesque Koffka,3.2.8,0,s,NA,h,NA,NA,s,711,NA,10762,NA,NA,711,2,legacy,1024,2,48000,-16,experiment,HHSHH,3,odd,110327,12645,NA,NA,63073,1873,NA,NA,111432,1882,NA,NA,111535,112247,111430,111535,Flanker task SL,55,28037,56,yes,1024
98.24561404,98.24561404,499.6140351,499.6140351,black,legacy,legacy,legacy,0,congruent,uniform,1,undefined,1,s,56,0,0,0,56,0,56,0,56,0,0,0,56,56,56,56,9/26/19 17:39,1500,The main experiment item,yes,FlankertaskSL.osexp,C:/Users/Sarah Linan/Desktop,no,mono,no,18,no,white,no,yes,768,legacy,56,56,C:/Users/Sarah Linan/Desktop/SL-subject-3.csv,legacy,Kafkaesque Koffka,3.2.8,0,s,NA,h,NA,NA,s,441,NA,10762,NA,NA,441,2,legacy,1024,2,48000,-16,experiment,SSSSS,3,odd,112279,12645,NA,NA,63073,1873,NA,NA,113384,1882,NA,NA,113486,113929,113381,113486,Flanker task SL,56,28478,57,yes,1024
98.27586207,98.27586207,500.4137931,500.4137931,black,legacy,legacy,legacy,0,incongruent ,uniform,1,undefined,1,s,57,0,0,0,57,0,57,0,57,0,0,0,57,57,57,57,9/26/19 17:39,1500,The main experiment item,yes,FlankertaskSL.osexp,C:/Users/Sarah Linan/Desktop,no,mono,no,18,no,white,no,yes,768,legacy,57,57,C:/Users/Sarah Linan/Desktop/SL-subject-3.csv,legacy,Kafkaesque Koffka,3.2.8,0,s,NA,h,NA,NA,s,546,NA,10762,NA,NA,546,2,legacy,1024,2,48000,-16,experiment,HHSHH,3,odd,114022,12645,NA,NA,63073,1873,NA,NA,115122,1882,NA,NA,115224,115770,115119,115224,Flanker task SL,57,29024,58,yes,1024
98.30508475,98.30508475,501.5254237,501.5254237,black,legacy,legacy,legacy,0,congruent,uniform,1,undefined,1,h,58,0,0,0,58,0,58,0,58,0,0,0,58,58,58,58,9/26/19 17:39,1500,The main experiment item,yes,FlankertaskSL.osexp,C:/Users/Sarah Linan/Desktop,no,mono,no,18,no,white,no,yes,768,legacy,58,58,C:/Users/Sarah Linan/Desktop/SL-subject-3.csv,legacy,Kafkaesque Koffka,3.2.8,0,h,NA,h,NA,NA,h,566,NA,10762,NA,NA,566,2,legacy,1024,2,48000,-16,experiment,HHHHH,3,odd,115864,12645,NA,NA,63073,1873,NA,NA,116962,1882,NA,NA,117065,117632,116959,117065,Flanker task SL,58,29590,59,yes,1024
98.33333333,98.33333333,501.65,501.65,black,legacy,legacy,legacy,0,incongruent ,uniform,1,undefined,1,s,59,0,0,0,59,0,59,0,59,0,0,0,59,59,59,59,9/26/19 17:39,1500,The main experiment item,yes,FlankertaskSL.osexp,C:/Users/Sarah Linan/Desktop,no,mono,no,18,no,white,no,yes,768,legacy,59,59,C:/Users/Sarah Linan/Desktop/SL-subject-3.csv,legacy,Kafkaesque Koffka,3.2.8,0,s,NA,h,NA,NA,s,509,NA,10762,NA,NA,509,2,legacy,1024,2,48000,-16,experiment,HHSHH,3,odd,117717,12645,NA,NA,63073,1873,NA,NA,118815,1882,NA,NA,118917,119427,118812,118917,Flanker task SL,59,30099,60,yes,1024
98.36065574,98.36065574,501.6721311,501.6721311,black,legacy,legacy,legacy,0,incongruent ,uniform,1,undefined,1,s,60,0,0,0,60,0,60,0,60,0,0,0,60,60,60,60,9/26/19 17:39,1500,The main experiment item,yes,FlankertaskSL.osexp,C:/Users/Sarah Linan/Desktop,no,mono,no,18,no,white,no,yes,768,legacy,60,60,C:/Users/Sarah Linan/Desktop/SL-subject-3.csv,legacy,Kafkaesque Koffka,3.2.8,0,s,NA,h,NA,NA,s,503,NA,10762,NA,NA,503,2,legacy,1024,2,48000,-16,experiment,HHSHH,3,odd,119514,12645,NA,NA,63073,1873,NA,NA,120613,1882,NA,NA,120715,121219,120610,120715,Flanker task SL,60,30602,61,yes,1024
98.38709677,98.38709677,501.3709677,501.3709677,black,legacy,legacy,legacy,0,congruent,uniform,1,undefined,1,s,61,0,0,0,61,0,61,0,61,0,0,0,61,61,61,61,9/26/19 17:39,1500,The main experiment item,yes,FlankertaskSL.osexp,C:/Users/Sarah Linan/Desktop,no,mono,no,18,no,white,no,yes,768,legacy,61,61,C:/Users/Sarah Linan/Desktop/SL-subject-3.csv,legacy,Kafkaesque Koffka,3.2.8,0,s,NA,h,NA,NA,s,483,NA,10762,NA,NA,483,2,legacy,1024,2,48000,-16,experiment,SSSSS,3,odd,121312,12645,NA,NA,63073,1873,NA,NA,122413,1882,NA,NA,122516,123000,122410,122515,Flanker task SL,61,31085,62,yes,1024
98.41269841,98.41269841,500.8888889,500.8888889,black,legacy,legacy,legacy,0,congruent,uniform,1,undefined,1,s,62,0,0,0,62,0,62,0,62,0,0,0,62,62,62,62,9/26/19 17:39,1500,The main experiment item,yes,FlankertaskSL.osexp,C:/Users/Sarah Linan/Desktop,no,mono,no,18,no,white,no,yes,768,legacy,62,62,C:/Users/Sarah Linan/Desktop/SL-subject-3.csv,legacy,Kafkaesque Koffka,3.2.8,0,s,NA,h,NA,NA,s,471,NA,10762,NA,NA,471,2,legacy,1024,2,48000,-16,experiment,SSSSS,3,odd,123099,12645,NA,NA,63073,1873,NA,NA,124198,1882,NA,NA,124300,124773,124195,124300,Flanker task SL,62,31556,63,yes,1024
98.4375,98.4375,499.53125,499.53125,black,legacy,legacy,legacy,0,congruent,uniform,1,undefined,1,s,63,0,0,0,63,0,63,0,63,0,0,0,63,63,63,63,9/26/19 17:39,1500,The main experiment item,yes,FlankertaskSL.osexp,C:/Users/Sarah Linan/Desktop,no,mono,no,18,no,white,no,yes,768,legacy,63,63,C:/Users/Sarah Linan/Desktop/SL-subject-3.csv,legacy,Kafkaesque Koffka,3.2.8,0,s,NA,h,NA,NA,s,414,NA,10762,NA,NA,414,2,legacy,1024,2,48000,-16,experiment,SSSSS,3,odd,124863,12645,NA,NA,63073,1873,NA,NA,125962,1882,NA,NA,126065,126481,125959,126065,Flanker task SL,63,31970,64,yes,1024
98.46153846,98.46153846,499.4153846,499.4153846,black,legacy,legacy,legacy,0,incongruent,uniform,1,undefined,1,h,64,0,0,0,64,0,64,0,64,0,0,0,64,64,64,64,9/26/19 17:39,1500,The main experiment item,yes,FlankertaskSL.osexp,C:/Users/Sarah Linan/Desktop,no,mono,no,18,no,white,no,yes,768,legacy,64,64,C:/Users/Sarah Linan/Desktop/SL-subject-3.csv,legacy,Kafkaesque Koffka,3.2.8,0,h,NA,h,NA,NA,h,492,NA,10762,NA,NA,492,2,legacy,1024,2,48000,-16,experiment,SSHSS,3,odd,126571,12645,NA,NA,63073,1873,NA,NA,127669,1882,NA,NA,127771,128264,127666,127771,Flanker task SL,64,32462,65,yes,1024
98.48484848,98.48484848,499.5151515,499.5151515,black,legacy,legacy,legacy,0,incongruent ,uniform,1,undefined,1,s,65,0,0,0,65,0,65,0,65,0,0,0,65,65,65,65,9/26/19 17:39,1500,The main experiment item,yes,FlankertaskSL.osexp,C:/Users/Sarah Linan/Desktop,no,mono,no,18,no,white,no,yes,768,legacy,65,65,C:/Users/Sarah Linan/Desktop/SL-subject-3.csv,legacy,Kafkaesque Koffka,3.2.8,0,s,NA,h,NA,NA,s,506,NA,10762,NA,NA,506,2,legacy,1024,2,48000,-16,experiment,HHSHH,3,odd,128357,12645,NA,NA,63073,1873,NA,NA,129452,1882,NA,NA,129554,130061,129449,129554,Flanker task SL,65,32968,66,yes,1024
98.50746269,98.50746269,497.9253731,497.9253731,black,legacy,legacy,legacy,0,congruent,uniform,1,undefined,1,s,66,0,0,0,66,0,66,0,66,0,0,0,66,66,66,66,9/26/19 17:39,1500,The main experiment item,yes,FlankertaskSL.osexp,C:/Users/Sarah Linan/Desktop,no,mono,no,18,no,white,no,yes,768,legacy,66,66,C:/Users/Sarah Linan/Desktop/SL-subject-3.csv,legacy,Kafkaesque Koffka,3.2.8,0,s,NA,h,NA,NA,s,393,NA,10762,NA,NA,393,2,legacy,1024,2,48000,-16,experiment,SSSSS,3,odd,130155,12645,NA,NA,63073,1873,NA,NA,131251,1882,NA,NA,131354,131748,131248,131354,Flanker task SL,66,33361,67,yes,1024
98.52941176,98.52941176,498.6617647,498.6617647,black,legacy,legacy,legacy,0,incongruent,uniform,1,undefined,1,h,67,0,0,0,67,0,67,0,67,0,0,0,67,67,67,67,9/26/19 17:39,1500,The main experiment item,yes,FlankertaskSL.osexp,C:/Users/Sarah Linan/Desktop,no,mono,no,18,no,white,no,yes,768,legacy,67,67,C:/Users/Sarah Linan/Desktop/SL-subject-3.csv,legacy,Kafkaesque Koffka,3.2.8,0,h,NA,h,NA,NA,h,548,NA,10762,NA,NA,548,2,legacy,1024,2,48000,-16,experiment,SSHSS,3,odd,131841,12645,NA,NA,63073,1873,NA,NA,132932,1882,NA,NA,133034,133584,132929,133034,Flanker task SL,67,33909,68,yes,1024
98.55072464,98.55072464,498.7681159,498.7681159,black,legacy,legacy,legacy,0,congruent,uniform,1,undefined,1,h,68,0,0,0,68,0,68,0,68,0,0,0,68,68,68,68,9/26/19 17:39,1500,The main experiment item,yes,FlankertaskSL.osexp,C:/Users/Sarah Linan/Desktop,no,mono,no,18,no,white,no,yes,768,legacy,68,68,C:/Users/Sarah Linan/Desktop/SL-subject-3.csv,legacy,Kafkaesque Koffka,3.2.8,0,h,NA,h,NA,NA,h,506,NA,10762,NA,NA,506,2,legacy,1024,2,48000,-16,experiment,HHHHH,3,odd,133671,12645,NA,NA,63073,1873,NA,NA,134774,1882,NA,NA,134876,135383,134771,134876,Flanker task SL,68,34415,69,yes,1024
98.57142857,98.57142857,500.0714286,500.0714286,black,legacy,legacy,legacy,0,incongruent,uniform,1,undefined,1,h,69,0,0,0,69,0,69,0,69,0,0,0,69,69,69,69,9/26/19 17:39,1500,The main experiment item,yes,FlankertaskSL.osexp,C:/Users/Sarah Linan/Desktop,no,mono,no,18,no,white,no,yes,768,legacy,69,69,C:/Users/Sarah Linan/Desktop/SL-subject-3.csv,legacy,Kafkaesque Koffka,3.2.8,0,h,NA,h,NA,NA,h,590,NA,10762,NA,NA,590,2,legacy,1024,2,48000,-16,experiment,SSHSS,3,odd,135469,12645,NA,NA,63073,1873,NA,NA,136558,1882,NA,NA,136661,137252,136555,136660,Flanker task SL,69,35005,70,yes,1024
98.5915493,98.5915493,498.7042254,498.7042254,black,legacy,legacy,legacy,0,congruent,uniform,1,undefined,1,s,70,0,0,0,70,0,70,0,70,0,0,0,70,70,70,70,9/26/19 17:39,1500,The main experiment item,yes,FlankertaskSL.osexp,C:/Users/Sarah Linan/Desktop,no,mono,no,18,no,white,no,yes,768,legacy,70,70,C:/Users/Sarah Linan/Desktop/SL-subject-3.csv,legacy,Kafkaesque Koffka,3.2.8,0,s,NA,h,NA,NA,s,403,NA,10762,NA,NA,403,2,legacy,1024,2,48000,-16,experiment,SSSSS,3,odd,137344,12645,NA,NA,63073,1873,NA,NA,138453,1882,NA,NA,138556,138961,138450,138556,Flanker task SL,70,35408,71,yes,1024
98.61111111,98.61111111,498.7916667,498.7916667,black,legacy,legacy,legacy,0,congruent,uniform,1,undefined,1,h,71,0,0,0,71,0,71,0,71,0,0,0,71,71,71,71,9/26/19 17:39,1500,The main experiment item,yes,FlankertaskSL.osexp,C:/Users/Sarah Linan/Desktop,no,mono,no,18,no,white,no,yes,768,legacy,71,71,C:/Users/Sarah Linan/Desktop/SL-subject-3.csv,legacy,Kafkaesque Koffka,3.2.8,0,h,NA,h,NA,NA,h,505,NA,10762,NA,NA,505,2,legacy,1024,2,48000,-16,experiment,HHHHH,3,odd,139053,12645,NA,NA,63073,1873,NA,NA,140154,1882,NA,NA,140257,140763,140151,140257,Flanker task SL,71,35913,72,yes,1024
98.63013699,98.63013699,497.8493151,497.8493151,black,legacy,legacy,legacy,0,congruent,uniform,1,undefined,1,h,72,0,0,0,72,0,72,0,72,0,0,0,72,72,72,72,9/26/19 17:39,1500,The main experiment item,yes,FlankertaskSL.osexp,C:/Users/Sarah Linan/Desktop,no,mono,no,18,no,white,no,yes,768,legacy,72,72,C:/Users/Sarah Linan/Desktop/SL-subject-3.csv,legacy,Kafkaesque Koffka,3.2.8,0,h,NA,h,NA,NA,h,430,NA,10762,NA,NA,430,2,legacy,1024,2,48000,-16,experiment,HHHHH,3,odd,140850,12645,NA,NA,63073,1873,NA,NA,141954,1882,NA,NA,142057,142488,141951,142057,Flanker task SL,72,36343,73,yes,1024
98.64864865,98.64864865,496.5675676,496.5675676,black,legacy,legacy,legacy,0,congruent,uniform,1,undefined,1,s,73,0,0,0,73,0,73,0,73,0,0,0,73,73,73,73,9/26/19 17:39,1500,The main experiment item,yes,FlankertaskSL.osexp,C:/Users/Sarah Linan/Desktop,no,mono,no,18,no,white,no,yes,768,legacy,73,73,C:/Users/Sarah Linan/Desktop/SL-subject-3.csv,legacy,Kafkaesque Koffka,3.2.8,0,s,NA,h,NA,NA,s,403,NA,10762,NA,NA,403,2,legacy,1024,2,48000,-16,experiment,SSSSS,3,odd,142524,12645,NA,NA,63073,1873,NA,NA,143626,1882,NA,NA,143729,144133,143622,143729,Flanker task SL,73,36746,74,yes,1024
98.66666667,98.66666667,495.8933333,495.8933333,black,legacy,legacy,legacy,0,congruent,uniform,1,undefined,1,h,74,0,0,0,74,0,74,0,74,0,0,0,74,74,74,74,9/26/19 17:39,1500,The main experiment item,yes,FlankertaskSL.osexp,C:/Users/Sarah Linan/Desktop,no,mono,no,18,no,white,no,yes,768,legacy,74,74,C:/Users/Sarah Linan/Desktop/SL-subject-3.csv,legacy,Kafkaesque Koffka,3.2.8,0,h,NA,h,NA,NA,h,446,NA,10762,NA,NA,446,2,legacy,1024,2,48000,-16,experiment,HHHHH,3,odd,144223,12645,NA,NA,63073,1873,NA,NA,145324,1882,NA,NA,145426,145873,145321,145426,Flanker task SL,74,37192,75,yes,1024
98.68421053,98.68421053,495.0131579,495.0131579,black,legacy,legacy,legacy,0,congruent,uniform,1,undefined,1,h,75,0,0,0,75,0,75,0,75,0,0,0,75,75,75,75,9/26/19 17:39,1500,The main experiment item,yes,FlankertaskSL.osexp,C:/Users/Sarah Linan/Desktop,no,mono,no,18,no,white,no,yes,768,legacy,75,75,C:/Users/Sarah Linan/Desktop/SL-subject-3.csv,legacy,Kafkaesque Koffka,3.2.8,0,h,NA,h,NA,NA,h,429,NA,10762,NA,NA,429,2,legacy,1024,2,48000,-16,experiment,HHHHH,3,odd,145965,12645,NA,NA,63073,1873,NA,NA,147057,1882,NA,NA,147159,147589,147054,147159,Flanker task SL,75,37621,76,yes,1024
98.7012987,98.7012987,495.5844156,495.5844156,black,legacy,legacy,legacy,0,incongruent,uniform,1,undefined,1,h,76,0,0,0,76,0,76,0,76,0,0,0,76,76,76,76,9/26/19 17:39,1500,The main experiment item,yes,FlankertaskSL.osexp,C:/Users/Sarah Linan/Desktop,no,mono,no,18,no,white,no,yes,768,legacy,76,76,C:/Users/Sarah Linan/Desktop/SL-subject-3.csv,legacy,Kafkaesque Koffka,3.2.8,0,h,NA,h,NA,NA,h,539,NA,10762,NA,NA,539,2,legacy,1024,2,48000,-16,experiment,SSHSS,3,odd,147623,12645,NA,NA,63073,1873,NA,NA,148721,1882,NA,NA,148823,149363,148718,148823,Flanker task SL,76,38160,77,yes,1024
98.71794872,98.71794872,494.0641026,494.0641026,black,legacy,legacy,legacy,0,congruent,uniform,1,undefined,1,s,77,0,0,0,77,0,77,0,77,0,0,0,77,77,77,77,9/26/19 17:39,1500,The main experiment item,yes,FlankertaskSL.osexp,C:/Users/Sarah Linan/Desktop,no,mono,no,18,no,white,no,yes,768,legacy,77,77,C:/Users/Sarah Linan/Desktop/SL-subject-3.csv,legacy,Kafkaesque Koffka,3.2.8,0,s,NA,h,NA,NA,s,377,NA,10762,NA,NA,377,2,legacy,1024,2,48000,-16,experiment,SSSSS,3,odd,149427,12645,NA,NA,63073,1873,NA,NA,150524,1882,NA,NA,150626,151005,150521,150626,Flanker task SL,77,38537,78,yes,1024
98.73417722,98.73417722,494.3291139,494.3291139,black,legacy,legacy,legacy,0,incongruent,uniform,1,undefined,1,h,78,0,0,0,78,0,78,0,78,0,0,0,78,78,78,78,9/26/19 17:39,1500,The main experiment item,yes,FlankertaskSL.osexp,C:/Users/Sarah Linan/Desktop,no,mono,no,18,no,white,no,yes,768,legacy,78,78,C:/Users/Sarah Linan/Desktop/SL-subject-3.csv,legacy,Kafkaesque Koffka,3.2.8,0,h,NA,h,NA,NA,h,515,NA,10762,NA,NA,515,2,legacy,1024,2,48000,-16,experiment,SSHSS,3,odd,151091,12645,NA,NA,63073,1873,NA,NA,152190,1882,NA,NA,152293,152809,152187,152292,Flanker task SL,78,39052,79,yes,1024
98.75,98.75,496.4625,496.4625,black,legacy,legacy,legacy,0,congruent,uniform,1,undefined,1,s,79,0,0,0,79,0,79,0,79,0,0,0,79,79,79,79,9/26/19 17:39,1500,The main experiment item,yes,FlankertaskSL.osexp,C:/Users/Sarah Linan/Desktop,no,mono,no,18,no,white,no,yes,768,legacy,79,79,C:/Users/Sarah Linan/Desktop/SL-subject-3.csv,legacy,Kafkaesque Koffka,3.2.8,0,s,NA,h,NA,NA,s,665,NA,10762,NA,NA,665,2,legacy,1024,2,48000,-16,experiment,SSSSS,3,odd,152900,12645,NA,NA,63073,1873,NA,NA,153991,1882,NA,NA,154093,154759,153988,154093,Flanker task SL,79,39717,80,yes,1024
98.7654321,98.7654321,495.9506173,495.9506173,black,legacy,legacy,legacy,0,congruent,uniform,1,undefined,1,s,80,0,0,0,80,0,80,0,80,0,0,0,80,80,80,80,9/26/19 17:39,600,The main experiment item,yes,FlankertaskSL.osexp,C:/Users/Sarah Linan/Desktop,no,mono,no,18,no,white,no,yes,768,legacy,0,79,C:/Users/Sarah Linan/Desktop/SL-subject-3.csv,legacy,Kafkaesque Koffka,3.2.8,0,s,NA,h,h,NA,s,455,NA,10762,11979,NA,455,2,legacy,1024,2,48000,-16,experiment,SSSSS,3,odd,154853,12645,167850,NA,63073,1873,NA,NA,167930,1882,155871,NA,168033,168489,167928,168033,Flanker task SL,80,40172,81,yes,1024
98.7804878,98.7804878,494.1707317,494.1707317,black,legacy,legacy,legacy,0,congruent,uniform,1,undefined,1,s,81,0,0,0,81,0,81,0,81,0,0,0,81,81,81,81,9/26/19 17:39,600,The main experiment item,yes,FlankertaskSL.osexp,C:/Users/Sarah Linan/Desktop,no,mono,no,18,no,white,no,yes,768,legacy,1,79,C:/Users/Sarah Linan/Desktop/SL-subject-3.csv,legacy,Kafkaesque Koffka,3.2.8,0,s,NA,h,h,NA,s,350,NA,10762,11979,NA,350,2,legacy,1024,2,48000,-16,experiment,SSSSS,3,odd,168577,12645,167850,NA,63073,1873,NA,NA,169682,1882,155871,NA,169785,170136,169679,169785,Flanker task SL,81,40522,82,yes,1024
98.79518072,98.79518072,493.626506,493.626506,black,legacy,legacy,legacy,0,incongruent ,uniform,1,undefined,1,s,82,0,0,0,82,0,82,0,82,0,0,0,82,82,82,82,9/26/19 17:39,600,The main experiment item,yes,FlankertaskSL.osexp,C:/Users/Sarah Linan/Desktop,no,mono,no,18,no,white,no,yes,768,legacy,2,79,C:/Users/Sarah Linan/Desktop/SL-subject-3.csv,legacy,Kafkaesque Koffka,3.2.8,0,s,NA,h,h,NA,s,449,NA,10762,11979,NA,449,2,legacy,1024,2,48000,-16,experiment,HHSHH,3,odd,170231,12645,167850,NA,63073,1873,NA,NA,171325,1882,155871,NA,171428,171879,171322,171428,Flanker task SL,82,40971,83,yes,1024
98.80952381,98.80952381,492.2738095,492.2738095,black,legacy,legacy,legacy,0,incongruent ,uniform,1,undefined,1,s,83,0,0,0,83,0,83,0,83,0,0,0,83,83,83,83,9/26/19 17:39,600,The main experiment item,yes,FlankertaskSL.osexp,C:/Users/Sarah Linan/Desktop,no,mono,no,18,no,white,no,yes,768,legacy,3,79,C:/Users/Sarah Linan/Desktop/SL-subject-3.csv,legacy,Kafkaesque Koffka,3.2.8,0,s,NA,h,h,NA,s,380,NA,10762,11979,NA,380,2,legacy,1024,2,48000,-16,experiment,HHSHH,3,odd,171972,12645,167850,NA,63073,1873,NA,NA,173072,1882,155871,NA,173174,173555,173069,173174,Flanker task SL,83,41351,84,yes,1024
98.82352941,98.82352941,491.5764706,491.5764706,black,legacy,legacy,legacy,0,incongruent ,uniform,1,undefined,1,s,84,0,0,0,84,0,84,0,84,0,0,0,84,84,84,84,9/26/19 17:39,600,The main experiment item,yes,FlankertaskSL.osexp,C:/Users/Sarah Linan/Desktop,no,mono,no,18,no,white,no,yes,768,legacy,4,79,C:/Users/Sarah Linan/Desktop/SL-subject-3.csv,legacy,Kafkaesque Koffka,3.2.8,0,s,NA,h,h,NA,s,433,NA,10762,11979,NA,433,2,legacy,1024,2,48000,-16,experiment,HHSHH,3,odd,173646,12645,167850,NA,63073,1873,NA,NA,174752,1882,155871,NA,174854,175289,174748,174854,Flanker task SL,84,41784,85,yes,1024
98.8372093,98.8372093,490.9418605,490.9418605,black,legacy,legacy,legacy,0,incongruent ,uniform,1,undefined,1,s,85,0,0,0,85,0,85,0,85,0,0,0,85,85,85,85,9/26/19 17:39,600,The main experiment item,yes,FlankertaskSL.osexp,C:/Users/Sarah Linan/Desktop,no,mono,no,18,no,white,no,yes,768,legacy,5,79,C:/Users/Sarah Linan/Desktop/SL-subject-3.csv,legacy,Kafkaesque Koffka,3.2.8,0,s,NA,h,h,NA,s,437,NA,10762,11979,NA,437,2,legacy,1024,2,48000,-16,experiment,HHSHH,3,odd,175377,12645,167850,NA,63073,1873,NA,NA,176475,1882,155871,NA,176579,177017,176473,176578,Flanker task SL,85,42221,86,yes,1024
97.70114943,97.70114943,490.045977,490.045977,black,legacy,legacy,legacy,0,incongruent,uniform,0,undefined,0,h,86,0,0,0,86,0,86,0,86,0,0,0,86,86,86,86,9/26/19 17:39,600,The main experiment item,yes,FlankertaskSL.osexp,C:/Users/Sarah Linan/Desktop,no,mono,no,18,no,white,no,yes,768,legacy,6,79,C:/Users/Sarah Linan/Desktop/SL-subject-3.csv,legacy,Kafkaesque Koffka,3.2.8,0,s,NA,h,h,NA,s,413,NA,10762,11979,NA,413,2,legacy,1024,2,48000,-16,experiment,SSHSS,3,odd,177108,12645,167850,NA,63073,1873,NA,NA,178202,1882,155871,NA,178304,178719,178199,178304,Flanker task SL,85,42634,87,yes,1024
97.72727273,97.72727273,489.875,489.875,black,legacy,legacy,legacy,0,incongruent,uniform,1,undefined,1,h,87,0,0,0,87,0,87,0,87,0,0,0,87,87,87,87,9/26/19 17:39,600,The main experiment item,yes,FlankertaskSL.osexp,C:/Users/Sarah Linan/Desktop,no,mono,no,18,no,white,no,yes,768,legacy,7,79,C:/Users/Sarah Linan/Desktop/SL-subject-3.csv,legacy,Kafkaesque Koffka,3.2.8,0,h,NA,h,h,NA,h,475,NA,10762,11979,NA,475,2,legacy,1024,2,48000,-16,experiment,SSHSS,3,odd,179311,12645,167850,NA,178807,1873,NA,NA,180409,1882,155871,NA,180513,180990,180406,180513,Flanker task SL,86,43109,88,yes,1024
97.75280899,97.75280899,489.6853933,489.6853933,black,legacy,legacy,legacy,0,congruent,uniform,1,undefined,1,h,88,0,0,0,88,0,88,0,88,0,0,0,88,88,88,88,9/26/19 17:39,600,The main experiment item,yes,FlankertaskSL.osexp,C:/Users/Sarah Linan/Desktop,no,mono,no,18,no,white,no,yes,768,legacy,8,79,C:/Users/Sarah Linan/Desktop/SL-subject-3.csv,legacy,Kafkaesque Koffka,3.2.8,0,h,NA,h,h,NA,h,473,NA,10762,11979,NA,473,2,legacy,1024,2,48000,-16,experiment,HHHHH,3,odd,181083,12645,167850,NA,178807,1873,NA,NA,182179,1882,155871,NA,182281,182756,182176,182281,Flanker task SL,87,43582,89,yes,1024
97.77777778,97.77777778,491.0555556,491.0555556,black,legacy,legacy,legacy,0,incongruent,uniform,1,undefined,1,h,89,0,0,0,89,0,89,0,89,0,0,0,89,89,89,89,9/26/19 17:39,600,The main experiment item,yes,FlankertaskSL.osexp,C:/Users/Sarah Linan/Desktop,no,mono,no,18,no,white,no,yes,768,legacy,9,79,C:/Users/Sarah Linan/Desktop/SL-subject-3.csv,legacy,Kafkaesque Koffka,3.2.8,0,h,NA,h,h,NA,h,613,NA,10762,11979,NA,613,2,legacy,1024,2,48000,-16,experiment,SSHSS,3,odd,182847,12645,167850,NA,178807,1873,NA,NA,183953,1882,155871,NA,184055,184669,183949,184055,Flanker task SL,88,44195,90,yes,1024
97.8021978,97.8021978,489.8461538,489.8461538,black,legacy,legacy,legacy,0,incongruent ,uniform,1,undefined,1,s,90,0,0,0,90,0,90,0,90,0,0,0,90,90,90,90,9/26/19 17:39,600,The main experiment item,yes,FlankertaskSL.osexp,C:/Users/Sarah Linan/Desktop,no,mono,no,18,no,white,no,yes,768,legacy,10,79,C:/Users/Sarah Linan/Desktop/SL-subject-3.csv,legacy,Kafkaesque Koffka,3.2.8,0,s,NA,h,h,NA,s,381,NA,10762,11979,NA,381,2,legacy,1024,2,48000,-16,experiment,HHSHH,3,odd,185269,12645,167850,NA,178807,1873,184765,NA,186374,1882,155871,NA,186478,186860,186371,186478,Flanker task SL,89,44576,91,yes,1024
97.82608696,97.82608696,489.1521739,489.1521739,black,legacy,legacy,legacy,0,congruent,uniform,1,undefined,1,s,91,0,0,0,91,0,91,0,91,0,0,0,91,91,91,91,9/26/19 17:39,600,The main experiment item,yes,FlankertaskSL.osexp,C:/Users/Sarah Linan/Desktop,no,mono,no,18,no,white,no,yes,768,legacy,11,79,C:/Users/Sarah Linan/Desktop/SL-subject-3.csv,legacy,Kafkaesque Koffka,3.2.8,0,s,NA,h,h,NA,s,426,NA,10762,11979,NA,426,2,legacy,1024,2,48000,-16,experiment,SSSSS,3,odd,186952,12645,167850,NA,178807,1873,184765,NA,188054,1882,155871,NA,188157,188584,188051,188157,Flanker task SL,90,45002,92,yes,1024
97.84946237,97.84946237,490.1075269,490.1075269,black,legacy,legacy,legacy,0,incongruent ,uniform,1,undefined,1,s,92,0,0,0,92,0,92,0,92,0,0,0,92,92,92,92,9/26/19 17:39,600,The main experiment item,yes,FlankertaskSL.osexp,C:/Users/Sarah Linan/Desktop,no,mono,no,18,no,white,no,yes,768,legacy,12,79,C:/Users/Sarah Linan/Desktop/SL-subject-3.csv,legacy,Kafkaesque Koffka,3.2.8,0,s,NA,h,h,NA,s,578,NA,10762,11979,NA,578,2,legacy,1024,2,48000,-16,experiment,HHSHH,3,odd,188672,12645,167850,NA,178807,1873,184765,NA,189776,1882,155871,NA,189879,190459,189773,189878,Flanker task SL,91,45580,93,yes,1024
97.87234043,97.87234043,489.3829787,489.3829787,black,legacy,legacy,legacy,0,incongruent,uniform,1,undefined,1,h,93,0,0,0,93,0,93,0,93,0,0,0,93,93,93,93,9/26/19 17:39,600,The main experiment item,yes,FlankertaskSL.osexp,C:/Users/Sarah Linan/Desktop,no,mono,no,18,no,white,no,yes,768,legacy,13,79,C:/Users/Sarah Linan/Desktop/SL-subject-3.csv,legacy,Kafkaesque Koffka,3.2.8,0,h,NA,h,h,NA,h,422,NA,10762,11979,NA,422,2,legacy,1024,2,48000,-16,experiment,SSHSS,3,odd,190546,12645,167850,NA,178807,1873,184765,NA,191650,1882,155871,NA,191753,192176,191647,191752,Flanker task SL,92,46002,94,yes,1024
97.89473684,97.89473684,489.6315789,489.6315789,black,legacy,legacy,legacy,0,incongruent,uniform,1,undefined,1,h,94,0,0,0,94,0,94,0,94,0,0,0,94,94,94,94,9/26/19 17:39,600,The main experiment item,yes,FlankertaskSL.osexp,C:/Users/Sarah Linan/Desktop,no,mono,no,18,no,white,no,yes,768,legacy,14,79,C:/Users/Sarah Linan/Desktop/SL-subject-3.csv,legacy,Kafkaesque Koffka,3.2.8,0,h,NA,h,h,NA,h,513,NA,10762,11979,NA,513,2,legacy,1024,2,48000,-16,experiment,SSHSS,3,odd,192266,12645,167850,NA,178807,1873,184765,NA,193362,1882,155871,NA,193465,193979,193359,193464,Flanker task SL,93,46515,95,yes,1024
97.91666667,97.91666667,488.7916667,488.7916667,black,legacy,legacy,legacy,0,incongruent,uniform,1,undefined,1,h,95,0,0,0,95,0,95,0,95,0,0,0,95,95,95,95,9/26/19 17:39,600,The main experiment item,yes,FlankertaskSL.osexp,C:/Users/Sarah Linan/Desktop,no,mono,no,18,no,white,no,yes,768,legacy,15,79,C:/Users/Sarah Linan/Desktop/SL-subject-3.csv,legacy,Kafkaesque Koffka,3.2.8,0,h,NA,h,h,NA,h,409,NA,10762,11979,NA,409,2,legacy,1024,2,48000,-16,experiment,SSHSS,3,odd,194074,12645,167850,NA,178807,1873,184765,NA,195167,1882,155871,NA,195269,195679,195164,195269,Flanker task SL,94,46924,96,yes,1024
97.93814433,97.93814433,488.0721649,488.0721649,black,legacy,legacy,legacy,0,congruent,uniform,1,undefined,1,h,96,0,0,0,96,0,96,0,96,0,0,0,96,96,96,96,9/26/19 17:39,600,The main experiment item,yes,FlankertaskSL.osexp,C:/Users/Sarah Linan/Desktop,no,mono,no,18,no,white,no,yes,768,legacy,16,79,C:/Users/Sarah Linan/Desktop/SL-subject-3.csv,legacy,Kafkaesque Koffka,3.2.8,0,h,NA,h,h,NA,h,419,NA,10762,11979,NA,419,2,legacy,1024,2,48000,-16,experiment,HHHHH,3,odd,195772,12645,167850,NA,178807,1873,184765,NA,196868,1882,155871,NA,196971,197392,196865,196971,Flanker task SL,95,47343,97,yes,1024
97.95918367,97.95918367,489,489,black,legacy,legacy,legacy,0,congruent,uniform,1,undefined,1,s,97,0,0,0,97,0,97,0,97,0,0,0,97,97,97,97,9/26/19 17:39,600,The main experiment item,yes,FlankertaskSL.osexp,C:/Users/Sarah Linan/Desktop,no,mono,no,18,no,white,no,yes,768,legacy,17,79,C:/Users/Sarah Linan/Desktop/SL-subject-3.csv,legacy,Kafkaesque Koffka,3.2.8,0,s,NA,h,h,NA,s,579,NA,10762,11979,NA,579,2,legacy,1024,2,48000,-16,experiment,SSSSS,3,odd,197480,12645,167850,NA,178807,1873,184765,NA,198576,1882,155871,NA,198678,199258,198573,198678,Flanker task SL,96,47922,98,yes,1024
97.97979798,97.97979798,488.030303,488.030303,black,legacy,legacy,legacy,0,congruent,uniform,1,undefined,1,s,98,0,0,0,98,0,98,0,98,0,0,0,98,98,98,98,9/26/19 17:39,600,The main experiment item,yes,FlankertaskSL.osexp,C:/Users/Sarah Linan/Desktop,no,mono,no,18,no,white,no,yes,768,legacy,18,79,C:/Users/Sarah Linan/Desktop/SL-subject-3.csv,legacy,Kafkaesque Koffka,3.2.8,0,s,NA,h,h,NA,s,393,NA,10762,11979,NA,393,2,legacy,1024,2,48000,-16,experiment,SSSSS,3,odd,199345,12645,167850,NA,178807,1873,184765,NA,200439,1882,155871,NA,200542,200938,200436,200542,Flanker task SL,97,48315,99,yes,1024
98,98,490.36,490.36,black,legacy,legacy,legacy,0,incongruent ,uniform,1,undefined,1,s,99,0,0,0,99,0,99,0,99,0,0,0,99,99,99,99,9/26/19 17:39,600,The main experiment item,yes,FlankertaskSL.osexp,C:/Users/Sarah Linan/Desktop,no,mono,no,18,no,white,no,yes,768,legacy,19,79,C:/Users/Sarah Linan/Desktop/SL-subject-3.csv,legacy,Kafkaesque Koffka,3.2.8,0,s,NA,h,h,NA,s,721,NA,10762,11979,NA,721,2,legacy,1024,2,48000,-16,experiment,HHSHH,3,odd,201031,12645,167850,NA,178807,1873,184765,NA,202135,1882,155871,NA,202237,202960,202131,202237,Flanker task SL,98,49036,100,yes,1024
98.01980198,98.01980198,489.5445545,489.5445545,black,legacy,legacy,legacy,0,congruent,uniform,1,undefined,1,h,100,0,0,0,100,0,100,0,100,0,0,0,100,100,100,100,9/26/19 17:39,600,The main experiment item,yes,FlankertaskSL.osexp,C:/Users/Sarah Linan/Desktop,no,mono,no,18,no,white,no,yes,768,legacy,20,79,C:/Users/Sarah Linan/Desktop/SL-subject-3.csv,legacy,Kafkaesque Koffka,3.2.8,0,h,NA,h,h,NA,h,408,NA,10762,11979,NA,408,2,legacy,1024,2,48000,-16,experiment,HHHHH,3,odd,203582,12645,167850,NA,178807,1873,203079,NA,204686,1882,155871,NA,204789,205199,204684,204789,Flanker task SL,99,49444,101,yes,1024
98.03921569,98.03921569,490.2352941,490.2352941,black,legacy,legacy,legacy,0,incongruent ,uniform,1,undefined,1,s,101,0,0,0,101,0,101,0,101,0,0,0,101,101,101,101,9/26/19 17:39,600,The main experiment item,yes,FlankertaskSL.osexp,C:/Users/Sarah Linan/Desktop,no,mono,no,18,no,white,no,yes,768,legacy,21,79,C:/Users/Sarah Linan/Desktop/SL-subject-3.csv,legacy,Kafkaesque Koffka,3.2.8,0,s,NA,h,h,NA,s,560,NA,10762,11979,NA,560,2,legacy,1024,2,48000,-16,experiment,HHSHH,3,odd,205292,12645,167850,NA,178807,1873,203079,NA,206387,1882,155871,NA,206490,207051,206384,206490,Flanker task SL,100,50004,102,yes,1024
98.05825243,98.05825243,490.2427184,490.2427184,black,legacy,legacy,legacy,0,incongruent ,uniform,1,undefined,1,s,102,0,0,0,102,0,102,0,102,0,0,0,102,102,102,102,9/26/19 17:39,600,The main experiment item,yes,FlankertaskSL.osexp,C:/Users/Sarah Linan/Desktop,no,mono,no,18,no,white,no,yes,768,legacy,22,79,C:/Users/Sarah Linan/Desktop/SL-subject-3.csv,legacy,Kafkaesque Koffka,3.2.8,0,s,NA,h,h,NA,s,491,NA,10762,11979,NA,491,2,legacy,1024,2,48000,-16,experiment,HHSHH,3,odd,207144,12645,167850,NA,178807,1873,203079,NA,208240,1882,155871,NA,208342,208835,208237,208342,Flanker task SL,101,50495,103,yes,1024
98.07692308,98.07692308,490.0576923,490.0576923,black,legacy,legacy,legacy,0,incongruent ,uniform,1,undefined,1,s,103,0,0,0,103,0,103,0,103,0,0,0,103,103,103,103,9/26/19 17:39,600,The main experiment item,yes,FlankertaskSL.osexp,C:/Users/Sarah Linan/Desktop,no,mono,no,18,no,white,no,yes,768,legacy,23,79,C:/Users/Sarah Linan/Desktop/SL-subject-3.csv,legacy,Kafkaesque Koffka,3.2.8,0,s,NA,h,h,NA,s,471,NA,10762,11979,NA,471,2,legacy,1024,2,48000,-16,experiment,HHSHH,3,odd,208881,12645,167850,NA,178807,1873,203079,NA,209975,1882,155871,NA,210078,210550,209972,210078,Flanker task SL,102,50966,104,yes,1024
98.0952381,98.0952381,489.4761905,489.4761905,black,legacy,legacy,legacy,0,congruent,uniform,1,undefined,1,s,104,0,0,0,104,0,104,0,104,0,0,0,104,104,104,104,9/26/19 17:39,600,The main experiment item,yes,FlankertaskSL.osexp,C:/Users/Sarah Linan/Desktop,no,mono,no,18,no,white,no,yes,768,legacy,24,79,C:/Users/Sarah Linan/Desktop/SL-subject-3.csv,legacy,Kafkaesque Koffka,3.2.8,0,s,NA,h,h,NA,s,429,NA,10762,11979,NA,429,2,legacy,1024,2,48000,-16,experiment,SSSSS,3,odd,210639,12645,167850,NA,178807,1873,203079,NA,211745,1882,155871,NA,211847,212277,211742,211847,Flanker task SL,103,51395,105,yes,1024
98.11320755,98.11320755,488.7358491,488.7358491,black,legacy,legacy,legacy,0,congruent,uniform,1,undefined,1,s,105,0,0,0,105,0,105,0,105,0,0,0,105,105,105,105,9/26/19 17:39,600,The main experiment item,yes,FlankertaskSL.osexp,C:/Users/Sarah Linan/Desktop,no,mono,no,18,no,white,no,yes,768,legacy,25,79,C:/Users/Sarah Linan/Desktop/SL-subject-3.csv,legacy,Kafkaesque Koffka,3.2.8,0,s,NA,h,h,NA,s,411,NA,10762,11979,NA,411,2,legacy,1024,2,48000,-16,experiment,SSSSS,3,odd,212369,12645,167850,NA,178807,1873,203079,NA,213470,1882,155871,NA,213573,213986,213467,213573,Flanker task SL,104,51806,106,yes,1024
98.13084112,98.13084112,488.5514019,488.5514019,black,legacy,legacy,legacy,0,congruent,uniform,1,undefined,1,s,106,0,0,0,106,0,106,0,106,0,0,0,106,106,106,106,9/26/19 17:39,600,The main experiment item,yes,FlankertaskSL.osexp,C:/Users/Sarah Linan/Desktop,no,mono,no,18,no,white,no,yes,768,legacy,26,79,C:/Users/Sarah Linan/Desktop/SL-subject-3.csv,legacy,Kafkaesque Koffka,3.2.8,0,s,NA,h,h,NA,s,469,NA,10762,11979,NA,469,2,legacy,1024,2,48000,-16,experiment,SSSSS,3,odd,214034,12645,167850,NA,178807,1873,203079,NA,215134,1882,155871,NA,215238,215709,215132,215238,Flanker task SL,105,52275,107,yes,1024
98.14814815,98.14814815,488.6759259,488.6759259,black,legacy,legacy,legacy,0,incongruent ,uniform,1,undefined,1,s,107,0,0,0,107,0,107,0,107,0,0,0,107,107,107,107,9/26/19 17:39,600,The main experiment item,yes,FlankertaskSL.osexp,C:/Users/Sarah Linan/Desktop,no,mono,no,18,no,white,no,yes,768,legacy,27,79,C:/Users/Sarah Linan/Desktop/SL-subject-3.csv,legacy,Kafkaesque Koffka,3.2.8,0,s,NA,h,h,NA,s,502,NA,10762,11979,NA,502,2,legacy,1024,2,48000,-16,experiment,HHSHH,3,odd,215798,12645,167850,NA,178807,1873,203079,NA,216901,1882,155871,NA,217003,217506,216898,217003,Flanker task SL,106,52777,108,yes,1024
98.16513761,98.16513761,488.0183486,488.0183486,black,legacy,legacy,legacy,0,congruent,uniform,1,undefined,1,s,108,0,0,0,108,0,108,0,108,0,0,0,108,108,108,108,9/26/19 17:39,600,The main experiment item,yes,FlankertaskSL.osexp,C:/Users/Sarah Linan/Desktop,no,mono,no,18,no,white,no,yes,768,legacy,28,79,C:/Users/Sarah Linan/Desktop/SL-subject-3.csv,legacy,Kafkaesque Koffka,3.2.8,0,s,NA,h,h,NA,s,417,NA,10762,11979,NA,417,2,legacy,1024,2,48000,-16,experiment,SSSSS,3,odd,217592,12645,167850,NA,178807,1873,203079,NA,218697,1882,155871,NA,218799,219218,218694,218799,Flanker task SL,107,53194,109,yes,1024
98.18181818,98.18181818,487.1454545,487.1454545,black,legacy,legacy,legacy,0,congruent,uniform,1,undefined,1,s,109,0,0,0,109,0,109,0,109,0,0,0,109,109,109,109,9/26/19 17:39,600,The main experiment item,yes,FlankertaskSL.osexp,C:/Users/Sarah Linan/Desktop,no,mono,no,18,no,white,no,yes,768,legacy,29,79,C:/Users/Sarah Linan/Desktop/SL-subject-3.csv,legacy,Kafkaesque Koffka,3.2.8,0,s,NA,h,h,NA,s,392,NA,10762,11979,NA,392,2,legacy,1024,2,48000,-16,experiment,SSSSS,3,odd,219267,12645,167850,NA,178807,1873,203079,NA,220365,1882,155871,NA,220468,220862,220362,220467,Flanker task SL,108,53586,110,yes,1024
98.1981982,98.1981982,486.3423423,486.3423423,black,legacy,legacy,legacy,0,congruent,uniform,1,undefined,1,s,110,0,0,0,110,0,110,0,110,0,0,0,110,110,110,110,9/26/19 17:39,600,The main experiment item,yes,FlankertaskSL.osexp,C:/Users/Sarah Linan/Desktop,no,mono,no,18,no,white,no,yes,768,legacy,30,79,C:/Users/Sarah Linan/Desktop/SL-subject-3.csv,legacy,Kafkaesque Koffka,3.2.8,0,s,NA,h,h,NA,s,398,NA,10762,11979,NA,398,2,legacy,1024,2,48000,-16,experiment,SSSSS,3,odd,220896,12645,167850,NA,178807,1873,203079,NA,221994,1882,155871,NA,222096,222495,221991,222096,Flanker task SL,109,53984,111,yes,1024
98.21428571,98.21428571,485.8125,485.8125,black,legacy,legacy,legacy,0,congruent,uniform,1,undefined,1,h,111,0,0,0,111,0,111,0,111,0,0,0,111,111,111,111,9/26/19 17:39,600,The main experiment item,yes,FlankertaskSL.osexp,C:/Users/Sarah Linan/Desktop,no,mono,no,18,no,white,no,yes,768,legacy,31,79,C:/Users/Sarah Linan/Desktop/SL-subject-3.csv,legacy,Kafkaesque Koffka,3.2.8,0,h,NA,h,h,NA,h,427,NA,10762,11979,NA,427,2,legacy,1024,2,48000,-16,experiment,HHHHH,3,odd,222589,12645,167850,NA,178807,1873,203079,NA,223695,1882,155871,NA,223797,224226,223692,223797,Flanker task SL,110,54411,112,yes,1024
98.2300885,98.2300885,485.6106195,485.6106195,black,legacy,legacy,legacy,0,incongruent,uniform,1,undefined,1,h,112,0,0,0,112,0,112,0,112,0,0,0,112,112,112,112,9/26/19 17:39,600,The main experiment item,yes,FlankertaskSL.osexp,C:/Users/Sarah Linan/Desktop,no,mono,no,18,no,white,no,yes,768,legacy,32,79,C:/Users/Sarah Linan/Desktop/SL-subject-3.csv,legacy,Kafkaesque Koffka,3.2.8,0,h,NA,h,h,NA,h,463,NA,10762,11979,NA,463,2,legacy,1024,2,48000,-16,experiment,SSHSS,3,odd,224320,12645,167850,NA,178807,1873,203079,NA,225417,1882,155871,NA,225519,225983,225414,225519,Flanker task SL,111,54874,113,yes,1024
98.24561404,98.24561404,485.0350877,485.0350877,black,legacy,legacy,legacy,0,congruent,uniform,1,undefined,1,s,113,0,0,0,113,0,113,0,113,0,0,0,113,113,113,113,9/26/19 17:39,600,The main experiment item,yes,FlankertaskSL.osexp,C:/Users/Sarah Linan/Desktop,no,mono,no,18,no,white,no,yes,768,legacy,33,79,C:/Users/Sarah Linan/Desktop/SL-subject-3.csv,legacy,Kafkaesque Koffka,3.2.8,0,s,NA,h,h,NA,s,420,NA,10762,11979,NA,420,2,legacy,1024,2,48000,-16,experiment,SSSSS,3,odd,226073,12645,167850,NA,178807,1873,203079,NA,227171,1882,155871,NA,227273,227694,227168,227273,Flanker task SL,112,55294,114,yes,1024
98.26086957,98.26086957,485.5826087,485.5826087,black,legacy,legacy,legacy,0,congruent,uniform,1,undefined,1,h,114,0,0,0,114,0,114,0,114,0,0,0,114,114,114,114,9/26/19 17:39,600,The main experiment item,yes,FlankertaskSL.osexp,C:/Users/Sarah Linan/Desktop,no,mono,no,18,no,white,no,yes,768,legacy,34,79,C:/Users/Sarah Linan/Desktop/SL-subject-3.csv,legacy,Kafkaesque Koffka,3.2.8,0,h,NA,h,h,NA,h,548,NA,10762,11979,NA,548,2,legacy,1024,2,48000,-16,experiment,HHHHH,3,odd,227782,12645,167850,NA,178807,1873,203079,NA,228887,1882,155871,NA,228991,229540,228884,228990,Flanker task SL,113,55842,115,yes,1024
98.27586207,98.27586207,484.9482759,484.9482759,black,legacy,legacy,legacy,0,congruent,uniform,1,undefined,1,h,115,0,0,0,115,0,115,0,115,0,0,0,115,115,115,115,9/26/19 17:39,600,The main experiment item,yes,FlankertaskSL.osexp,C:/Users/Sarah Linan/Desktop,no,mono,no,18,no,white,no,yes,768,legacy,35,79,C:/Users/Sarah Linan/Desktop/SL-subject-3.csv,legacy,Kafkaesque Koffka,3.2.8,0,h,NA,h,h,NA,h,412,NA,10762,11979,NA,412,2,legacy,1024,2,48000,-16,experiment,HHHHH,3,odd,229632,12645,167850,NA,178807,1873,203079,NA,230725,1882,155871,NA,230828,231242,230722,230828,Flanker task SL,114,56254,116,yes,1024
98.29059829,98.29059829,484.2564103,484.2564103,black,legacy,legacy,legacy,0,congruent,uniform,1,undefined,1,h,116,0,0,0,116,0,116,0,116,0,0,0,116,116,116,116,9/26/19 17:39,600,The main experiment item,yes,FlankertaskSL.osexp,C:/Users/Sarah Linan/Desktop,no,mono,no,18,no,white,no,yes,768,legacy,36,79,C:/Users/Sarah Linan/Desktop/SL-subject-3.csv,legacy,Kafkaesque Koffka,3.2.8,0,h,NA,h,h,NA,h,404,NA,10762,11979,NA,404,2,legacy,1024,2,48000,-16,experiment,HHHHH,3,odd,231275,12645,167850,NA,178807,1873,203079,NA,232386,1882,155871,NA,232487,232893,232383,232487,Flanker task SL,115,56658,117,yes,1024
98.30508475,98.30508475,485.1355932,485.1355932,black,legacy,legacy,legacy,0,congruent,uniform,1,undefined,1,s,117,0,0,0,117,0,117,0,117,0,0,0,117,117,117,117,9/26/19 17:39,600,The main experiment item,yes,FlankertaskSL.osexp,C:/Users/Sarah Linan/Desktop,no,mono,no,18,no,white,no,yes,768,legacy,37,79,C:/Users/Sarah Linan/Desktop/SL-subject-3.csv,legacy,Kafkaesque Koffka,3.2.8,0,s,NA,h,h,NA,s,588,NA,10762,11979,NA,588,2,legacy,1024,2,48000,-16,experiment,SSSSS,3,odd,232985,12645,167850,NA,178807,1873,203079,NA,234082,1882,155871,NA,234184,234774,234079,234184,Flanker task SL,116,57246,118,yes,1024
98.31932773,98.31932773,485.7226891,485.7226891,black,legacy,legacy,legacy,0,incongruent ,uniform,1,undefined,1,s,118,0,0,0,118,0,118,0,118,0,0,0,118,118,118,118,9/26/19 17:39,600,The main experiment item,yes,FlankertaskSL.osexp,C:/Users/Sarah Linan/Desktop,no,mono,no,18,no,white,no,yes,768,legacy,38,79,C:/Users/Sarah Linan/Desktop/SL-subject-3.csv,legacy,Kafkaesque Koffka,3.2.8,0,s,NA,h,h,NA,s,555,NA,10762,11979,NA,555,2,legacy,1024,2,48000,-16,experiment,HHSHH,3,odd,234861,12645,167850,NA,178807,1873,203079,NA,235969,1882,155871,NA,236071,236627,235965,236071,Flanker task SL,117,57801,119,yes,1024
98.33333333,98.33333333,484.9166667,484.9166667,black,legacy,legacy,legacy,0,congruent,uniform,1,undefined,1,h,119,0,0,0,119,0,119,0,119,0,0,0,119,119,119,119,9/26/19 17:39,600,The main experiment item,yes,FlankertaskSL.osexp,C:/Users/Sarah Linan/Desktop,no,mono,no,18,no,white,no,yes,768,legacy,39,79,C:/Users/Sarah Linan/Desktop/SL-subject-3.csv,legacy,Kafkaesque Koffka,3.2.8,0,h,NA,h,h,NA,h,389,NA,10762,11979,NA,389,2,legacy,1024,2,48000,-16,experiment,HHHHH,3,odd,236713,12645,167850,NA,178807,1873,203079,NA,237813,1882,155871,NA,237915,238306,237810,237915,Flanker task SL,118,58190,120,yes,1024
98.34710744,98.34710744,484.5371901,484.5371901,black,legacy,legacy,legacy,0,incongruent,uniform,1,undefined,1,h,120,0,0,0,120,0,120,0,120,0,0,0,120,120,120,120,9/26/19 17:39,600,The main experiment item,yes,FlankertaskSL.osexp,C:/Users/Sarah Linan/Desktop,no,mono,no,18,no,white,no,yes,768,legacy,40,79,C:/Users/Sarah Linan/Desktop/SL-subject-3.csv,legacy,Kafkaesque Koffka,3.2.8,0,h,NA,h,h,NA,h,439,NA,10762,11979,NA,439,2,legacy,1024,2,48000,-16,experiment,SSHSS,3,odd,238400,12645,167850,NA,178807,1873,203079,NA,239505,1882,155871,NA,239608,240048,239502,239608,Flanker task SL,119,58629,121,yes,1024
98.36065574,98.36065574,483.8606557,483.8606557,black,legacy,legacy,legacy,0,incongruent,uniform,1,undefined,1,h,121,0,0,0,121,0,121,0,121,0,0,0,121,121,121,121,9/26/19 17:39,600,The main experiment item,yes,FlankertaskSL.osexp,C:/Users/Sarah Linan/Desktop,no,mono,no,18,no,white,no,yes,768,legacy,41,79,C:/Users/Sarah Linan/Desktop/SL-subject-3.csv,legacy,Kafkaesque Koffka,3.2.8,0,h,NA,h,h,NA,h,402,NA,10762,11979,NA,402,2,legacy,1024,2,48000,-16,experiment,SSHSS,3,odd,240141,12645,167850,NA,178807,1873,203079,NA,241237,1882,155871,NA,241340,241744,241233,241340,Flanker task SL,120,59031,122,yes,1024
98.37398374,98.37398374,483.9593496,483.9593496,black,legacy,legacy,legacy,0,congruent,uniform,1,undefined,1,s,122,0,0,0,122,0,122,0,122,0,0,0,122,122,122,122,9/26/19 17:39,600,The main experiment item,yes,FlankertaskSL.osexp,C:/Users/Sarah Linan/Desktop,no,mono,no,18,no,white,no,yes,768,legacy,42,79,C:/Users/Sarah Linan/Desktop/SL-subject-3.csv,legacy,Kafkaesque Koffka,3.2.8,0,s,NA,h,h,NA,s,496,NA,10762,11979,NA,496,2,legacy,1024,2,48000,-16,experiment,SSSSS,3,odd,241840,12645,167850,NA,178807,1873,203079,NA,242937,1882,155871,NA,243038,243535,242935,243038,Flanker task SL,121,59527,123,yes,1024
98.38709677,98.38709677,483.4193548,483.4193548,black,legacy,legacy,legacy,0,congruent,uniform,1,undefined,1,s,123,0,0,0,123,0,123,0,123,0,0,0,123,123,123,123,9/26/19 17:39,600,The main experiment item,yes,FlankertaskSL.osexp,C:/Users/Sarah Linan/Desktop,no,mono,no,18,no,white,no,yes,768,legacy,43,79,C:/Users/Sarah Linan/Desktop/SL-subject-3.csv,legacy,Kafkaesque Koffka,3.2.8,0,s,NA,h,h,NA,s,417,NA,10762,11979,NA,417,2,legacy,1024,2,48000,-16,experiment,SSSSS,3,odd,243625,12645,167850,NA,178807,1873,203079,NA,244724,1882,155871,NA,244828,245247,244721,244828,Flanker task SL,122,59944,124,yes,1024
98.4,98.4,482.512,482.512,black,legacy,legacy,legacy,0,congruent,uniform,1,undefined,1,s,124,0,0,0,124,0,124,0,124,0,0,0,124,124,124,124,9/26/19 17:39,600,The main experiment item,yes,FlankertaskSL.osexp,C:/Users/Sarah Linan/Desktop,no,mono,no,18,no,white,no,yes,768,legacy,44,79,C:/Users/Sarah Linan/Desktop/SL-subject-3.csv,legacy,Kafkaesque Koffka,3.2.8,0,s,NA,h,h,NA,s,370,NA,10762,11979,NA,370,2,legacy,1024,2,48000,-16,experiment,SSSSS,3,odd,245335,12645,167850,NA,178807,1873,203079,NA,246448,1882,155871,NA,246550,246922,246445,246550,Flanker task SL,123,60314,125,yes,1024
98.41269841,98.41269841,481.8809524,481.8809524,black,legacy,legacy,legacy,0,congruent,uniform,1,undefined,1,h,125,0,0,0,125,0,125,0,125,0,0,0,125,125,125,125,9/26/19 17:39,600,The main experiment item,yes,FlankertaskSL.osexp,C:/Users/Sarah Linan/Desktop,no,mono,no,18,no,white,no,yes,768,legacy,45,79,C:/Users/Sarah Linan/Desktop/SL-subject-3.csv,legacy,Kafkaesque Koffka,3.2.8,0,h,NA,h,h,NA,h,403,NA,10762,11979,NA,403,2,legacy,1024,2,48000,-16,experiment,HHHHH,3,odd,247010,12645,167850,NA,178807,1873,203079,NA,248110,1882,155871,NA,248213,248618,248107,248212,Flanker task SL,124,60717,126,yes,1024
98.42519685,98.42519685,481.1259843,481.1259843,black,legacy,legacy,legacy,0,incongruent,uniform,1,undefined,1,h,126,0,0,0,126,0,126,0,126,0,0,0,126,126,126,126,9/26/19 17:39,600,The main experiment item,yes,FlankertaskSL.osexp,C:/Users/Sarah Linan/Desktop,no,mono,no,18,no,white,no,yes,768,legacy,46,79,C:/Users/Sarah Linan/Desktop/SL-subject-3.csv,legacy,Kafkaesque Koffka,3.2.8,0,h,NA,h,h,NA,h,386,NA,10762,11979,NA,386,2,legacy,1024,2,48000,-16,experiment,SSHSS,3,odd,248708,12645,167850,NA,178807,1873,203079,NA,249816,1882,155871,NA,249918,250306,249812,249918,Flanker task SL,125,61103,127,yes,1024
98.4375,98.4375,480.3046875,480.3046875,black,legacy,legacy,legacy,0,incongruent,uniform,1,undefined,1,h,127,0,0,0,127,0,127,0,127,0,0,0,127,127,127,127,9/26/19 17:39,600,The main experiment item,yes,FlankertaskSL.osexp,C:/Users/Sarah Linan/Desktop,no,mono,no,18,no,white,no,yes,768,legacy,47,79,C:/Users/Sarah Linan/Desktop/SL-subject-3.csv,legacy,Kafkaesque Koffka,3.2.8,0,h,NA,h,h,NA,h,376,NA,10762,11979,NA,376,2,legacy,1024,2,48000,-16,experiment,SSHSS,3,odd,250394,12645,167850,NA,178807,1873,203079,NA,251489,1882,155871,NA,251591,251968,251486,251591,Flanker task SL,126,61479,128,yes,1024
98.4496124,98.4496124,479.5271318,479.5271318,black,legacy,legacy,legacy,0,congruent,uniform,1,undefined,1,h,128,0,0,0,128,0,128,0,128,0,0,0,128,128,128,128,9/26/19 17:39,600,The main experiment item,yes,FlankertaskSL.osexp,C:/Users/Sarah Linan/Desktop,no,mono,no,18,no,white,no,yes,768,legacy,48,79,C:/Users/Sarah Linan/Desktop/SL-subject-3.csv,legacy,Kafkaesque Koffka,3.2.8,0,h,NA,h,h,NA,h,380,NA,10762,11979,NA,380,2,legacy,1024,2,48000,-16,experiment,HHHHH,3,odd,252058,12645,167850,NA,178807,1873,203079,NA,253157,1882,155871,NA,253260,253642,253154,253260,Flanker task SL,127,61859,129,yes,1024
98.46153846,98.46153846,478.7461538,478.7461538,black,legacy,legacy,legacy,0,incongruent ,uniform,1,undefined,1,s,129,0,0,0,129,0,129,0,129,0,0,0,129,129,129,129,9/26/19 17:39,600,The main experiment item,yes,FlankertaskSL.osexp,C:/Users/Sarah Linan/Desktop,no,mono,no,18,no,white,no,yes,768,legacy,49,79,C:/Users/Sarah Linan/Desktop/SL-subject-3.csv,legacy,Kafkaesque Koffka,3.2.8,0,s,NA,h,h,NA,s,378,NA,10762,11979,NA,378,2,legacy,1024,2,48000,-16,experiment,HHSHH,3,odd,253733,12645,167850,NA,178807,1873,203079,NA,254824,1882,155871,NA,254927,255307,254821,254927,Flanker task SL,128,62237,130,yes,1024
98.47328244,98.47328244,478.4656489,478.4656489,black,legacy,legacy,legacy,0,incongruent,uniform,1,undefined,1,h,130,0,0,0,130,0,130,0,130,0,0,0,130,130,130,130,9/26/19 17:39,600,The main experiment item,yes,FlankertaskSL.osexp,C:/Users/Sarah Linan/Desktop,no,mono,no,18,no,white,no,yes,768,legacy,50,79,C:/Users/Sarah Linan/Desktop/SL-subject-3.csv,legacy,Kafkaesque Koffka,3.2.8,0,h,NA,h,h,NA,h,442,NA,10762,11979,NA,442,2,legacy,1024,2,48000,-16,experiment,SSHSS,3,odd,255398,12645,167850,NA,178807,1873,203079,NA,256493,1882,155871,NA,256596,257040,256490,256596,Flanker task SL,129,62679,131,yes,1024
98.48484848,98.48484848,479.7575758,479.7575758,black,legacy,legacy,legacy,0,incongruent ,uniform,1,undefined,1,s,131,0,0,0,131,0,131,0,131,0,0,0,131,131,131,131,9/26/19 17:39,600,The main experiment item,yes,FlankertaskSL.osexp,C:/Users/Sarah Linan/Desktop,no,mono,no,18,no,white,no,yes,768,legacy,51,79,C:/Users/Sarah Linan/Desktop/SL-subject-3.csv,legacy,Kafkaesque Koffka,3.2.8,0,s,NA,h,h,NA,s,649,NA,10762,11979,NA,649,2,legacy,1024,2,48000,-16,experiment,HHSHH,3,odd,257128,12645,167850,NA,178807,1873,203079,NA,258229,1882,155871,NA,258331,258982,258227,258331,Flanker task SL,130,63328,132,yes,1024
98.4962406,98.4962406,479.481203,479.481203,black,legacy,legacy,legacy,0,congruent,uniform,1,undefined,1,h,132,0,0,0,132,0,132,0,132,0,0,0,132,132,132,132,9/26/19 17:39,600,The main experiment item,yes,FlankertaskSL.osexp,C:/Users/Sarah Linan/Desktop,no,mono,no,18,no,white,no,yes,768,legacy,52,79,C:/Users/Sarah Linan/Desktop/SL-subject-3.csv,legacy,Kafkaesque Koffka,3.2.8,0,h,NA,h,h,NA,h,443,NA,10762,11979,NA,443,2,legacy,1024,2,48000,-16,experiment,HHHHH,3,odd,259573,12645,167850,NA,178807,1873,259070,NA,260678,1882,155871,NA,260782,261227,260675,260782,Flanker task SL,131,63771,133,yes,1024
98.50746269,98.50746269,479.7164179,479.7164179,black,legacy,legacy,legacy,0,incongruent,uniform,1,undefined,1,h,133,0,0,0,133,0,133,0,133,0,0,0,133,133,133,133,9/26/19 17:39,600,The main experiment item,yes,FlankertaskSL.osexp,C:/Users/Sarah Linan/Desktop,no,mono,no,18,no,white,no,yes,768,legacy,53,79,C:/Users/Sarah Linan/Desktop/SL-subject-3.csv,legacy,Kafkaesque Koffka,3.2.8,0,h,NA,h,h,NA,h,511,NA,10762,11979,NA,511,2,legacy,1024,2,48000,-16,experiment,SSHSS,3,odd,261323,12645,167850,NA,178807,1873,259070,NA,262416,1882,155871,NA,262518,263032,262414,262518,Flanker task SL,132,64282,134,yes,1024
98.51851852,98.51851852,479.8814815,479.8814815,black,legacy,legacy,legacy,0,incongruent ,uniform,1,undefined,1,s,134,0,0,0,134,0,134,0,134,0,0,0,134,134,134,134,9/26/19 17:39,600,The main experiment item,yes,FlankertaskSL.osexp,C:/Users/Sarah Linan/Desktop,no,mono,no,18,no,white,no,yes,768,legacy,54,79,C:/Users/Sarah Linan/Desktop/SL-subject-3.csv,legacy,Kafkaesque Koffka,3.2.8,0,s,NA,h,h,NA,s,502,NA,10762,11979,NA,502,2,legacy,1024,2,48000,-16,experiment,HHSHH,3,odd,263120,12645,167850,NA,178807,1873,259070,NA,264216,1882,155871,NA,264320,264826,264213,264320,Flanker task SL,133,64784,135,yes,1024
98.52941176,98.52941176,480.0882353,480.0882353,black,legacy,legacy,legacy,0,incongruent,uniform,1,undefined,1,h,135,0,0,0,135,0,135,0,135,0,0,0,135,135,135,135,9/26/19 17:39,600,The main experiment item,yes,FlankertaskSL.osexp,C:/Users/Sarah Linan/Desktop,no,mono,no,18,no,white,no,yes,768,legacy,55,79,C:/Users/Sarah Linan/Desktop/SL-subject-3.csv,legacy,Kafkaesque Koffka,3.2.8,0,h,NA,h,h,NA,h,508,NA,10762,11979,NA,508,2,legacy,1024,2,48000,-16,experiment,SSHSS,3,odd,264918,12645,167850,NA,178807,1873,259070,NA,266024,1882,155871,NA,266127,266637,266021,266127,Flanker task SL,134,65292,136,yes,1024
98.54014599,98.54014599,480.0437956,480.0437956,black,legacy,legacy,legacy,0,incongruent,uniform,1,undefined,1,h,136,0,0,0,136,0,136,0,136,0,0,0,136,136,136,136,9/26/19 17:39,600,The main experiment item,yes,FlankertaskSL.osexp,C:/Users/Sarah Linan/Desktop,no,mono,no,18,no,white,no,yes,768,legacy,56,79,C:/Users/Sarah Linan/Desktop/SL-subject-3.csv,legacy,Kafkaesque Koffka,3.2.8,0,h,NA,h,h,NA,h,474,NA,10762,11979,NA,474,2,legacy,1024,2,48000,-16,experiment,SSHSS,3,odd,266726,12645,167850,NA,178807,1873,259070,NA,267829,1882,155871,NA,267932,268407,267826,267932,Flanker task SL,135,65766,137,yes,1024
98.55072464,98.55072464,479.8985507,479.8985507,black,legacy,legacy,legacy,0,incongruent,uniform,1,undefined,1,h,137,0,0,0,137,0,137,0,137,0,0,0,137,137,137,137,9/26/19 17:39,600,The main experiment item,yes,FlankertaskSL.osexp,C:/Users/Sarah Linan/Desktop,no,mono,no,18,no,white,no,yes,768,legacy,57,79,C:/Users/Sarah Linan/Desktop/SL-subject-3.csv,legacy,Kafkaesque Koffka,3.2.8,0,h,NA,h,h,NA,h,460,NA,10762,11979,NA,460,2,legacy,1024,2,48000,-16,experiment,SSHSS,3,odd,268501,12645,167850,NA,178807,1873,259070,NA,269608,1882,155871,NA,269712,270175,269605,269711,Flanker task SL,136,66226,138,yes,1024
98.56115108,98.56115108,479.7625899,479.7625899,black,legacy,legacy,legacy,0,incongruent,uniform,1,undefined,1,h,138,0,0,0,138,0,138,0,138,0,0,0,138,138,138,138,9/26/19 17:39,600,The main experiment item,yes,FlankertaskSL.osexp,C:/Users/Sarah Linan/Desktop,no,mono,no,18,no,white,no,yes,768,legacy,58,79,C:/Users/Sarah Linan/Desktop/SL-subject-3.csv,legacy,Kafkaesque Koffka,3.2.8,0,h,NA,h,h,NA,h,461,NA,10762,11979,NA,461,2,legacy,1024,2,48000,-16,experiment,SSHSS,3,odd,270265,12645,167850,NA,178807,1873,259070,NA,271373,1882,155871,NA,271475,271938,271370,271475,Flanker task SL,137,66687,139,yes,1024
98.57142857,98.57142857,479.4642857,479.4642857,black,legacy,legacy,legacy,0,incongruent,uniform,1,undefined,1,h,139,0,0,0,139,0,139,0,139,0,0,0,139,139,139,139,9/26/19 17:39,600,The main experiment item,yes,FlankertaskSL.osexp,C:/Users/Sarah Linan/Desktop,no,mono,no,18,no,white,no,yes,768,legacy,59,79,C:/Users/Sarah Linan/Desktop/SL-subject-3.csv,legacy,Kafkaesque Koffka,3.2.8,0,h,NA,h,h,NA,h,438,NA,10762,11979,NA,438,2,legacy,1024,2,48000,-16,experiment,SSHSS,3,odd,272029,12645,167850,NA,178807,1873,259070,NA,273128,1882,155871,NA,273230,273669,273125,273230,Flanker task SL,138,67125,140,yes,1024
98.58156028,98.58156028,478.8156028,478.8156028,black,legacy,legacy,legacy,0,congruent,uniform,1,undefined,1,h,140,0,0,0,140,0,140,0,140,0,0,0,140,140,140,140,9/26/19 17:39,600,The main experiment item,yes,FlankertaskSL.osexp,C:/Users/Sarah Linan/Desktop,no,mono,no,18,no,white,no,yes,768,legacy,60,79,C:/Users/Sarah Linan/Desktop/SL-subject-3.csv,legacy,Kafkaesque Koffka,3.2.8,0,h,NA,h,h,NA,h,388,NA,10762,11979,NA,388,2,legacy,1024,2,48000,-16,experiment,HHHHH,3,odd,273760,12645,167850,NA,178807,1873,259070,NA,274866,1882,155871,NA,274968,275358,274863,274968,Flanker task SL,139,67513,141,yes,1024
98.5915493,98.5915493,478.0140845,478.0140845,black,legacy,legacy,legacy,0,congruent,uniform,1,undefined,1,h,141,0,0,0,141,0,141,0,141,0,0,0,141,141,141,141,9/26/19 17:39,600,The main experiment item,yes,FlankertaskSL.osexp,C:/Users/Sarah Linan/Desktop,no,mono,no,18,no,white,no,yes,768,legacy,61,79,C:/Users/Sarah Linan/Desktop/SL-subject-3.csv,legacy,Kafkaesque Koffka,3.2.8,0,h,NA,h,h,NA,h,365,NA,10762,11979,NA,365,2,legacy,1024,2,48000,-16,experiment,HHHHH,3,odd,275448,12645,167850,NA,178807,1873,259070,NA,276551,1882,155871,NA,276654,277021,276548,276654,Flanker task SL,140,67878,142,yes,1024
98.6013986,98.6013986,477.0559441,477.0559441,black,legacy,legacy,legacy,0,congruent,uniform,1,undefined,1,s,142,0,0,0,142,0,142,0,142,0,0,0,142,142,142,142,9/26/19 17:39,600,The main experiment item,yes,FlankertaskSL.osexp,C:/Users/Sarah Linan/Desktop,no,mono,no,18,no,white,no,yes,768,legacy,62,79,C:/Users/Sarah Linan/Desktop/SL-subject-3.csv,legacy,Kafkaesque Koffka,3.2.8,0,s,NA,h,h,NA,s,341,NA,10762,11979,NA,341,2,legacy,1024,2,48000,-16,experiment,SSSSS,3,odd,277111,12645,167850,NA,178807,1873,259070,NA,278209,1882,155871,NA,278311,278655,278206,278311,Flanker task SL,141,68219,143,yes,1024
98.61111111,98.61111111,476.5069444,476.5069444,black,legacy,legacy,legacy,0,congruent,uniform,1,undefined,1,h,143,0,0,0,143,0,143,0,143,0,0,0,143,143,143,143,9/26/19 17:39,600,The main experiment item,yes,FlankertaskSL.osexp,C:/Users/Sarah Linan/Desktop,no,mono,no,18,no,white,no,yes,768,legacy,63,79,C:/Users/Sarah Linan/Desktop/SL-subject-3.csv,legacy,Kafkaesque Koffka,3.2.8,0,h,NA,h,h,NA,h,398,NA,10762,11979,NA,398,2,legacy,1024,2,48000,-16,experiment,HHHHH,3,odd,278742,12645,167850,NA,178807,1873,259070,NA,279843,1882,155871,NA,279946,280346,279840,279946,Flanker task SL,142,68617,144,yes,1024
98.62068966,98.62068966,476.0689655,476.0689655,black,legacy,legacy,legacy,0,congruent,uniform,1,undefined,1,h,144,0,0,0,144,0,144,0,144,0,0,0,144,144,144,144,9/26/19 17:39,600,The main experiment item,yes,FlankertaskSL.osexp,C:/Users/Sarah Linan/Desktop,no,mono,no,18,no,white,no,yes,768,legacy,64,79,C:/Users/Sarah Linan/Desktop/SL-subject-3.csv,legacy,Kafkaesque Koffka,3.2.8,0,h,NA,h,h,NA,h,413,NA,10762,11979,NA,413,2,legacy,1024,2,48000,-16,experiment,HHHHH,3,odd,280395,12645,167850,NA,178807,1873,259070,NA,281489,1882,155871,NA,281592,282008,281486,281592,Flanker task SL,143,69030,145,yes,1024
98.63013699,98.63013699,476.260274,476.260274,black,legacy,legacy,legacy,0,incongruent ,uniform,1,undefined,1,s,145,0,0,0,145,0,145,0,145,0,0,0,145,145,145,145,9/26/19 17:39,600,The main experiment item,yes,FlankertaskSL.osexp,C:/Users/Sarah Linan/Desktop,no,mono,no,18,no,white,no,yes,768,legacy,65,79,C:/Users/Sarah Linan/Desktop/SL-subject-3.csv,legacy,Kafkaesque Koffka,3.2.8,0,s,NA,h,h,NA,s,504,NA,10762,11979,NA,504,2,legacy,1024,2,48000,-16,experiment,HHSHH,3,odd,282053,12645,167850,NA,178807,1873,259070,NA,283146,1882,155871,NA,283248,283754,283143,283248,Flanker task SL,144,69534,146,yes,1024
98.63945578,98.63945578,476.5646259,476.5646259,black,legacy,legacy,legacy,0,congruent,uniform,1,undefined,1,h,146,0,0,0,146,0,146,0,146,0,0,0,146,146,146,146,9/26/19 17:39,600,The main experiment item,yes,FlankertaskSL.osexp,C:/Users/Sarah Linan/Desktop,no,mono,no,18,no,white,no,yes,768,legacy,66,79,C:/Users/Sarah Linan/Desktop/SL-subject-3.csv,legacy,Kafkaesque Koffka,3.2.8,0,h,NA,h,h,NA,h,521,NA,10762,11979,NA,521,2,legacy,1024,2,48000,-16,experiment,HHHHH,3,odd,283846,12645,167850,NA,178807,1873,259070,NA,284953,1882,155871,NA,285056,285579,284950,285055,Flanker task SL,145,70055,147,yes,1024
98.64864865,98.64864865,476.6554054,476.6554054,black,legacy,legacy,legacy,0,incongruent,uniform,1,undefined,1,h,147,0,0,0,147,0,147,0,147,0,0,0,147,147,147,147,9/26/19 17:39,600,The main experiment item,yes,FlankertaskSL.osexp,C:/Users/Sarah Linan/Desktop,no,mono,no,18,no,white,no,yes,768,legacy,67,79,C:/Users/Sarah Linan/Desktop/SL-subject-3.csv,legacy,Kafkaesque Koffka,3.2.8,0,h,NA,h,h,NA,h,490,NA,10762,11979,NA,490,2,legacy,1024,2,48000,-16,experiment,SSHSS,3,odd,285665,12645,167850,NA,178807,1873,259070,NA,286762,1882,155871,NA,286864,287356,286759,286864,Flanker task SL,146,70545,148,yes,1024
98.65771812,98.65771812,475.9127517,475.9127517,black,legacy,legacy,legacy,0,incongruent,uniform,1,undefined,1,h,148,0,0,0,148,0,148,0,148,0,0,0,148,148,148,148,9/26/19 17:39,600,The main experiment item,yes,FlankertaskSL.osexp,C:/Users/Sarah Linan/Desktop,no,mono,no,18,no,white,no,yes,768,legacy,68,79,C:/Users/Sarah Linan/Desktop/SL-subject-3.csv,legacy,Kafkaesque Koffka,3.2.8,0,h,NA,h,h,NA,h,366,NA,10762,11979,NA,366,2,legacy,1024,2,48000,-16,experiment,SSHSS,3,odd,287441,12645,167850,NA,178807,1873,259070,NA,288538,1882,155871,NA,288640,289008,288534,288640,Flanker task SL,147,70911,149,yes,1024
98.66666667,98.66666667,475.2933333,475.2933333,black,legacy,legacy,legacy,0,congruent,uniform,1,undefined,1,h,149,0,0,0,149,0,149,0,149,0,0,0,149,149,149,149,9/26/19 17:39,600,The main experiment item,yes,FlankertaskSL.osexp,C:/Users/Sarah Linan/Desktop,no,mono,no,18,no,white,no,yes,768,legacy,69,79,C:/Users/Sarah Linan/Desktop/SL-subject-3.csv,legacy,Kafkaesque Koffka,3.2.8,0,h,NA,h,h,NA,h,383,NA,10762,11979,NA,383,2,legacy,1024,2,48000,-16,experiment,HHHHH,3,odd,289094,12645,167850,NA,178807,1873,259070,NA,290199,1882,155871,NA,290302,290686,290196,290302,Flanker task SL,148,71294,150,yes,1024
98.67549669,98.67549669,474.8675497,474.8675497,black,legacy,legacy,legacy,0,incongruent ,uniform,1,undefined,1,s,150,0,0,0,150,0,150,0,150,0,0,0,150,150,150,150,9/26/19 17:39,600,The main experiment item,yes,FlankertaskSL.osexp,C:/Users/Sarah Linan/Desktop,no,mono,no,18,no,white,no,yes,768,legacy,70,79,C:/Users/Sarah Linan/Desktop/SL-subject-3.csv,legacy,Kafkaesque Koffka,3.2.8,0,s,NA,h,h,NA,s,411,NA,10762,11979,NA,411,2,legacy,1024,2,48000,-16,experiment,HHSHH,3,odd,290780,12645,167850,NA,178807,1873,259070,NA,291881,1882,155871,NA,291984,292397,291877,291983,Flanker task SL,149,71705,151,yes,1024
98.68421053,98.68421053,474.6644737,474.6644737,black,legacy,legacy,legacy,0,incongruent ,uniform,1,undefined,1,s,151,0,0,0,151,0,151,0,151,0,0,0,151,151,151,151,9/26/19 17:39,600,The main experiment item,yes,FlankertaskSL.osexp,C:/Users/Sarah Linan/Desktop,no,mono,no,18,no,white,no,yes,768,legacy,71,79,C:/Users/Sarah Linan/Desktop/SL-subject-3.csv,legacy,Kafkaesque Koffka,3.2.8,0,s,NA,h,h,NA,s,444,NA,10762,11979,NA,444,2,legacy,1024,2,48000,-16,experiment,HHSHH,3,odd,292490,12645,167850,NA,178807,1873,259070,NA,293589,1882,155871,NA,293691,294136,293586,293691,Flanker task SL,150,72149,152,yes,1024
98.69281046,98.69281046,474.7908497,474.7908497,black,legacy,legacy,legacy,0,incongruent ,uniform,1,undefined,1,s,152,0,0,0,152,0,152,0,152,0,0,0,152,152,152,152,9/26/19 17:39,600,The main experiment item,yes,FlankertaskSL.osexp,C:/Users/Sarah Linan/Desktop,no,mono,no,18,no,white,no,yes,768,legacy,72,79,C:/Users/Sarah Linan/Desktop/SL-subject-3.csv,legacy,Kafkaesque Koffka,3.2.8,0,s,NA,h,h,NA,s,494,NA,10762,11979,NA,494,2,legacy,1024,2,48000,-16,experiment,HHSHH,3,odd,294231,12645,167850,NA,178807,1873,259070,NA,295332,1882,155871,NA,295435,295931,295329,295434,Flanker task SL,151,72643,153,yes,1024
98.7012987,98.7012987,474.7727273,474.7727273,black,legacy,legacy,legacy,0,congruent,uniform,1,undefined,1,h,153,0,0,0,153,0,153,0,153,0,0,0,153,153,153,153,9/26/19 17:39,600,The main experiment item,yes,FlankertaskSL.osexp,C:/Users/Sarah Linan/Desktop,no,mono,no,18,no,white,no,yes,768,legacy,73,79,C:/Users/Sarah Linan/Desktop/SL-subject-3.csv,legacy,Kafkaesque Koffka,3.2.8,0,h,NA,h,h,NA,h,472,NA,10762,11979,NA,472,2,legacy,1024,2,48000,-16,experiment,HHHHH,3,odd,296017,12645,167850,NA,178807,1873,259070,NA,297122,1882,155871,NA,297224,297698,297118,297224,Flanker task SL,152,73115,154,yes,1024
98.70967742,98.70967742,473.9806452,473.9806452,black,legacy,legacy,legacy,0,congruent,uniform,1,undefined,1,s,154,0,0,0,154,0,154,0,154,0,0,0,154,154,154,154,9/26/19 17:39,600,The main experiment item,yes,FlankertaskSL.osexp,C:/Users/Sarah Linan/Desktop,no,mono,no,18,no,white,no,yes,768,legacy,74,79,C:/Users/Sarah Linan/Desktop/SL-subject-3.csv,legacy,Kafkaesque Koffka,3.2.8,0,s,NA,h,h,NA,s,352,NA,10762,11979,NA,352,2,legacy,1024,2,48000,-16,experiment,SSSSS,3,odd,297724,12645,167850,NA,178807,1873,259070,NA,298836,1882,155871,NA,298938,299292,298833,298938,Flanker task SL,153,73467,155,yes,1024
98.71794872,98.71794872,473.6794872,473.6794872,black,legacy,legacy,legacy,0,congruent,uniform,1,undefined,1,h,155,0,0,0,155,0,155,0,155,0,0,0,155,155,155,155,9/26/19 17:39,600,The main experiment item,yes,FlankertaskSL.osexp,C:/Users/Sarah Linan/Desktop,no,mono,no,18,no,white,no,yes,768,legacy,75,79,C:/Users/Sarah Linan/Desktop/SL-subject-3.csv,legacy,Kafkaesque Koffka,3.2.8,0,h,NA,h,h,NA,h,427,NA,10762,11979,NA,427,2,legacy,1024,2,48000,-16,experiment,HHHHH,3,odd,299378,12645,167850,NA,178807,1873,259070,NA,300472,1882,155871,NA,300574,301003,300469,300574,Flanker task SL,154,73894,156,yes,1024
98.72611465,98.72611465,474.1146497,474.1146497,black,legacy,legacy,legacy,0,congruent,uniform,1,undefined,1,s,156,0,0,0,156,0,156,0,156,0,0,0,156,156,156,156,9/26/19 17:39,600,The main experiment item,yes,FlankertaskSL.osexp,C:/Users/Sarah Linan/Desktop,no,mono,no,18,no,white,no,yes,768,legacy,76,79,C:/Users/Sarah Linan/Desktop/SL-subject-3.csv,legacy,Kafkaesque Koffka,3.2.8,0,s,NA,h,h,NA,s,542,NA,10762,11979,NA,542,2,legacy,1024,2,48000,-16,experiment,SSSSS,3,odd,301099,12645,167850,NA,178807,1873,259070,NA,302206,1882,155871,NA,302308,302852,302203,302308,Flanker task SL,155,74436,157,yes,1024
98.73417722,98.73417722,473.7721519,473.7721519,black,legacy,legacy,legacy,0,congruent,uniform,1,undefined,1,s,157,0,0,0,157,0,157,0,157,0,0,0,157,157,157,157,9/26/19 17:39,600,The main experiment item,yes,FlankertaskSL.osexp,C:/Users/Sarah Linan/Desktop,no,mono,no,18,no,white,no,yes,768,legacy,77,79,C:/Users/Sarah Linan/Desktop/SL-subject-3.csv,legacy,Kafkaesque Koffka,3.2.8,0,s,NA,h,h,NA,s,420,NA,10762,11979,NA,420,2,legacy,1024,2,48000,-16,experiment,SSSSS,3,odd,302941,12645,167850,NA,178807,1873,259070,NA,304044,1882,155871,NA,304146,304568,304041,304146,Flanker task SL,156,74856,158,yes,1024
98.74213836,98.74213836,473.1761006,473.1761006,black,legacy,legacy,legacy,0,congruent,uniform,1,undefined,1,h,158,0,0,0,158,0,158,0,158,0,0,0,158,158,158,158,9/26/19 17:39,600,The main experiment item,yes,FlankertaskSL.osexp,C:/Users/Sarah Linan/Desktop,no,mono,no,18,no,white,no,yes,768,legacy,78,79,C:/Users/Sarah Linan/Desktop/SL-subject-3.csv,legacy,Kafkaesque Koffka,3.2.8,0,h,NA,h,h,NA,h,379,NA,10762,11979,NA,379,2,legacy,1024,2,48000,-16,experiment,HHHHH,3,odd,304604,12645,167850,NA,178807,1873,259070,NA,305705,1882,155871,NA,305807,306187,305702,305807,Flanker task SL,157,75235,159,yes,1024
98.75,98.75,473.64375,473.64375,black,legacy,legacy,legacy,0,incongruent ,uniform,1,undefined,1,s,159,0,0,0,159,0,159,0,159,0,0,0,159,159,159,159,9/26/19 17:39,600,The main experiment item,yes,FlankertaskSL.osexp,C:/Users/Sarah Linan/Desktop,no,mono,no,18,no,white,no,yes,768,legacy,79,79,C:/Users/Sarah Linan/Desktop/SL-subject-3.csv,legacy,Kafkaesque Koffka,3.2.8,0,s,NA,h,h,NA,s,548,NA,10762,11979,NA,548,2,legacy,1024,2,48000,-16,experiment,HHSHH,3,odd,306281,12645,167850,NA,178807,1873,259070,NA,307373,1882,155871,NA,307475,308024,307370,307475,Flanker task SL,158,75783,160,yes,1024
98.13664596,98.13664596,473.6024845,473.6024845,black,legacy,legacy,legacy,0,incongruent ,uniform,0,undefined,0,s,160,0,0,0,160,0,160,0,160,0,0,0,160,160,160,160,9/26/19 17:39,300,The main experiment item,yes,FlankertaskSL.osexp,C:/Users/Sarah Linan/Desktop,no,mono,no,18,no,white,no,yes,768,legacy,0,79,C:/Users/Sarah Linan/Desktop/SL-subject-3.csv,legacy,Kafkaesque Koffka,3.2.8,0,h,NA,h,h,h,h,467,NA,10762,11979,10517,467,2,legacy,1024,2,48000,-16,experiment,HHSHH,3,odd,308110,12645,167850,319654,178807,1873,259070,NA,319739,1882,155871,309135,319842,320311,319736,319842,Flanker task SL,158,76250,161,yes,1024
98.14814815,98.14814815,473.3209877,473.3209877,black,legacy,legacy,legacy,0,congruent,uniform,1,undefined,1,s,161,0,0,0,161,0,161,0,161,0,0,0,161,161,161,161,9/26/19 17:39,300,The main experiment item,yes,FlankertaskSL.osexp,C:/Users/Sarah Linan/Desktop,no,mono,no,18,no,white,no,yes,768,legacy,1,79,C:/Users/Sarah Linan/Desktop/SL-subject-3.csv,legacy,Kafkaesque Koffka,3.2.8,0,s,NA,h,h,h,s,428,NA,10762,11979,10517,428,2,legacy,1024,2,48000,-16,experiment,SSSSS,3,odd,321409,12645,167850,319654,320404,1873,320907,NA,322511,1882,155871,309135,322614,323044,322508,322613,Flanker task SL,159,76678,162,yes,1024
97.54601227,97.54601227,472.3742331,472.3742331,black,legacy,legacy,legacy,0,incongruent,uniform,0,undefined,0,h,162,0,0,0,162,0,162,0,162,0,0,0,162,162,162,162,9/26/19 17:39,300,The main experiment item,yes,FlankertaskSL.osexp,C:/Users/Sarah Linan/Desktop,no,mono,no,18,no,white,no,yes,768,legacy,2,79,C:/Users/Sarah Linan/Desktop/SL-subject-3.csv,legacy,Kafkaesque Koffka,3.2.8,0,s,NA,h,h,h,s,319,NA,10762,11979,10517,319,2,legacy,1024,2,48000,-16,experiment,SSHSS,3,odd,323638,12645,167850,319654,320404,1873,323134,NA,324738,1882,155871,309135,324842,325162,324734,324842,Flanker task SL,159,76997,163,yes,1024
97.56097561,97.56097561,472.0426829,472.0426829,black,legacy,legacy,legacy,0,congruent,uniform,1,undefined,1,h,163,0,0,0,163,0,163,0,163,0,0,0,163,163,163,163,9/26/19 17:39,300,The main experiment item,yes,FlankertaskSL.osexp,C:/Users/Sarah Linan/Desktop,no,mono,no,18,no,white,no,yes,768,legacy,3,79,C:/Users/Sarah Linan/Desktop/SL-subject-3.csv,legacy,Kafkaesque Koffka,3.2.8,0,h,NA,h,h,h,h,418,NA,10762,11979,10517,418,2,legacy,1024,2,48000,-16,experiment,HHHHH,3,odd,326247,12645,167850,319654,325242,1873,325746,NA,327345,1882,155871,309135,327450,327870,327342,327450,Flanker task SL,160,77415,164,yes,1024
97.57575758,97.57575758,471.0606061,471.0606061,black,legacy,legacy,legacy,0,congruent,uniform,1,undefined,1,s,164,0,0,0,164,0,164,0,164,0,0,0,164,164,164,164,9/26/19 17:39,300,The main experiment item,yes,FlankertaskSL.osexp,C:/Users/Sarah Linan/Desktop,no,mono,no,18,no,white,no,yes,768,legacy,4,79,C:/Users/Sarah Linan/Desktop/SL-subject-3.csv,legacy,Kafkaesque Koffka,3.2.8,0,s,NA,h,h,h,s,310,NA,10762,11979,10517,310,2,legacy,1024,2,48000,-16,experiment,SSSSS,3,odd,328465,12645,167850,319654,325242,1873,327961,NA,329563,1882,155871,309135,329667,329979,329560,329667,Flanker task SL,161,77725,165,yes,1024
97.59036145,97.59036145,470.8674699,470.8674699,black,legacy,legacy,legacy,0,incongruent,uniform,1,undefined,1,h,165,0,0,0,165,0,165,0,165,0,0,0,165,165,165,165,9/26/19 17:39,300,The main experiment item,yes,FlankertaskSL.osexp,C:/Users/Sarah Linan/Desktop,no,mono,no,18,no,white,no,yes,768,legacy,5,79,C:/Users/Sarah Linan/Desktop/SL-subject-3.csv,legacy,Kafkaesque Koffka,3.2.8,0,h,NA,h,h,h,h,439,NA,10762,11979,10517,439,2,legacy,1024,2,48000,-16,experiment,SSHSS,3,odd,330534,12645,167850,319654,325242,1873,330030,NA,331628,1882,155871,309135,331732,332173,331625,331731,Flanker task SL,162,78164,166,yes,1024
97.60479042,97.60479042,469.6826347,469.6826347,black,legacy,legacy,legacy,0,incongruent ,uniform,1,undefined,1,s,166,0,0,0,166,0,166,0,166,0,0,0,166,166,166,166,9/26/19 17:39,300,The main experiment item,yes,FlankertaskSL.osexp,C:/Users/Sarah Linan/Desktop,no,mono,no,18,no,white,no,yes,768,legacy,6,79,C:/Users/Sarah Linan/Desktop/SL-subject-3.csv,legacy,Kafkaesque Koffka,3.2.8,0,s,NA,h,h,h,s,273,NA,10762,11979,10517,273,2,legacy,1024,2,48000,-16,experiment,HHSHH,3,odd,332769,12645,167850,319654,325242,1873,332266,NA,333870,1882,155871,309135,333974,334249,333867,333973,Flanker task SL,163,78437,167,yes,1024
97.02380952,97.02380952,468.7916667,468.7916667,black,legacy,legacy,legacy,0,incongruent ,uniform,0,undefined,0,s,167,0,0,0,167,0,167,0,167,0,0,0,167,167,167,167,9/26/19 17:39,300,The main experiment item,yes,FlankertaskSL.osexp,C:/Users/Sarah Linan/Desktop,no,mono,no,18,no,white,no,yes,768,legacy,7,79,C:/Users/Sarah Linan/Desktop/SL-subject-3.csv,legacy,Kafkaesque Koffka,3.2.8,0,h,NA,h,h,h,h,320,NA,10762,11979,10517,320,2,legacy,1024,2,48000,-16,experiment,HHSHH,3,odd,334340,12645,167850,319654,325242,1873,332266,NA,335436,1882,155871,309135,335538,335860,335433,335538,Flanker task SL,163,78757,168,yes,1024
