acc,accuracy,average_response_time,avg_rt,background,canvas_backend,clock_backend,color_backend,condition,correct,correct_instructions1,correct_keyboard_response,correct_response,count_ISI,count_block1,count_block2,count_block3,count_errorFeedback,count_experiment,count_faster,count_fixation,count_getting_started,count_instructions1,count_instructions2,count_instructions3,count_keyboard_response,count_logger,count_new_sketchpad,count_sequence,count_stimulus,count_welcome,datetime,deadline,description,disable_garbage_collection,experiment_file,experiment_path,font_bold,font_family,font_italic,font_size,font_underline,foreground,form_clicks,fullscreen,height,keyboard_backend,live_row,live_row_block1,logfile,mouse_backend,opensesame_codename,opensesame_version,repeat_cycle,response,response_instructions1,response_instructions2,response_instructions3,response_keyboard_response,response_new_sketchpad,response_time,response_time_instructions1,response_time_instructions2,response_time_instructions3,response_time_keyboard_response,response_time_new_sketchpad,response_time_welcome,response_welcome,round_decimals,sampler_backend,sound_buf_size,sound_channels,sound_freq,sound_sample_size,start,stimulus,subject_nr,subject_parity,time_ISI,time_block1,time_block2,time_block3,time_errorFeedback,time_experiment,time_faster,time_fixation,time_getting_started,time_instructions1,time_instructions2,time_instructions3,time_keyboard_response,time_logger,time_new_sketchpad,time_sequence,time_stimulus,time_welcome,title,total_correct,total_response_time,total_responses,width
100,100,1122,1122,#3d3846,legacy,legacy,legacy,congruent,1,undefined,1,h,0,0,0,0,0,0,0,0,NA,0,0,0,0,0,0,0,0,NA,Sun Sep 24 18:13:10 2023,1500,The main experiment item,FALSE,FlankerTask.osexp,C:\Users\backs\OneDrive\Documents,FALSE,mono,FALSE,18,no,white,no,yes,768,legacy,0,0,C:/Users/backs/OneDrive/Documents/subjectBZ-2.csv,legacy,Melodramatic Milgram,4.0.5,0,h,space,NA,NA,h,NA,1122,19897,NA,NA,1122,NA,NA,NA,2,legacy,1024,2,48000,-16,experiment,HHHHH,2,even,NA,23526,NA,NA,NA,3623,NA,23688,NA,3628,NA,NA,23790,24912,NA,23687,23790,NA,Flanker Task ,1,1122,1,1024
100,100,899,899,#3d3846,legacy,legacy,legacy,congruent,1,undefined,1,s,1,0,0,0,1,0,1,1,NA,0,0,0,1,1,0,1,1,NA,Sun Sep 24 18:13:10 2023,1500,The main experiment item,FALSE,FlankerTask.osexp,C:\Users\backs\OneDrive\Documents,FALSE,mono,FALSE,18,no,white,no,yes,768,legacy,1,1,C:/Users/backs/OneDrive/Documents/subjectBZ-2.csv,legacy,Melodramatic Milgram,4.0.5,0,s,space,NA,NA,s,NA,676,19897,NA,NA,676,NA,NA,NA,2,legacy,1024,2,48000,-16,experiment,SSSSS,2,even,24919,23526,NA,NA,NA,3623,NA,25958,NA,3628,NA,NA,26059,26736,NA,25956,26059,NA,Flanker Task ,2,1798,2,1024
100,100,912,912,#3d3846,legacy,legacy,legacy,incongruent,1,undefined,1,s,2,0,0,0,2,0,2,2,NA,0,0,0,2,2,0,2,2,NA,Sun Sep 24 18:13:10 2023,1500,The main experiment item,FALSE,FlankerTask.osexp,C:\Users\backs\OneDrive\Documents,FALSE,mono,FALSE,18,no,white,no,yes,768,legacy,2,2,C:/Users/backs/OneDrive/Documents/subjectBZ-2.csv,legacy,Melodramatic Milgram,4.0.5,0,s,space,NA,NA,s,NA,940,19897,NA,NA,940,NA,NA,NA,2,legacy,1024,2,48000,-16,experiment,HHSHH,2,even,26739,23526,NA,NA,NA,3623,NA,27803,NA,3628,NA,NA,27904,28845,NA,27801,27904,NA,Flanker Task ,3,2738,3,1024
100,100,974,974,#3d3846,legacy,legacy,legacy,incongruent,1,undefined,1,h,3,0,0,0,3,0,3,3,NA,0,0,0,3,3,0,3,3,NA,Sun Sep 24 18:13:10 2023,1500,The main experiment item,FALSE,FlankerTask.osexp,C:\Users\backs\OneDrive\Documents,FALSE,mono,FALSE,18,no,white,no,yes,768,legacy,3,3,C:/Users/backs/OneDrive/Documents/subjectBZ-2.csv,legacy,Melodramatic Milgram,4.0.5,0,h,space,NA,NA,h,NA,1158,19897,NA,NA,1158,NA,NA,NA,2,legacy,1024,2,48000,-16,experiment,SSHSS,2,even,28848,23526,NA,NA,NA,3623,NA,29907,NA,3628,NA,NA,30008,31167,NA,29905,30008,NA,Flanker Task ,4,3896,4,1024
100,100,915,915,#3d3846,legacy,legacy,legacy,congruent,1,undefined,1,h,4,0,0,0,4,0,4,4,NA,0,0,0,4,4,0,4,4,NA,Sun Sep 24 18:13:10 2023,1500,The main experiment item,FALSE,FlankerTask.osexp,C:\Users\backs\OneDrive\Documents,FALSE,mono,FALSE,18,no,white,no,yes,768,legacy,4,4,C:/Users/backs/OneDrive/Documents/subjectBZ-2.csv,legacy,Melodramatic Milgram,4.0.5,0,h,space,NA,NA,h,NA,683,19897,NA,NA,683,NA,NA,NA,2,legacy,1024,2,48000,-16,experiment,HHHHH,2,even,31171,23526,NA,NA,NA,3623,NA,32232,NA,3628,NA,NA,32333,33017,NA,32230,32333,NA,Flanker Task ,5,4579,5,1024
100,100,866,866,#3d3846,legacy,legacy,legacy,incongruent,1,undefined,1,s,5,0,0,0,5,0,5,5,NA,0,0,0,5,5,0,5,5,NA,Sun Sep 24 18:13:10 2023,1500,The main experiment item,FALSE,FlankerTask.osexp,C:\Users\backs\OneDrive\Documents,FALSE,mono,FALSE,18,no,white,no,yes,768,legacy,5,5,C:/Users/backs/OneDrive/Documents/subjectBZ-2.csv,legacy,Melodramatic Milgram,4.0.5,0,s,space,NA,NA,s,NA,622,19897,NA,NA,622,NA,NA,NA,2,legacy,1024,2,48000,-16,experiment,HHSHH,2,even,33024,23526,NA,NA,NA,3623,NA,34096,NA,3628,NA,NA,34197,34820,NA,34094,34197,NA,Flanker Task ,6,5201,6,1024
100,100,829,829,#3d3846,legacy,legacy,legacy,congruent,1,undefined,1,h,6,0,0,0,6,0,6,6,NA,0,0,0,6,6,0,6,6,NA,Sun Sep 24 18:13:10 2023,1500,The main experiment item,FALSE,FlankerTask.osexp,C:\Users\backs\OneDrive\Documents,FALSE,mono,FALSE,18,no,white,no,yes,768,legacy,6,6,C:/Users/backs/OneDrive/Documents/subjectBZ-2.csv,legacy,Melodramatic Milgram,4.0.5,0,h,space,NA,NA,h,NA,603,19897,NA,NA,603,NA,NA,NA,2,legacy,1024,2,48000,-16,experiment,HHHHH,2,even,34825,23526,NA,NA,NA,3623,NA,35880,NA,3628,NA,NA,35981,36585,NA,35878,35981,NA,Flanker Task ,7,5804,7,1024
100,100,815,815,#3d3846,legacy,legacy,legacy,incongruent,1,undefined,1,h,7,0,0,0,7,0,7,7,NA,0,0,0,7,7,0,7,7,NA,Sun Sep 24 18:13:10 2023,1500,The main experiment item,FALSE,FlankerTask.osexp,C:\Users\backs\OneDrive\Documents,FALSE,mono,FALSE,18,no,white,no,yes,768,legacy,7,7,C:/Users/backs/OneDrive/Documents/subjectBZ-2.csv,legacy,Melodramatic Milgram,4.0.5,0,h,space,NA,NA,h,NA,723,19897,NA,NA,723,NA,NA,NA,2,legacy,1024,2,48000,-16,experiment,SSHSS,2,even,36588,23526,NA,NA,NA,3623,NA,37661,NA,3628,NA,NA,37762,38486,NA,37659,37762,NA,Flanker Task ,8,6527,8,1024
100,100,789,789,#3d3846,legacy,legacy,legacy,incongruent,1,undefined,1,s,8,0,0,0,8,0,8,8,NA,0,0,0,8,8,0,8,8,NA,Sun Sep 24 18:13:10 2023,1500,The main experiment item,FALSE,FlankerTask.osexp,C:\Users\backs\OneDrive\Documents,FALSE,mono,FALSE,18,no,white,no,yes,768,legacy,8,8,C:/Users/backs/OneDrive/Documents/subjectBZ-2.csv,legacy,Melodramatic Milgram,4.0.5,0,s,space,NA,NA,s,NA,575,19897,NA,NA,575,NA,NA,NA,2,legacy,1024,2,48000,-16,experiment,HHSHH,2,even,38491,23526,NA,NA,NA,3623,NA,39537,NA,3628,NA,NA,39638,40214,NA,39536,39638,NA,Flanker Task ,9,7102,9,1024
100,100,780,780,#3d3846,legacy,legacy,legacy,incongruent,1,undefined,1,s,9,0,0,0,9,0,9,9,NA,0,0,0,9,9,0,9,9,NA,Sun Sep 24 18:13:10 2023,1500,The main experiment item,FALSE,FlankerTask.osexp,C:\Users\backs\OneDrive\Documents,FALSE,mono,FALSE,18,no,white,no,yes,768,legacy,9,9,C:/Users/backs/OneDrive/Documents/subjectBZ-2.csv,legacy,Melodramatic Milgram,4.0.5,0,s,space,NA,NA,s,NA,702,19897,NA,NA,702,NA,NA,NA,2,legacy,1024,2,48000,-16,experiment,HHSHH,2,even,40220,23526,NA,NA,NA,3623,NA,41251,NA,3628,NA,NA,41352,42055,NA,41250,41352,NA,Flanker Task ,10,7804,10,1024
100,100,765,765,#3d3846,legacy,legacy,legacy,congruent,1,undefined,1,h,10,0,0,0,10,0,10,10,NA,0,0,0,10,10,0,10,10,NA,Sun Sep 24 18:13:10 2023,1500,The main experiment item,FALSE,FlankerTask.osexp,C:\Users\backs\OneDrive\Documents,FALSE,mono,FALSE,18,no,white,no,yes,768,legacy,10,10,C:/Users/backs/OneDrive/Documents/subjectBZ-2.csv,legacy,Melodramatic Milgram,4.0.5,0,h,space,NA,NA,h,NA,621,19897,NA,NA,621,NA,NA,NA,2,legacy,1024,2,48000,-16,experiment,HHHHH,2,even,42060,23526,NA,NA,NA,3623,NA,43091,NA,3628,NA,NA,43192,43814,NA,43090,43192,NA,Flanker Task ,11,8425,11,1024
100,100,750,750,#3d3846,legacy,legacy,legacy,incongruent,1,undefined,1,h,11,0,0,0,11,0,11,11,NA,0,0,0,11,11,0,11,11,NA,Sun Sep 24 18:13:10 2023,1500,The main experiment item,FALSE,FlankerTask.osexp,C:\Users\backs\OneDrive\Documents,FALSE,mono,FALSE,18,no,white,no,yes,768,legacy,11,11,C:/Users/backs/OneDrive/Documents/subjectBZ-2.csv,legacy,Melodramatic Milgram,4.0.5,0,h,space,NA,NA,h,NA,578,19897,NA,NA,578,NA,NA,NA,2,legacy,1024,2,48000,-16,experiment,SSHSS,2,even,43818,23526,NA,NA,NA,3623,NA,44900,NA,3628,NA,NA,45002,45580,NA,44899,45002,NA,Flanker Task ,12,9003,12,1024
100,100,734,734,#3d3846,legacy,legacy,legacy,incongruent,1,undefined,1,s,12,0,0,0,12,0,12,12,NA,0,0,0,12,12,0,12,12,NA,Sun Sep 24 18:13:10 2023,1500,The main experiment item,FALSE,FlankerTask.osexp,C:\Users\backs\OneDrive\Documents,FALSE,mono,FALSE,18,no,white,no,yes,768,legacy,12,12,C:/Users/backs/OneDrive/Documents/subjectBZ-2.csv,legacy,Melodramatic Milgram,4.0.5,0,s,space,NA,NA,s,NA,544,19897,NA,NA,544,NA,NA,NA,2,legacy,1024,2,48000,-16,experiment,HHSHH,2,even,45586,23526,NA,NA,NA,3623,NA,46662,NA,3628,NA,NA,46763,47308,NA,46660,46763,NA,Flanker Task ,13,9547,13,1024
100,100,712,712,#3d3846,legacy,legacy,legacy,incongruent,1,undefined,1,h,13,0,0,0,13,0,13,13,NA,0,0,0,13,13,0,13,13,NA,Sun Sep 24 18:13:10 2023,1500,The main experiment item,FALSE,FlankerTask.osexp,C:\Users\backs\OneDrive\Documents,FALSE,mono,FALSE,18,no,white,no,yes,768,legacy,13,13,C:/Users/backs/OneDrive/Documents/subjectBZ-2.csv,legacy,Melodramatic Milgram,4.0.5,0,h,space,NA,NA,h,NA,431,19897,NA,NA,431,NA,NA,NA,2,legacy,1024,2,48000,-16,experiment,SSHSS,2,even,47311,23526,NA,NA,NA,3623,NA,48393,NA,3628,NA,NA,48496,48928,NA,48391,48495,NA,Flanker Task ,14,9978,14,1024
100,100,703,703,#3d3846,legacy,legacy,legacy,incongruent,1,undefined,1,h,14,0,0,0,14,0,14,14,NA,0,0,0,14,14,0,14,14,NA,Sun Sep 24 18:13:10 2023,1500,The main experiment item,FALSE,FlankerTask.osexp,C:\Users\backs\OneDrive\Documents,FALSE,mono,FALSE,18,no,white,no,yes,768,legacy,14,14,C:/Users/backs/OneDrive/Documents/subjectBZ-2.csv,legacy,Melodramatic Milgram,4.0.5,0,h,space,NA,NA,h,NA,577,19897,NA,NA,577,NA,NA,NA,2,legacy,1024,2,48000,-16,experiment,SSHSS,2,even,48933,23526,NA,NA,NA,3623,NA,49987,NA,3628,NA,NA,50088,50665,NA,49986,50088,NA,Flanker Task ,15,10555,15,1024
100,100,689,689,#3d3846,legacy,legacy,legacy,incongruent,1,undefined,1,h,15,0,0,0,15,0,15,15,NA,0,0,0,15,15,0,15,15,NA,Sun Sep 24 18:13:10 2023,1500,The main experiment item,FALSE,FlankerTask.osexp,C:\Users\backs\OneDrive\Documents,FALSE,mono,FALSE,18,no,white,no,yes,768,legacy,15,15,C:/Users/backs/OneDrive/Documents/subjectBZ-2.csv,legacy,Melodramatic Milgram,4.0.5,0,h,space,NA,NA,h,NA,474,19897,NA,NA,474,NA,NA,NA,2,legacy,1024,2,48000,-16,experiment,SSHSS,2,even,50668,23526,NA,NA,NA,3623,NA,51749,NA,3628,NA,NA,51851,52325,NA,51746,51851,NA,Flanker Task ,16,11029,16,1024
100,100,686,686,#3d3846,legacy,legacy,legacy,incongruent,1,undefined,1,s,16,0,0,0,16,0,16,16,NA,0,0,0,16,16,0,16,16,NA,Sun Sep 24 18:13:10 2023,1500,The main experiment item,FALSE,FlankerTask.osexp,C:\Users\backs\OneDrive\Documents,FALSE,mono,FALSE,18,no,white,no,yes,768,legacy,16,16,C:/Users/backs/OneDrive/Documents/subjectBZ-2.csv,legacy,Melodramatic Milgram,4.0.5,0,s,space,NA,NA,s,NA,641,19897,NA,NA,641,NA,NA,NA,2,legacy,1024,2,48000,-16,experiment,HHSHH,2,even,52329,23526,NA,NA,NA,3623,NA,53405,NA,3628,NA,NA,53506,54148,NA,53402,53506,NA,Flanker Task ,17,11670,17,1024
100,100,682,682,#3d3846,legacy,legacy,legacy,congruent,1,undefined,1,h,17,0,0,0,17,0,17,17,NA,0,0,0,17,17,0,17,17,NA,Sun Sep 24 18:13:10 2023,1500,The main experiment item,FALSE,FlankerTask.osexp,C:\Users\backs\OneDrive\Documents,FALSE,mono,FALSE,18,no,white,no,yes,768,legacy,17,17,C:/Users/backs/OneDrive/Documents/subjectBZ-2.csv,legacy,Melodramatic Milgram,4.0.5,0,h,space,NA,NA,h,NA,606,19897,NA,NA,606,NA,NA,NA,2,legacy,1024,2,48000,-16,experiment,HHHHH,2,even,54151,23526,NA,NA,NA,3623,NA,55221,NA,3628,NA,NA,55323,55930,NA,55219,55322,NA,Flanker Task ,18,12276,18,1024
100,100,677,677,#3d3846,legacy,legacy,legacy,congruent,1,undefined,1,s,18,0,0,0,18,0,18,18,NA,0,0,0,18,18,0,18,18,NA,Sun Sep 24 18:13:10 2023,1500,The main experiment item,FALSE,FlankerTask.osexp,C:\Users\backs\OneDrive\Documents,FALSE,mono,FALSE,18,no,white,no,yes,768,legacy,18,18,C:/Users/backs/OneDrive/Documents/subjectBZ-2.csv,legacy,Melodramatic Milgram,4.0.5,0,s,space,NA,NA,s,NA,593,19897,NA,NA,593,NA,NA,NA,2,legacy,1024,2,48000,-16,experiment,SSSSS,2,even,55934,23526,NA,NA,NA,3623,NA,57010,NA,3628,NA,NA,57112,57705,NA,57008,57111,NA,Flanker Task ,19,12869,19,1024
100,100,667,667,#3d3846,legacy,legacy,legacy,congruent,1,undefined,1,s,19,0,0,0,19,0,19,19,NA,0,0,0,19,19,0,19,19,NA,Sun Sep 24 18:13:10 2023,1500,The main experiment item,FALSE,FlankerTask.osexp,C:\Users\backs\OneDrive\Documents,FALSE,mono,FALSE,18,no,white,no,yes,768,legacy,19,19,C:/Users/backs/OneDrive/Documents/subjectBZ-2.csv,legacy,Melodramatic Milgram,4.0.5,0,s,space,NA,NA,s,NA,486,19897,NA,NA,486,NA,NA,NA,2,legacy,1024,2,48000,-16,experiment,SSSSS,2,even,57709,23526,NA,NA,NA,3623,NA,58785,NA,3628,NA,NA,58887,59374,NA,58782,58887,NA,Flanker Task ,20,13355,20,1024
100,100,662,662,#3d3846,legacy,legacy,legacy,incongruent,1,undefined,1,h,20,0,0,0,20,0,20,20,NA,0,0,0,20,20,0,20,20,NA,Sun Sep 24 18:13:10 2023,1500,The main experiment item,FALSE,FlankerTask.osexp,C:\Users\backs\OneDrive\Documents,FALSE,mono,FALSE,18,no,white,no,yes,768,legacy,20,20,C:/Users/backs/OneDrive/Documents/subjectBZ-2.csv,legacy,Melodramatic Milgram,4.0.5,0,h,space,NA,NA,h,NA,550,19897,NA,NA,550,NA,NA,NA,2,legacy,1024,2,48000,-16,experiment,SSHSS,2,even,59378,23526,NA,NA,NA,3623,NA,60477,NA,3628,NA,NA,60580,61131,NA,60476,60580,NA,Flanker Task ,21,13905,21,1024
100,100,656,656,#3d3846,legacy,legacy,legacy,congruent,1,undefined,1,h,21,0,0,0,21,0,21,21,NA,0,0,0,21,21,0,21,21,NA,Sun Sep 24 18:13:10 2023,1500,The main experiment item,FALSE,FlankerTask.osexp,C:\Users\backs\OneDrive\Documents,FALSE,mono,FALSE,18,no,white,no,yes,768,legacy,21,21,C:/Users/backs/OneDrive/Documents/subjectBZ-2.csv,legacy,Melodramatic Milgram,4.0.5,0,h,space,NA,NA,h,NA,535,19897,NA,NA,535,NA,NA,NA,2,legacy,1024,2,48000,-16,experiment,HHHHH,2,even,61137,23526,NA,NA,NA,3623,NA,62217,NA,3628,NA,NA,62319,62855,NA,62215,62318,NA,Flanker Task ,22,14440,22,1024
100,100,649,649,#3d3846,legacy,legacy,legacy,incongruent,1,undefined,1,s,22,0,0,0,22,0,22,22,NA,0,0,0,22,22,0,22,22,NA,Sun Sep 24 18:13:10 2023,1500,The main experiment item,FALSE,FlankerTask.osexp,C:\Users\backs\OneDrive\Documents,FALSE,mono,FALSE,18,no,white,no,yes,768,legacy,22,22,C:/Users/backs/OneDrive/Documents/subjectBZ-2.csv,legacy,Melodramatic Milgram,4.0.5,0,s,space,NA,NA,s,NA,487,19897,NA,NA,487,NA,NA,NA,2,legacy,1024,2,48000,-16,experiment,HHSHH,2,even,62860,23526,NA,NA,NA,3623,NA,63942,NA,3628,NA,NA,64044,64532,NA,63939,64043,NA,Flanker Task ,23,14927,23,1024
100,100,643,643,#3d3846,legacy,legacy,legacy,congruent,1,undefined,1,h,23,0,0,0,23,0,23,23,NA,0,0,0,23,23,0,23,23,NA,Sun Sep 24 18:13:10 2023,1500,The main experiment item,FALSE,FlankerTask.osexp,C:\Users\backs\OneDrive\Documents,FALSE,mono,FALSE,18,no,white,no,yes,768,legacy,23,23,C:/Users/backs/OneDrive/Documents/subjectBZ-2.csv,legacy,Melodramatic Milgram,4.0.5,0,h,space,NA,NA,h,NA,517,19897,NA,NA,517,NA,NA,NA,2,legacy,1024,2,48000,-16,experiment,HHHHH,2,even,64536,23526,NA,NA,NA,3623,NA,65619,NA,3628,NA,NA,65721,66239,NA,65616,65721,NA,Flanker Task ,24,15444,24,1024
100,100,635,635,#3d3846,legacy,legacy,legacy,congruent,1,undefined,1,s,24,0,0,0,24,0,24,24,NA,0,0,0,24,24,0,24,24,NA,Sun Sep 24 18:13:10 2023,1500,The main experiment item,FALSE,FlankerTask.osexp,C:\Users\backs\OneDrive\Documents,FALSE,mono,FALSE,18,no,white,no,yes,768,legacy,24,24,C:/Users/backs/OneDrive/Documents/subjectBZ-2.csv,legacy,Melodramatic Milgram,4.0.5,0,s,space,NA,NA,s,NA,453,19897,NA,NA,453,NA,NA,NA,2,legacy,1024,2,48000,-16,experiment,SSSSS,2,even,66242,23526,NA,NA,NA,3623,NA,67323,NA,3628,NA,NA,67425,67879,NA,67321,67425,NA,Flanker Task ,25,15897,25,1024
100,100,636,636,#3d3846,legacy,legacy,legacy,incongruent,1,undefined,1,s,25,0,0,0,25,0,25,25,NA,0,0,0,25,25,0,25,25,NA,Sun Sep 24 18:13:10 2023,1500,The main experiment item,FALSE,FlankerTask.osexp,C:\Users\backs\OneDrive\Documents,FALSE,mono,FALSE,18,no,white,no,yes,768,legacy,25,25,C:/Users/backs/OneDrive/Documents/subjectBZ-2.csv,legacy,Melodramatic Milgram,4.0.5,0,s,space,NA,NA,s,NA,641,19897,NA,NA,641,NA,NA,NA,2,legacy,1024,2,48000,-16,experiment,HHSHH,2,even,67884,23526,NA,NA,NA,3623,NA,68976,NA,3628,NA,NA,69078,69720,NA,68974,69078,NA,Flanker Task ,26,16538,26,1024
100,100,638,638,#3d3846,legacy,legacy,legacy,incongruent,1,undefined,1,h,26,0,0,0,26,0,26,26,NA,0,0,0,26,26,0,26,26,NA,Sun Sep 24 18:13:10 2023,1500,The main experiment item,FALSE,FlankerTask.osexp,C:\Users\backs\OneDrive\Documents,FALSE,mono,FALSE,18,no,white,no,yes,768,legacy,26,26,C:/Users/backs/OneDrive/Documents/subjectBZ-2.csv,legacy,Melodramatic Milgram,4.0.5,0,h,space,NA,NA,h,NA,695,19897,NA,NA,695,NA,NA,NA,2,legacy,1024,2,48000,-16,experiment,SSHSS,2,even,69724,23526,NA,NA,NA,3623,NA,70807,NA,3628,NA,NA,70909,71604,NA,70804,70908,NA,Flanker Task ,27,17233,27,1024
100,100,636,636,#3d3846,legacy,legacy,legacy,congruent,1,undefined,1,h,27,0,0,0,27,0,27,27,NA,0,0,0,27,27,0,27,27,NA,Sun Sep 24 18:13:10 2023,1500,The main experiment item,FALSE,FlankerTask.osexp,C:\Users\backs\OneDrive\Documents,FALSE,mono,FALSE,18,no,white,no,yes,768,legacy,27,27,C:/Users/backs/OneDrive/Documents/subjectBZ-2.csv,legacy,Melodramatic Milgram,4.0.5,0,h,space,NA,NA,h,NA,581,19897,NA,NA,581,NA,NA,NA,2,legacy,1024,2,48000,-16,experiment,HHHHH,2,even,71608,23526,NA,NA,NA,3623,NA,72695,NA,3628,NA,NA,72797,73379,NA,72693,72797,NA,Flanker Task ,28,17814,28,1024
100,100,633,633,#3d3846,legacy,legacy,legacy,congruent,1,undefined,1,s,28,0,0,0,28,0,28,28,NA,0,0,0,28,28,0,28,28,NA,Sun Sep 24 18:13:10 2023,1500,The main experiment item,FALSE,FlankerTask.osexp,C:\Users\backs\OneDrive\Documents,FALSE,mono,FALSE,18,no,white,no,yes,768,legacy,28,28,C:/Users/backs/OneDrive/Documents/subjectBZ-2.csv,legacy,Melodramatic Milgram,4.0.5,0,s,space,NA,NA,s,NA,555,19897,NA,NA,555,NA,NA,NA,2,legacy,1024,2,48000,-16,experiment,SSSSS,2,even,73383,23526,NA,NA,NA,3623,NA,74460,NA,3628,NA,NA,74562,75118,NA,74457,74561,NA,Flanker Task ,29,18369,29,1024
100,100,628,628,#3d3846,legacy,legacy,legacy,congruent,1,undefined,1,h,29,0,0,0,29,0,29,29,NA,0,0,0,29,29,0,29,29,NA,Sun Sep 24 18:13:10 2023,1500,The main experiment item,FALSE,FlankerTask.osexp,C:\Users\backs\OneDrive\Documents,FALSE,mono,FALSE,18,no,white,no,yes,768,legacy,29,29,C:/Users/backs/OneDrive/Documents/subjectBZ-2.csv,legacy,Melodramatic Milgram,4.0.5,0,h,space,NA,NA,h,NA,488,19897,NA,NA,488,NA,NA,NA,2,legacy,1024,2,48000,-16,experiment,HHHHH,2,even,75121,23526,NA,NA,NA,3623,NA,76219,NA,3628,NA,NA,76321,76810,NA,76217,76321,NA,Flanker Task ,30,18857,30,1024
100,100,628,628,#3d3846,legacy,legacy,legacy,congruent,1,undefined,1,s,30,0,0,0,30,0,30,30,NA,0,0,0,30,30,0,30,30,NA,Sun Sep 24 18:13:10 2023,1500,The main experiment item,FALSE,FlankerTask.osexp,C:\Users\backs\OneDrive\Documents,FALSE,mono,FALSE,18,no,white,no,yes,768,legacy,30,30,C:/Users/backs/OneDrive/Documents/subjectBZ-2.csv,legacy,Melodramatic Milgram,4.0.5,0,s,space,NA,NA,s,NA,635,19897,NA,NA,635,NA,NA,NA,2,legacy,1024,2,48000,-16,experiment,SSSSS,2,even,76814,23526,NA,NA,NA,3623,NA,77906,NA,3628,NA,NA,78008,78644,NA,77903,78008,NA,Flanker Task ,31,19492,31,1024
100,100,626,626,#3d3846,legacy,legacy,legacy,congruent,1,undefined,1,h,31,0,0,0,31,0,31,31,NA,0,0,0,31,31,0,31,31,NA,Sun Sep 24 18:13:10 2023,1500,The main experiment item,FALSE,FlankerTask.osexp,C:\Users\backs\OneDrive\Documents,FALSE,mono,FALSE,18,no,white,no,yes,768,legacy,31,31,C:/Users/backs/OneDrive/Documents/subjectBZ-2.csv,legacy,Melodramatic Milgram,4.0.5,0,h,space,NA,NA,h,NA,541,19897,NA,NA,541,NA,NA,NA,2,legacy,1024,2,48000,-16,experiment,HHHHH,2,even,78654,23526,NA,NA,NA,3623,NA,79742,NA,3628,NA,NA,79845,80387,NA,79740,79845,NA,Flanker Task ,32,20033,32,1024
100,100,622,622,#3d3846,legacy,legacy,legacy,incongruent,1,undefined,1,s,32,0,0,0,32,0,32,32,NA,0,0,0,32,32,0,32,32,NA,Sun Sep 24 18:13:10 2023,1500,The main experiment item,FALSE,FlankerTask.osexp,C:\Users\backs\OneDrive\Documents,FALSE,mono,FALSE,18,no,white,no,yes,768,legacy,32,32,C:/Users/backs/OneDrive/Documents/subjectBZ-2.csv,legacy,Melodramatic Milgram,4.0.5,0,s,space,NA,NA,s,NA,506,19897,NA,NA,506,NA,NA,NA,2,legacy,1024,2,48000,-16,experiment,HHSHH,2,even,80390,23526,NA,NA,NA,3623,NA,81477,NA,3628,NA,NA,81579,82086,NA,81475,81579,NA,Flanker Task ,33,20539,33,1024
100,100,619,619,#3d3846,legacy,legacy,legacy,incongruent,1,undefined,1,h,33,0,0,0,33,0,33,33,NA,0,0,0,33,33,0,33,33,NA,Sun Sep 24 18:13:10 2023,1500,The main experiment item,FALSE,FlankerTask.osexp,C:\Users\backs\OneDrive\Documents,FALSE,mono,FALSE,18,no,white,no,yes,768,legacy,33,33,C:/Users/backs/OneDrive/Documents/subjectBZ-2.csv,legacy,Melodramatic Milgram,4.0.5,0,h,space,NA,NA,h,NA,512,19897,NA,NA,512,NA,NA,NA,2,legacy,1024,2,48000,-16,experiment,SSHSS,2,even,82090,23526,NA,NA,NA,3623,NA,83176,NA,3628,NA,NA,83278,83791,NA,83173,83277,NA,Flanker Task ,34,21051,34,1024
100,100,619,619,#3d3846,legacy,legacy,legacy,incongruent,1,undefined,1,s,34,0,0,0,34,0,34,34,NA,0,0,0,34,34,0,34,34,NA,Sun Sep 24 18:13:10 2023,1500,The main experiment item,FALSE,FlankerTask.osexp,C:\Users\backs\OneDrive\Documents,FALSE,mono,FALSE,18,no,white,no,yes,768,legacy,34,34,C:/Users/backs/OneDrive/Documents/subjectBZ-2.csv,legacy,Melodramatic Milgram,4.0.5,0,s,space,NA,NA,s,NA,624,19897,NA,NA,624,NA,NA,NA,2,legacy,1024,2,48000,-16,experiment,HHSHH,2,even,83796,23526,NA,NA,NA,3623,NA,84886,NA,3628,NA,NA,84988,85613,NA,84884,84988,NA,Flanker Task ,35,21675,35,1024
100,100,628,628,#3d3846,legacy,legacy,legacy,incongruent,1,undefined,1,s,35,0,0,0,35,0,35,35,NA,0,0,0,35,35,0,35,35,NA,Sun Sep 24 18:13:10 2023,1500,The main experiment item,FALSE,FlankerTask.osexp,C:\Users\backs\OneDrive\Documents,FALSE,mono,FALSE,18,no,white,no,yes,768,legacy,35,35,C:/Users/backs/OneDrive/Documents/subjectBZ-2.csv,legacy,Melodramatic Milgram,4.0.5,0,s,space,NA,NA,s,NA,934,19897,NA,NA,934,NA,NA,NA,2,legacy,1024,2,48000,-16,experiment,HHSHH,2,even,85617,23526,NA,NA,NA,3623,NA,86691,NA,3628,NA,NA,86793,87727,NA,86689,86792,NA,Flanker Task ,36,22609,36,1024
100,100,625,625,#3d3846,legacy,legacy,legacy,incongruent,1,undefined,1,s,36,0,0,0,36,0,36,36,NA,0,0,0,36,36,0,36,36,NA,Sun Sep 24 18:13:10 2023,1500,The main experiment item,FALSE,FlankerTask.osexp,C:\Users\backs\OneDrive\Documents,FALSE,mono,FALSE,18,no,white,no,yes,768,legacy,36,36,C:/Users/backs/OneDrive/Documents/subjectBZ-2.csv,legacy,Melodramatic Milgram,4.0.5,0,s,space,NA,NA,s,NA,534,19897,NA,NA,534,NA,NA,NA,2,legacy,1024,2,48000,-16,experiment,HHSHH,2,even,87733,23526,NA,NA,NA,3623,NA,88802,NA,3628,NA,NA,88904,89440,NA,88800,88903,NA,Flanker Task ,37,23143,37,1024
100,100,622,622,#3d3846,legacy,legacy,legacy,congruent,1,undefined,1,h,37,0,0,0,37,0,37,37,NA,0,0,0,37,37,0,37,37,NA,Sun Sep 24 18:13:10 2023,1500,The main experiment item,FALSE,FlankerTask.osexp,C:\Users\backs\OneDrive\Documents,FALSE,mono,FALSE,18,no,white,no,yes,768,legacy,37,37,C:/Users/backs/OneDrive/Documents/subjectBZ-2.csv,legacy,Melodramatic Milgram,4.0.5,0,h,space,NA,NA,h,NA,503,19897,NA,NA,503,NA,NA,NA,2,legacy,1024,2,48000,-16,experiment,HHHHH,2,even,89443,23526,NA,NA,NA,3623,NA,90523,NA,3628,NA,NA,90625,91129,NA,90521,90624,NA,Flanker Task ,38,23646,38,1024
100,100,618,618,#3d3846,legacy,legacy,legacy,incongruent,1,undefined,1,h,38,0,0,0,38,0,38,38,NA,0,0,0,38,38,0,38,38,NA,Sun Sep 24 18:13:10 2023,1500,The main experiment item,FALSE,FlankerTask.osexp,C:\Users\backs\OneDrive\Documents,FALSE,mono,FALSE,18,no,white,no,yes,768,legacy,38,38,C:/Users/backs/OneDrive/Documents/subjectBZ-2.csv,legacy,Melodramatic Milgram,4.0.5,0,h,space,NA,NA,h,NA,494,19897,NA,NA,494,NA,NA,NA,2,legacy,1024,2,48000,-16,experiment,SSHSS,2,even,91133,23526,NA,NA,NA,3623,NA,92225,NA,3628,NA,NA,92327,92822,NA,92223,92327,NA,Flanker Task ,39,24140,39,1024
100,100,615,615,#3d3846,legacy,legacy,legacy,incongruent,1,undefined,1,s,39,0,0,0,39,0,39,39,NA,0,0,0,39,39,0,39,39,NA,Sun Sep 24 18:13:10 2023,1500,The main experiment item,FALSE,FlankerTask.osexp,C:\Users\backs\OneDrive\Documents,FALSE,mono,FALSE,18,no,white,no,yes,768,legacy,39,39,C:/Users/backs/OneDrive/Documents/subjectBZ-2.csv,legacy,Melodramatic Milgram,4.0.5,0,s,space,NA,NA,s,NA,488,19897,NA,NA,488,NA,NA,NA,2,legacy,1024,2,48000,-16,experiment,HHSHH,2,even,92825,23526,NA,NA,NA,3623,NA,93903,NA,3628,NA,NA,94005,94494,NA,93901,94005,NA,Flanker Task ,40,24628,40,1024
100,100,616,616,#3d3846,legacy,legacy,legacy,congruent,1,undefined,1,s,40,0,0,0,40,0,40,40,NA,0,0,0,40,40,0,40,40,NA,Sun Sep 24 18:13:10 2023,1500,The main experiment item,FALSE,FlankerTask.osexp,C:\Users\backs\OneDrive\Documents,FALSE,mono,FALSE,18,no,white,no,yes,768,legacy,40,40,C:/Users/backs/OneDrive/Documents/subjectBZ-2.csv,legacy,Melodramatic Milgram,4.0.5,0,s,space,NA,NA,s,NA,643,19897,NA,NA,643,NA,NA,NA,2,legacy,1024,2,48000,-16,experiment,SSSSS,2,even,94498,23526,NA,NA,NA,3623,NA,95577,NA,3628,NA,NA,95679,96323,NA,95575,95679,NA,Flanker Task ,41,25271,41,1024
100,100,612,612,#3d3846,legacy,legacy,legacy,incongruent,1,undefined,1,h,41,0,0,0,41,0,41,41,NA,0,0,0,41,41,0,41,41,NA,Sun Sep 24 18:13:10 2023,1500,The main experiment item,FALSE,FlankerTask.osexp,C:\Users\backs\OneDrive\Documents,FALSE,mono,FALSE,18,no,white,no,yes,768,legacy,41,41,C:/Users/backs/OneDrive/Documents/subjectBZ-2.csv,legacy,Melodramatic Milgram,4.0.5,0,h,space,NA,NA,h,NA,444,19897,NA,NA,444,NA,NA,NA,2,legacy,1024,2,48000,-16,experiment,SSHSS,2,even,96329,23526,NA,NA,NA,3623,NA,97403,NA,3628,NA,NA,97505,97950,NA,97401,97504,NA,Flanker Task ,42,25715,42,1024
100,100,610,610,#3d3846,legacy,legacy,legacy,congruent,1,undefined,1,s,42,0,0,0,42,0,42,42,NA,0,0,0,42,42,0,42,42,NA,Sun Sep 24 18:13:10 2023,1500,The main experiment item,FALSE,FlankerTask.osexp,C:\Users\backs\OneDrive\Documents,FALSE,mono,FALSE,18,no,white,no,yes,768,legacy,42,42,C:/Users/backs/OneDrive/Documents/subjectBZ-2.csv,legacy,Melodramatic Milgram,4.0.5,0,s,space,NA,NA,s,NA,545,19897,NA,NA,545,NA,NA,NA,2,legacy,1024,2,48000,-16,experiment,SSSSS,2,even,97956,23526,NA,NA,NA,3623,NA,99041,NA,3628,NA,NA,99143,99690,NA,99038,99143,NA,Flanker Task ,43,26260,43,1024
100,100,613,613,#3d3846,legacy,legacy,legacy,incongruent,1,undefined,1,h,43,0,0,0,43,0,43,43,NA,0,0,0,43,43,0,43,43,NA,Sun Sep 24 18:13:10 2023,1500,The main experiment item,FALSE,FlankerTask.osexp,C:\Users\backs\OneDrive\Documents,FALSE,mono,FALSE,18,no,white,no,yes,768,legacy,43,43,C:/Users/backs/OneDrive/Documents/subjectBZ-2.csv,legacy,Melodramatic Milgram,4.0.5,0,h,space,NA,NA,h,NA,752,19897,NA,NA,752,NA,NA,NA,2,legacy,1024,2,48000,-16,experiment,SSHSS,2,even,99693,23526,NA,NA,NA,3623,NA,100784,NA,3628,NA,NA,100886,101639,NA,100783,100886,NA,Flanker Task ,44,27012,44,1024
100,100,610,610,#3d3846,legacy,legacy,legacy,congruent,1,undefined,1,s,44,0,0,0,44,0,44,44,NA,0,0,0,44,44,0,44,44,NA,Sun Sep 24 18:13:10 2023,1500,The main experiment item,FALSE,FlankerTask.osexp,C:\Users\backs\OneDrive\Documents,FALSE,mono,FALSE,18,no,white,no,yes,768,legacy,44,44,C:/Users/backs/OneDrive/Documents/subjectBZ-2.csv,legacy,Melodramatic Milgram,4.0.5,0,s,space,NA,NA,s,NA,474,19897,NA,NA,474,NA,NA,NA,2,legacy,1024,2,48000,-16,experiment,SSSSS,2,even,101643,23526,NA,NA,NA,3623,NA,102729,NA,3628,NA,NA,102832,103307,NA,102727,102832,NA,Flanker Task ,45,27486,45,1024
100,100,609,609,#3d3846,legacy,legacy,legacy,incongruent,1,undefined,1,h,45,0,0,0,45,0,45,45,NA,0,0,0,45,45,0,45,45,NA,Sun Sep 24 18:13:10 2023,1500,The main experiment item,FALSE,FlankerTask.osexp,C:\Users\backs\OneDrive\Documents,FALSE,mono,FALSE,18,no,white,no,yes,768,legacy,45,45,C:/Users/backs/OneDrive/Documents/subjectBZ-2.csv,legacy,Melodramatic Milgram,4.0.5,0,h,space,NA,NA,h,NA,531,19897,NA,NA,531,NA,NA,NA,2,legacy,1024,2,48000,-16,experiment,SSHSS,2,even,103312,23526,NA,NA,NA,3623,NA,104390,NA,3628,NA,NA,104492,105024,NA,104388,104492,NA,Flanker Task ,46,28017,46,1024
100,100,606,606,#3d3846,legacy,legacy,legacy,congruent,1,undefined,1,s,46,0,0,0,46,0,46,46,NA,0,0,0,46,46,0,46,46,NA,Sun Sep 24 18:13:10 2023,1500,The main experiment item,FALSE,FlankerTask.osexp,C:\Users\backs\OneDrive\Documents,FALSE,mono,FALSE,18,no,white,no,yes,768,legacy,46,46,C:/Users/backs/OneDrive/Documents/subjectBZ-2.csv,legacy,Melodramatic Milgram,4.0.5,0,s,space,NA,NA,s,NA,486,19897,NA,NA,486,NA,NA,NA,2,legacy,1024,2,48000,-16,experiment,SSSSS,2,even,105028,23526,NA,NA,NA,3623,NA,106108,NA,3628,NA,NA,106210,106697,NA,106106,106210,NA,Flanker Task ,47,28503,47,1024
100,100,604,604,#3d3846,legacy,legacy,legacy,congruent,1,undefined,1,s,47,0,0,0,47,0,47,47,NA,0,0,0,47,47,0,47,47,NA,Sun Sep 24 18:13:10 2023,1500,The main experiment item,FALSE,FlankerTask.osexp,C:\Users\backs\OneDrive\Documents,FALSE,mono,FALSE,18,no,white,no,yes,768,legacy,47,47,C:/Users/backs/OneDrive/Documents/subjectBZ-2.csv,legacy,Melodramatic Milgram,4.0.5,0,s,space,NA,NA,s,NA,502,19897,NA,NA,502,NA,NA,NA,2,legacy,1024,2,48000,-16,experiment,SSSSS,2,even,106701,23526,NA,NA,NA,3623,NA,107794,NA,3628,NA,NA,107896,108399,NA,107793,107896,NA,Flanker Task ,48,29005,48,1024
100,100,601,601,#3d3846,legacy,legacy,legacy,congruent,1,undefined,1,s,48,0,0,0,48,0,48,48,NA,0,0,0,48,48,0,48,48,NA,Sun Sep 24 18:13:10 2023,1500,The main experiment item,FALSE,FlankerTask.osexp,C:\Users\backs\OneDrive\Documents,FALSE,mono,FALSE,18,no,white,no,yes,768,legacy,48,48,C:/Users/backs/OneDrive/Documents/subjectBZ-2.csv,legacy,Melodramatic Milgram,4.0.5,0,s,space,NA,NA,s,NA,460,19897,NA,NA,460,NA,NA,NA,2,legacy,1024,2,48000,-16,experiment,SSSSS,2,even,108402,23526,NA,NA,NA,3623,NA,109487,NA,3628,NA,NA,109589,110050,NA,109485,109588,NA,Flanker Task ,49,29465,49,1024
100,100,598,598,#3d3846,legacy,legacy,legacy,congruent,1,undefined,1,s,49,0,0,0,49,0,49,49,NA,0,0,0,49,49,0,49,49,NA,Sun Sep 24 18:13:10 2023,1500,The main experiment item,FALSE,FlankerTask.osexp,C:\Users\backs\OneDrive\Documents,FALSE,mono,FALSE,18,no,white,no,yes,768,legacy,49,49,C:/Users/backs/OneDrive/Documents/subjectBZ-2.csv,legacy,Melodramatic Milgram,4.0.5,0,s,space,NA,NA,s,NA,436,19897,NA,NA,436,NA,NA,NA,2,legacy,1024,2,48000,-16,experiment,SSSSS,2,even,110053,23526,NA,NA,NA,3623,NA,111134,NA,3628,NA,NA,111237,111674,NA,111132,111237,NA,Flanker Task ,50,29901,50,1024
100,100,597,597,#3d3846,legacy,legacy,legacy,incongruent,1,undefined,1,s,50,0,0,0,50,0,50,50,NA,0,0,0,50,50,0,50,50,NA,Sun Sep 24 18:13:10 2023,1500,The main experiment item,FALSE,FlankerTask.osexp,C:\Users\backs\OneDrive\Documents,FALSE,mono,FALSE,18,no,white,no,yes,768,legacy,50,50,C:/Users/backs/OneDrive/Documents/subjectBZ-2.csv,legacy,Melodramatic Milgram,4.0.5,0,s,space,NA,NA,s,NA,547,19897,NA,NA,547,NA,NA,NA,2,legacy,1024,2,48000,-16,experiment,HHSHH,2,even,111678,23526,NA,NA,NA,3623,NA,112759,NA,3628,NA,NA,112861,113409,NA,112757,112860,NA,Flanker Task ,51,30448,51,1024
100,100,595,595,#3d3846,legacy,legacy,legacy,incongruent,1,undefined,1,s,51,0,0,0,51,0,51,51,NA,0,0,0,51,51,0,51,51,NA,Sun Sep 24 18:13:10 2023,1500,The main experiment item,FALSE,FlankerTask.osexp,C:\Users\backs\OneDrive\Documents,FALSE,mono,FALSE,18,no,white,no,yes,768,legacy,51,51,C:/Users/backs/OneDrive/Documents/subjectBZ-2.csv,legacy,Melodramatic Milgram,4.0.5,0,s,space,NA,NA,s,NA,509,19897,NA,NA,509,NA,NA,NA,2,legacy,1024,2,48000,-16,experiment,HHSHH,2,even,113413,23526,NA,NA,NA,3623,NA,114505,NA,3628,NA,NA,114607,115117,NA,114502,114607,NA,Flanker Task ,52,30957,52,1024
100,100,593,593,#3d3846,legacy,legacy,legacy,congruent,1,undefined,1,s,52,0,0,0,52,0,52,52,NA,0,0,0,52,52,0,52,52,NA,Sun Sep 24 18:13:10 2023,1500,The main experiment item,FALSE,FlankerTask.osexp,C:\Users\backs\OneDrive\Documents,FALSE,mono,FALSE,18,no,white,no,yes,768,legacy,52,52,C:/Users/backs/OneDrive/Documents/subjectBZ-2.csv,legacy,Melodramatic Milgram,4.0.5,0,s,space,NA,NA,s,NA,473,19897,NA,NA,473,NA,NA,NA,2,legacy,1024,2,48000,-16,experiment,SSSSS,2,even,115121,23526,NA,NA,NA,3623,NA,116213,NA,3628,NA,NA,116315,116790,NA,116211,116315,NA,Flanker Task ,53,31430,53,1024
100,100,591,591,#3d3846,legacy,legacy,legacy,congruent,1,undefined,1,h,53,0,0,0,53,0,53,53,NA,0,0,0,53,53,0,53,53,NA,Sun Sep 24 18:13:10 2023,1500,The main experiment item,FALSE,FlankerTask.osexp,C:\Users\backs\OneDrive\Documents,FALSE,mono,FALSE,18,no,white,no,yes,768,legacy,53,53,C:/Users/backs/OneDrive/Documents/subjectBZ-2.csv,legacy,Melodramatic Milgram,4.0.5,0,h,space,NA,NA,h,NA,488,19897,NA,NA,488,NA,NA,NA,2,legacy,1024,2,48000,-16,experiment,HHHHH,2,even,116796,23526,NA,NA,NA,3623,NA,117879,NA,3628,NA,NA,117981,118470,NA,117876,117981,NA,Flanker Task ,54,31918,54,1024
100,100,590,590,#3d3846,legacy,legacy,legacy,congruent,1,undefined,1,h,54,0,0,0,54,0,54,54,NA,0,0,0,54,54,0,54,54,NA,Sun Sep 24 18:13:10 2023,1500,The main experiment item,FALSE,FlankerTask.osexp,C:\Users\backs\OneDrive\Documents,FALSE,mono,FALSE,18,no,white,no,yes,768,legacy,54,54,C:/Users/backs/OneDrive/Documents/subjectBZ-2.csv,legacy,Melodramatic Milgram,4.0.5,0,h,space,NA,NA,h,NA,548,19897,NA,NA,548,NA,NA,NA,2,legacy,1024,2,48000,-16,experiment,HHHHH,2,even,118474,23526,NA,NA,NA,3623,NA,119562,NA,3628,NA,NA,119664,120213,NA,119560,119664,NA,Flanker Task ,55,32466,55,1024
100,100,587,587,#3d3846,legacy,legacy,legacy,congruent,1,undefined,1,s,55,0,0,0,55,0,55,55,NA,0,0,0,55,55,0,55,55,NA,Sun Sep 24 18:13:10 2023,1500,The main experiment item,FALSE,FlankerTask.osexp,C:\Users\backs\OneDrive\Documents,FALSE,mono,FALSE,18,no,white,no,yes,768,legacy,55,55,C:/Users/backs/OneDrive/Documents/subjectBZ-2.csv,legacy,Melodramatic Milgram,4.0.5,0,s,space,NA,NA,s,NA,411,19897,NA,NA,411,NA,NA,NA,2,legacy,1024,2,48000,-16,experiment,SSSSS,2,even,120216,23526,NA,NA,NA,3623,NA,121307,NA,3628,NA,NA,121409,121822,NA,121305,121408,NA,Flanker Task ,56,32877,56,1024
100,100,584,584,#3d3846,legacy,legacy,legacy,incongruent,1,undefined,1,s,56,0,0,0,56,0,56,56,NA,0,0,0,56,56,0,56,56,NA,Sun Sep 24 18:13:10 2023,1500,The main experiment item,FALSE,FlankerTask.osexp,C:\Users\backs\OneDrive\Documents,FALSE,mono,FALSE,18,no,white,no,yes,768,legacy,56,56,C:/Users/backs/OneDrive/Documents/subjectBZ-2.csv,legacy,Melodramatic Milgram,4.0.5,0,s,space,NA,NA,s,NA,435,19897,NA,NA,435,NA,NA,NA,2,legacy,1024,2,48000,-16,experiment,HHSHH,2,even,121826,23526,NA,NA,NA,3623,NA,122925,NA,3628,NA,NA,123027,123463,NA,122924,123026,NA,Flanker Task ,57,33312,57,1024
100,100,582,582,#3d3846,legacy,legacy,legacy,incongruent,1,undefined,1,h,57,0,0,0,57,0,57,57,NA,0,0,0,57,57,0,57,57,NA,Sun Sep 24 18:13:10 2023,1500,The main experiment item,FALSE,FlankerTask.osexp,C:\Users\backs\OneDrive\Documents,FALSE,mono,FALSE,18,no,white,no,yes,768,legacy,57,57,C:/Users/backs/OneDrive/Documents/subjectBZ-2.csv,legacy,Melodramatic Milgram,4.0.5,0,h,space,NA,NA,h,NA,455,19897,NA,NA,455,NA,NA,NA,2,legacy,1024,2,48000,-16,experiment,SSHSS,2,even,123468,23526,NA,NA,NA,3623,NA,124556,NA,3628,NA,NA,124658,125115,NA,124553,124658,NA,Flanker Task ,58,33767,58,1024
100,100,580,580,#3d3846,legacy,legacy,legacy,incongruent,1,undefined,1,s,58,0,0,0,58,0,58,58,NA,0,0,0,58,58,0,58,58,NA,Sun Sep 24 18:13:10 2023,1500,The main experiment item,FALSE,FlankerTask.osexp,C:\Users\backs\OneDrive\Documents,FALSE,mono,FALSE,18,no,white,no,yes,768,legacy,58,58,C:/Users/backs/OneDrive/Documents/subjectBZ-2.csv,legacy,Melodramatic Milgram,4.0.5,0,s,space,NA,NA,s,NA,460,19897,NA,NA,460,NA,NA,NA,2,legacy,1024,2,48000,-16,experiment,HHSHH,2,even,125119,23526,NA,NA,NA,3623,NA,126197,NA,3628,NA,NA,126299,126760,NA,126195,126299,NA,Flanker Task ,59,34227,59,1024
100,100,578,578,#3d3846,legacy,legacy,legacy,congruent,1,undefined,1,s,59,0,0,0,59,0,59,59,NA,0,0,0,59,59,0,59,59,NA,Sun Sep 24 18:13:10 2023,1500,The main experiment item,FALSE,FlankerTask.osexp,C:\Users\backs\OneDrive\Documents,FALSE,mono,FALSE,18,no,white,no,yes,768,legacy,59,59,C:/Users/backs/OneDrive/Documents/subjectBZ-2.csv,legacy,Melodramatic Milgram,4.0.5,0,s,space,NA,NA,s,NA,480,19897,NA,NA,480,NA,NA,NA,2,legacy,1024,2,48000,-16,experiment,SSSSS,2,even,126764,23526,NA,NA,NA,3623,NA,127843,NA,3628,NA,NA,127946,128428,NA,127841,127946,NA,Flanker Task ,60,34707,60,1024
100,100,577,577,#3d3846,legacy,legacy,legacy,congruent,1,undefined,1,s,60,0,0,0,60,0,60,60,NA,0,0,0,60,60,0,60,60,NA,Sun Sep 24 18:13:10 2023,1500,The main experiment item,FALSE,FlankerTask.osexp,C:\Users\backs\OneDrive\Documents,FALSE,mono,FALSE,18,no,white,no,yes,768,legacy,60,60,C:/Users/backs/OneDrive/Documents/subjectBZ-2.csv,legacy,Melodramatic Milgram,4.0.5,0,s,space,NA,NA,s,NA,494,19897,NA,NA,494,NA,NA,NA,2,legacy,1024,2,48000,-16,experiment,SSSSS,2,even,128431,23526,NA,NA,NA,3623,NA,129520,NA,3628,NA,NA,129622,130117,NA,129517,129622,NA,Flanker Task ,61,35201,61,1024
100,100,574,574,#3d3846,legacy,legacy,legacy,incongruent,1,undefined,1,s,61,0,0,0,61,0,61,61,NA,0,0,0,61,61,0,61,61,NA,Sun Sep 24 18:13:10 2023,1500,The main experiment item,FALSE,FlankerTask.osexp,C:\Users\backs\OneDrive\Documents,FALSE,mono,FALSE,18,no,white,no,yes,768,legacy,61,61,C:/Users/backs/OneDrive/Documents/subjectBZ-2.csv,legacy,Melodramatic Milgram,4.0.5,0,s,space,NA,NA,s,NA,429,19897,NA,NA,429,NA,NA,NA,2,legacy,1024,2,48000,-16,experiment,HHSHH,2,even,130121,23526,NA,NA,NA,3623,NA,131206,NA,3628,NA,NA,131308,131738,NA,131203,131308,NA,Flanker Task ,62,35630,62,1024
100,100,573,573,#3d3846,legacy,legacy,legacy,congruent,1,undefined,1,s,62,0,0,0,62,0,62,62,NA,0,0,0,62,62,0,62,62,NA,Sun Sep 24 18:13:10 2023,1500,The main experiment item,FALSE,FlankerTask.osexp,C:\Users\backs\OneDrive\Documents,FALSE,mono,FALSE,18,no,white,no,yes,768,legacy,62,62,C:/Users/backs/OneDrive/Documents/subjectBZ-2.csv,legacy,Melodramatic Milgram,4.0.5,0,s,space,NA,NA,s,NA,485,19897,NA,NA,485,NA,NA,NA,2,legacy,1024,2,48000,-16,experiment,SSSSS,2,even,131742,23526,NA,NA,NA,3623,NA,132833,NA,3628,NA,NA,132935,133422,NA,132831,132935,NA,Flanker Task ,63,36115,63,1024
100,100,571,571,#3d3846,legacy,legacy,legacy,congruent,1,undefined,1,h,63,0,0,0,63,0,63,63,NA,0,0,0,63,63,0,63,63,NA,Sun Sep 24 18:13:10 2023,1500,The main experiment item,FALSE,FlankerTask.osexp,C:\Users\backs\OneDrive\Documents,FALSE,mono,FALSE,18,no,white,no,yes,768,legacy,63,63,C:/Users/backs/OneDrive/Documents/subjectBZ-2.csv,legacy,Melodramatic Milgram,4.0.5,0,h,space,NA,NA,h,NA,485,19897,NA,NA,485,NA,NA,NA,2,legacy,1024,2,48000,-16,experiment,HHHHH,2,even,133427,23526,NA,NA,NA,3623,NA,134505,NA,3628,NA,NA,134607,135094,NA,134503,134606,NA,Flanker Task ,64,36600,64,1024
100,100,570,570,#3d3846,legacy,legacy,legacy,congruent,1,undefined,1,h,64,0,0,0,64,0,64,64,NA,0,0,0,64,64,0,64,64,NA,Sun Sep 24 18:13:10 2023,1500,The main experiment item,FALSE,FlankerTask.osexp,C:\Users\backs\OneDrive\Documents,FALSE,mono,FALSE,18,no,white,no,yes,768,legacy,64,64,C:/Users/backs/OneDrive/Documents/subjectBZ-2.csv,legacy,Melodramatic Milgram,4.0.5,0,h,space,NA,NA,h,NA,451,19897,NA,NA,451,NA,NA,NA,2,legacy,1024,2,48000,-16,experiment,HHHHH,2,even,135097,23526,NA,NA,NA,3623,NA,136177,NA,3628,NA,NA,136279,136731,NA,136175,136279,NA,Flanker Task ,65,37051,65,1024
100,100,571,571,#3d3846,legacy,legacy,legacy,incongruent,1,undefined,1,h,65,0,0,0,65,0,65,65,NA,0,0,0,65,65,0,65,65,NA,Sun Sep 24 18:13:10 2023,1500,The main experiment item,FALSE,FlankerTask.osexp,C:\Users\backs\OneDrive\Documents,FALSE,mono,FALSE,18,no,white,no,yes,768,legacy,65,65,C:/Users/backs/OneDrive/Documents/subjectBZ-2.csv,legacy,Melodramatic Milgram,4.0.5,0,h,space,NA,NA,h,NA,671,19897,NA,NA,671,NA,NA,NA,2,legacy,1024,2,48000,-16,experiment,SSHSS,2,even,136735,23526,NA,NA,NA,3623,NA,137840,NA,3628,NA,NA,137942,138614,NA,137838,137942,NA,Flanker Task ,66,37722,66,1024
100,100,570,570,#3d3846,legacy,legacy,legacy,incongruent,1,undefined,1,h,66,0,0,0,66,0,66,66,NA,0,0,0,66,66,0,66,66,NA,Sun Sep 24 18:13:10 2023,1500,The main experiment item,FALSE,FlankerTask.osexp,C:\Users\backs\OneDrive\Documents,FALSE,mono,FALSE,18,no,white,no,yes,768,legacy,66,66,C:/Users/backs/OneDrive/Documents/subjectBZ-2.csv,legacy,Melodramatic Milgram,4.0.5,0,h,space,NA,NA,h,NA,495,19897,NA,NA,495,NA,NA,NA,2,legacy,1024,2,48000,-16,experiment,SSHSS,2,even,138618,23526,NA,NA,NA,3623,NA,139698,NA,3628,NA,NA,139799,140295,NA,139697,139799,NA,Flanker Task ,67,38217,67,1024
100,100,569,569,#3d3846,legacy,legacy,legacy,incongruent,1,undefined,1,h,67,0,0,0,67,0,67,67,NA,0,0,0,67,67,0,67,67,NA,Sun Sep 24 18:13:10 2023,1500,The main experiment item,FALSE,FlankerTask.osexp,C:\Users\backs\OneDrive\Documents,FALSE,mono,FALSE,18,no,white,no,yes,768,legacy,67,67,C:/Users/backs/OneDrive/Documents/subjectBZ-2.csv,legacy,Melodramatic Milgram,4.0.5,0,h,space,NA,NA,h,NA,514,19897,NA,NA,514,NA,NA,NA,2,legacy,1024,2,48000,-16,experiment,SSHSS,2,even,140299,23526,NA,NA,NA,3623,NA,141363,NA,3628,NA,NA,141465,141980,NA,141361,141464,NA,Flanker Task ,68,38731,68,1024
100,100,570,570,#3d3846,legacy,legacy,legacy,congruent,1,undefined,1,s,68,0,0,0,68,0,68,68,NA,0,0,0,68,68,0,68,68,NA,Sun Sep 24 18:13:10 2023,1500,The main experiment item,FALSE,FlankerTask.osexp,C:\Users\backs\OneDrive\Documents,FALSE,mono,FALSE,18,no,white,no,yes,768,legacy,68,68,C:/Users/backs/OneDrive/Documents/subjectBZ-2.csv,legacy,Melodramatic Milgram,4.0.5,0,s,space,NA,NA,s,NA,616,19897,NA,NA,616,NA,NA,NA,2,legacy,1024,2,48000,-16,experiment,SSSSS,2,even,141984,23526,NA,NA,NA,3623,NA,143070,NA,3628,NA,NA,143172,143789,NA,143068,143172,NA,Flanker Task ,69,39347,69,1024
100,100,570,570,#3d3846,legacy,legacy,legacy,congruent,1,undefined,1,h,69,0,0,0,69,0,69,69,NA,0,0,0,69,69,0,69,69,NA,Sun Sep 24 18:13:10 2023,1500,The main experiment item,FALSE,FlankerTask.osexp,C:\Users\backs\OneDrive\Documents,FALSE,mono,FALSE,18,no,white,no,yes,768,legacy,69,69,C:/Users/backs/OneDrive/Documents/subjectBZ-2.csv,legacy,Melodramatic Milgram,4.0.5,0,h,space,NA,NA,h,NA,554,19897,NA,NA,554,NA,NA,NA,2,legacy,1024,2,48000,-16,experiment,HHHHH,2,even,143793,23526,NA,NA,NA,3623,NA,144871,NA,3628,NA,NA,144974,145529,NA,144869,144974,NA,Flanker Task ,70,39901,70,1024
100,100,570,570,#3d3846,legacy,legacy,legacy,congruent,1,undefined,1,h,70,0,0,0,70,0,70,70,NA,0,0,0,70,70,0,70,70,NA,Sun Sep 24 18:13:10 2023,1500,The main experiment item,FALSE,FlankerTask.osexp,C:\Users\backs\OneDrive\Documents,FALSE,mono,FALSE,18,no,white,no,yes,768,legacy,70,70,C:/Users/backs/OneDrive/Documents/subjectBZ-2.csv,legacy,Melodramatic Milgram,4.0.5,0,h,space,NA,NA,h,NA,596,19897,NA,NA,596,NA,NA,NA,2,legacy,1024,2,48000,-16,experiment,HHHHH,2,even,145533,23526,NA,NA,NA,3623,NA,146626,NA,3628,NA,NA,146728,147325,NA,146624,146728,NA,Flanker Task ,71,40497,71,1024
100,100,569,569,#3d3846,legacy,legacy,legacy,congruent,1,undefined,1,h,71,0,0,0,71,0,71,71,NA,0,0,0,71,71,0,71,71,NA,Sun Sep 24 18:13:10 2023,1500,The main experiment item,FALSE,FlankerTask.osexp,C:\Users\backs\OneDrive\Documents,FALSE,mono,FALSE,18,no,white,no,yes,768,legacy,71,71,C:/Users/backs/OneDrive/Documents/subjectBZ-2.csv,legacy,Melodramatic Milgram,4.0.5,0,h,space,NA,NA,h,NA,473,19897,NA,NA,473,NA,NA,NA,2,legacy,1024,2,48000,-16,experiment,HHHHH,2,even,147330,23526,NA,NA,NA,3623,NA,148413,NA,3628,NA,NA,148515,148989,NA,148411,148515,NA,Flanker Task ,72,40970,72,1024
100,100,567,567,#3d3846,legacy,legacy,legacy,incongruent,1,undefined,1,h,72,0,0,0,72,0,72,72,NA,0,0,0,72,72,0,72,72,NA,Sun Sep 24 18:13:10 2023,1500,The main experiment item,FALSE,FlankerTask.osexp,C:\Users\backs\OneDrive\Documents,FALSE,mono,FALSE,18,no,white,no,yes,768,legacy,72,72,C:/Users/backs/OneDrive/Documents/subjectBZ-2.csv,legacy,Melodramatic Milgram,4.0.5,0,h,space,NA,NA,h,NA,459,19897,NA,NA,459,NA,NA,NA,2,legacy,1024,2,48000,-16,experiment,SSHSS,2,even,148993,23526,NA,NA,NA,3623,NA,150080,NA,3628,NA,NA,150183,150644,NA,150078,150183,NA,Flanker Task ,73,41429,73,1024
100,100,565,565,#3d3846,legacy,legacy,legacy,congruent,1,undefined,1,h,73,0,0,0,73,0,73,73,NA,0,0,0,73,73,0,73,73,NA,Sun Sep 24 18:13:10 2023,1500,The main experiment item,FALSE,FlankerTask.osexp,C:\Users\backs\OneDrive\Documents,FALSE,mono,FALSE,18,no,white,no,yes,768,legacy,73,73,C:/Users/backs/OneDrive/Documents/subjectBZ-2.csv,legacy,Melodramatic Milgram,4.0.5,0,h,space,NA,NA,h,NA,451,19897,NA,NA,451,NA,NA,NA,2,legacy,1024,2,48000,-16,experiment,HHHHH,2,even,150648,23526,NA,NA,NA,3623,NA,151736,NA,3628,NA,NA,151839,152291,NA,151734,151839,NA,Flanker Task ,74,41880,74,1024
100,100,564,564,#3d3846,legacy,legacy,legacy,incongruent,1,undefined,1,h,74,0,0,0,74,0,74,74,NA,0,0,0,74,74,0,74,74,NA,Sun Sep 24 18:13:10 2023,1500,The main experiment item,FALSE,FlankerTask.osexp,C:\Users\backs\OneDrive\Documents,FALSE,mono,FALSE,18,no,white,no,yes,768,legacy,74,74,C:/Users/backs/OneDrive/Documents/subjectBZ-2.csv,legacy,Melodramatic Milgram,4.0.5,0,h,space,NA,NA,h,NA,476,19897,NA,NA,476,NA,NA,NA,2,legacy,1024,2,48000,-16,experiment,SSHSS,2,even,152294,23526,NA,NA,NA,3623,NA,153403,NA,3628,NA,NA,153505,153982,NA,153401,153505,NA,Flanker Task ,75,42356,75,1024
100,100,564,564,#3d3846,legacy,legacy,legacy,congruent,1,undefined,1,s,75,0,0,0,75,0,75,75,NA,0,0,0,75,75,0,75,75,NA,Sun Sep 24 18:13:10 2023,1500,The main experiment item,FALSE,FlankerTask.osexp,C:\Users\backs\OneDrive\Documents,FALSE,mono,FALSE,18,no,white,no,yes,768,legacy,75,75,C:/Users/backs/OneDrive/Documents/subjectBZ-2.csv,legacy,Melodramatic Milgram,4.0.5,0,s,space,NA,NA,s,NA,537,19897,NA,NA,537,NA,NA,NA,2,legacy,1024,2,48000,-16,experiment,SSSSS,2,even,153986,23526,NA,NA,NA,3623,NA,155075,NA,3628,NA,NA,155177,155715,NA,155072,155177,NA,Flanker Task ,76,42893,76,1024
100,100,567,567,#3d3846,legacy,legacy,legacy,incongruent,1,undefined,1,s,76,0,0,0,76,0,76,76,NA,0,0,0,76,76,0,76,76,NA,Sun Sep 24 18:13:10 2023,1500,The main experiment item,FALSE,FlankerTask.osexp,C:\Users\backs\OneDrive\Documents,FALSE,mono,FALSE,18,no,white,no,yes,768,legacy,76,76,C:/Users/backs/OneDrive/Documents/subjectBZ-2.csv,legacy,Melodramatic Milgram,4.0.5,0,s,space,NA,NA,s,NA,780,19897,NA,NA,780,NA,NA,NA,2,legacy,1024,2,48000,-16,experiment,HHSHH,2,even,155719,23526,NA,NA,NA,3623,NA,156802,NA,3628,NA,NA,156904,157685,NA,156799,156904,NA,Flanker Task ,77,43673,77,1024
100,100,566,566,#3d3846,legacy,legacy,legacy,incongruent,1,undefined,1,h,77,0,0,0,77,0,77,77,NA,0,0,0,77,77,0,77,77,NA,Sun Sep 24 18:13:10 2023,1500,The main experiment item,FALSE,FlankerTask.osexp,C:\Users\backs\OneDrive\Documents,FALSE,mono,FALSE,18,no,white,no,yes,768,legacy,77,77,C:/Users/backs/OneDrive/Documents/subjectBZ-2.csv,legacy,Melodramatic Milgram,4.0.5,0,h,space,NA,NA,h,NA,529,19897,NA,NA,529,NA,NA,NA,2,legacy,1024,2,48000,-16,experiment,SSHSS,2,even,157691,23526,NA,NA,NA,3623,NA,158782,NA,3628,NA,NA,158884,159414,NA,158781,158884,NA,Flanker Task ,78,44202,78,1024
100,100,567,567,#3d3846,legacy,legacy,legacy,incongruent,1,undefined,1,s,78,0,0,0,78,0,78,78,NA,0,0,0,78,78,0,78,78,NA,Sun Sep 24 18:13:10 2023,1500,The main experiment item,FALSE,FlankerTask.osexp,C:\Users\backs\OneDrive\Documents,FALSE,mono,FALSE,18,no,white,no,yes,768,legacy,78,78,C:/Users/backs/OneDrive/Documents/subjectBZ-2.csv,legacy,Melodramatic Milgram,4.0.5,0,s,space,NA,NA,s,NA,619,19897,NA,NA,619,NA,NA,NA,2,legacy,1024,2,48000,-16,experiment,HHSHH,2,even,159418,23526,NA,NA,NA,3623,NA,160494,NA,3628,NA,NA,160598,161218,NA,160492,160597,NA,Flanker Task ,79,44821,79,1024
100,100,567,567,#3d3846,legacy,legacy,legacy,congruent,1,undefined,1,h,79,0,0,0,79,0,79,79,NA,0,0,0,79,79,0,79,79,NA,Sun Sep 24 18:13:10 2023,1500,The main experiment item,FALSE,FlankerTask.osexp,C:\Users\backs\OneDrive\Documents,FALSE,mono,FALSE,18,no,white,no,yes,768,legacy,79,79,C:/Users/backs/OneDrive/Documents/subjectBZ-2.csv,legacy,Melodramatic Milgram,4.0.5,0,h,space,NA,NA,h,NA,576,19897,NA,NA,576,NA,NA,NA,2,legacy,1024,2,48000,-16,experiment,HHHHH,2,even,161222,23526,NA,NA,NA,3623,NA,162313,NA,3628,NA,NA,162415,162993,NA,162310,162415,NA,Flanker Task ,80,45397,80,1024
100,100,570,570,#3d3846,legacy,legacy,legacy,incongruent,1,undefined,1,h,80,0,0,0,80,0,80,80,NA,0,0,0,80,80,0,80,80,NA,Sun Sep 24 18:13:10 2023,600,The main experiment item,FALSE,FlankerTask.osexp,C:\Users\backs\OneDrive\Documents,FALSE,mono,FALSE,18,no,white,no,yes,768,legacy,0,79,C:/Users/backs/OneDrive/Documents/subjectBZ-2.csv,legacy,Melodramatic Milgram,4.0.5,0,h,space,s,NA,h,NA,787,19897,29223,NA,787,NA,NA,NA,2,legacy,1024,2,48000,-16,experiment,SSHSS,2,even,162996,23526,193222,NA,NA,3623,NA,193285,NA,3628,163998,NA,193386,194174,NA,193284,193386,NA,Flanker Task ,81,46184,81,1024
100,100,569,569,#3d3846,legacy,legacy,legacy,congruent,1,undefined,1,h,81,0,0,0,81,0,81,81,NA,0,0,0,81,81,0,81,81,NA,Sun Sep 24 18:13:10 2023,600,The main experiment item,FALSE,FlankerTask.osexp,C:\Users\backs\OneDrive\Documents,FALSE,mono,FALSE,18,no,white,no,yes,768,legacy,1,79,C:/Users/backs/OneDrive/Documents/subjectBZ-2.csv,legacy,Melodramatic Milgram,4.0.5,0,h,space,s,NA,h,NA,485,19897,29223,NA,485,NA,NA,NA,2,legacy,1024,2,48000,-16,experiment,HHHHH,2,even,194680,23526,193222,NA,NA,3623,194179,195755,NA,3628,163998,NA,195856,196342,NA,195753,195856,NA,Flanker Task ,82,46669,82,1024
100,100,568,568,#3d3846,legacy,legacy,legacy,congruent,1,undefined,1,s,82,0,0,0,82,0,82,82,NA,0,0,0,82,82,0,82,82,NA,Sun Sep 24 18:13:10 2023,600,The main experiment item,FALSE,FlankerTask.osexp,C:\Users\backs\OneDrive\Documents,FALSE,mono,FALSE,18,no,white,no,yes,768,legacy,2,79,C:/Users/backs/OneDrive/Documents/subjectBZ-2.csv,legacy,Melodramatic Milgram,4.0.5,0,s,space,s,NA,s,NA,480,19897,29223,NA,480,NA,NA,NA,2,legacy,1024,2,48000,-16,experiment,SSSSS,2,even,196346,23526,193222,NA,NA,3623,194179,197429,NA,3628,163998,NA,197531,198012,NA,197427,197530,NA,Flanker Task ,83,47149,83,1024
100,100,567,567,#3d3846,legacy,legacy,legacy,incongruent,1,undefined,1,s,83,0,0,0,83,0,83,83,NA,0,0,0,83,83,0,83,83,NA,Sun Sep 24 18:13:10 2023,600,The main experiment item,FALSE,FlankerTask.osexp,C:\Users\backs\OneDrive\Documents,FALSE,mono,FALSE,18,no,white,no,yes,768,legacy,3,79,C:/Users/backs/OneDrive/Documents/subjectBZ-2.csv,legacy,Melodramatic Milgram,4.0.5,0,s,space,s,NA,s,NA,499,19897,29223,NA,499,NA,NA,NA,2,legacy,1024,2,48000,-16,experiment,HHSHH,2,even,198017,23526,193222,NA,NA,3623,194179,199119,NA,3628,163998,NA,199221,199721,NA,199116,199220,NA,Flanker Task ,84,47648,84,1024
100,100,566,566,#3d3846,legacy,legacy,legacy,congruent,1,undefined,1,h,84,0,0,0,84,0,84,84,NA,0,0,0,84,84,0,84,84,NA,Sun Sep 24 18:13:10 2023,600,The main experiment item,FALSE,FlankerTask.osexp,C:\Users\backs\OneDrive\Documents,FALSE,mono,FALSE,18,no,white,no,yes,768,legacy,4,79,C:/Users/backs/OneDrive/Documents/subjectBZ-2.csv,legacy,Melodramatic Milgram,4.0.5,0,h,space,s,NA,h,NA,521,19897,29223,NA,521,NA,NA,NA,2,legacy,1024,2,48000,-16,experiment,HHHHH,2,even,199725,23526,193222,NA,NA,3623,194179,200812,NA,3628,163998,NA,200914,201436,NA,200809,200913,NA,Flanker Task ,85,48169,85,1024
100,100,565,565,#3d3846,legacy,legacy,legacy,congruent,1,undefined,1,h,85,0,0,0,85,0,85,85,NA,0,0,0,85,85,0,85,85,NA,Sun Sep 24 18:13:10 2023,600,The main experiment item,FALSE,FlankerTask.osexp,C:\Users\backs\OneDrive\Documents,FALSE,mono,FALSE,18,no,white,no,yes,768,legacy,5,79,C:/Users/backs/OneDrive/Documents/subjectBZ-2.csv,legacy,Melodramatic Milgram,4.0.5,0,h,space,s,NA,h,NA,446,19897,29223,NA,446,NA,NA,NA,2,legacy,1024,2,48000,-16,experiment,HHHHH,2,even,201440,23526,193222,NA,NA,3623,194179,202525,NA,3628,163998,NA,202627,203074,NA,202523,202626,NA,Flanker Task ,86,48615,86,1024
100,100,563,563,#3d3846,legacy,legacy,legacy,congruent,1,undefined,1,s,86,0,0,0,86,0,86,86,NA,0,0,0,86,86,0,86,86,NA,Sun Sep 24 18:13:10 2023,600,The main experiment item,FALSE,FlankerTask.osexp,C:\Users\backs\OneDrive\Documents,FALSE,mono,FALSE,18,no,white,no,yes,768,legacy,6,79,C:/Users/backs/OneDrive/Documents/subjectBZ-2.csv,legacy,Melodramatic Milgram,4.0.5,0,s,space,s,NA,s,NA,417,19897,29223,NA,417,NA,NA,NA,2,legacy,1024,2,48000,-16,experiment,SSSSS,2,even,203080,23526,193222,NA,NA,3623,194179,204169,NA,3628,163998,NA,204271,204690,NA,204167,204271,NA,Flanker Task ,87,49032,87,1024
100,100,562,562,#3d3846,legacy,legacy,legacy,incongruent,1,undefined,1,s,87,0,0,0,87,0,87,87,NA,0,0,0,87,87,0,87,87,NA,Sun Sep 24 18:13:10 2023,600,The main experiment item,FALSE,FlankerTask.osexp,C:\Users\backs\OneDrive\Documents,FALSE,mono,FALSE,18,no,white,no,yes,768,legacy,7,79,C:/Users/backs/OneDrive/Documents/subjectBZ-2.csv,legacy,Melodramatic Milgram,4.0.5,0,s,space,s,NA,s,NA,492,19897,29223,NA,492,NA,NA,NA,2,legacy,1024,2,48000,-16,experiment,HHSHH,2,even,204694,23526,193222,NA,NA,3623,194179,205766,NA,3628,163998,NA,205868,206362,NA,205764,205867,NA,Flanker Task ,88,49524,88,1024
98,98,561,561,#3d3846,legacy,legacy,legacy,incongruent,0,undefined,0,s,88,0,0,0,88,0,88,88,NA,0,0,0,88,88,0,88,88,NA,Sun Sep 24 18:13:10 2023,600,The main experiment item,FALSE,FlankerTask.osexp,C:\Users\backs\OneDrive\Documents,FALSE,mono,FALSE,18,no,white,no,yes,768,legacy,8,79,C:/Users/backs/OneDrive/Documents/subjectBZ-2.csv,legacy,Melodramatic Milgram,4.0.5,0,h,space,s,NA,h,NA,431,19897,29223,NA,431,NA,NA,NA,2,legacy,1024,2,48000,-16,experiment,HHSHH,2,even,206365,23526,193222,NA,NA,3623,194179,207452,NA,3628,163998,NA,207554,207986,NA,207450,207554,NA,Flanker Task ,88,49955,89,1024
98,98,563,563,#3d3846,legacy,legacy,legacy,incongruent,1,undefined,1,h,89,0,0,0,89,0,89,89,NA,0,0,0,89,89,0,89,89,NA,Sun Sep 24 18:13:10 2023,600,The main experiment item,FALSE,FlankerTask.osexp,C:\Users\backs\OneDrive\Documents,FALSE,mono,FALSE,18,no,white,no,yes,768,legacy,9,79,C:/Users/backs/OneDrive/Documents/subjectBZ-2.csv,legacy,Melodramatic Milgram,4.0.5,0,h,space,s,NA,h,NA,766,19897,29223,NA,766,NA,NA,NA,2,legacy,1024,2,48000,-16,experiment,SSHSS,2,even,208493,23526,193222,NA,207991,3623,194179,209589,NA,3628,163998,NA,209691,210458,NA,209587,209691,NA,Flanker Task ,89,50721,90,1024
98,98,563,563,#3d3846,legacy,legacy,legacy,congruent,1,undefined,1,h,90,0,0,0,90,0,90,90,NA,0,0,0,90,90,0,90,90,NA,Sun Sep 24 18:13:10 2023,600,The main experiment item,FALSE,FlankerTask.osexp,C:\Users\backs\OneDrive\Documents,FALSE,mono,FALSE,18,no,white,no,yes,768,legacy,10,79,C:/Users/backs/OneDrive/Documents/subjectBZ-2.csv,legacy,Melodramatic Milgram,4.0.5,0,h,space,s,NA,h,NA,523,19897,29223,NA,523,NA,NA,NA,2,legacy,1024,2,48000,-16,experiment,HHHHH,2,even,210963,23526,193222,NA,207991,3623,210462,212045,NA,3628,163998,NA,212147,212672,NA,212043,212146,NA,Flanker Task ,90,51244,91,1024
98,98,561,561,#3d3846,legacy,legacy,legacy,congruent,1,undefined,1,s,91,0,0,0,91,0,91,91,NA,0,0,0,91,91,0,91,91,NA,Sun Sep 24 18:13:10 2023,600,The main experiment item,FALSE,FlankerTask.osexp,C:\Users\backs\OneDrive\Documents,FALSE,mono,FALSE,18,no,white,no,yes,768,legacy,11,79,C:/Users/backs/OneDrive/Documents/subjectBZ-2.csv,legacy,Melodramatic Milgram,4.0.5,0,s,space,s,NA,s,NA,452,19897,29223,NA,452,NA,NA,NA,2,legacy,1024,2,48000,-16,experiment,SSSSS,2,even,212676,23526,193222,NA,207991,3623,210462,213759,NA,3628,163998,NA,213861,214314,NA,213756,213861,NA,Flanker Task ,91,51696,92,1024
98,98,560,560,#3d3846,legacy,legacy,legacy,congruent,1,undefined,1,s,92,0,0,0,92,0,92,92,NA,0,0,0,92,92,0,92,92,NA,Sun Sep 24 18:13:10 2023,600,The main experiment item,FALSE,FlankerTask.osexp,C:\Users\backs\OneDrive\Documents,FALSE,mono,FALSE,18,no,white,no,yes,768,legacy,12,79,C:/Users/backs/OneDrive/Documents/subjectBZ-2.csv,legacy,Melodramatic Milgram,4.0.5,0,s,space,s,NA,s,NA,474,19897,29223,NA,474,NA,NA,NA,2,legacy,1024,2,48000,-16,experiment,SSSSS,2,even,214318,23526,193222,NA,207991,3623,210462,215399,NA,3628,163998,NA,215501,215976,NA,215396,215501,NA,Flanker Task ,92,52170,93,1024
98,98,559,559,#3d3846,legacy,legacy,legacy,congruent,1,undefined,1,h,93,0,0,0,93,0,93,93,NA,0,0,0,93,93,0,93,93,NA,Sun Sep 24 18:13:10 2023,600,The main experiment item,FALSE,FlankerTask.osexp,C:\Users\backs\OneDrive\Documents,FALSE,mono,FALSE,18,no,white,no,yes,768,legacy,13,79,C:/Users/backs/OneDrive/Documents/subjectBZ-2.csv,legacy,Melodramatic Milgram,4.0.5,0,h,space,s,NA,h,NA,416,19897,29223,NA,416,NA,NA,NA,2,legacy,1024,2,48000,-16,experiment,HHHHH,2,even,215982,23526,193222,NA,207991,3623,210462,217061,NA,3628,163998,NA,217164,217581,NA,217059,217164,NA,Flanker Task ,93,52586,94,1024
98,98,558,558,#3d3846,legacy,legacy,legacy,congruent,1,undefined,1,h,94,0,0,0,94,0,94,94,NA,0,0,0,94,94,0,94,94,NA,Sun Sep 24 18:13:10 2023,600,The main experiment item,FALSE,FlankerTask.osexp,C:\Users\backs\OneDrive\Documents,FALSE,mono,FALSE,18,no,white,no,yes,768,legacy,14,79,C:/Users/backs/OneDrive/Documents/subjectBZ-2.csv,legacy,Melodramatic Milgram,4.0.5,0,h,space,s,NA,h,NA,445,19897,29223,NA,445,NA,NA,NA,2,legacy,1024,2,48000,-16,experiment,HHHHH,2,even,217585,23526,193222,NA,207991,3623,210462,218665,NA,3628,163998,NA,218766,219213,NA,218663,218766,NA,Flanker Task ,94,53031,95,1024
98,98,559,559,#3d3846,legacy,legacy,legacy,incongruent,1,undefined,1,h,95,0,0,0,95,0,95,95,NA,0,0,0,95,95,0,95,95,NA,Sun Sep 24 18:13:10 2023,600,The main experiment item,FALSE,FlankerTask.osexp,C:\Users\backs\OneDrive\Documents,FALSE,mono,FALSE,18,no,white,no,yes,768,legacy,15,79,C:/Users/backs/OneDrive/Documents/subjectBZ-2.csv,legacy,Melodramatic Milgram,4.0.5,0,h,space,s,NA,h,NA,648,19897,29223,NA,648,NA,NA,NA,2,legacy,1024,2,48000,-16,experiment,SSHSS,2,even,219218,23526,193222,NA,207991,3623,210462,220312,NA,3628,163998,NA,220414,221063,NA,220310,220414,NA,Flanker Task ,95,53679,96,1024
98,98,558,558,#3d3846,legacy,legacy,legacy,congruent,1,undefined,1,h,96,0,0,0,96,0,96,96,NA,0,0,0,96,96,0,96,96,NA,Sun Sep 24 18:13:10 2023,600,The main experiment item,FALSE,FlankerTask.osexp,C:\Users\backs\OneDrive\Documents,FALSE,mono,FALSE,18,no,white,no,yes,768,legacy,16,79,C:/Users/backs/OneDrive/Documents/subjectBZ-2.csv,legacy,Melodramatic Milgram,4.0.5,0,h,space,s,NA,h,NA,454,19897,29223,NA,454,NA,NA,NA,2,legacy,1024,2,48000,-16,experiment,HHHHH,2,even,221570,23526,193222,NA,207991,3623,221068,222655,NA,3628,163998,NA,222757,223212,NA,222652,222756,NA,Flanker Task ,96,54133,97,1024
98,98,557,557,#3d3846,legacy,legacy,legacy,incongruent,1,undefined,1,s,97,0,0,0,97,0,97,97,NA,0,0,0,97,97,0,97,97,NA,Sun Sep 24 18:13:10 2023,600,The main experiment item,FALSE,FlankerTask.osexp,C:\Users\backs\OneDrive\Documents,FALSE,mono,FALSE,18,no,white,no,yes,768,legacy,17,79,C:/Users/backs/OneDrive/Documents/subjectBZ-2.csv,legacy,Melodramatic Milgram,4.0.5,0,s,space,s,NA,s,NA,530,19897,29223,NA,530,NA,NA,NA,2,legacy,1024,2,48000,-16,experiment,HHSHH,2,even,223216,23526,193222,NA,207991,3623,221068,224305,NA,3628,163998,NA,224407,224938,NA,224302,224407,NA,Flanker Task ,97,54663,98,1024
98,98,557,557,#3d3846,legacy,legacy,legacy,incongruent,1,undefined,1,h,98,0,0,0,98,0,98,98,NA,0,0,0,98,98,0,98,98,NA,Sun Sep 24 18:13:10 2023,600,The main experiment item,FALSE,FlankerTask.osexp,C:\Users\backs\OneDrive\Documents,FALSE,mono,FALSE,18,no,white,no,yes,768,legacy,18,79,C:/Users/backs/OneDrive/Documents/subjectBZ-2.csv,legacy,Melodramatic Milgram,4.0.5,0,h,space,s,NA,h,NA,517,19897,29223,NA,517,NA,NA,NA,2,legacy,1024,2,48000,-16,experiment,SSHSS,2,even,224942,23526,193222,NA,207991,3623,221068,226037,NA,3628,163998,NA,226139,226657,NA,226035,226139,NA,Flanker Task ,98,55180,99,1024
99,99,556,556,#3d3846,legacy,legacy,legacy,incongruent,1,undefined,1,s,99,0,0,0,99,0,99,99,NA,0,0,0,99,99,0,99,99,NA,Sun Sep 24 18:13:10 2023,600,The main experiment item,FALSE,FlankerTask.osexp,C:\Users\backs\OneDrive\Documents,FALSE,mono,FALSE,18,no,white,no,yes,768,legacy,19,79,C:/Users/backs/OneDrive/Documents/subjectBZ-2.csv,legacy,Melodramatic Milgram,4.0.5,0,s,space,s,NA,s,NA,516,19897,29223,NA,516,NA,NA,NA,2,legacy,1024,2,48000,-16,experiment,HHSHH,2,even,226662,23526,193222,NA,207991,3623,221068,227747,NA,3628,163998,NA,227849,228366,NA,227745,227849,NA,Flanker Task ,99,55696,100,1024
99,99,556,556,#3d3846,legacy,legacy,legacy,congruent,1,undefined,1,s,100,0,0,0,100,0,100,100,NA,0,0,0,100,100,0,100,100,NA,Sun Sep 24 18:13:10 2023,600,The main experiment item,FALSE,FlankerTask.osexp,C:\Users\backs\OneDrive\Documents,FALSE,mono,FALSE,18,no,white,no,yes,768,legacy,20,79,C:/Users/backs/OneDrive/Documents/subjectBZ-2.csv,legacy,Melodramatic Milgram,4.0.5,0,s,space,s,NA,s,NA,528,19897,29223,NA,528,NA,NA,NA,2,legacy,1024,2,48000,-16,experiment,SSSSS,2,even,228370,23526,193222,NA,207991,3623,221068,229465,NA,3628,163998,NA,229567,230096,NA,229463,229567,NA,Flanker Task ,100,56224,101,1024
99,99,557,557,#3d3846,legacy,legacy,legacy,incongruent,1,undefined,1,s,101,0,0,0,101,0,101,101,NA,0,0,0,101,101,0,101,101,NA,Sun Sep 24 18:13:10 2023,600,The main experiment item,FALSE,FlankerTask.osexp,C:\Users\backs\OneDrive\Documents,FALSE,mono,FALSE,18,no,white,no,yes,768,legacy,21,79,C:/Users/backs/OneDrive/Documents/subjectBZ-2.csv,legacy,Melodramatic Milgram,4.0.5,0,s,space,s,NA,s,NA,633,19897,29223,NA,633,NA,NA,NA,2,legacy,1024,2,48000,-16,experiment,HHSHH,2,even,230102,23526,193222,NA,207991,3623,221068,231187,NA,3628,163998,NA,231289,231924,NA,231185,231289,NA,Flanker Task ,101,56857,102,1024
99,99,557,557,#3d3846,legacy,legacy,legacy,congruent,1,undefined,1,s,102,0,0,0,102,0,102,102,NA,0,0,0,102,102,0,102,102,NA,Sun Sep 24 18:13:10 2023,600,The main experiment item,FALSE,FlankerTask.osexp,C:\Users\backs\OneDrive\Documents,FALSE,mono,FALSE,18,no,white,no,yes,768,legacy,22,79,C:/Users/backs/OneDrive/Documents/subjectBZ-2.csv,legacy,Melodramatic Milgram,4.0.5,0,s,space,s,NA,s,NA,546,19897,29223,NA,546,NA,NA,NA,2,legacy,1024,2,48000,-16,experiment,SSSSS,2,even,232430,23526,193222,NA,207991,3623,231928,233519,NA,3628,163998,NA,233621,234168,NA,233517,233621,NA,Flanker Task ,102,57403,103,1024
99,99,556,556,#3d3846,legacy,legacy,legacy,congruent,1,undefined,1,s,103,0,0,0,103,0,103,103,NA,0,0,0,103,103,0,103,103,NA,Sun Sep 24 18:13:10 2023,600,The main experiment item,FALSE,FlankerTask.osexp,C:\Users\backs\OneDrive\Documents,FALSE,mono,FALSE,18,no,white,no,yes,768,legacy,23,79,C:/Users/backs/OneDrive/Documents/subjectBZ-2.csv,legacy,Melodramatic Milgram,4.0.5,0,s,space,s,NA,s,NA,513,19897,29223,NA,513,NA,NA,NA,2,legacy,1024,2,48000,-16,experiment,SSSSS,2,even,234172,23526,193222,NA,207991,3623,231928,235248,NA,3628,163998,NA,235350,235864,NA,235246,235349,NA,Flanker Task ,103,57916,104,1024
99,99,557,557,#3d3846,legacy,legacy,legacy,incongruent,1,undefined,1,s,104,0,0,0,104,0,104,104,NA,0,0,0,104,104,0,104,104,NA,Sun Sep 24 18:13:10 2023,600,The main experiment item,FALSE,FlankerTask.osexp,C:\Users\backs\OneDrive\Documents,FALSE,mono,FALSE,18,no,white,no,yes,768,legacy,24,79,C:/Users/backs/OneDrive/Documents/subjectBZ-2.csv,legacy,Melodramatic Milgram,4.0.5,0,s,space,s,NA,s,NA,585,19897,29223,NA,585,NA,NA,NA,2,legacy,1024,2,48000,-16,experiment,HHSHH,2,even,235868,23526,193222,NA,207991,3623,231928,236951,NA,3628,163998,NA,237053,237639,NA,236949,237052,NA,Flanker Task ,104,58501,105,1024
99,99,556,556,#3d3846,legacy,legacy,legacy,congruent,1,undefined,1,s,105,0,0,0,105,0,105,105,NA,0,0,0,105,105,0,105,105,NA,Sun Sep 24 18:13:10 2023,600,The main experiment item,FALSE,FlankerTask.osexp,C:\Users\backs\OneDrive\Documents,FALSE,mono,FALSE,18,no,white,no,yes,768,legacy,25,79,C:/Users/backs/OneDrive/Documents/subjectBZ-2.csv,legacy,Melodramatic Milgram,4.0.5,0,s,space,s,NA,s,NA,452,19897,29223,NA,452,NA,NA,NA,2,legacy,1024,2,48000,-16,experiment,SSSSS,2,even,237643,23526,193222,NA,207991,3623,231928,238729,NA,3628,163998,NA,238831,239285,NA,238728,238831,NA,Flanker Task ,105,58953,106,1024
99,99,556,556,#3d3846,legacy,legacy,legacy,incongruent,1,undefined,1,h,106,0,0,0,106,0,106,106,NA,0,0,0,106,106,0,106,106,NA,Sun Sep 24 18:13:10 2023,600,The main experiment item,FALSE,FlankerTask.osexp,C:\Users\backs\OneDrive\Documents,FALSE,mono,FALSE,18,no,white,no,yes,768,legacy,26,79,C:/Users/backs/OneDrive/Documents/subjectBZ-2.csv,legacy,Melodramatic Milgram,4.0.5,0,h,space,s,NA,h,NA,588,19897,29223,NA,588,NA,NA,NA,2,legacy,1024,2,48000,-16,experiment,SSHSS,2,even,239289,23526,193222,NA,207991,3623,231928,240374,NA,3628,163998,NA,240476,241065,NA,240372,240476,NA,Flanker Task ,106,59541,107,1024
99,99,555,555,#3d3846,legacy,legacy,legacy,congruent,1,undefined,1,h,107,0,0,0,107,0,107,107,NA,0,0,0,107,107,0,107,107,NA,Sun Sep 24 18:13:10 2023,600,The main experiment item,FALSE,FlankerTask.osexp,C:\Users\backs\OneDrive\Documents,FALSE,mono,FALSE,18,no,white,no,yes,768,legacy,27,79,C:/Users/backs/OneDrive/Documents/subjectBZ-2.csv,legacy,Melodramatic Milgram,4.0.5,0,h,space,s,NA,h,NA,496,19897,29223,NA,496,NA,NA,NA,2,legacy,1024,2,48000,-16,experiment,HHHHH,2,even,241069,23526,193222,NA,207991,3623,231928,242161,NA,3628,163998,NA,242263,242761,NA,242159,242262,NA,Flanker Task ,107,60037,108,1024
99,99,555,555,#3d3846,legacy,legacy,legacy,incongruent,1,undefined,1,s,108,0,0,0,108,0,108,108,NA,0,0,0,108,108,0,108,108,NA,Sun Sep 24 18:13:10 2023,600,The main experiment item,FALSE,FlankerTask.osexp,C:\Users\backs\OneDrive\Documents,FALSE,mono,FALSE,18,no,white,no,yes,768,legacy,28,79,C:/Users/backs/OneDrive/Documents/subjectBZ-2.csv,legacy,Melodramatic Milgram,4.0.5,0,s,space,s,NA,s,NA,515,19897,29223,NA,515,NA,NA,NA,2,legacy,1024,2,48000,-16,experiment,HHSHH,2,even,242765,23526,193222,NA,207991,3623,231928,243851,NA,3628,163998,NA,243953,244470,NA,243849,243953,NA,Flanker Task ,108,60552,109,1024
99,99,554,554,#3d3846,legacy,legacy,legacy,incongruent,1,undefined,1,h,109,0,0,0,109,0,109,109,NA,0,0,0,109,109,0,109,109,NA,Sun Sep 24 18:13:10 2023,600,The main experiment item,FALSE,FlankerTask.osexp,C:\Users\backs\OneDrive\Documents,FALSE,mono,FALSE,18,no,white,no,yes,768,legacy,29,79,C:/Users/backs/OneDrive/Documents/subjectBZ-2.csv,legacy,Melodramatic Milgram,4.0.5,0,h,space,s,NA,h,NA,474,19897,29223,NA,474,NA,NA,NA,2,legacy,1024,2,48000,-16,experiment,SSHSS,2,even,244474,23526,193222,NA,207991,3623,231928,245557,NA,3628,163998,NA,245659,246134,NA,245554,245659,NA,Flanker Task ,109,61026,110,1024
99,99,554,554,#3d3846,legacy,legacy,legacy,incongruent,1,undefined,1,s,110,0,0,0,110,0,110,110,NA,0,0,0,110,110,0,110,110,NA,Sun Sep 24 18:13:10 2023,600,The main experiment item,FALSE,FlankerTask.osexp,C:\Users\backs\OneDrive\Documents,FALSE,mono,FALSE,18,no,white,no,yes,768,legacy,30,79,C:/Users/backs/OneDrive/Documents/subjectBZ-2.csv,legacy,Melodramatic Milgram,4.0.5,0,s,space,s,NA,s,NA,479,19897,29223,NA,479,NA,NA,NA,2,legacy,1024,2,48000,-16,experiment,HHSHH,2,even,246139,23526,193222,NA,207991,3623,231928,247220,NA,3628,163998,NA,247322,247803,NA,247218,247321,NA,Flanker Task ,110,61505,111,1024
99,99,552,552,#3d3846,legacy,legacy,legacy,congruent,1,undefined,1,h,111,0,0,0,111,0,111,111,NA,0,0,0,111,111,0,111,111,NA,Sun Sep 24 18:13:10 2023,600,The main experiment item,FALSE,FlankerTask.osexp,C:\Users\backs\OneDrive\Documents,FALSE,mono,FALSE,18,no,white,no,yes,768,legacy,31,79,C:/Users/backs/OneDrive/Documents/subjectBZ-2.csv,legacy,Melodramatic Milgram,4.0.5,0,h,space,s,NA,h,NA,429,19897,29223,NA,429,NA,NA,NA,2,legacy,1024,2,48000,-16,experiment,HHHHH,2,even,247807,23526,193222,NA,207991,3623,231928,248895,NA,3628,163998,NA,248997,249428,NA,248892,248997,NA,Flanker Task ,111,61934,112,1024
99,99,551,551,#3d3846,legacy,legacy,legacy,congruent,1,undefined,1,s,112,0,0,0,112,0,112,112,NA,0,0,0,112,112,0,112,112,NA,Sun Sep 24 18:13:10 2023,600,The main experiment item,FALSE,FlankerTask.osexp,C:\Users\backs\OneDrive\Documents,FALSE,mono,FALSE,18,no,white,no,yes,768,legacy,32,79,C:/Users/backs/OneDrive/Documents/subjectBZ-2.csv,legacy,Melodramatic Milgram,4.0.5,0,s,space,s,NA,s,NA,401,19897,29223,NA,401,NA,NA,NA,2,legacy,1024,2,48000,-16,experiment,SSSSS,2,even,249433,23526,193222,NA,207991,3623,231928,250527,NA,3628,163998,NA,250630,251032,NA,250525,250630,NA,Flanker Task ,112,62335,113,1024
99,99,551,551,#3d3846,legacy,legacy,legacy,congruent,1,undefined,1,s,113,0,0,0,113,0,113,113,NA,0,0,0,113,113,0,113,113,NA,Sun Sep 24 18:13:10 2023,600,The main experiment item,FALSE,FlankerTask.osexp,C:\Users\backs\OneDrive\Documents,FALSE,mono,FALSE,18,no,white,no,yes,768,legacy,33,79,C:/Users/backs/OneDrive/Documents/subjectBZ-2.csv,legacy,Melodramatic Milgram,4.0.5,0,s,space,s,NA,s,NA,490,19897,29223,NA,490,NA,NA,NA,2,legacy,1024,2,48000,-16,experiment,SSSSS,2,even,251036,23526,193222,NA,207991,3623,231928,252129,NA,3628,163998,NA,252231,252723,NA,252127,252231,NA,Flanker Task ,113,62825,114,1024
99,99,551,551,#3d3846,legacy,legacy,legacy,incongruent,1,undefined,1,h,114,0,0,0,114,0,114,114,NA,0,0,0,114,114,0,114,114,NA,Sun Sep 24 18:13:10 2023,600,The main experiment item,FALSE,FlankerTask.osexp,C:\Users\backs\OneDrive\Documents,FALSE,mono,FALSE,18,no,white,no,yes,768,legacy,34,79,C:/Users/backs/OneDrive/Documents/subjectBZ-2.csv,legacy,Melodramatic Milgram,4.0.5,0,h,space,s,NA,h,NA,543,19897,29223,NA,543,NA,NA,NA,2,legacy,1024,2,48000,-16,experiment,SSHSS,2,even,252727,23526,193222,NA,207991,3623,231928,253817,NA,3628,163998,NA,253919,254464,NA,253815,253919,NA,Flanker Task ,114,63368,115,1024
99,99,550,550,#3d3846,legacy,legacy,legacy,incongruent,1,undefined,1,h,115,0,0,0,115,0,115,115,NA,0,0,0,115,115,0,115,115,NA,Sun Sep 24 18:13:10 2023,600,The main experiment item,FALSE,FlankerTask.osexp,C:\Users\backs\OneDrive\Documents,FALSE,mono,FALSE,18,no,white,no,yes,768,legacy,35,79,C:/Users/backs/OneDrive/Documents/subjectBZ-2.csv,legacy,Melodramatic Milgram,4.0.5,0,h,space,s,NA,h,NA,530,19897,29223,NA,530,NA,NA,NA,2,legacy,1024,2,48000,-16,experiment,SSHSS,2,even,254470,23526,193222,NA,207991,3623,231928,255556,NA,3628,163998,NA,255658,256189,NA,255554,255658,NA,Flanker Task ,115,63898,116,1024
99,99,550,550,#3d3846,legacy,legacy,legacy,congruent,1,undefined,1,s,116,0,0,0,116,0,116,116,NA,0,0,0,116,116,0,116,116,NA,Sun Sep 24 18:13:10 2023,600,The main experiment item,FALSE,FlankerTask.osexp,C:\Users\backs\OneDrive\Documents,FALSE,mono,FALSE,18,no,white,no,yes,768,legacy,36,79,C:/Users/backs/OneDrive/Documents/subjectBZ-2.csv,legacy,Melodramatic Milgram,4.0.5,0,s,space,s,NA,s,NA,477,19897,29223,NA,477,NA,NA,NA,2,legacy,1024,2,48000,-16,experiment,SSSSS,2,even,256193,23526,193222,NA,207991,3623,231928,257297,NA,3628,163998,NA,257399,257877,NA,257295,257398,NA,Flanker Task ,116,64375,117,1024
99,99,549,549,#3d3846,legacy,legacy,legacy,congruent,1,undefined,1,h,117,0,0,0,117,0,117,117,NA,0,0,0,117,117,0,117,117,NA,Sun Sep 24 18:13:10 2023,600,The main experiment item,FALSE,FlankerTask.osexp,C:\Users\backs\OneDrive\Documents,FALSE,mono,FALSE,18,no,white,no,yes,768,legacy,37,79,C:/Users/backs/OneDrive/Documents/subjectBZ-2.csv,legacy,Melodramatic Milgram,4.0.5,0,h,space,s,NA,h,NA,409,19897,29223,NA,409,NA,NA,NA,2,legacy,1024,2,48000,-16,experiment,HHHHH,2,even,257882,23526,193222,NA,207991,3623,231928,258969,NA,3628,163998,NA,259071,259481,NA,258967,259071,NA,Flanker Task ,117,64784,118,1024
99,99,547,547,#3d3846,legacy,legacy,legacy,incongruent,1,undefined,1,s,118,0,0,0,118,0,118,118,NA,0,0,0,118,118,0,118,118,NA,Sun Sep 24 18:13:10 2023,600,The main experiment item,FALSE,FlankerTask.osexp,C:\Users\backs\OneDrive\Documents,FALSE,mono,FALSE,18,no,white,no,yes,768,legacy,38,79,C:/Users/backs/OneDrive/Documents/subjectBZ-2.csv,legacy,Melodramatic Milgram,4.0.5,0,s,space,s,NA,s,NA,424,19897,29223,NA,424,NA,NA,NA,2,legacy,1024,2,48000,-16,experiment,HHSHH,2,even,259485,23526,193222,NA,207991,3623,231928,260577,NA,3628,163998,NA,260679,261105,NA,260575,260679,NA,Flanker Task ,118,65208,119,1024
99,99,546,546,#3d3846,legacy,legacy,legacy,incongruent,1,undefined,1,h,119,0,0,0,119,0,119,119,NA,0,0,0,119,119,0,119,119,NA,Sun Sep 24 18:13:10 2023,600,The main experiment item,FALSE,FlankerTask.osexp,C:\Users\backs\OneDrive\Documents,FALSE,mono,FALSE,18,no,white,no,yes,768,legacy,39,79,C:/Users/backs/OneDrive/Documents/subjectBZ-2.csv,legacy,Melodramatic Milgram,4.0.5,0,h,space,s,NA,h,NA,378,19897,29223,NA,378,NA,NA,NA,2,legacy,1024,2,48000,-16,experiment,SSHSS,2,even,261109,23526,193222,NA,207991,3623,231928,262201,NA,3628,163998,NA,262303,262682,NA,262198,262303,NA,Flanker Task ,119,65586,120,1024
99,99,545,545,#3d3846,legacy,legacy,legacy,incongruent,1,undefined,1,s,120,0,0,0,120,0,120,120,NA,0,0,0,120,120,0,120,120,NA,Sun Sep 24 18:13:10 2023,600,The main experiment item,FALSE,FlankerTask.osexp,C:\Users\backs\OneDrive\Documents,FALSE,mono,FALSE,18,no,white,no,yes,768,legacy,40,79,C:/Users/backs/OneDrive/Documents/subjectBZ-2.csv,legacy,Melodramatic Milgram,4.0.5,0,s,space,s,NA,s,NA,399,19897,29223,NA,399,NA,NA,NA,2,legacy,1024,2,48000,-16,experiment,HHSHH,2,even,262685,23526,193222,NA,207991,3623,231928,263768,NA,3628,163998,NA,263870,264271,NA,263766,263870,NA,Flanker Task ,120,65985,121,1024
98,98,543,543,#3d3846,legacy,legacy,legacy,incongruent,0,undefined,0,s,121,0,0,0,121,0,121,121,NA,0,0,0,121,121,0,121,121,NA,Sun Sep 24 18:13:10 2023,600,The main experiment item,FALSE,FlankerTask.osexp,C:\Users\backs\OneDrive\Documents,FALSE,mono,FALSE,18,no,white,no,yes,768,legacy,41,79,C:/Users/backs/OneDrive/Documents/subjectBZ-2.csv,legacy,Melodramatic Milgram,4.0.5,0,h,space,s,NA,h,NA,359,19897,29223,NA,359,NA,NA,NA,2,legacy,1024,2,48000,-16,experiment,HHSHH,2,even,264275,23526,193222,NA,207991,3623,231928,265366,NA,3628,163998,NA,265468,265828,NA,265364,265468,NA,Flanker Task ,120,66344,122,1024
98,98,543,543,#3d3846,legacy,legacy,legacy,congruent,1,undefined,1,h,122,0,0,0,122,0,122,122,NA,0,0,0,122,122,0,122,122,NA,Sun Sep 24 18:13:10 2023,600,The main experiment item,FALSE,FlankerTask.osexp,C:\Users\backs\OneDrive\Documents,FALSE,mono,FALSE,18,no,white,no,yes,768,legacy,42,79,C:/Users/backs/OneDrive/Documents/subjectBZ-2.csv,legacy,Melodramatic Milgram,4.0.5,0,h,space,s,NA,h,NA,511,19897,29223,NA,511,NA,NA,NA,2,legacy,1024,2,48000,-16,experiment,HHHHH,2,even,266334,23526,193222,NA,265832,3623,231928,267420,NA,3628,163998,NA,267522,268035,NA,267418,267521,NA,Flanker Task ,121,66855,123,1024
98,98,543,543,#3d3846,legacy,legacy,legacy,incongruent,1,undefined,1,h,123,0,0,0,123,0,123,123,NA,0,0,0,123,123,0,123,123,NA,Sun Sep 24 18:13:10 2023,600,The main experiment item,FALSE,FlankerTask.osexp,C:\Users\backs\OneDrive\Documents,FALSE,mono,FALSE,18,no,white,no,yes,768,legacy,43,79,C:/Users/backs/OneDrive/Documents/subjectBZ-2.csv,legacy,Melodramatic Milgram,4.0.5,0,h,space,s,NA,h,NA,542,19897,29223,NA,542,NA,NA,NA,2,legacy,1024,2,48000,-16,experiment,SSHSS,2,even,268041,23526,193222,NA,265832,3623,231928,269119,NA,3628,163998,NA,269221,269765,NA,269117,269221,NA,Flanker Task ,122,67397,124,1024
98,98,542,542,#3d3846,legacy,legacy,legacy,congruent,1,undefined,1,s,124,0,0,0,124,0,124,124,NA,0,0,0,124,124,0,124,124,NA,Sun Sep 24 18:13:10 2023,600,The main experiment item,FALSE,FlankerTask.osexp,C:\Users\backs\OneDrive\Documents,FALSE,mono,FALSE,18,no,white,no,yes,768,legacy,44,79,C:/Users/backs/OneDrive/Documents/subjectBZ-2.csv,legacy,Melodramatic Milgram,4.0.5,0,s,space,s,NA,s,NA,456,19897,29223,NA,456,NA,NA,NA,2,legacy,1024,2,48000,-16,experiment,SSSSS,2,even,269768,23526,193222,NA,265832,3623,231928,270853,NA,3628,163998,NA,270955,271413,NA,270851,270955,NA,Flanker Task ,123,67853,125,1024
98,98,541,541,#3d3846,legacy,legacy,legacy,incongruent,1,undefined,1,h,125,0,0,0,125,0,125,125,NA,0,0,0,125,125,0,125,125,NA,Sun Sep 24 18:13:10 2023,600,The main experiment item,FALSE,FlankerTask.osexp,C:\Users\backs\OneDrive\Documents,FALSE,mono,FALSE,18,no,white,no,yes,768,legacy,45,79,C:/Users/backs/OneDrive/Documents/subjectBZ-2.csv,legacy,Melodramatic Milgram,4.0.5,0,h,space,s,NA,h,NA,423,19897,29223,NA,423,NA,NA,NA,2,legacy,1024,2,48000,-16,experiment,SSHSS,2,even,271418,23526,193222,NA,265832,3623,231928,272523,NA,3628,163998,NA,272625,273050,NA,272521,272625,NA,Flanker Task ,124,68276,126,1024
98,98,541,541,#3d3846,legacy,legacy,legacy,congruent,1,undefined,1,h,126,0,0,0,126,0,126,126,NA,0,0,0,126,126,0,126,126,NA,Sun Sep 24 18:13:10 2023,600,The main experiment item,FALSE,FlankerTask.osexp,C:\Users\backs\OneDrive\Documents,FALSE,mono,FALSE,18,no,white,no,yes,768,legacy,46,79,C:/Users/backs/OneDrive/Documents/subjectBZ-2.csv,legacy,Melodramatic Milgram,4.0.5,0,h,space,s,NA,h,NA,514,19897,29223,NA,514,NA,NA,NA,2,legacy,1024,2,48000,-16,experiment,HHHHH,2,even,273055,23526,193222,NA,265832,3623,231928,274143,NA,3628,163998,NA,274245,274761,NA,274141,274245,NA,Flanker Task ,125,68790,127,1024
98,98,542,542,#3d3846,legacy,legacy,legacy,incongruent,1,undefined,1,s,127,0,0,0,127,0,127,127,NA,0,0,0,127,127,0,127,127,NA,Sun Sep 24 18:13:10 2023,600,The main experiment item,FALSE,FlankerTask.osexp,C:\Users\backs\OneDrive\Documents,FALSE,mono,FALSE,18,no,white,no,yes,768,legacy,47,79,C:/Users/backs/OneDrive/Documents/subjectBZ-2.csv,legacy,Melodramatic Milgram,4.0.5,0,s,space,s,NA,s,NA,620,19897,29223,NA,620,NA,NA,NA,2,legacy,1024,2,48000,-16,experiment,HHSHH,2,even,274764,23526,193222,NA,265832,3623,231928,275853,NA,3628,163998,NA,275956,276578,NA,275852,275956,NA,Flanker Task ,126,69410,128,1024
98,98,542,542,#3d3846,legacy,legacy,legacy,incongruent,1,undefined,1,s,128,0,0,0,128,0,128,128,NA,0,0,0,128,128,0,128,128,NA,Sun Sep 24 18:13:10 2023,600,The main experiment item,FALSE,FlankerTask.osexp,C:\Users\backs\OneDrive\Documents,FALSE,mono,FALSE,18,no,white,no,yes,768,legacy,48,79,C:/Users/backs/OneDrive/Documents/subjectBZ-2.csv,legacy,Melodramatic Milgram,4.0.5,0,s,space,s,NA,s,NA,563,19897,29223,NA,563,NA,NA,NA,2,legacy,1024,2,48000,-16,experiment,HHSHH,2,even,277083,23526,193222,NA,265832,3623,276581,278161,NA,3628,163998,NA,278263,278827,NA,278158,278263,NA,Flanker Task ,127,69973,129,1024
98,98,542,542,#3d3846,legacy,legacy,legacy,incongruent,1,undefined,1,s,129,0,0,0,129,0,129,129,NA,0,0,0,129,129,0,129,129,NA,Sun Sep 24 18:13:10 2023,600,The main experiment item,FALSE,FlankerTask.osexp,C:\Users\backs\OneDrive\Documents,FALSE,mono,FALSE,18,no,white,no,yes,768,legacy,49,79,C:/Users/backs/OneDrive/Documents/subjectBZ-2.csv,legacy,Melodramatic Milgram,4.0.5,0,s,space,s,NA,s,NA,541,19897,29223,NA,541,NA,NA,NA,2,legacy,1024,2,48000,-16,experiment,HHSHH,2,even,278831,23526,193222,NA,265832,3623,276581,279918,NA,3628,163998,NA,280020,280562,NA,279916,280019,NA,Flanker Task ,128,70514,130,1024
98,98,542,542,#3d3846,legacy,legacy,legacy,congruent,1,undefined,1,h,130,0,0,0,130,0,130,130,NA,0,0,0,130,130,0,130,130,NA,Sun Sep 24 18:13:10 2023,600,The main experiment item,FALSE,FlankerTask.osexp,C:\Users\backs\OneDrive\Documents,FALSE,mono,FALSE,18,no,white,no,yes,768,legacy,50,79,C:/Users/backs/OneDrive/Documents/subjectBZ-2.csv,legacy,Melodramatic Milgram,4.0.5,0,h,space,s,NA,h,NA,521,19897,29223,NA,521,NA,NA,NA,2,legacy,1024,2,48000,-16,experiment,HHHHH,2,even,280566,23526,193222,NA,265832,3623,276581,281646,NA,3628,163998,NA,281748,282271,NA,281644,281748,NA,Flanker Task ,129,71035,131,1024
98,98,542,542,#3d3846,legacy,legacy,legacy,incongruent,1,undefined,1,s,131,0,0,0,131,0,131,131,NA,0,0,0,131,131,0,131,131,NA,Sun Sep 24 18:13:10 2023,600,The main experiment item,FALSE,FlankerTask.osexp,C:\Users\backs\OneDrive\Documents,FALSE,mono,FALSE,18,no,white,no,yes,768,legacy,51,79,C:/Users/backs/OneDrive/Documents/subjectBZ-2.csv,legacy,Melodramatic Milgram,4.0.5,0,s,space,s,NA,s,NA,591,19897,29223,NA,591,NA,NA,NA,2,legacy,1024,2,48000,-16,experiment,HHSHH,2,even,282275,23526,193222,NA,265832,3623,276581,283356,NA,3628,163998,NA,283458,284050,NA,283354,283457,NA,Flanker Task ,130,71626,132,1024
98,98,541,541,#3d3846,legacy,legacy,legacy,congruent,1,undefined,1,h,132,0,0,0,132,0,132,132,NA,0,0,0,132,132,0,132,132,NA,Sun Sep 24 18:13:10 2023,600,The main experiment item,FALSE,FlankerTask.osexp,C:\Users\backs\OneDrive\Documents,FALSE,mono,FALSE,18,no,white,no,yes,768,legacy,52,79,C:/Users/backs/OneDrive/Documents/subjectBZ-2.csv,legacy,Melodramatic Milgram,4.0.5,0,h,space,s,NA,h,NA,393,19897,29223,NA,393,NA,NA,NA,2,legacy,1024,2,48000,-16,experiment,HHHHH,2,even,284054,23526,193222,NA,265832,3623,276581,285136,NA,3628,163998,NA,285238,285633,NA,285133,285238,NA,Flanker Task ,131,72019,133,1024
98,98,541,541,#3d3846,legacy,legacy,legacy,incongruent,1,undefined,1,h,133,0,0,0,133,0,133,133,NA,0,0,0,133,133,0,133,133,NA,Sun Sep 24 18:13:10 2023,600,The main experiment item,FALSE,FlankerTask.osexp,C:\Users\backs\OneDrive\Documents,FALSE,mono,FALSE,18,no,white,no,yes,768,legacy,53,79,C:/Users/backs/OneDrive/Documents/subjectBZ-2.csv,legacy,Melodramatic Milgram,4.0.5,0,h,space,s,NA,h,NA,570,19897,29223,NA,570,NA,NA,NA,2,legacy,1024,2,48000,-16,experiment,SSHSS,2,even,285637,23526,193222,NA,265832,3623,276581,286714,NA,3628,163998,NA,286816,287387,NA,286712,286815,NA,Flanker Task ,132,72589,134,1024
98,98,540,540,#3d3846,legacy,legacy,legacy,congruent,1,undefined,1,s,134,0,0,0,134,0,134,134,NA,0,0,0,134,134,0,134,134,NA,Sun Sep 24 18:13:10 2023,600,The main experiment item,FALSE,FlankerTask.osexp,C:\Users\backs\OneDrive\Documents,FALSE,mono,FALSE,18,no,white,no,yes,768,legacy,54,79,C:/Users/backs/OneDrive/Documents/subjectBZ-2.csv,legacy,Melodramatic Milgram,4.0.5,0,s,space,s,NA,s,NA,425,19897,29223,NA,425,NA,NA,NA,2,legacy,1024,2,48000,-16,experiment,SSSSS,2,even,287391,23526,193222,NA,265832,3623,276581,288489,NA,3628,163998,NA,288592,289019,NA,288487,288591,NA,Flanker Task ,133,73014,135,1024
98,98,539,539,#3d3846,legacy,legacy,legacy,congruent,1,undefined,1,h,135,0,0,0,135,0,135,135,NA,0,0,0,135,135,0,135,135,NA,Sun Sep 24 18:13:10 2023,600,The main experiment item,FALSE,FlankerTask.osexp,C:\Users\backs\OneDrive\Documents,FALSE,mono,FALSE,18,no,white,no,yes,768,legacy,55,79,C:/Users/backs/OneDrive/Documents/subjectBZ-2.csv,legacy,Melodramatic Milgram,4.0.5,0,h,space,s,NA,h,NA,422,19897,29223,NA,422,NA,NA,NA,2,legacy,1024,2,48000,-16,experiment,HHHHH,2,even,289024,23526,193222,NA,265832,3623,276581,290114,NA,3628,163998,NA,290216,290640,NA,290111,290216,NA,Flanker Task ,134,73436,136,1024
98,98,539,539,#3d3846,legacy,legacy,legacy,congruent,1,undefined,1,s,136,0,0,0,136,0,136,136,NA,0,0,0,136,136,0,136,136,NA,Sun Sep 24 18:13:10 2023,600,The main experiment item,FALSE,FlankerTask.osexp,C:\Users\backs\OneDrive\Documents,FALSE,mono,FALSE,18,no,white,no,yes,768,legacy,56,79,C:/Users/backs/OneDrive/Documents/subjectBZ-2.csv,legacy,Melodramatic Milgram,4.0.5,0,s,space,s,NA,s,NA,445,19897,29223,NA,445,NA,NA,NA,2,legacy,1024,2,48000,-16,experiment,SSSSS,2,even,290644,23526,193222,NA,265832,3623,276581,291729,NA,3628,163998,NA,291831,292277,NA,291726,291830,NA,Flanker Task ,135,73881,137,1024
98,98,539,539,#3d3846,legacy,legacy,legacy,incongruent,1,undefined,1,s,137,0,0,0,137,0,137,137,NA,0,0,0,137,137,0,137,137,NA,Sun Sep 24 18:13:10 2023,600,The main experiment item,FALSE,FlankerTask.osexp,C:\Users\backs\OneDrive\Documents,FALSE,mono,FALSE,18,no,white,no,yes,768,legacy,57,79,C:/Users/backs/OneDrive/Documents/subjectBZ-2.csv,legacy,Melodramatic Milgram,4.0.5,0,s,space,s,NA,s,NA,508,19897,29223,NA,508,NA,NA,NA,2,legacy,1024,2,48000,-16,experiment,HHSHH,2,even,292281,23526,193222,NA,265832,3623,276581,293377,NA,3628,163998,NA,293479,293989,NA,293375,293479,NA,Flanker Task ,136,74389,138,1024
97,97,538,538,#3d3846,legacy,legacy,legacy,incongruent,0,undefined,0,h,138,0,0,0,138,0,138,138,NA,0,0,0,138,138,0,138,138,NA,Sun Sep 24 18:13:10 2023,600,The main experiment item,FALSE,FlankerTask.osexp,C:\Users\backs\OneDrive\Documents,FALSE,mono,FALSE,18,no,white,no,yes,768,legacy,58,79,C:/Users/backs/OneDrive/Documents/subjectBZ-2.csv,legacy,Melodramatic Milgram,4.0.5,0,s,space,s,NA,s,NA,488,19897,29223,NA,488,NA,NA,NA,2,legacy,1024,2,48000,-16,experiment,SSHSS,2,even,293992,23526,193222,NA,265832,3623,276581,295083,NA,3628,163998,NA,295185,295674,NA,295081,295185,NA,Flanker Task ,136,74877,139,1024
97,97,538,538,#3d3846,legacy,legacy,legacy,incongruent,1,undefined,1,h,139,0,0,0,139,0,139,139,NA,0,0,0,139,139,0,139,139,NA,Sun Sep 24 18:13:10 2023,600,The main experiment item,FALSE,FlankerTask.osexp,C:\Users\backs\OneDrive\Documents,FALSE,mono,FALSE,18,no,white,no,yes,768,legacy,59,79,C:/Users/backs/OneDrive/Documents/subjectBZ-2.csv,legacy,Melodramatic Milgram,4.0.5,0,h,space,s,NA,h,NA,551,19897,29223,NA,551,NA,NA,NA,2,legacy,1024,2,48000,-16,experiment,SSHSS,2,even,296182,23526,193222,NA,295680,3623,276581,297259,NA,3628,163998,NA,297361,297914,NA,297257,297361,NA,Flanker Task ,137,75428,140,1024
97,97,538,538,#3d3846,legacy,legacy,legacy,incongruent,1,undefined,1,s,140,0,0,0,140,0,140,140,NA,0,0,0,140,140,0,140,140,NA,Sun Sep 24 18:13:10 2023,600,The main experiment item,FALSE,FlankerTask.osexp,C:\Users\backs\OneDrive\Documents,FALSE,mono,FALSE,18,no,white,no,yes,768,legacy,60,79,C:/Users/backs/OneDrive/Documents/subjectBZ-2.csv,legacy,Melodramatic Milgram,4.0.5,0,s,space,s,NA,s,NA,483,19897,29223,NA,483,NA,NA,NA,2,legacy,1024,2,48000,-16,experiment,HHSHH,2,even,297918,23526,193222,NA,295680,3623,276581,299013,NA,3628,163998,NA,299115,299599,NA,299011,299115,NA,Flanker Task ,138,75911,141,1024
97,97,537,537,#3d3846,legacy,legacy,legacy,congruent,1,undefined,1,h,141,0,0,0,141,0,141,141,NA,0,0,0,141,141,0,141,141,NA,Sun Sep 24 18:13:10 2023,600,The main experiment item,FALSE,FlankerTask.osexp,C:\Users\backs\OneDrive\Documents,FALSE,mono,FALSE,18,no,white,no,yes,768,legacy,61,79,C:/Users/backs/OneDrive/Documents/subjectBZ-2.csv,legacy,Melodramatic Milgram,4.0.5,0,h,space,s,NA,h,NA,449,19897,29223,NA,449,NA,NA,NA,2,legacy,1024,2,48000,-16,experiment,HHHHH,2,even,299604,23526,193222,NA,295680,3623,276581,300688,NA,3628,163998,NA,300790,301241,NA,300686,300790,NA,Flanker Task ,139,76360,142,1024
97,97,537,537,#3d3846,legacy,legacy,legacy,incongruent,1,undefined,1,h,142,0,0,0,142,0,142,142,NA,0,0,0,142,142,0,142,142,NA,Sun Sep 24 18:13:10 2023,600,The main experiment item,FALSE,FlankerTask.osexp,C:\Users\backs\OneDrive\Documents,FALSE,mono,FALSE,18,no,white,no,yes,768,legacy,62,79,C:/Users/backs/OneDrive/Documents/subjectBZ-2.csv,legacy,Melodramatic Milgram,4.0.5,0,h,space,s,NA,h,NA,526,19897,29223,NA,526,NA,NA,NA,2,legacy,1024,2,48000,-16,experiment,SSHSS,2,even,301247,23526,193222,NA,295680,3623,276581,302341,NA,3628,163998,NA,302443,302973,NA,302339,302442,NA,Flanker Task ,140,76886,143,1024
97,97,537,537,#3d3846,legacy,legacy,legacy,congruent,1,undefined,1,s,143,0,0,0,143,0,143,143,NA,0,0,0,143,143,0,143,143,NA,Sun Sep 24 18:13:10 2023,600,The main experiment item,FALSE,FlankerTask.osexp,C:\Users\backs\OneDrive\Documents,FALSE,mono,FALSE,18,no,white,no,yes,768,legacy,63,79,C:/Users/backs/OneDrive/Documents/subjectBZ-2.csv,legacy,Melodramatic Milgram,4.0.5,0,s,space,s,NA,s,NA,505,19897,29223,NA,505,NA,NA,NA,2,legacy,1024,2,48000,-16,experiment,SSSSS,2,even,302979,23526,193222,NA,295680,3623,276581,304089,NA,3628,163998,NA,304191,304698,NA,304087,304191,NA,Flanker Task ,141,77391,144,1024
97,97,537,537,#3d3846,legacy,legacy,legacy,incongruent,1,undefined,1,s,144,0,0,0,144,0,144,144,NA,0,0,0,144,144,0,144,144,NA,Sun Sep 24 18:13:10 2023,600,The main experiment item,FALSE,FlankerTask.osexp,C:\Users\backs\OneDrive\Documents,FALSE,mono,FALSE,18,no,white,no,yes,768,legacy,64,79,C:/Users/backs/OneDrive/Documents/subjectBZ-2.csv,legacy,Melodramatic Milgram,4.0.5,0,s,space,s,NA,s,NA,579,19897,29223,NA,579,NA,NA,NA,2,legacy,1024,2,48000,-16,experiment,HHSHH,2,even,304702,23526,193222,NA,295680,3623,276581,305790,NA,3628,163998,NA,305892,306473,NA,305788,305891,NA,Flanker Task ,142,77970,145,1024
97,97,536,536,#3d3846,legacy,legacy,legacy,incongruent,1,undefined,1,h,145,0,0,0,145,0,145,145,NA,0,0,0,145,145,0,145,145,NA,Sun Sep 24 18:13:10 2023,600,The main experiment item,FALSE,FlankerTask.osexp,C:\Users\backs\OneDrive\Documents,FALSE,mono,FALSE,18,no,white,no,yes,768,legacy,65,79,C:/Users/backs/OneDrive/Documents/subjectBZ-2.csv,legacy,Melodramatic Milgram,4.0.5,0,h,space,s,NA,h,NA,413,19897,29223,NA,413,NA,NA,NA,2,legacy,1024,2,48000,-16,experiment,SSHSS,2,even,306476,23526,193222,NA,295680,3623,276581,307567,NA,3628,163998,NA,307669,308084,NA,307564,307669,NA,Flanker Task ,143,78383,146,1024
97,97,536,536,#3d3846,legacy,legacy,legacy,incongruent,1,undefined,1,h,146,0,0,0,146,0,146,146,NA,0,0,0,146,146,0,146,146,NA,Sun Sep 24 18:13:10 2023,600,The main experiment item,FALSE,FlankerTask.osexp,C:\Users\backs\OneDrive\Documents,FALSE,mono,FALSE,18,no,white,no,yes,768,legacy,66,79,C:/Users/backs/OneDrive/Documents/subjectBZ-2.csv,legacy,Melodramatic Milgram,4.0.5,0,h,space,s,NA,h,NA,545,19897,29223,NA,545,NA,NA,NA,2,legacy,1024,2,48000,-16,experiment,SSHSS,2,even,308090,23526,193222,NA,295680,3623,276581,309180,NA,3628,163998,NA,309282,309828,NA,309177,309282,NA,Flanker Task ,144,78928,147,1024
97,97,536,536,#3d3846,legacy,legacy,legacy,incongruent,1,undefined,1,s,147,0,0,0,147,0,147,147,NA,0,0,0,147,147,0,147,147,NA,Sun Sep 24 18:13:10 2023,600,The main experiment item,FALSE,FlankerTask.osexp,C:\Users\backs\OneDrive\Documents,FALSE,mono,FALSE,18,no,white,no,yes,768,legacy,67,79,C:/Users/backs/OneDrive/Documents/subjectBZ-2.csv,legacy,Melodramatic Milgram,4.0.5,0,s,space,s,NA,s,NA,487,19897,29223,NA,487,NA,NA,NA,2,legacy,1024,2,48000,-16,experiment,HHSHH,2,even,309832,23526,193222,NA,295680,3623,276581,310926,NA,3628,163998,NA,311028,311517,NA,310923,311028,NA,Flanker Task ,145,79415,148,1024
97,97,536,536,#3d3846,legacy,legacy,legacy,congruent,1,undefined,1,s,148,0,0,0,148,0,148,148,NA,0,0,0,148,148,0,148,148,NA,Sun Sep 24 18:13:10 2023,600,The main experiment item,FALSE,FlankerTask.osexp,C:\Users\backs\OneDrive\Documents,FALSE,mono,FALSE,18,no,white,no,yes,768,legacy,68,79,C:/Users/backs/OneDrive/Documents/subjectBZ-2.csv,legacy,Melodramatic Milgram,4.0.5,0,s,space,s,NA,s,NA,520,19897,29223,NA,520,NA,NA,NA,2,legacy,1024,2,48000,-16,experiment,SSSSS,2,even,311519,23526,193222,NA,295680,3623,276581,312600,NA,3628,163998,NA,312702,313223,NA,312597,312701,NA,Flanker Task ,146,79935,149,1024
98,98,535,535,#3d3846,legacy,legacy,legacy,congruent,1,undefined,1,h,149,0,0,0,149,0,149,149,NA,0,0,0,149,149,0,149,149,NA,Sun Sep 24 18:13:10 2023,600,The main experiment item,FALSE,FlankerTask.osexp,C:\Users\backs\OneDrive\Documents,FALSE,mono,FALSE,18,no,white,no,yes,768,legacy,69,79,C:/Users/backs/OneDrive/Documents/subjectBZ-2.csv,legacy,Melodramatic Milgram,4.0.5,0,h,space,s,NA,h,NA,442,19897,29223,NA,442,NA,NA,NA,2,legacy,1024,2,48000,-16,experiment,HHHHH,2,even,313227,23526,193222,NA,295680,3623,276581,314310,NA,3628,163998,NA,314412,314855,NA,314308,314412,NA,Flanker Task ,147,80377,150,1024
98,98,535,535,#3d3846,legacy,legacy,legacy,congruent,1,undefined,1,h,150,0,0,0,150,0,150,150,NA,0,0,0,150,150,0,150,150,NA,Sun Sep 24 18:13:10 2023,600,The main experiment item,FALSE,FlankerTask.osexp,C:\Users\backs\OneDrive\Documents,FALSE,mono,FALSE,18,no,white,no,yes,768,legacy,70,79,C:/Users/backs/OneDrive/Documents/subjectBZ-2.csv,legacy,Melodramatic Milgram,4.0.5,0,h,space,s,NA,h,NA,467,19897,29223,NA,467,NA,NA,NA,2,legacy,1024,2,48000,-16,experiment,HHHHH,2,even,314860,23526,193222,NA,295680,3623,276581,315940,NA,3628,163998,NA,316042,316510,NA,315938,316041,NA,Flanker Task ,148,80844,151,1024
98,98,535,535,#3d3846,legacy,legacy,legacy,congruent,1,undefined,1,s,151,0,0,0,151,0,151,151,NA,0,0,0,151,151,0,151,151,NA,Sun Sep 24 18:13:10 2023,600,The main experiment item,FALSE,FlankerTask.osexp,C:\Users\backs\OneDrive\Documents,FALSE,mono,FALSE,18,no,white,no,yes,768,legacy,71,79,C:/Users/backs/OneDrive/Documents/subjectBZ-2.csv,legacy,Melodramatic Milgram,4.0.5,0,s,space,s,NA,s,NA,561,19897,29223,NA,561,NA,NA,NA,2,legacy,1024,2,48000,-16,experiment,SSSSS,2,even,316514,23526,193222,NA,295680,3623,276581,317598,NA,3628,163998,NA,317701,318264,NA,317595,317701,NA,Flanker Task ,149,81405,152,1024
98,98,534,534,#3d3846,legacy,legacy,legacy,congruent,1,undefined,1,h,152,0,0,0,152,0,152,152,NA,0,0,0,152,152,0,152,152,NA,Sun Sep 24 18:13:10 2023,600,The main experiment item,FALSE,FlankerTask.osexp,C:\Users\backs\OneDrive\Documents,FALSE,mono,FALSE,18,no,white,no,yes,768,legacy,72,79,C:/Users/backs/OneDrive/Documents/subjectBZ-2.csv,legacy,Melodramatic Milgram,4.0.5,0,h,space,s,NA,h,NA,448,19897,29223,NA,448,NA,NA,NA,2,legacy,1024,2,48000,-16,experiment,HHHHH,2,even,318270,23526,193222,NA,295680,3623,276581,319377,NA,3628,163998,NA,319479,319928,NA,319375,319479,NA,Flanker Task ,150,81853,153,1024
98,98,534,534,#3d3846,legacy,legacy,legacy,incongruent,1,undefined,1,h,153,0,0,0,153,0,153,153,NA,0,0,0,153,153,0,153,153,NA,Sun Sep 24 18:13:10 2023,600,The main experiment item,FALSE,FlankerTask.osexp,C:\Users\backs\OneDrive\Documents,FALSE,mono,FALSE,18,no,white,no,yes,768,legacy,73,79,C:/Users/backs/OneDrive/Documents/subjectBZ-2.csv,legacy,Melodramatic Milgram,4.0.5,0,h,space,s,NA,h,NA,531,19897,29223,NA,531,NA,NA,NA,2,legacy,1024,2,48000,-16,experiment,SSHSS,2,even,319931,23526,193222,NA,295680,3623,276581,321018,NA,3628,163998,NA,321120,321653,NA,321016,321120,NA,Flanker Task ,151,82384,154,1024
98,98,534,534,#3d3846,legacy,legacy,legacy,congruent,1,undefined,1,h,154,0,0,0,154,0,154,154,NA,0,0,0,154,154,0,154,154,NA,Sun Sep 24 18:13:10 2023,600,The main experiment item,FALSE,FlankerTask.osexp,C:\Users\backs\OneDrive\Documents,FALSE,mono,FALSE,18,no,white,no,yes,768,legacy,74,79,C:/Users/backs/OneDrive/Documents/subjectBZ-2.csv,legacy,Melodramatic Milgram,4.0.5,0,h,space,s,NA,h,NA,445,19897,29223,NA,445,NA,NA,NA,2,legacy,1024,2,48000,-16,experiment,HHHHH,2,even,321659,23526,193222,NA,295680,3623,276581,322736,NA,3628,163998,NA,322838,323286,NA,322734,322838,NA,Flanker Task ,152,82829,155,1024
97,97,535,535,#3d3846,legacy,legacy,legacy,incongruent,0,undefined,0,h,155,0,0,0,155,0,155,155,NA,0,0,0,155,155,0,155,155,NA,Sun Sep 24 18:13:10 2023,600,The main experiment item,FALSE,FlankerTask.osexp,C:\Users\backs\OneDrive\Documents,FALSE,mono,FALSE,18,no,white,no,yes,768,legacy,75,79,C:/Users/backs/OneDrive/Documents/subjectBZ-2.csv,legacy,Melodramatic Milgram,4.0.5,0,s,space,s,NA,s,NA,764,19897,29223,NA,764,NA,NA,NA,2,legacy,1024,2,48000,-16,experiment,SSHSS,2,even,323290,23526,193222,NA,295680,3623,276581,324379,NA,3628,163998,NA,324481,325247,NA,324377,324481,NA,Flanker Task ,152,83593,156,1024
97,97,540,540,#3d3846,legacy,legacy,legacy,congruent,1,undefined,1,s,156,0,0,0,156,0,156,156,NA,0,0,0,156,156,0,156,156,NA,Sun Sep 24 18:13:10 2023,600,The main experiment item,FALSE,FlankerTask.osexp,C:\Users\backs\OneDrive\Documents,FALSE,mono,FALSE,18,no,white,no,yes,768,legacy,76,79,C:/Users/backs/OneDrive/Documents/subjectBZ-2.csv,legacy,Melodramatic Milgram,4.0.5,0,s,space,s,NA,s,NA,1189,19897,29223,NA,1189,NA,NA,NA,2,legacy,1024,2,48000,-16,experiment,SSSSS,2,even,326255,23526,193222,NA,325251,3623,325753,327339,NA,3628,163998,NA,327441,328631,NA,327337,327441,NA,Flanker Task ,153,84782,157,1024
97,97,539,539,#3d3846,legacy,legacy,legacy,congruent,1,undefined,1,s,157,0,0,0,157,0,157,157,NA,0,0,0,157,157,0,157,157,NA,Sun Sep 24 18:13:10 2023,600,The main experiment item,FALSE,FlankerTask.osexp,C:\Users\backs\OneDrive\Documents,FALSE,mono,FALSE,18,no,white,no,yes,768,legacy,77,79,C:/Users/backs/OneDrive/Documents/subjectBZ-2.csv,legacy,Melodramatic Milgram,4.0.5,0,s,space,s,NA,s,NA,512,19897,29223,NA,512,NA,NA,NA,2,legacy,1024,2,48000,-16,experiment,SSSSS,2,even,329137,23526,193222,NA,325251,3623,328635,330213,NA,3628,163998,NA,330315,330828,NA,330211,330314,NA,Flanker Task ,154,85294,158,1024
97,97,540,540,#3d3846,legacy,legacy,legacy,incongruent,1,undefined,1,h,158,0,0,0,158,0,158,158,NA,0,0,0,158,158,0,158,158,NA,Sun Sep 24 18:13:10 2023,600,The main experiment item,FALSE,FlankerTask.osexp,C:\Users\backs\OneDrive\Documents,FALSE,mono,FALSE,18,no,white,no,yes,768,legacy,78,79,C:/Users/backs/OneDrive/Documents/subjectBZ-2.csv,legacy,Melodramatic Milgram,4.0.5,0,h,space,s,NA,h,NA,600,19897,29223,NA,600,NA,NA,NA,2,legacy,1024,2,48000,-16,experiment,SSHSS,2,even,330832,23526,193222,NA,325251,3623,328635,331909,NA,3628,163998,NA,332011,332613,NA,331907,332010,NA,Flanker Task ,155,85894,159,1024
97,97,540,540,#3d3846,legacy,legacy,legacy,congruent,1,undefined,1,s,159,0,0,0,159,0,159,159,NA,0,0,0,159,159,0,159,159,NA,Sun Sep 24 18:13:10 2023,600,The main experiment item,FALSE,FlankerTask.osexp,C:\Users\backs\OneDrive\Documents,FALSE,mono,FALSE,18,no,white,no,yes,768,legacy,79,79,C:/Users/backs/OneDrive/Documents/subjectBZ-2.csv,legacy,Melodramatic Milgram,4.0.5,0,s,space,s,NA,s,NA,529,19897,29223,NA,529,NA,NA,NA,2,legacy,1024,2,48000,-16,experiment,SSSSS,2,even,332617,23526,193222,NA,325251,3623,328635,333692,NA,3628,163998,NA,333794,334325,NA,333690,333793,NA,Flanker Task ,156,86423,160,1024
97,97,541,541,#3d3846,legacy,legacy,legacy,congruent,1,undefined,1,s,160,0,0,0,160,0,160,160,NA,0,0,0,160,160,0,160,160,NA,Sun Sep 24 18:13:10 2023,300,The main experiment item,FALSE,FlankerTask.osexp,C:\Users\backs\OneDrive\Documents,FALSE,mono,FALSE,18,no,white,no,yes,768,legacy,0,79,C:/Users/backs/OneDrive/Documents/subjectBZ-2.csv,legacy,Melodramatic Milgram,4.0.5,0,s,space,s,s,s,NA,786,19897,29223,21877,786,NA,NA,NA,2,legacy,1024,2,48000,-16,experiment,SSSSS,2,even,334330,23526,193222,357212,325251,3623,328635,357290,NA,3628,163998,335333,357391,358178,NA,357289,357391,NA,Flanker Task ,157,87209,161,1024
96,96,540,540,#3d3846,legacy,legacy,legacy,incongruent,0,undefined,0,h,161,0,0,0,161,0,161,161,NA,0,0,0,161,161,0,161,161,NA,Sun Sep 24 18:13:10 2023,300,The main experiment item,FALSE,FlankerTask.osexp,C:\Users\backs\OneDrive\Documents,FALSE,mono,FALSE,18,no,white,no,yes,768,legacy,1,79,C:/Users/backs/OneDrive/Documents/subjectBZ-2.csv,legacy,Melodramatic Milgram,4.0.5,0,s,space,s,s,s,NA,404,19897,29223,21877,404,NA,NA,NA,2,legacy,1024,2,48000,-16,experiment,SSHSS,2,even,358684,23526,193222,357212,325251,3623,358183,359757,NA,3628,163998,335333,359859,360264,NA,359755,359859,NA,Flanker Task ,157,87613,162,1024
96,96,540,540,#3d3846,legacy,legacy,legacy,congruent,1,undefined,1,h,162,0,0,0,162,0,162,162,NA,0,0,0,162,162,0,162,162,NA,Sun Sep 24 18:13:10 2023,300,The main experiment item,FALSE,FlankerTask.osexp,C:\Users\backs\OneDrive\Documents,FALSE,mono,FALSE,18,no,white,no,yes,768,legacy,2,79,C:/Users/backs/OneDrive/Documents/subjectBZ-2.csv,legacy,Melodramatic Milgram,4.0.5,0,h,space,s,s,h,NA,460,19897,29223,21877,460,NA,NA,NA,2,legacy,1024,2,48000,-16,experiment,HHHHH,2,even,361271,23526,193222,357212,360268,3623,360770,362345,NA,3628,163998,335333,362447,362909,NA,362343,362446,NA,Flanker Task ,158,88073,163,1024
96,96,539,539,#3d3846,legacy,legacy,legacy,congruent,1,undefined,1,h,163,0,0,0,163,0,163,163,NA,0,0,0,163,163,0,163,163,NA,Sun Sep 24 18:13:10 2023,300,The main experiment item,FALSE,FlankerTask.osexp,C:\Users\backs\OneDrive\Documents,FALSE,mono,FALSE,18,no,white,no,yes,768,legacy,3,79,C:/Users/backs/OneDrive/Documents/subjectBZ-2.csv,legacy,Melodramatic Milgram,4.0.5,0,h,space,s,s,h,NA,462,19897,29223,21877,462,NA,NA,NA,2,legacy,1024,2,48000,-16,experiment,HHHHH,2,even,363414,23526,193222,357212,360268,3623,362913,364485,NA,3628,163998,335333,364587,365050,NA,364482,364586,NA,Flanker Task ,159,88535,164,1024
96,96,539,539,#3d3846,legacy,legacy,legacy,congruent,1,undefined,1,s,164,0,0,0,164,0,164,164,NA,0,0,0,164,164,0,164,164,NA,Sun Sep 24 18:13:10 2023,300,The main experiment item,FALSE,FlankerTask.osexp,C:\Users\backs\OneDrive\Documents,FALSE,mono,FALSE,18,no,white,no,yes,768,legacy,4,79,C:/Users/backs/OneDrive/Documents/subjectBZ-2.csv,legacy,Melodramatic Milgram,4.0.5,0,s,space,s,s,s,NA,417,19897,29223,21877,417,NA,NA,NA,2,legacy,1024,2,48000,-16,experiment,SSSSS,2,even,365558,23526,193222,357212,360268,3623,365056,366639,NA,3628,163998,335333,366741,367160,NA,366637,366740,NA,Flanker Task ,160,88952,165,1024
