"acc","accuracy","average_response_time","avg_rt","background","canvas_backend","clock_backend","color_backend","compensation","condition","coordinates","correct","correct_instructions1","correct_keyboardresponse","correct_response","count_block1","count_block2","count_block3","count_errorfeedback","count_experiment","count_faster","count_finish","count_fixation","count_instructions1","count_instructions2","count_instructions3","count_isi","count_keyboardresponse","count_logger","count_sequence","count_stimulus","datetime","deadline","description","disable_garbage_collection","experiment_file","experiment_path","font_bold","font_family","font_italic","font_size","font_underline","foreground","form_clicks","fullscreen","height","keyboard_backend","live_row","live_row_block1","logfile","mouse_backend","opensesame_codename","opensesame_version","repeat_cycle","response","response_finish","response_instructions1","response_instructions2","response_instructions3","response_keyboardresponse","response_time","response_time_finish","response_time_instructions1","response_time_instructions2","response_time_instructions3","response_time_keyboardresponse","round_decimals","sampler_backend","sound_buf_size","sound_channels","sound_freq","sound_sample_size","start","stimulus","subject_nr","subject_parity","time_block1","time_block2","time_block3","time_errorfeedback","time_experiment","time_faster","time_finish","time_fixation","time_instructions1","time_instructions2","time_instructions3","time_isi","time_keyboardresponse","time_logger","time_sequence","time_stimulus","title","total_correct","total_response_time","total_responses","uniform_coordinates","width"
"100","100","852","852","black","legacy","legacy","legacy","0","incongruent","uniform","1","undefined","1","s","0","0","0","0","0","0","0","0","0","0","0","0","0","0","0","0","09/27/20 19:13:54","1500","Flanker Task","yes","flankertasksubmission.osexp","C:\Users\User\Desktop\Quant 2020 - Copy","no","mono","no","18","no","white","no","yes","768","legacy","0","0","C:/Users/User/Desktop/Quant 2020 - Copy/HF-subject-3.csv","legacy","Lentiform Loewenfeld","3.3.3","0","s","NA","h","NA","NA","s","852","NA","33438","NA","NA","852","2","legacy","1024","2","48000","-16","experiment","HHSHH","3","odd","36275","NA","NA","NA","2832","NA","NA","36391","2836","NA","NA","NA","36497","37350","36388","36497","New experiment","1","852","1","yes","1024"
"100","100","717.5","717.5","black","legacy","legacy","legacy","0","congruent","uniform","1","undefined","1","h","0","0","0","1","0","1","0","1","0","0","0","1","1","1","1","1","09/27/20 19:13:54","1500","Flanker Task","yes","flankertasksubmission.osexp","C:\Users\User\Desktop\Quant 2020 - Copy","no","mono","no","18","no","white","no","yes","768","legacy","1","1","C:/Users/User/Desktop/Quant 2020 - Copy/HF-subject-3.csv","legacy","Lentiform Loewenfeld","3.3.3","0","h","NA","h","NA","NA","h","583","NA","33438","NA","NA","583","2","legacy","1024","2","48000","-16","experiment","HHHHH","3","odd","36275","NA","NA","NA","2832","NA","NA","38491","2836","NA","NA","37361","38598","39182","38488","38597","New experiment","2","1435","2","yes","1024"
"100","100","668.333333333","668.333333333","black","legacy","legacy","legacy","0","congruent","uniform","1","undefined","1","s","0","0","0","2","0","2","0","2","0","0","0","2","2","2","2","2","09/27/20 19:13:54","1500","Flanker Task","yes","flankertasksubmission.osexp","C:\Users\User\Desktop\Quant 2020 - Copy","no","mono","no","18","no","white","no","yes","768","legacy","2","2","C:/Users/User/Desktop/Quant 2020 - Copy/HF-subject-3.csv","legacy","Lentiform Loewenfeld","3.3.3","0","s","NA","h","NA","NA","s","570","NA","33438","NA","NA","570","2","legacy","1024","2","48000","-16","experiment","SSSSS","3","odd","36275","NA","NA","NA","2832","NA","NA","40325","2836","NA","NA","39187","40431","41003","40322","40431","New experiment","3","2005","3","yes","1024"
"100","100","635.5","635.5","black","legacy","legacy","legacy","0","incongruent","uniform","1","undefined","1","s","0","0","0","3","0","3","0","3","0","0","0","3","3","3","3","3","09/27/20 19:13:54","1500","Flanker Task","yes","flankertasksubmission.osexp","C:\Users\User\Desktop\Quant 2020 - Copy","no","mono","no","18","no","white","no","yes","768","legacy","3","3","C:/Users/User/Desktop/Quant 2020 - Copy/HF-subject-3.csv","legacy","Lentiform Loewenfeld","3.3.3","0","s","NA","h","NA","NA","s","537","NA","33438","NA","NA","537","2","legacy","1024","2","48000","-16","experiment","HHSHH","3","odd","36275","NA","NA","NA","2832","NA","NA","42150","2836","NA","NA","41017","42256","42794","42147","42256","New experiment","4","2542","4","yes","1024"
"100","100","600.4","600.4","black","legacy","legacy","legacy","0","congruent","uniform","1","undefined","1","h","0","0","0","4","0","4","0","4","0","0","0","4","4","4","4","4","09/27/20 19:13:54","1500","Flanker Task","yes","flankertasksubmission.osexp","C:\Users\User\Desktop\Quant 2020 - Copy","no","mono","no","18","no","white","no","yes","768","legacy","4","4","C:/Users/User/Desktop/Quant 2020 - Copy/HF-subject-3.csv","legacy","Lentiform Loewenfeld","3.3.3","0","h","NA","h","NA","NA","h","460","NA","33438","NA","NA","460","2","legacy","1024","2","48000","-16","experiment","HHHHH","3","odd","36275","NA","NA","NA","2832","NA","NA","43947","2836","NA","NA","42808","44053","44514","43944","44052","New experiment","5","3002","5","yes","1024"
"100","100","574.333333333","574.333333333","black","legacy","legacy","legacy","0","incongruent","uniform","1","undefined","1","h","0","0","0","5","0","5","0","5","0","0","0","5","5","5","5","5","09/27/20 19:13:54","1500","Flanker Task","yes","flankertasksubmission.osexp","C:\Users\User\Desktop\Quant 2020 - Copy","no","mono","no","18","no","white","no","yes","768","legacy","5","5","C:/Users/User/Desktop/Quant 2020 - Copy/HF-subject-3.csv","legacy","Lentiform Loewenfeld","3.3.3","0","h","NA","h","NA","NA","h","444","NA","33438","NA","NA","444","2","legacy","1024","2","48000","-16","experiment","SSHSS","3","odd","36275","NA","NA","NA","2832","NA","NA","45673","2836","NA","NA","44525","45779","46224","45665","45778","New experiment","6","3446","6","yes","1024"
"100","100","561.571428571","561.571428571","black","legacy","legacy","legacy","0","congruent","uniform","1","undefined","1","s","0","0","0","6","0","6","0","6","0","0","0","6","6","6","6","6","09/27/20 19:13:54","1500","Flanker Task","yes","flankertasksubmission.osexp","C:\Users\User\Desktop\Quant 2020 - Copy","no","mono","no","18","no","white","no","yes","768","legacy","6","6","C:/Users/User/Desktop/Quant 2020 - Copy/HF-subject-3.csv","legacy","Lentiform Loewenfeld","3.3.3","0","s","NA","h","NA","NA","s","485","NA","33438","NA","NA","485","2","legacy","1024","2","48000","-16","experiment","SSSSS","3","odd","36275","NA","NA","NA","2832","NA","NA","47371","2836","NA","NA","46233","47477","47963","47367","47476","New experiment","7","3931","7","yes","1024"
"100","100","546.25","546.25","black","legacy","legacy","legacy","0","congruent","uniform","1","undefined","1","h","0","0","0","7","0","7","0","7","0","0","0","7","7","7","7","7","09/27/20 19:13:54","1500","Flanker Task","yes","flankertasksubmission.osexp","C:\Users\User\Desktop\Quant 2020 - Copy","no","mono","no","18","no","white","no","yes","768","legacy","7","7","C:/Users/User/Desktop/Quant 2020 - Copy/HF-subject-3.csv","legacy","Lentiform Loewenfeld","3.3.3","0","h","NA","h","NA","NA","h","439","NA","33438","NA","NA","439","2","legacy","1024","2","48000","-16","experiment","HHHHH","3","odd","36275","NA","NA","NA","2832","NA","NA","49114","2836","NA","NA","47972","49220","49660","49111","49219","New experiment","8","4370","8","yes","1024"
"100","100","531.666666667","531.666666667","black","legacy","legacy","legacy","0","congruent","uniform","1","undefined","1","h","0","0","0","8","0","8","0","8","0","0","0","8","8","8","8","8","09/27/20 19:13:54","1500","Flanker Task","yes","flankertasksubmission.osexp","C:\Users\User\Desktop\Quant 2020 - Copy","no","mono","no","18","no","white","no","yes","768","legacy","8","8","C:/Users/User/Desktop/Quant 2020 - Copy/HF-subject-3.csv","legacy","Lentiform Loewenfeld","3.3.3","0","h","NA","h","NA","NA","h","415","NA","33438","NA","NA","415","2","legacy","1024","2","48000","-16","experiment","HHHHH","3","odd","36275","NA","NA","NA","2832","NA","NA","50795","2836","NA","NA","49673","50901","51317","50792","50900","New experiment","9","4785","9","yes","1024"
"100","100","520.7","520.7","black","legacy","legacy","legacy","0","congruent","uniform","1","undefined","1","h","0","0","0","9","0","9","0","9","0","0","0","9","9","9","9","9","09/27/20 19:13:54","1500","Flanker Task","yes","flankertasksubmission.osexp","C:\Users\User\Desktop\Quant 2020 - Copy","no","mono","no","18","no","white","no","yes","768","legacy","9","9","C:/Users/User/Desktop/Quant 2020 - Copy/HF-subject-3.csv","legacy","Lentiform Loewenfeld","3.3.3","0","h","NA","h","NA","NA","h","422","NA","33438","NA","NA","422","2","legacy","1024","2","48000","-16","experiment","HHHHH","3","odd","36275","NA","NA","NA","2832","NA","NA","52468","2836","NA","NA","51329","52574","52997","52464","52574","New experiment","10","5207","10","yes","1024"
"100","100","518.181818182","518.181818182","black","legacy","legacy","legacy","0","incongruent","uniform","1","undefined","1","s","0","0","0","10","0","10","0","10","0","0","0","10","10","10","10","10","09/27/20 19:13:54","1500","Flanker Task","yes","flankertasksubmission.osexp","C:\Users\User\Desktop\Quant 2020 - Copy","no","mono","no","18","no","white","no","yes","768","legacy","10","10","C:/Users/User/Desktop/Quant 2020 - Copy/HF-subject-3.csv","legacy","Lentiform Loewenfeld","3.3.3","0","s","NA","h","NA","NA","s","493","NA","33438","NA","NA","493","2","legacy","1024","2","48000","-16","experiment","HHSHH","3","odd","36275","NA","NA","NA","2832","NA","NA","54150","2836","NA","NA","53005","54256","54751","54147","54255","New experiment","11","5700","11","yes","1024"
"100","100","524.75","524.75","black","legacy","legacy","legacy","0","incongruent","uniform","1","undefined","1","s","0","0","0","11","0","11","0","11","0","0","0","11","11","11","11","11","09/27/20 19:13:54","1500","Flanker Task","yes","flankertasksubmission.osexp","C:\Users\User\Desktop\Quant 2020 - Copy","no","mono","no","18","no","white","no","yes","768","legacy","11","11","C:/Users/User/Desktop/Quant 2020 - Copy/HF-subject-3.csv","legacy","Lentiform Loewenfeld","3.3.3","0","s","NA","h","NA","NA","s","597","NA","33438","NA","NA","597","2","legacy","1024","2","48000","-16","experiment","HHSHH","3","odd","36275","NA","NA","NA","2832","NA","NA","55894","2836","NA","NA","54765","56000","56598","55891","55999","New experiment","12","6297","12","yes","1024"
"100","100","524.538461538","524.538461538","black","legacy","legacy","legacy","0","incongruent","uniform","1","undefined","1","s","0","0","0","12","0","12","0","12","0","0","0","12","12","12","12","12","09/27/20 19:13:54","1500","Flanker Task","yes","flankertasksubmission.osexp","C:\Users\User\Desktop\Quant 2020 - Copy","no","mono","no","18","no","white","no","yes","768","legacy","12","12","C:/Users/User/Desktop/Quant 2020 - Copy/HF-subject-3.csv","legacy","Lentiform Loewenfeld","3.3.3","0","s","NA","h","NA","NA","s","522","NA","33438","NA","NA","522","2","legacy","1024","2","48000","-16","experiment","HHSHH","3","odd","36275","NA","NA","NA","2832","NA","NA","57752","2836","NA","NA","56610","57858","58381","57749","57858","New experiment","13","6819","13","yes","1024"
"100","100","517.5","517.5","black","legacy","legacy","legacy","0","congruent","uniform","1","undefined","1","s","0","0","0","13","0","13","0","13","0","0","0","13","13","13","13","13","09/27/20 19:13:54","1500","Flanker Task","yes","flankertasksubmission.osexp","C:\Users\User\Desktop\Quant 2020 - Copy","no","mono","no","18","no","white","no","yes","768","legacy","13","13","C:/Users/User/Desktop/Quant 2020 - Copy/HF-subject-3.csv","legacy","Lentiform Loewenfeld","3.3.3","0","s","NA","h","NA","NA","s","426","NA","33438","NA","NA","426","2","legacy","1024","2","48000","-16","experiment","SSSSS","3","odd","36275","NA","NA","NA","2832","NA","NA","59519","2836","NA","NA","58387","59625","60053","59516","59625","New experiment","14","7245","14","yes","1024"
"93.3333333333","93.3333333333","512.533333333","512.533333333","black","legacy","legacy","legacy","0","incongruent","uniform","0","undefined","0","h","0","0","0","14","0","14","0","14","0","0","0","14","14","14","14","14","09/27/20 19:13:54","1500","Flanker Task","yes","flankertasksubmission.osexp","C:\Users\User\Desktop\Quant 2020 - Copy","no","mono","no","18","no","white","no","yes","768","legacy","14","14","C:/Users/User/Desktop/Quant 2020 - Copy/HF-subject-3.csv","legacy","Lentiform Loewenfeld","3.3.3","0","s","NA","h","NA","NA","s","443","NA","33438","NA","NA","443","2","legacy","1024","2","48000","-16","experiment","SSHSS","3","odd","36275","NA","NA","NA","2832","NA","NA","61202","2836","NA","NA","60067","61308","61753","61198","61307","New experiment","14","7688","15","yes","1024"
"93.75","93.75","549.5","549.5","black","legacy","legacy","legacy","0","incongruent","uniform","1","undefined","1","h","0","0","0","15","0","15","0","15","0","0","0","15","15","15","15","15","09/27/20 19:13:54","1500","Flanker Task","yes","flankertasksubmission.osexp","C:\Users\User\Desktop\Quant 2020 - Copy","no","mono","no","18","no","white","no","yes","768","legacy","15","15","C:/Users/User/Desktop/Quant 2020 - Copy/HF-subject-3.csv","legacy","Lentiform Loewenfeld","3.3.3","0","h","NA","h","NA","NA","h","1104","NA","33438","NA","NA","1104","2","legacy","1024","2","48000","-16","experiment","SSHSS","3","odd","36275","NA","NA","61765","2832","NA","NA","63410","2836","NA","NA","62271","63517","64621","63407","63517","New experiment","15","8792","16","yes","1024"
"94.1176470588","94.1176470588","546.235294118","546.235294118","black","legacy","legacy","legacy","0","congruent","uniform","1","undefined","1","s","0","0","0","16","0","16","0","16","0","0","0","16","16","16","16","16","09/27/20 19:13:54","1500","Flanker Task","yes","flankertasksubmission.osexp","C:\Users\User\Desktop\Quant 2020 - Copy","no","mono","no","18","no","white","no","yes","768","legacy","16","16","C:/Users/User/Desktop/Quant 2020 - Copy/HF-subject-3.csv","legacy","Lentiform Loewenfeld","3.3.3","0","s","NA","h","NA","NA","s","494","NA","33438","NA","NA","494","2","legacy","1024","2","48000","-16","experiment","SSSSS","3","odd","36275","NA","NA","61765","2832","NA","NA","65777","2836","NA","NA","64627","65884","66380","65774","65884","New experiment","16","9286","17","yes","1024"
"94.4444444444","94.4444444444","539.277777778","539.277777778","black","legacy","legacy","legacy","0","congruent","uniform","1","undefined","1","s","0","0","0","17","0","17","0","17","0","0","0","17","17","17","17","17","09/27/20 19:13:54","1500","Flanker Task","yes","flankertasksubmission.osexp","C:\Users\User\Desktop\Quant 2020 - Copy","no","mono","no","18","no","white","no","yes","768","legacy","17","17","C:/Users/User/Desktop/Quant 2020 - Copy/HF-subject-3.csv","legacy","Lentiform Loewenfeld","3.3.3","0","s","NA","h","NA","NA","s","421","NA","33438","NA","NA","421","2","legacy","1024","2","48000","-16","experiment","SSSSS","3","odd","36275","NA","NA","61765","2832","NA","NA","67546","2836","NA","NA","66391","67652","68075","67543","67651","New experiment","17","9707","18","yes","1024"
"94.7368421053","94.7368421053","538.684210526","538.684210526","black","legacy","legacy","legacy","0","incongruent","uniform","1","undefined","1","s","0","0","0","18","0","18","0","18","0","0","0","18","18","18","18","18","09/27/20 19:13:54","1500","Flanker Task","yes","flankertasksubmission.osexp","C:\Users\User\Desktop\Quant 2020 - Copy","no","mono","no","18","no","white","no","yes","768","legacy","18","18","C:/Users/User/Desktop/Quant 2020 - Copy/HF-subject-3.csv","legacy","Lentiform Loewenfeld","3.3.3","0","s","NA","h","NA","NA","s","528","NA","33438","NA","NA","528","2","legacy","1024","2","48000","-16","experiment","HHSHH","3","odd","36275","NA","NA","61765","2832","NA","NA","69234","2836","NA","NA","68089","69340","69869","69231","69339","New experiment","18","10235","19","yes","1024"
"95","95","537.95","537.95","black","legacy","legacy","legacy","0","incongruent","uniform","1","undefined","1","s","0","0","0","19","0","19","0","19","0","0","0","19","19","19","19","19","09/27/20 19:13:54","1500","Flanker Task","yes","flankertasksubmission.osexp","C:\Users\User\Desktop\Quant 2020 - Copy","no","mono","no","18","no","white","no","yes","768","legacy","19","19","C:/Users/User/Desktop/Quant 2020 - Copy/HF-subject-3.csv","legacy","Lentiform Loewenfeld","3.3.3","0","s","NA","h","NA","NA","s","524","NA","33438","NA","NA","524","2","legacy","1024","2","48000","-16","experiment","HHSHH","3","odd","36275","NA","NA","61765","2832","NA","NA","71017","2836","NA","NA","69879","71123","71649","71014","71123","New experiment","19","10759","20","yes","1024"
"95.2380952381","95.2380952381","536","536","black","legacy","legacy","legacy","0","incongruent","uniform","1","undefined","1","s","0","0","0","20","0","20","0","20","0","0","0","20","20","20","20","20","09/27/20 19:13:54","1500","Flanker Task","yes","flankertasksubmission.osexp","C:\Users\User\Desktop\Quant 2020 - Copy","no","mono","no","18","no","white","no","yes","768","legacy","20","20","C:/Users/User/Desktop/Quant 2020 - Copy/HF-subject-3.csv","legacy","Lentiform Loewenfeld","3.3.3","0","s","NA","h","NA","NA","s","497","NA","33438","NA","NA","497","2","legacy","1024","2","48000","-16","experiment","HHSHH","3","odd","36275","NA","NA","61765","2832","NA","NA","72825","2836","NA","NA","71663","72931","73430","72822","72930","New experiment","20","11256","21","yes","1024"
"95.4545454545","95.4545454545","539.318181818","539.318181818","black","legacy","legacy","legacy","0","incongruent","uniform","1","undefined","1","s","0","0","0","21","0","21","0","21","0","0","0","21","21","21","21","21","09/27/20 19:13:54","1500","Flanker Task","yes","flankertasksubmission.osexp","C:\Users\User\Desktop\Quant 2020 - Copy","no","mono","no","18","no","white","no","yes","768","legacy","21","21","C:/Users/User/Desktop/Quant 2020 - Copy/HF-subject-3.csv","legacy","Lentiform Loewenfeld","3.3.3","0","s","NA","h","NA","NA","s","609","NA","33438","NA","NA","609","2","legacy","1024","2","48000","-16","experiment","HHSHH","3","odd","36275","NA","NA","61765","2832","NA","NA","74579","2836","NA","NA","73444","74686","75296","74576","74685","New experiment","21","11865","22","yes","1024"
"95.652173913","95.652173913","536.652173913","536.652173913","black","legacy","legacy","legacy","0","congruent","uniform","1","undefined","1","h","0","0","0","22","0","22","0","22","0","0","0","22","22","22","22","22","09/27/20 19:13:54","1500","Flanker Task","yes","flankertasksubmission.osexp","C:\Users\User\Desktop\Quant 2020 - Copy","no","mono","no","18","no","white","no","yes","768","legacy","22","22","C:/Users/User/Desktop/Quant 2020 - Copy/HF-subject-3.csv","legacy","Lentiform Loewenfeld","3.3.3","0","h","NA","h","NA","NA","h","478","NA","33438","NA","NA","478","2","legacy","1024","2","48000","-16","experiment","HHHHH","3","odd","36275","NA","NA","61765","2832","NA","NA","76444","2836","NA","NA","75304","76550","77029","76441","76549","New experiment","22","12343","23","yes","1024"
"95.8333333333","95.8333333333","533.916666667","533.916666667","black","legacy","legacy","legacy","0","incongruent","uniform","1","undefined","1","h","0","0","0","23","0","23","0","23","0","0","0","23","23","23","23","23","09/27/20 19:13:54","1500","Flanker Task","yes","flankertasksubmission.osexp","C:\Users\User\Desktop\Quant 2020 - Copy","no","mono","no","18","no","white","no","yes","768","legacy","23","23","C:/Users/User/Desktop/Quant 2020 - Copy/HF-subject-3.csv","legacy","Lentiform Loewenfeld","3.3.3","0","h","NA","h","NA","NA","h","471","NA","33438","NA","NA","471","2","legacy","1024","2","48000","-16","experiment","SSHSS","3","odd","36275","NA","NA","61765","2832","NA","NA","78173","2836","NA","NA","77035","78280","78753","78170","78279","New experiment","23","12814","24","yes","1024"
"96","96","533.88","533.88","black","legacy","legacy","legacy","0","incongruent","uniform","1","undefined","1","s","0","0","0","24","0","24","0","24","0","0","0","24","24","24","24","24","09/27/20 19:13:54","1500","Flanker Task","yes","flankertasksubmission.osexp","C:\Users\User\Desktop\Quant 2020 - Copy","no","mono","no","18","no","white","no","yes","768","legacy","24","24","C:/Users/User/Desktop/Quant 2020 - Copy/HF-subject-3.csv","legacy","Lentiform Loewenfeld","3.3.3","0","s","NA","h","NA","NA","s","533","NA","33438","NA","NA","533","2","legacy","1024","2","48000","-16","experiment","HHSHH","3","odd","36275","NA","NA","61765","2832","NA","NA","79892","2836","NA","NA","78767","79998","80532","79889","79997","New experiment","24","13347","25","yes","1024"
"96.1538461538","96.1538461538","536.076923077","536.076923077","black","legacy","legacy","legacy","0","incongruent","uniform","1","undefined","1","h","0","0","0","25","0","25","0","25","0","0","0","25","25","25","25","25","09/27/20 19:13:54","1500","Flanker Task","yes","flankertasksubmission.osexp","C:\Users\User\Desktop\Quant 2020 - Copy","no","mono","no","18","no","white","no","yes","768","legacy","25","25","C:/Users/User/Desktop/Quant 2020 - Copy/HF-subject-3.csv","legacy","Lentiform Loewenfeld","3.3.3","0","h","NA","h","NA","NA","h","591","NA","33438","NA","NA","591","2","legacy","1024","2","48000","-16","experiment","SSHSS","3","odd","36275","NA","NA","61765","2832","NA","NA","81687","2836","NA","NA","80540","81793","82384","81684","81793","New experiment","25","13938","26","yes","1024"
"96.2962962963","96.2962962963","533.259259259","533.259259259","black","legacy","legacy","legacy","0","congruent","uniform","1","undefined","1","s","0","0","0","26","0","26","0","26","0","0","0","26","26","26","26","26","09/27/20 19:13:54","1500","Flanker Task","yes","flankertasksubmission.osexp","C:\Users\User\Desktop\Quant 2020 - Copy","no","mono","no","18","no","white","no","yes","768","legacy","26","26","C:/Users/User/Desktop/Quant 2020 - Copy/HF-subject-3.csv","legacy","Lentiform Loewenfeld","3.3.3","0","s","NA","h","NA","NA","s","460","NA","33438","NA","NA","460","2","legacy","1024","2","48000","-16","experiment","SSSSS","3","odd","36275","NA","NA","61765","2832","NA","NA","83519","2836","NA","NA","82391","83625","84087","83516","83625","New experiment","26","14398","27","yes","1024"
"96.4285714286","96.4285714286","532.928571429","532.928571429","black","legacy","legacy","legacy","0","congruent","uniform","1","undefined","1","h","0","0","0","27","0","27","0","27","0","0","0","27","27","27","27","27","09/27/20 19:13:54","1500","Flanker Task","yes","flankertasksubmission.osexp","C:\Users\User\Desktop\Quant 2020 - Copy","no","mono","no","18","no","white","no","yes","768","legacy","27","27","C:/Users/User/Desktop/Quant 2020 - Copy/HF-subject-3.csv","legacy","Lentiform Loewenfeld","3.3.3","0","h","NA","h","NA","NA","h","524","NA","33438","NA","NA","524","2","legacy","1024","2","48000","-16","experiment","HHHHH","3","odd","36275","NA","NA","61765","2832","NA","NA","85232","2836","NA","NA","84098","85338","85863","85229","85337","New experiment","27","14922","28","yes","1024"
"96.5517241379","96.5517241379","533.482758621","533.482758621","black","legacy","legacy","legacy","0","incongruent","uniform","1","undefined","1","h","0","0","0","28","0","28","0","28","0","0","0","28","28","28","28","28","09/27/20 19:13:54","1500","Flanker Task","yes","flankertasksubmission.osexp","C:\Users\User\Desktop\Quant 2020 - Copy","no","mono","no","18","no","white","no","yes","768","legacy","28","28","C:/Users/User/Desktop/Quant 2020 - Copy/HF-subject-3.csv","legacy","Lentiform Loewenfeld","3.3.3","0","h","NA","h","NA","NA","h","549","NA","33438","NA","NA","549","2","legacy","1024","2","48000","-16","experiment","SSHSS","3","odd","36275","NA","NA","61765","2832","NA","NA","87000","2836","NA","NA","85869","87106","87656","86997","87105","New experiment","28","15471","29","yes","1024"
"96.6666666667","96.6666666667","533.133333333","533.133333333","black","legacy","legacy","legacy","0","incongruent","uniform","1","undefined","1","s","0","0","0","29","0","29","0","29","0","0","0","29","29","29","29","29","09/27/20 19:13:54","1500","Flanker Task","yes","flankertasksubmission.osexp","C:\Users\User\Desktop\Quant 2020 - Copy","no","mono","no","18","no","white","no","yes","768","legacy","29","29","C:/Users/User/Desktop/Quant 2020 - Copy/HF-subject-3.csv","legacy","Lentiform Loewenfeld","3.3.3","0","s","NA","h","NA","NA","s","523","NA","33438","NA","NA","523","2","legacy","1024","2","48000","-16","experiment","HHSHH","3","odd","36275","NA","NA","61765","2832","NA","NA","88798","2836","NA","NA","87662","88904","89428","88795","88904","New experiment","29","15994","30","yes","1024"
"96.7741935484","96.7741935484","530.580645161","530.580645161","black","legacy","legacy","legacy","0","congruent","uniform","1","undefined","1","s","0","0","0","30","0","30","0","30","0","0","0","30","30","30","30","30","09/27/20 19:13:54","1500","Flanker Task","yes","flankertasksubmission.osexp","C:\Users\User\Desktop\Quant 2020 - Copy","no","mono","no","18","no","white","no","yes","768","legacy","30","30","C:/Users/User/Desktop/Quant 2020 - Copy/HF-subject-3.csv","legacy","Lentiform Loewenfeld","3.3.3","0","s","NA","h","NA","NA","s","454","NA","33438","NA","NA","454","2","legacy","1024","2","48000","-16","experiment","SSSSS","3","odd","36275","NA","NA","61765","2832","NA","NA","90586","2836","NA","NA","89434","90692","91148","90583","90691","New experiment","30","16448","31","yes","1024"
"96.875","96.875","526.78125","526.78125","black","legacy","legacy","legacy","0","congruent","uniform","1","undefined","1","h","0","0","0","31","0","31","0","31","0","0","0","31","31","31","31","31","09/27/20 19:13:54","1500","Flanker Task","yes","flankertasksubmission.osexp","C:\Users\User\Desktop\Quant 2020 - Copy","no","mono","no","18","no","white","no","yes","768","legacy","31","31","C:/Users/User/Desktop/Quant 2020 - Copy/HF-subject-3.csv","legacy","Lentiform Loewenfeld","3.3.3","0","h","NA","h","NA","NA","h","409","NA","33438","NA","NA","409","2","legacy","1024","2","48000","-16","experiment","HHHHH","3","odd","36275","NA","NA","61765","2832","NA","NA","92304","2836","NA","NA","91162","92410","92823","92301","92409","New experiment","31","16857","32","yes","1024"
"96.9696969697","96.9696969697","525.757575758","525.757575758","black","legacy","legacy","legacy","0","congruent","uniform","1","undefined","1","h","0","0","0","32","0","32","0","32","0","0","0","32","32","32","32","32","09/27/20 19:13:54","1500","Flanker Task","yes","flankertasksubmission.osexp","C:\Users\User\Desktop\Quant 2020 - Copy","no","mono","no","18","no","white","no","yes","768","legacy","32","32","C:/Users/User/Desktop/Quant 2020 - Copy/HF-subject-3.csv","legacy","Lentiform Loewenfeld","3.3.3","0","h","NA","h","NA","NA","h","493","NA","33438","NA","NA","493","2","legacy","1024","2","48000","-16","experiment","HHHHH","3","odd","36275","NA","NA","61765","2832","NA","NA","93963","2836","NA","NA","92836","94069","94563","93960","94068","New experiment","32","17350","33","yes","1024"
"97.0588235294","97.0588235294","531.676470588","531.676470588","black","legacy","legacy","legacy","0","incongruent","uniform","1","undefined","1","h","0","0","0","33","0","33","0","33","0","0","0","33","33","33","33","33","09/27/20 19:13:54","1500","Flanker Task","yes","flankertasksubmission.osexp","C:\Users\User\Desktop\Quant 2020 - Copy","no","mono","no","18","no","white","no","yes","768","legacy","33","33","C:/Users/User/Desktop/Quant 2020 - Copy/HF-subject-3.csv","legacy","Lentiform Loewenfeld","3.3.3","0","h","NA","h","NA","NA","h","727","NA","33438","NA","NA","727","2","legacy","1024","2","48000","-16","experiment","SSHSS","3","odd","36275","NA","NA","61765","2832","NA","NA","95701","2836","NA","NA","94571","95807","96535","95698","95806","New experiment","33","18077","34","yes","1024"
"97.1428571429","97.1428571429","532.657142857","532.657142857","black","legacy","legacy","legacy","0","incongruent","uniform","1","undefined","1","h","0","0","0","34","0","34","0","34","0","0","0","34","34","34","34","34","09/27/20 19:13:54","1500","Flanker Task","yes","flankertasksubmission.osexp","C:\Users\User\Desktop\Quant 2020 - Copy","no","mono","no","18","no","white","no","yes","768","legacy","34","34","C:/Users/User/Desktop/Quant 2020 - Copy/HF-subject-3.csv","legacy","Lentiform Loewenfeld","3.3.3","0","h","NA","h","NA","NA","h","566","NA","33438","NA","NA","566","2","legacy","1024","2","48000","-16","experiment","SSHSS","3","odd","36275","NA","NA","61765","2832","NA","NA","97676","2836","NA","NA","96541","97783","98350","97673","97783","New experiment","34","18643","35","yes","1024"
"97.2222222222","97.2222222222","538.277777778","538.277777778","black","legacy","legacy","legacy","0","congruent","uniform","1","undefined","1","h","0","0","0","35","0","35","0","35","0","0","0","35","35","35","35","35","09/27/20 19:13:54","1500","Flanker Task","yes","flankertasksubmission.osexp","C:\Users\User\Desktop\Quant 2020 - Copy","no","mono","no","18","no","white","no","yes","768","legacy","35","35","C:/Users/User/Desktop/Quant 2020 - Copy/HF-subject-3.csv","legacy","Lentiform Loewenfeld","3.3.3","0","h","NA","h","NA","NA","h","735","NA","33438","NA","NA","735","2","legacy","1024","2","48000","-16","experiment","HHHHH","3","odd","36275","NA","NA","61765","2832","NA","NA","99490","2836","NA","NA","98356","99596","100334","99487","99596","New experiment","35","19378","36","yes","1024"
"97.2972972973","97.2972972973","541.324324324","541.324324324","black","legacy","legacy","legacy","0","incongruent","uniform","1","undefined","1","s","0","0","0","36","0","36","0","36","0","0","0","36","36","36","36","36","09/27/20 19:13:54","1500","Flanker Task","yes","flankertasksubmission.osexp","C:\Users\User\Desktop\Quant 2020 - Copy","no","mono","no","18","no","white","no","yes","768","legacy","36","36","C:/Users/User/Desktop/Quant 2020 - Copy/HF-subject-3.csv","legacy","Lentiform Loewenfeld","3.3.3","0","s","NA","h","NA","NA","s","651","NA","33438","NA","NA","651","2","legacy","1024","2","48000","-16","experiment","HHSHH","3","odd","36275","NA","NA","61765","2832","NA","NA","101485","2836","NA","NA","100345","101591","102244","101482","101590","New experiment","36","20029","37","yes","1024"
"97.3684210526","97.3684210526","543.842105263","543.842105263","black","legacy","legacy","legacy","0","congruent","uniform","1","undefined","1","h","0","0","0","37","0","37","0","37","0","0","0","37","37","37","37","37","09/27/20 19:13:54","1500","Flanker Task","yes","flankertasksubmission.osexp","C:\Users\User\Desktop\Quant 2020 - Copy","no","mono","no","18","no","white","no","yes","768","legacy","37","37","C:/Users/User/Desktop/Quant 2020 - Copy/HF-subject-3.csv","legacy","Lentiform Loewenfeld","3.3.3","0","h","NA","h","NA","NA","h","637","NA","33438","NA","NA","637","2","legacy","1024","2","48000","-16","experiment","HHHHH","3","odd","36275","NA","NA","61765","2832","NA","NA","103387","2836","NA","NA","102257","103493","104132","103384","103493","New experiment","37","20666","38","yes","1024"
"97.4358974359","97.4358974359","543.051282051","543.051282051","black","legacy","legacy","legacy","0","incongruent","uniform","1","undefined","1","h","0","0","0","38","0","38","0","38","0","0","0","38","38","38","38","38","09/27/20 19:13:54","1500","Flanker Task","yes","flankertasksubmission.osexp","C:\Users\User\Desktop\Quant 2020 - Copy","no","mono","no","18","no","white","no","yes","768","legacy","38","38","C:/Users/User/Desktop/Quant 2020 - Copy/HF-subject-3.csv","legacy","Lentiform Loewenfeld","3.3.3","0","h","NA","h","NA","NA","h","513","NA","33438","NA","NA","513","2","legacy","1024","2","48000","-16","experiment","SSHSS","3","odd","36275","NA","NA","61765","2832","NA","NA","105271","2836","NA","NA","104141","105377","105891","105267","105377","New experiment","38","21179","39","yes","1024"
"97.5","97.5","540.375","540.375","black","legacy","legacy","legacy","0","congruent","uniform","1","undefined","1","h","0","0","0","39","0","39","0","39","0","0","0","39","39","39","39","39","09/27/20 19:13:54","1500","Flanker Task","yes","flankertasksubmission.osexp","C:\Users\User\Desktop\Quant 2020 - Copy","no","mono","no","18","no","white","no","yes","768","legacy","39","39","C:/Users/User/Desktop/Quant 2020 - Copy/HF-subject-3.csv","legacy","Lentiform Loewenfeld","3.3.3","0","h","NA","h","NA","NA","h","436","NA","33438","NA","NA","436","2","legacy","1024","2","48000","-16","experiment","HHHHH","3","odd","36275","NA","NA","61765","2832","NA","NA","107035","2836","NA","NA","105899","107142","107578","107032","107141","New experiment","39","21615","40","yes","1024"
"97.5609756098","97.5609756098","538.292682927","538.292682927","black","legacy","legacy","legacy","0","congruent","uniform","1","undefined","1","s","0","0","0","40","0","40","0","40","0","0","0","40","40","40","40","40","09/27/20 19:13:54","1500","Flanker Task","yes","flankertasksubmission.osexp","C:\Users\User\Desktop\Quant 2020 - Copy","no","mono","no","18","no","white","no","yes","768","legacy","40","40","C:/Users/User/Desktop/Quant 2020 - Copy/HF-subject-3.csv","legacy","Lentiform Loewenfeld","3.3.3","0","s","NA","h","NA","NA","s","455","NA","33438","NA","NA","455","2","legacy","1024","2","48000","-16","experiment","SSSSS","3","odd","36275","NA","NA","61765","2832","NA","NA","108718","2836","NA","NA","107584","108824","109282","108715","108824","New experiment","40","22070","41","yes","1024"
"97.619047619","97.619047619","536.976190476","536.976190476","black","legacy","legacy","legacy","0","incongruent","uniform","1","undefined","1","h","0","0","0","41","0","41","0","41","0","0","0","41","41","41","41","41","09/27/20 19:13:54","1500","Flanker Task","yes","flankertasksubmission.osexp","C:\Users\User\Desktop\Quant 2020 - Copy","no","mono","no","18","no","white","no","yes","768","legacy","41","41","C:/Users/User/Desktop/Quant 2020 - Copy/HF-subject-3.csv","legacy","Lentiform Loewenfeld","3.3.3","0","h","NA","h","NA","NA","h","483","NA","33438","NA","NA","483","2","legacy","1024","2","48000","-16","experiment","SSHSS","3","odd","36275","NA","NA","61765","2832","NA","NA","110429","2836","NA","NA","109293","110535","111019","110425","110534","New experiment","41","22553","42","yes","1024"
"97.6744186047","97.6744186047","536.418604651","536.418604651","black","legacy","legacy","legacy","0","incongruent","uniform","1","undefined","1","s","0","0","0","42","0","42","0","42","0","0","0","42","42","42","42","42","09/27/20 19:13:54","1500","Flanker Task","yes","flankertasksubmission.osexp","C:\Users\User\Desktop\Quant 2020 - Copy","no","mono","no","18","no","white","no","yes","768","legacy","42","42","C:/Users/User/Desktop/Quant 2020 - Copy/HF-subject-3.csv","legacy","Lentiform Loewenfeld","3.3.3","0","s","NA","h","NA","NA","s","513","NA","33438","NA","NA","513","2","legacy","1024","2","48000","-16","experiment","HHSHH","3","odd","36275","NA","NA","61765","2832","NA","NA","112170","2836","NA","NA","111024","112276","112790","112167","112276","New experiment","42","23066","43","yes","1024"
"97.7272727273","97.7272727273","535.227272727","535.227272727","black","legacy","legacy","legacy","0","congruent","uniform","1","undefined","1","h","0","0","0","43","0","43","0","43","0","0","0","43","43","43","43","43","09/27/20 19:13:54","1500","Flanker Task","yes","flankertasksubmission.osexp","C:\Users\User\Desktop\Quant 2020 - Copy","no","mono","no","18","no","white","no","yes","768","legacy","43","43","C:/Users/User/Desktop/Quant 2020 - Copy/HF-subject-3.csv","legacy","Lentiform Loewenfeld","3.3.3","0","h","NA","h","NA","NA","h","484","NA","33438","NA","NA","484","2","legacy","1024","2","48000","-16","experiment","HHHHH","3","odd","36275","NA","NA","61765","2832","NA","NA","113936","2836","NA","NA","112796","114042","114529","113933","114042","New experiment","43","23550","44","yes","1024"
"97.7777777778","97.7777777778","534.333333333","534.333333333","black","legacy","legacy","legacy","0","incongruent","uniform","1","undefined","1","s","0","0","0","44","0","44","0","44","0","0","0","44","44","44","44","44","09/27/20 19:13:54","1500","Flanker Task","yes","flankertasksubmission.osexp","C:\Users\User\Desktop\Quant 2020 - Copy","no","mono","no","18","no","white","no","yes","768","legacy","44","44","C:/Users/User/Desktop/Quant 2020 - Copy/HF-subject-3.csv","legacy","Lentiform Loewenfeld","3.3.3","0","s","NA","h","NA","NA","s","495","NA","33438","NA","NA","495","2","legacy","1024","2","48000","-16","experiment","HHSHH","3","odd","36275","NA","NA","61765","2832","NA","NA","115680","2836","NA","NA","114541","115786","116283","115677","115786","New experiment","44","24045","45","yes","1024"
"97.8260869565","97.8260869565","534.956521739","534.956521739","black","legacy","legacy","legacy","0","incongruent","uniform","1","undefined","1","s","0","0","0","45","0","45","0","45","0","0","0","45","45","45","45","45","09/27/20 19:13:54","1500","Flanker Task","yes","flankertasksubmission.osexp","C:\Users\User\Desktop\Quant 2020 - Copy","no","mono","no","18","no","white","no","yes","768","legacy","45","45","C:/Users/User/Desktop/Quant 2020 - Copy/HF-subject-3.csv","legacy","Lentiform Loewenfeld","3.3.3","0","s","NA","h","NA","NA","s","563","NA","33438","NA","NA","563","2","legacy","1024","2","48000","-16","experiment","HHSHH","3","odd","36275","NA","NA","61765","2832","NA","NA","117422","2836","NA","NA","116292","117528","118093","117419","117527","New experiment","45","24608","46","yes","1024"
"97.8723404255","97.8723404255","531.914893617","531.914893617","black","legacy","legacy","legacy","0","congruent","uniform","1","undefined","1","s","0","0","0","46","0","46","0","46","0","0","0","46","46","46","46","46","09/27/20 19:13:54","1500","Flanker Task","yes","flankertasksubmission.osexp","C:\Users\User\Desktop\Quant 2020 - Copy","no","mono","no","18","no","white","no","yes","768","legacy","46","46","C:/Users/User/Desktop/Quant 2020 - Copy/HF-subject-3.csv","legacy","Lentiform Loewenfeld","3.3.3","0","s","NA","h","NA","NA","s","392","NA","33438","NA","NA","392","2","legacy","1024","2","48000","-16","experiment","SSSSS","3","odd","36275","NA","NA","61765","2832","NA","NA","119242","2836","NA","NA","118102","119348","119742","119239","119347","New experiment","46","25000","47","yes","1024"
"97.9166666667","97.9166666667","530.208333333","530.208333333","black","legacy","legacy","legacy","0","congruent","uniform","1","undefined","1","s","0","0","0","47","0","47","0","47","0","0","0","47","47","47","47","47","09/27/20 19:13:54","1500","Flanker Task","yes","flankertasksubmission.osexp","C:\Users\User\Desktop\Quant 2020 - Copy","no","mono","no","18","no","white","no","yes","768","legacy","47","47","C:/Users/User/Desktop/Quant 2020 - Copy/HF-subject-3.csv","legacy","Lentiform Loewenfeld","3.3.3","0","s","NA","h","NA","NA","s","450","NA","33438","NA","NA","450","2","legacy","1024","2","48000","-16","experiment","SSSSS","3","odd","36275","NA","NA","61765","2832","NA","NA","120876","2836","NA","NA","119748","120982","121434","120872","120982","New experiment","47","25450","48","yes","1024"
"97.9591836735","97.9591836735","528.204081633","528.204081633","black","legacy","legacy","legacy","0","congruent","uniform","1","undefined","1","s","0","0","0","48","0","48","0","48","0","0","0","48","48","48","48","48","09/27/20 19:13:54","1500","Flanker Task","yes","flankertasksubmission.osexp","C:\Users\User\Desktop\Quant 2020 - Copy","no","mono","no","18","no","white","no","yes","768","legacy","48","48","C:/Users/User/Desktop/Quant 2020 - Copy/HF-subject-3.csv","legacy","Lentiform Loewenfeld","3.3.3","0","s","NA","h","NA","NA","s","432","NA","33438","NA","NA","432","2","legacy","1024","2","48000","-16","experiment","SSSSS","3","odd","36275","NA","NA","61765","2832","NA","NA","122581","2836","NA","NA","121441","122687","123120","122578","122687","New experiment","48","25882","49","yes","1024"
"98","98","526.72","526.72","black","legacy","legacy","legacy","0","congruent","uniform","1","undefined","1","s","0","0","0","49","0","49","0","49","0","0","0","49","49","49","49","49","09/27/20 19:13:54","1500","Flanker Task","yes","flankertasksubmission.osexp","C:\Users\User\Desktop\Quant 2020 - Copy","no","mono","no","18","no","white","no","yes","768","legacy","49","49","C:/Users/User/Desktop/Quant 2020 - Copy/HF-subject-3.csv","legacy","Lentiform Loewenfeld","3.3.3","0","s","NA","h","NA","NA","s","454","NA","33438","NA","NA","454","2","legacy","1024","2","48000","-16","experiment","SSSSS","3","odd","36275","NA","NA","61765","2832","NA","NA","124260","2836","NA","NA","123126","124367","124823","124257","124366","New experiment","49","26336","50","yes","1024"
"98.0392156863","98.0392156863","526.294117647","526.294117647","black","legacy","legacy","legacy","0","incongruent","uniform","1","undefined","1","s","0","0","0","50","0","50","0","50","0","0","0","50","50","50","50","50","09/27/20 19:13:54","1500","Flanker Task","yes","flankertasksubmission.osexp","C:\Users\User\Desktop\Quant 2020 - Copy","no","mono","no","18","no","white","no","yes","768","legacy","50","50","C:/Users/User/Desktop/Quant 2020 - Copy/HF-subject-3.csv","legacy","Lentiform Loewenfeld","3.3.3","0","s","NA","h","NA","NA","s","505","NA","33438","NA","NA","505","2","legacy","1024","2","48000","-16","experiment","HHSHH","3","odd","36275","NA","NA","61765","2832","NA","NA","125989","2836","NA","NA","124834","126095","126602","125985","126095","New experiment","50","26841","51","yes","1024"
"98.0769230769","98.0769230769","525","525","black","legacy","legacy","legacy","0","incongruent","uniform","1","undefined","1","h","0","0","0","51","0","51","0","51","0","0","0","51","51","51","51","51","09/27/20 19:13:54","1500","Flanker Task","yes","flankertasksubmission.osexp","C:\Users\User\Desktop\Quant 2020 - Copy","no","mono","no","18","no","white","no","yes","768","legacy","51","51","C:/Users/User/Desktop/Quant 2020 - Copy/HF-subject-3.csv","legacy","Lentiform Loewenfeld","3.3.3","0","h","NA","h","NA","NA","h","459","NA","33438","NA","NA","459","2","legacy","1024","2","48000","-16","experiment","SSHSS","3","odd","36275","NA","NA","61765","2832","NA","NA","127745","2836","NA","NA","126612","127851","128313","127742","127851","New experiment","51","27300","52","yes","1024"
"98.1132075472","98.1132075472","523.226415094","523.226415094","black","legacy","legacy","legacy","0","congruent","uniform","1","undefined","1","s","0","0","0","52","0","52","0","52","0","0","0","52","52","52","52","52","09/27/20 19:13:54","1500","Flanker Task","yes","flankertasksubmission.osexp","C:\Users\User\Desktop\Quant 2020 - Copy","no","mono","no","18","no","white","no","yes","768","legacy","52","52","C:/Users/User/Desktop/Quant 2020 - Copy/HF-subject-3.csv","legacy","Lentiform Loewenfeld","3.3.3","0","s","NA","h","NA","NA","s","431","NA","33438","NA","NA","431","2","legacy","1024","2","48000","-16","experiment","SSSSS","3","odd","36275","NA","NA","61765","2832","NA","NA","129473","2836","NA","NA","128326","129580","130015","129470","129579","New experiment","52","27731","53","yes","1024"
"98.1481481481","98.1481481481","522.388888889","522.388888889","black","legacy","legacy","legacy","0","congruent","uniform","1","undefined","1","h","0","0","0","53","0","53","0","53","0","0","0","53","53","53","53","53","09/27/20 19:13:54","1500","Flanker Task","yes","flankertasksubmission.osexp","C:\Users\User\Desktop\Quant 2020 - Copy","no","mono","no","18","no","white","no","yes","768","legacy","53","53","C:/Users/User/Desktop/Quant 2020 - Copy/HF-subject-3.csv","legacy","Lentiform Loewenfeld","3.3.3","0","h","NA","h","NA","NA","h","478","NA","33438","NA","NA","478","2","legacy","1024","2","48000","-16","experiment","HHHHH","3","odd","36275","NA","NA","61765","2832","NA","NA","131160","2836","NA","NA","130029","131266","131746","131157","131265","New experiment","53","28209","54","yes","1024"
"98.1818181818","98.1818181818","528.290909091","528.290909091","black","legacy","legacy","legacy","0","congruent","uniform","1","undefined","1","s","0","0","0","54","0","54","0","54","0","0","0","54","54","54","54","54","09/27/20 19:13:54","1500","Flanker Task","yes","flankertasksubmission.osexp","C:\Users\User\Desktop\Quant 2020 - Copy","no","mono","no","18","no","white","no","yes","768","legacy","54","54","C:/Users/User/Desktop/Quant 2020 - Copy/HF-subject-3.csv","legacy","Lentiform Loewenfeld","3.3.3","0","s","NA","h","NA","NA","s","847","NA","33438","NA","NA","847","2","legacy","1024","2","48000","-16","experiment","SSSSS","3","odd","36275","NA","NA","61765","2832","NA","NA","132881","2836","NA","NA","131757","132988","133836","132878","132987","New experiment","54","29056","55","yes","1024"
"98.2142857143","98.2142857143","531.017857143","531.017857143","black","legacy","legacy","legacy","0","congruent","uniform","1","undefined","1","s","0","0","0","55","0","55","0","55","0","0","0","55","55","55","55","55","09/27/20 19:13:54","1500","Flanker Task","yes","flankertasksubmission.osexp","C:\Users\User\Desktop\Quant 2020 - Copy","no","mono","no","18","no","white","no","yes","768","legacy","55","55","C:/Users/User/Desktop/Quant 2020 - Copy/HF-subject-3.csv","legacy","Lentiform Loewenfeld","3.3.3","0","s","NA","h","NA","NA","s","681","NA","33438","NA","NA","681","2","legacy","1024","2","48000","-16","experiment","SSSSS","3","odd","36275","NA","NA","61765","2832","NA","NA","134972","2836","NA","NA","133842","135078","135761","134968","135077","New experiment","55","29737","56","yes","1024"
"96.4912280702","96.4912280702","534.350877193","534.350877193","black","legacy","legacy","legacy","0","incongruent","uniform","0","undefined","0","s","0","0","0","56","0","56","0","56","0","0","0","56","56","56","56","56","09/27/20 19:13:54","1500","Flanker Task","yes","flankertasksubmission.osexp","C:\Users\User\Desktop\Quant 2020 - Copy","no","mono","no","18","no","white","no","yes","768","legacy","56","56","C:/Users/User/Desktop/Quant 2020 - Copy/HF-subject-3.csv","legacy","Lentiform Loewenfeld","3.3.3","0","h","NA","h","NA","NA","h","721","NA","33438","NA","NA","721","2","legacy","1024","2","48000","-16","experiment","HHSHH","3","odd","36275","NA","NA","61765","2832","NA","NA","136913","2836","NA","NA","135770","137019","137743","136910","137018","New experiment","55","30458","57","yes","1024"
"94.8275862069","94.8275862069","539.172413793","539.172413793","black","legacy","legacy","legacy","0","congruent","uniform","0","undefined","0","h","0","0","0","57","0","57","0","57","0","0","0","57","57","57","57","57","09/27/20 19:13:54","1500","Flanker Task","yes","flankertasksubmission.osexp","C:\Users\User\Desktop\Quant 2020 - Copy","no","mono","no","18","no","white","no","yes","768","legacy","57","57","C:/Users/User/Desktop/Quant 2020 - Copy/HF-subject-3.csv","legacy","Lentiform Loewenfeld","3.3.3","0","s","NA","h","NA","NA","s","814","NA","33438","NA","NA","814","2","legacy","1024","2","48000","-16","experiment","HHHHH","3","odd","36275","NA","NA","137757","2832","NA","NA","139401","2836","NA","NA","138263","139507","140322","139398","139506","New experiment","55","31272","58","yes","1024"
"94.9152542373","94.9152542373","540.084745763","540.084745763","black","legacy","legacy","legacy","0","incongruent","uniform","1","undefined","1","h","0","0","0","58","0","58","0","58","0","0","0","58","58","58","58","58","09/27/20 19:13:54","1500","Flanker Task","yes","flankertasksubmission.osexp","C:\Users\User\Desktop\Quant 2020 - Copy","no","mono","no","18","no","white","no","yes","768","legacy","58","58","C:/Users/User/Desktop/Quant 2020 - Copy/HF-subject-3.csv","legacy","Lentiform Loewenfeld","3.3.3","0","h","NA","h","NA","NA","h","593","NA","33438","NA","NA","593","2","legacy","1024","2","48000","-16","experiment","SSHSS","3","odd","36275","NA","NA","140327","2832","NA","NA","141963","2836","NA","NA","140833","142070","142665","141960","142069","New experiment","56","31865","59","yes","1024"
"95","95","539.45","539.45","black","legacy","legacy","legacy","0","incongruent","uniform","1","undefined","1","h","0","0","0","59","0","59","0","59","0","0","0","59","59","59","59","59","09/27/20 19:13:54","1500","Flanker Task","yes","flankertasksubmission.osexp","C:\Users\User\Desktop\Quant 2020 - Copy","no","mono","no","18","no","white","no","yes","768","legacy","59","59","C:/Users/User/Desktop/Quant 2020 - Copy/HF-subject-3.csv","legacy","Lentiform Loewenfeld","3.3.3","0","h","NA","h","NA","NA","h","502","NA","33438","NA","NA","502","2","legacy","1024","2","48000","-16","experiment","SSHSS","3","odd","36275","NA","NA","140327","2832","NA","NA","143813","2836","NA","NA","142670","143919","144424","143810","143918","New experiment","57","32367","60","yes","1024"
"95.0819672131","95.0819672131","538.62295082","538.62295082","black","legacy","legacy","legacy","0","congruent","uniform","1","undefined","1","h","0","0","0","60","0","60","0","60","0","0","0","60","60","60","60","60","09/27/20 19:13:54","1500","Flanker Task","yes","flankertasksubmission.osexp","C:\Users\User\Desktop\Quant 2020 - Copy","no","mono","no","18","no","white","no","yes","768","legacy","60","60","C:/Users/User/Desktop/Quant 2020 - Copy/HF-subject-3.csv","legacy","Lentiform Loewenfeld","3.3.3","0","h","NA","h","NA","NA","h","489","NA","33438","NA","NA","489","2","legacy","1024","2","48000","-16","experiment","HHHHH","3","odd","36275","NA","NA","140327","2832","NA","NA","145571","2836","NA","NA","144438","145677","146169","145567","145676","New experiment","58","32856","61","yes","1024"
"95.1612903226","95.1612903226","535.951612903","535.951612903","black","legacy","legacy","legacy","0","congruent","uniform","1","undefined","1","s","0","0","0","61","0","61","0","61","0","0","0","61","61","61","61","61","09/27/20 19:13:54","1500","Flanker Task","yes","flankertasksubmission.osexp","C:\Users\User\Desktop\Quant 2020 - Copy","no","mono","no","18","no","white","no","yes","768","legacy","61","61","C:/Users/User/Desktop/Quant 2020 - Copy/HF-subject-3.csv","legacy","Lentiform Loewenfeld","3.3.3","0","s","NA","h","NA","NA","s","373","NA","33438","NA","NA","373","2","legacy","1024","2","48000","-16","experiment","SSSSS","3","odd","36275","NA","NA","140327","2832","NA","NA","147305","2836","NA","NA","146182","147411","147788","147302","147411","New experiment","59","33229","62","yes","1024"
"95.2380952381","95.2380952381","535.333333333","535.333333333","black","legacy","legacy","legacy","0","incongruent","uniform","1","undefined","1","s","0","0","0","62","0","62","0","62","0","0","0","62","62","62","62","62","09/27/20 19:13:54","1500","Flanker Task","yes","flankertasksubmission.osexp","C:\Users\User\Desktop\Quant 2020 - Copy","no","mono","no","18","no","white","no","yes","768","legacy","62","62","C:/Users/User/Desktop/Quant 2020 - Copy/HF-subject-3.csv","legacy","Lentiform Loewenfeld","3.3.3","0","s","NA","h","NA","NA","s","497","NA","33438","NA","NA","497","2","legacy","1024","2","48000","-16","experiment","HHSHH","3","odd","36275","NA","NA","140327","2832","NA","NA","148923","2836","NA","NA","147801","149029","149527","148920","149028","New experiment","60","33726","63","yes","1024"
"95.3125","95.3125","535.5","535.5","black","legacy","legacy","legacy","0","incongruent","uniform","1","undefined","1","h","0","0","0","63","0","63","0","63","0","0","0","63","63","63","63","63","09/27/20 19:13:54","1500","Flanker Task","yes","flankertasksubmission.osexp","C:\Users\User\Desktop\Quant 2020 - Copy","no","mono","no","18","no","white","no","yes","768","legacy","63","63","C:/Users/User/Desktop/Quant 2020 - Copy/HF-subject-3.csv","legacy","Lentiform Loewenfeld","3.3.3","0","h","NA","h","NA","NA","h","546","NA","33438","NA","NA","546","2","legacy","1024","2","48000","-16","experiment","SSHSS","3","odd","36275","NA","NA","140327","2832","NA","NA","150663","2836","NA","NA","149534","150769","151318","150659","150768","New experiment","61","34272","64","yes","1024"
"95.3846153846","95.3846153846","534.692307692","534.692307692","black","legacy","legacy","legacy","0","congruent","uniform","1","undefined","1","s","0","0","0","64","0","64","0","64","0","0","0","64","64","64","64","64","09/27/20 19:13:54","1500","Flanker Task","yes","flankertasksubmission.osexp","C:\Users\User\Desktop\Quant 2020 - Copy","no","mono","no","18","no","white","no","yes","768","legacy","64","64","C:/Users/User/Desktop/Quant 2020 - Copy/HF-subject-3.csv","legacy","Lentiform Loewenfeld","3.3.3","0","s","NA","h","NA","NA","s","483","NA","33438","NA","NA","483","2","legacy","1024","2","48000","-16","experiment","SSSSS","3","odd","36275","NA","NA","140327","2832","NA","NA","152461","2836","NA","NA","151332","152567","153051","152458","152567","New experiment","62","34755","65","yes","1024"
"95.4545454545","95.4545454545","535.787878788","535.787878788","black","legacy","legacy","legacy","0","incongruent","uniform","1","undefined","1","h","0","0","0","65","0","65","0","65","0","0","0","65","65","65","65","65","09/27/20 19:13:54","1500","Flanker Task","yes","flankertasksubmission.osexp","C:\Users\User\Desktop\Quant 2020 - Copy","no","mono","no","18","no","white","no","yes","768","legacy","65","65","C:/Users/User/Desktop/Quant 2020 - Copy/HF-subject-3.csv","legacy","Lentiform Loewenfeld","3.3.3","0","h","NA","h","NA","NA","h","607","NA","33438","NA","NA","607","2","legacy","1024","2","48000","-16","experiment","SSHSS","3","odd","36275","NA","NA","140327","2832","NA","NA","154198","2836","NA","NA","153058","154305","154914","154195","154305","New experiment","63","35362","66","yes","1024"
"95.5223880597","95.5223880597","535.134328358","535.134328358","black","legacy","legacy","legacy","0","congruent","uniform","1","undefined","1","h","0","0","0","66","0","66","0","66","0","0","0","66","66","66","66","66","09/27/20 19:13:54","1500","Flanker Task","yes","flankertasksubmission.osexp","C:\Users\User\Desktop\Quant 2020 - Copy","no","mono","no","18","no","white","no","yes","768","legacy","66","66","C:/Users/User/Desktop/Quant 2020 - Copy/HF-subject-3.csv","legacy","Lentiform Loewenfeld","3.3.3","0","h","NA","h","NA","NA","h","492","NA","33438","NA","NA","492","2","legacy","1024","2","48000","-16","experiment","HHHHH","3","odd","36275","NA","NA","140327","2832","NA","NA","156056","2836","NA","NA","154921","156162","156655","156053","156161","New experiment","64","35854","67","yes","1024"
"95.5882352941","95.5882352941","533.691176471","533.691176471","black","legacy","legacy","legacy","0","congruent","uniform","1","undefined","1","s","0","0","0","67","0","67","0","67","0","0","0","67","67","67","67","67","09/27/20 19:13:54","1500","Flanker Task","yes","flankertasksubmission.osexp","C:\Users\User\Desktop\Quant 2020 - Copy","no","mono","no","18","no","white","no","yes","768","legacy","67","67","C:/Users/User/Desktop/Quant 2020 - Copy/HF-subject-3.csv","legacy","Lentiform Loewenfeld","3.3.3","0","s","NA","h","NA","NA","s","437","NA","33438","NA","NA","437","2","legacy","1024","2","48000","-16","experiment","SSSSS","3","odd","36275","NA","NA","140327","2832","NA","NA","157810","2836","NA","NA","156661","157917","158358","157807","157916","New experiment","65","36291","68","yes","1024"
"95.652173913","95.652173913","533.550724638","533.550724638","black","legacy","legacy","legacy","0","incongruent","uniform","1","undefined","1","h","0","0","0","68","0","68","0","68","0","0","0","68","68","68","68","68","09/27/20 19:13:54","1500","Flanker Task","yes","flankertasksubmission.osexp","C:\Users\User\Desktop\Quant 2020 - Copy","no","mono","no","18","no","white","no","yes","768","legacy","68","68","C:/Users/User/Desktop/Quant 2020 - Copy/HF-subject-3.csv","legacy","Lentiform Loewenfeld","3.3.3","0","h","NA","h","NA","NA","h","524","NA","33438","NA","NA","524","2","legacy","1024","2","48000","-16","experiment","SSHSS","3","odd","36275","NA","NA","140327","2832","NA","NA","159510","2836","NA","NA","158373","159616","160141","159507","159616","New experiment","66","36815","69","yes","1024"
"95.7142857143","95.7142857143","536.571428571","536.571428571","black","legacy","legacy","legacy","0","congruent","uniform","1","undefined","1","h","0","0","0","69","0","69","0","69","0","0","0","69","69","69","69","69","09/27/20 19:13:54","1500","Flanker Task","yes","flankertasksubmission.osexp","C:\Users\User\Desktop\Quant 2020 - Copy","no","mono","no","18","no","white","no","yes","768","legacy","69","69","C:/Users/User/Desktop/Quant 2020 - Copy/HF-subject-3.csv","legacy","Lentiform Loewenfeld","3.3.3","0","h","NA","h","NA","NA","h","745","NA","33438","NA","NA","745","2","legacy","1024","2","48000","-16","experiment","HHHHH","3","odd","36275","NA","NA","140327","2832","NA","NA","161278","2836","NA","NA","160146","161384","162132","161275","161383","New experiment","67","37560","70","yes","1024"
"95.7746478873","95.7746478873","539.746478873","539.746478873","black","legacy","legacy","legacy","0","incongruent","uniform","1","undefined","1","h","0","0","0","70","0","70","0","70","0","0","0","70","70","70","70","70","09/27/20 19:13:54","1500","Flanker Task","yes","flankertasksubmission.osexp","C:\Users\User\Desktop\Quant 2020 - Copy","no","mono","no","18","no","white","no","yes","768","legacy","70","70","C:/Users/User/Desktop/Quant 2020 - Copy/HF-subject-3.csv","legacy","Lentiform Loewenfeld","3.3.3","0","h","NA","h","NA","NA","h","762","NA","33438","NA","NA","762","2","legacy","1024","2","48000","-16","experiment","SSHSS","3","odd","36275","NA","NA","140327","2832","NA","NA","163313","2836","NA","NA","162143","163419","164182","163310","163418","New experiment","68","38322","71","yes","1024"
"95.8333333333","95.8333333333","541.333333333","541.333333333","black","legacy","legacy","legacy","0","congruent","uniform","1","undefined","1","s","0","0","0","71","0","71","0","71","0","0","0","71","71","71","71","71","09/27/20 19:13:54","1500","Flanker Task","yes","flankertasksubmission.osexp","C:\Users\User\Desktop\Quant 2020 - Copy","no","mono","no","18","no","white","no","yes","768","legacy","71","71","C:/Users/User/Desktop/Quant 2020 - Copy/HF-subject-3.csv","legacy","Lentiform Loewenfeld","3.3.3","0","s","NA","h","NA","NA","s","654","NA","33438","NA","NA","654","2","legacy","1024","2","48000","-16","experiment","SSSSS","3","odd","36275","NA","NA","140327","2832","NA","NA","165325","2836","NA","NA","164188","165431","166088","165322","165430","New experiment","69","38976","72","yes","1024"
"95.8904109589","95.8904109589","541.452054795","541.452054795","black","legacy","legacy","legacy","0","incongruent","uniform","1","undefined","1","h","0","0","0","72","0","72","0","72","0","0","0","72","72","72","72","72","09/27/20 19:13:54","1500","Flanker Task","yes","flankertasksubmission.osexp","C:\Users\User\Desktop\Quant 2020 - Copy","no","mono","no","18","no","white","no","yes","768","legacy","72","72","C:/Users/User/Desktop/Quant 2020 - Copy/HF-subject-3.csv","legacy","Lentiform Loewenfeld","3.3.3","0","h","NA","h","NA","NA","h","550","NA","33438","NA","NA","550","2","legacy","1024","2","48000","-16","experiment","SSHSS","3","odd","36275","NA","NA","140327","2832","NA","NA","167224","2836","NA","NA","166099","167330","167884","167221","167330","New experiment","70","39526","73","yes","1024"
"95.9459459459","95.9459459459","542.108108108","542.108108108","black","legacy","legacy","legacy","0","congruent","uniform","1","undefined","1","h","0","0","0","73","0","73","0","73","0","0","0","73","73","73","73","73","09/27/20 19:13:54","1500","Flanker Task","yes","flankertasksubmission.osexp","C:\Users\User\Desktop\Quant 2020 - Copy","no","mono","no","18","no","white","no","yes","768","legacy","73","73","C:/Users/User/Desktop/Quant 2020 - Copy/HF-subject-3.csv","legacy","Lentiform Loewenfeld","3.3.3","0","h","NA","h","NA","NA","h","590","NA","33438","NA","NA","590","2","legacy","1024","2","48000","-16","experiment","HHHHH","3","odd","36275","NA","NA","140327","2832","NA","NA","169025","2836","NA","NA","167898","169131","169723","169022","169131","New experiment","71","40116","74","yes","1024"
"96","96","542.213333333","542.213333333","black","legacy","legacy","legacy","0","incongruent","uniform","1","undefined","1","s","0","0","0","74","0","74","0","74","0","0","0","74","74","74","74","74","09/27/20 19:13:54","1500","Flanker Task","yes","flankertasksubmission.osexp","C:\Users\User\Desktop\Quant 2020 - Copy","no","mono","no","18","no","white","no","yes","768","legacy","74","74","C:/Users/User/Desktop/Quant 2020 - Copy/HF-subject-3.csv","legacy","Lentiform Loewenfeld","3.3.3","0","s","NA","h","NA","NA","s","550","NA","33438","NA","NA","550","2","legacy","1024","2","48000","-16","experiment","HHSHH","3","odd","36275","NA","NA","140327","2832","NA","NA","170874","2836","NA","NA","169729","170980","171532","170870","170980","New experiment","72","40666","75","yes","1024"
"96.0526315789","96.0526315789","542.789473684","542.789473684","black","legacy","legacy","legacy","0","congruent","uniform","1","undefined","1","s","0","0","0","75","0","75","0","75","0","0","0","75","75","75","75","75","09/27/20 19:13:54","1500","Flanker Task","yes","flankertasksubmission.osexp","C:\Users\User\Desktop\Quant 2020 - Copy","no","mono","no","18","no","white","no","yes","768","legacy","75","75","C:/Users/User/Desktop/Quant 2020 - Copy/HF-subject-3.csv","legacy","Lentiform Loewenfeld","3.3.3","0","s","NA","h","NA","NA","s","586","NA","33438","NA","NA","586","2","legacy","1024","2","48000","-16","experiment","SSSSS","3","odd","36275","NA","NA","140327","2832","NA","NA","172676","2836","NA","NA","171537","172782","173370","172673","172782","New experiment","73","41252","76","yes","1024"
"96.1038961039","96.1038961039","544.38961039","544.38961039","black","legacy","legacy","legacy","0","congruent","uniform","1","undefined","1","h","0","0","0","76","0","76","0","76","0","0","0","76","76","76","76","76","09/27/20 19:13:54","1500","Flanker Task","yes","flankertasksubmission.osexp","C:\Users\User\Desktop\Quant 2020 - Copy","no","mono","no","18","no","white","no","yes","768","legacy","76","76","C:/Users/User/Desktop/Quant 2020 - Copy/HF-subject-3.csv","legacy","Lentiform Loewenfeld","3.3.3","0","h","NA","h","NA","NA","h","666","NA","33438","NA","NA","666","2","legacy","1024","2","48000","-16","experiment","HHHHH","3","odd","36275","NA","NA","140327","2832","NA","NA","174520","2836","NA","NA","173379","174626","175296","174517","174626","New experiment","74","41918","77","yes","1024"
"96.1538461538","96.1538461538","544.512820513","544.512820513","black","legacy","legacy","legacy","0","incongruent","uniform","1","undefined","1","h","0","0","0","77","0","77","0","77","0","0","0","77","77","77","77","77","09/27/20 19:13:54","1500","Flanker Task","yes","flankertasksubmission.osexp","C:\Users\User\Desktop\Quant 2020 - Copy","no","mono","no","18","no","white","no","yes","768","legacy","77","77","C:/Users/User/Desktop/Quant 2020 - Copy/HF-subject-3.csv","legacy","Lentiform Loewenfeld","3.3.3","0","h","NA","h","NA","NA","h","554","NA","33438","NA","NA","554","2","legacy","1024","2","48000","-16","experiment","SSHSS","3","odd","36275","NA","NA","140327","2832","NA","NA","176494","2836","NA","NA","175310","176600","177159","176491","176600","New experiment","75","42472","78","yes","1024"
"96.2025316456","96.2025316456","543.17721519","543.17721519","black","legacy","legacy","legacy","0","incongruent","uniform","1","undefined","1","h","0","0","0","78","0","78","0","78","0","0","0","78","78","78","78","78","09/27/20 19:13:54","1500","Flanker Task","yes","flankertasksubmission.osexp","C:\Users\User\Desktop\Quant 2020 - Copy","no","mono","no","18","no","white","no","yes","768","legacy","78","78","C:/Users/User/Desktop/Quant 2020 - Copy/HF-subject-3.csv","legacy","Lentiform Loewenfeld","3.3.3","0","h","NA","h","NA","NA","h","439","NA","33438","NA","NA","439","2","legacy","1024","2","48000","-16","experiment","SSHSS","3","odd","36275","NA","NA","140327","2832","NA","NA","178334","2836","NA","NA","177173","178440","178880","178331","178439","New experiment","76","42911","79","yes","1024"
"96.25","96.25","542.425","542.425","black","legacy","legacy","legacy","0","incongruent","uniform","1","undefined","1","s","0","0","0","79","0","79","0","79","0","0","0","79","79","79","79","79","09/27/20 19:13:54","1500","Flanker Task","yes","flankertasksubmission.osexp","C:\Users\User\Desktop\Quant 2020 - Copy","no","mono","no","18","no","white","no","yes","768","legacy","79","79","C:/Users/User/Desktop/Quant 2020 - Copy/HF-subject-3.csv","legacy","Lentiform Loewenfeld","3.3.3","0","s","NA","h","NA","NA","s","483","NA","33438","NA","NA","483","2","legacy","1024","2","48000","-16","experiment","HHSHH","3","odd","36275","NA","NA","140327","2832","NA","NA","180038","2836","NA","NA","178886","180144","180630","180035","180144","New experiment","77","43394","80","yes","1024"
"96.2962962963","96.2962962963","542.839506173","542.839506173","black","legacy","legacy","legacy","0","congruent","uniform","1","undefined","1","s","0","0","0","80","0","80","0","80","0","0","0","80","80","80","80","80","09/27/20 19:13:54","600","Flanker Task","yes","flankertasksubmission.osexp","C:\Users\User\Desktop\Quant 2020 - Copy","no","mono","no","18","no","white","no","yes","768","legacy","0","79","C:/Users/User/Desktop/Quant 2020 - Copy/HF-subject-3.csv","legacy","Lentiform Loewenfeld","3.3.3","0","s","NA","h","h","NA","s","576","NA","33438","1929","NA","576","2","legacy","1024","2","48000","-16","experiment","SSSSS","3","odd","36275","183613","NA","140327","2832","NA","NA","183705","2836","181683","NA","180643","183811","184391","183703","183811","New experiment","78","43970","81","yes","1024"
"96.3414634146","96.3414634146","541.365853659","541.365853659","black","legacy","legacy","legacy","0","incongruent","uniform","1","undefined","1","h","0","0","0","81","0","81","0","81","0","0","0","81","81","81","81","81","09/27/20 19:13:54","600","Flanker Task","yes","flankertasksubmission.osexp","C:\Users\User\Desktop\Quant 2020 - Copy","no","mono","no","18","no","white","no","yes","768","legacy","1","79","C:/Users/User/Desktop/Quant 2020 - Copy/HF-subject-3.csv","legacy","Lentiform Loewenfeld","3.3.3","0","h","NA","h","h","NA","h","422","NA","33438","1929","NA","422","2","legacy","1024","2","48000","-16","experiment","SSHSS","3","odd","36275","183613","NA","140327","2832","NA","NA","185547","2836","181683","NA","184405","185653","186076","185544","185653","New experiment","79","44392","82","yes","1024"
"96.3855421687","96.3855421687","540.253012048","540.253012048","black","legacy","legacy","legacy","0","incongruent","uniform","1","undefined","1","s","0","0","0","82","0","82","0","82","0","0","0","82","82","82","82","82","09/27/20 19:13:54","600","Flanker Task","yes","flankertasksubmission.osexp","C:\Users\User\Desktop\Quant 2020 - Copy","no","mono","no","18","no","white","no","yes","768","legacy","2","79","C:/Users/User/Desktop/Quant 2020 - Copy/HF-subject-3.csv","legacy","Lentiform Loewenfeld","3.3.3","0","s","NA","h","h","NA","s","449","NA","33438","1929","NA","449","2","legacy","1024","2","48000","-16","experiment","HHSHH","3","odd","36275","183613","NA","140327","2832","NA","NA","187237","2836","181683","NA","186082","187343","187796","187233","187343","New experiment","80","44841","83","yes","1024"
"96.4285714286","96.4285714286","541.80952381","541.80952381","black","legacy","legacy","legacy","0","congruent","uniform","1","undefined","1","h","0","0","0","83","0","83","0","83","0","0","0","83","83","83","83","83","09/27/20 19:13:54","600","Flanker Task","yes","flankertasksubmission.osexp","C:\Users\User\Desktop\Quant 2020 - Copy","no","mono","no","18","no","white","no","yes","768","legacy","3","79","C:/Users/User/Desktop/Quant 2020 - Copy/HF-subject-3.csv","legacy","Lentiform Loewenfeld","3.3.3","0","h","NA","h","h","NA","h","671","NA","33438","1929","NA","671","2","legacy","1024","2","48000","-16","experiment","HHHHH","3","odd","36275","183613","NA","140327","2832","NA","NA","188941","2836","181683","NA","187808","189047","189721","188938","189046","New experiment","81","45512","84","yes","1024"
"96.4705882353","96.4705882353","541.223529412","541.223529412","black","legacy","legacy","legacy","0","congruent","uniform","1","undefined","1","h","0","0","0","84","0","84","0","84","0","0","0","84","84","84","84","84","09/27/20 19:13:54","600","Flanker Task","yes","flankertasksubmission.osexp","C:\Users\User\Desktop\Quant 2020 - Copy","no","mono","no","18","no","white","no","yes","768","legacy","4","79","C:/Users/User/Desktop/Quant 2020 - Copy/HF-subject-3.csv","legacy","Lentiform Loewenfeld","3.3.3","0","h","NA","h","h","NA","h","492","NA","33438","1929","NA","492","2","legacy","1024","2","48000","-16","experiment","HHHHH","3","odd","36275","183613","NA","140327","2832","189733","NA","191367","2836","181683","NA","190239","191473","191968","191364","191473","New experiment","82","46004","85","yes","1024"
"96.511627907","96.511627907","539.697674419","539.697674419","black","legacy","legacy","legacy","0","incongruent","uniform","1","undefined","1","s","0","0","0","85","0","85","0","85","0","0","0","85","85","85","85","85","09/27/20 19:13:54","600","Flanker Task","yes","flankertasksubmission.osexp","C:\Users\User\Desktop\Quant 2020 - Copy","no","mono","no","18","no","white","no","yes","768","legacy","5","79","C:/Users/User/Desktop/Quant 2020 - Copy/HF-subject-3.csv","legacy","Lentiform Loewenfeld","3.3.3","0","s","NA","h","h","NA","s","410","NA","33438","1929","NA","410","2","legacy","1024","2","48000","-16","experiment","HHSHH","3","odd","36275","183613","NA","140327","2832","189733","NA","193111","2836","181683","NA","191977","193218","193631","193108","193217","New experiment","83","46414","86","yes","1024"
"96.5517241379","96.5517241379","538.931034483","538.931034483","black","legacy","legacy","legacy","0","congruent","uniform","1","undefined","1","s","0","0","0","86","0","86","0","86","0","0","0","86","86","86","86","86","09/27/20 19:13:54","600","Flanker Task","yes","flankertasksubmission.osexp","C:\Users\User\Desktop\Quant 2020 - Copy","no","mono","no","18","no","white","no","yes","768","legacy","6","79","C:/Users/User/Desktop/Quant 2020 - Copy/HF-subject-3.csv","legacy","Lentiform Loewenfeld","3.3.3","0","s","NA","h","h","NA","s","473","NA","33438","1929","NA","473","2","legacy","1024","2","48000","-16","experiment","SSSSS","3","odd","36275","183613","NA","140327","2832","189733","NA","194805","2836","181683","NA","193639","194912","195387","194802","194912","New experiment","84","46887","87","yes","1024"
"96.5909090909","96.5909090909","537.647727273","537.647727273","black","legacy","legacy","legacy","0","congruent","uniform","1","undefined","1","s","0","0","0","87","0","87","0","87","0","0","0","87","87","87","87","87","09/27/20 19:13:54","600","Flanker Task","yes","flankertasksubmission.osexp","C:\Users\User\Desktop\Quant 2020 - Copy","no","mono","no","18","no","white","no","yes","768","legacy","7","79","C:/Users/User/Desktop/Quant 2020 - Copy/HF-subject-3.csv","legacy","Lentiform Loewenfeld","3.3.3","0","s","NA","h","h","NA","s","426","NA","33438","1929","NA","426","2","legacy","1024","2","48000","-16","experiment","SSSSS","3","odd","36275","183613","NA","140327","2832","189733","NA","196548","2836","181683","NA","195395","196654","197082","196541","196653","New experiment","85","47313","88","yes","1024"
"96.6292134831","96.6292134831","535.707865169","535.707865169","black","legacy","legacy","legacy","0","congruent","uniform","1","undefined","1","h","0","0","0","88","0","88","0","88","0","0","0","88","88","88","88","88","09/27/20 19:13:54","600","Flanker Task","yes","flankertasksubmission.osexp","C:\Users\User\Desktop\Quant 2020 - Copy","no","mono","no","18","no","white","no","yes","768","legacy","8","79","C:/Users/User/Desktop/Quant 2020 - Copy/HF-subject-3.csv","legacy","Lentiform Loewenfeld","3.3.3","0","h","NA","h","h","NA","h","365","NA","33438","1929","NA","365","2","legacy","1024","2","48000","-16","experiment","HHHHH","3","odd","36275","183613","NA","140327","2832","189733","NA","198233","2836","181683","NA","197091","198339","198705","198230","198338","New experiment","86","47678","89","yes","1024"
"96.6666666667","96.6666666667","535.277777778","535.277777778","black","legacy","legacy","legacy","0","incongruent","uniform","1","undefined","1","s","0","0","0","89","0","89","0","89","0","0","0","89","89","89","89","89","09/27/20 19:13:54","600","Flanker Task","yes","flankertasksubmission.osexp","C:\Users\User\Desktop\Quant 2020 - Copy","no","mono","no","18","no","white","no","yes","768","legacy","9","79","C:/Users/User/Desktop/Quant 2020 - Copy/HF-subject-3.csv","legacy","Lentiform Loewenfeld","3.3.3","0","s","NA","h","h","NA","s","497","NA","33438","1929","NA","497","2","legacy","1024","2","48000","-16","experiment","HHSHH","3","odd","36275","183613","NA","140327","2832","189733","NA","199858","2836","181683","NA","198711","199964","200463","199855","199963","New experiment","87","48175","90","yes","1024"
"95.6043956044","95.6043956044","534.142857143","534.142857143","black","legacy","legacy","legacy","0","incongruent","uniform","0","undefined","0","h","0","0","0","90","0","90","0","90","0","0","0","90","90","90","90","90","09/27/20 19:13:54","600","Flanker Task","yes","flankertasksubmission.osexp","C:\Users\User\Desktop\Quant 2020 - Copy","no","mono","no","18","no","white","no","yes","768","legacy","10","79","C:/Users/User/Desktop/Quant 2020 - Copy/HF-subject-3.csv","legacy","Lentiform Loewenfeld","3.3.3","0","s","NA","h","h","NA","s","432","NA","33438","1929","NA","432","2","legacy","1024","2","48000","-16","experiment","SSHSS","3","odd","36275","183613","NA","140327","2832","189733","NA","201601","2836","181683","NA","200472","201708","202144","201598","201708","New experiment","87","48607","91","yes","1024"
"95.652173913","95.652173913","533.934782609","533.934782609","black","legacy","legacy","legacy","0","incongruent","uniform","1","undefined","1","h","0","0","0","91","0","91","0","91","0","0","0","91","91","91","91","91","09/27/20 19:13:54","600","Flanker Task","yes","flankertasksubmission.osexp","C:\Users\User\Desktop\Quant 2020 - Copy","no","mono","no","18","no","white","no","yes","768","legacy","11","79","C:/Users/User/Desktop/Quant 2020 - Copy/HF-subject-3.csv","legacy","Lentiform Loewenfeld","3.3.3","0","h","NA","h","h","NA","h","515","NA","33438","1929","NA","515","2","legacy","1024","2","48000","-16","experiment","SSHSS","3","odd","36275","183613","NA","202155","2832","189733","NA","203788","2836","181683","NA","202662","203894","204411","203785","203894","New experiment","88","49122","92","yes","1024"
"95.6989247312","95.6989247312","534.892473118","534.892473118","black","legacy","legacy","legacy","0","incongruent","uniform","1","undefined","1","h","0","0","0","92","0","92","0","92","0","0","0","92","92","92","92","92","09/27/20 19:13:54","600","Flanker Task","yes","flankertasksubmission.osexp","C:\Users\User\Desktop\Quant 2020 - Copy","no","mono","no","18","no","white","no","yes","768","legacy","12","79","C:/Users/User/Desktop/Quant 2020 - Copy/HF-subject-3.csv","legacy","Lentiform Loewenfeld","3.3.3","0","h","NA","h","h","NA","h","623","NA","33438","1929","NA","623","2","legacy","1024","2","48000","-16","experiment","SSHSS","3","odd","36275","183613","NA","202155","2832","189733","NA","205577","2836","181683","NA","204416","205684","206309","205574","205684","New experiment","89","49745","93","yes","1024"
"95.7446808511","95.7446808511","533.521276596","533.521276596","black","legacy","legacy","legacy","0","congruent","uniform","1","undefined","1","h","0","0","0","93","0","93","0","93","0","0","0","93","93","93","93","93","09/27/20 19:13:54","600","Flanker Task","yes","flankertasksubmission.osexp","C:\Users\User\Desktop\Quant 2020 - Copy","no","mono","no","18","no","white","no","yes","768","legacy","13","79","C:/Users/User/Desktop/Quant 2020 - Copy/HF-subject-3.csv","legacy","Lentiform Loewenfeld","3.3.3","0","h","NA","h","h","NA","h","406","NA","33438","1929","NA","406","2","legacy","1024","2","48000","-16","experiment","HHHHH","3","odd","36275","183613","NA","202155","2832","206314","NA","208014","2836","181683","NA","206820","208120","208531","208010","208120","New experiment","90","50151","94","yes","1024"
"95.7894736842","95.7894736842","531.852631579","531.852631579","black","legacy","legacy","legacy","0","incongruent","uniform","1","undefined","1","s","0","0","0","94","0","94","0","94","0","0","0","94","94","94","94","94","09/27/20 19:13:54","600","Flanker Task","yes","flankertasksubmission.osexp","C:\Users\User\Desktop\Quant 2020 - Copy","no","mono","no","18","no","white","no","yes","768","legacy","14","79","C:/Users/User/Desktop/Quant 2020 - Copy/HF-subject-3.csv","legacy","Lentiform Loewenfeld","3.3.3","0","s","NA","h","h","NA","s","375","NA","33438","1929","NA","375","2","legacy","1024","2","48000","-16","experiment","HHSHH","3","odd","36275","183613","NA","202155","2832","206314","NA","209674","2836","181683","NA","208544","209780","210158","209671","209780","New experiment","91","50526","95","yes","1024"
"95.8333333333","95.8333333333","530.75","530.75","black","legacy","legacy","legacy","0","incongruent","uniform","1","undefined","1","h","0","0","0","95","0","95","0","95","0","0","0","95","95","95","95","95","09/27/20 19:13:54","600","Flanker Task","yes","flankertasksubmission.osexp","C:\Users\User\Desktop\Quant 2020 - Copy","no","mono","no","18","no","white","no","yes","768","legacy","15","79","C:/Users/User/Desktop/Quant 2020 - Copy/HF-subject-3.csv","legacy","Lentiform Loewenfeld","3.3.3","0","h","NA","h","h","NA","h","426","NA","33438","1929","NA","426","2","legacy","1024","2","48000","-16","experiment","SSHSS","3","odd","36275","183613","NA","202155","2832","206314","NA","211317","2836","181683","NA","210167","211423","211853","211314","211422","New experiment","92","50952","96","yes","1024"
"95.8762886598","95.8762886598","529.649484536","529.649484536","black","legacy","legacy","legacy","0","congruent","uniform","1","undefined","1","s","0","0","0","96","0","96","0","96","0","0","0","96","96","96","96","96","09/27/20 19:13:54","600","Flanker Task","yes","flankertasksubmission.osexp","C:\Users\User\Desktop\Quant 2020 - Copy","no","mono","no","18","no","white","no","yes","768","legacy","16","79","C:/Users/User/Desktop/Quant 2020 - Copy/HF-subject-3.csv","legacy","Lentiform Loewenfeld","3.3.3","0","s","NA","h","h","NA","s","424","NA","33438","1929","NA","424","2","legacy","1024","2","48000","-16","experiment","SSSSS","3","odd","36275","183613","NA","202155","2832","206314","NA","213004","2836","181683","NA","211864","213110","213537","213001","213109","New experiment","93","51376","97","yes","1024"
"95.9183673469","95.9183673469","528.010204082","528.010204082","black","legacy","legacy","legacy","0","congruent","uniform","1","undefined","1","h","0","0","0","97","0","97","0","97","0","0","0","97","97","97","97","97","09/27/20 19:13:54","600","Flanker Task","yes","flankertasksubmission.osexp","C:\Users\User\Desktop\Quant 2020 - Copy","no","mono","no","18","no","white","no","yes","768","legacy","17","79","C:/Users/User/Desktop/Quant 2020 - Copy/HF-subject-3.csv","legacy","Lentiform Loewenfeld","3.3.3","0","h","NA","h","h","NA","h","369","NA","33438","1929","NA","369","2","legacy","1024","2","48000","-16","experiment","HHHHH","3","odd","36275","183613","NA","202155","2832","206314","NA","214678","2836","181683","NA","213542","214784","215156","214674","214784","New experiment","94","51745","98","yes","1024"
"95.9595959596","95.9595959596","527.717171717","527.717171717","black","legacy","legacy","legacy","0","congruent","uniform","1","undefined","1","h","0","0","0","98","0","98","0","98","0","0","0","98","98","98","98","98","09/27/20 19:13:54","600","Flanker Task","yes","flankertasksubmission.osexp","C:\Users\User\Desktop\Quant 2020 - Copy","no","mono","no","18","no","white","no","yes","768","legacy","18","79","C:/Users/User/Desktop/Quant 2020 - Copy/HF-subject-3.csv","legacy","Lentiform Loewenfeld","3.3.3","0","h","NA","h","h","NA","h","499","NA","33438","1929","NA","499","2","legacy","1024","2","48000","-16","experiment","HHHHH","3","odd","36275","183613","NA","202155","2832","206314","NA","216297","2836","181683","NA","215162","216404","216906","216294","216403","New experiment","95","52244","99","yes","1024"
"96","96","527.81","527.81","black","legacy","legacy","legacy","0","incongruent","uniform","1","undefined","1","s","0","0","0","99","0","99","0","99","0","0","0","99","99","99","99","99","09/27/20 19:13:54","600","Flanker Task","yes","flankertasksubmission.osexp","C:\Users\User\Desktop\Quant 2020 - Copy","no","mono","no","18","no","white","no","yes","768","legacy","19","79","C:/Users/User/Desktop/Quant 2020 - Copy/HF-subject-3.csv","legacy","Lentiform Loewenfeld","3.3.3","0","s","NA","h","h","NA","s","537","NA","33438","1929","NA","537","2","legacy","1024","2","48000","-16","experiment","HHSHH","3","odd","36275","183613","NA","202155","2832","206314","NA","218044","2836","181683","NA","216915","218150","218690","218041","218149","New experiment","96","52781","100","yes","1024"
"96.0396039604","96.0396039604","526.782178218","526.782178218","black","legacy","legacy","legacy","0","congruent","uniform","1","undefined","1","s","0","0","0","100","0","100","0","100","0","0","0","100","100","100","100","100","09/27/20 19:13:54","600","Flanker Task","yes","flankertasksubmission.osexp","C:\Users\User\Desktop\Quant 2020 - Copy","no","mono","no","18","no","white","no","yes","768","legacy","20","79","C:/Users/User/Desktop/Quant 2020 - Copy/HF-subject-3.csv","legacy","Lentiform Loewenfeld","3.3.3","0","s","NA","h","h","NA","s","424","NA","33438","1929","NA","424","2","legacy","1024","2","48000","-16","experiment","SSSSS","3","odd","36275","183613","NA","202155","2832","206314","NA","219855","2836","181683","NA","218701","219962","220388","219852","219961","New experiment","97","53205","101","yes","1024"
"96.0784313725","96.0784313725","525.81372549","525.81372549","black","legacy","legacy","legacy","0","congruent","uniform","1","undefined","1","h","0","0","0","101","0","101","0","101","0","0","0","101","101","101","101","101","09/27/20 19:13:54","600","Flanker Task","yes","flankertasksubmission.osexp","C:\Users\User\Desktop\Quant 2020 - Copy","no","mono","no","18","no","white","no","yes","768","legacy","21","79","C:/Users/User/Desktop/Quant 2020 - Copy/HF-subject-3.csv","legacy","Lentiform Loewenfeld","3.3.3","0","h","NA","h","h","NA","h","428","NA","33438","1929","NA","428","2","legacy","1024","2","48000","-16","experiment","HHHHH","3","odd","36275","183613","NA","202155","2832","206314","NA","221524","2836","181683","NA","220393","221630","222063","221521","221629","New experiment","98","53633","102","yes","1024"
"96.1165048544","96.1165048544","525.932038835","525.932038835","black","legacy","legacy","legacy","0","incongruent","uniform","1","undefined","1","s","0","0","0","102","0","102","0","102","0","0","0","102","102","102","102","102","09/27/20 19:13:54","600","Flanker Task","yes","flankertasksubmission.osexp","C:\Users\User\Desktop\Quant 2020 - Copy","no","mono","no","18","no","white","no","yes","768","legacy","22","79","C:/Users/User/Desktop/Quant 2020 - Copy/HF-subject-3.csv","legacy","Lentiform Loewenfeld","3.3.3","0","s","NA","h","h","NA","s","538","NA","33438","1929","NA","538","2","legacy","1024","2","48000","-16","experiment","HHSHH","3","odd","36275","183613","NA","202155","2832","206314","NA","223255","2836","181683","NA","222077","223362","223902","223252","223361","New experiment","99","54171","103","yes","1024"
"96.1538461538","96.1538461538","527.692307692","527.692307692","black","legacy","legacy","legacy","0","incongruent","uniform","1","undefined","1","h","0","0","0","103","0","103","0","103","0","0","0","103","103","103","103","103","09/27/20 19:13:54","600","Flanker Task","yes","flankertasksubmission.osexp","C:\Users\User\Desktop\Quant 2020 - Copy","no","mono","no","18","no","white","no","yes","768","legacy","23","79","C:/Users/User/Desktop/Quant 2020 - Copy/HF-subject-3.csv","legacy","Lentiform Loewenfeld","3.3.3","0","h","NA","h","h","NA","h","709","NA","33438","1929","NA","709","2","legacy","1024","2","48000","-16","experiment","SSHSS","3","odd","36275","183613","NA","202155","2832","206314","NA","225038","2836","181683","NA","223911","225144","225858","225035","225143","New experiment","100","54880","104","yes","1024"
"96.1904761905","96.1904761905","527.552380952","527.552380952","black","legacy","legacy","legacy","0","incongruent","uniform","1","undefined","1","h","0","0","0","104","0","104","0","104","0","0","0","104","104","104","104","104","09/27/20 19:13:54","600","Flanker Task","yes","flankertasksubmission.osexp","C:\Users\User\Desktop\Quant 2020 - Copy","no","mono","no","18","no","white","no","yes","768","legacy","24","79","C:/Users/User/Desktop/Quant 2020 - Copy/HF-subject-3.csv","legacy","Lentiform Loewenfeld","3.3.3","0","h","NA","h","h","NA","h","513","NA","33438","1929","NA","513","2","legacy","1024","2","48000","-16","experiment","SSHSS","3","odd","36275","183613","NA","202155","2832","225866","NA","227512","2836","181683","NA","226371","227618","228134","227509","227617","New experiment","101","55393","105","yes","1024"
"96.2264150943","96.2264150943","528.198113208","528.198113208","black","legacy","legacy","legacy","0","congruent","uniform","1","undefined","1","s","0","0","0","105","0","105","0","105","0","0","0","105","105","105","105","105","09/27/20 19:13:54","600","Flanker Task","yes","flankertasksubmission.osexp","C:\Users\User\Desktop\Quant 2020 - Copy","no","mono","no","18","no","white","no","yes","768","legacy","25","79","C:/Users/User/Desktop/Quant 2020 - Copy/HF-subject-3.csv","legacy","Lentiform Loewenfeld","3.3.3","0","s","NA","h","h","NA","s","596","NA","33438","1929","NA","596","2","legacy","1024","2","48000","-16","experiment","SSSSS","3","odd","36275","183613","NA","202155","2832","225866","NA","229263","2836","181683","NA","228141","229369","229967","229260","229368","New experiment","102","55989","106","yes","1024"
"96.261682243","96.261682243","528.598130841","528.598130841","black","legacy","legacy","legacy","0","incongruent","uniform","1","undefined","1","s","0","0","0","106","0","106","0","106","0","0","0","106","106","106","106","106","09/27/20 19:13:54","600","Flanker Task","yes","flankertasksubmission.osexp","C:\Users\User\Desktop\Quant 2020 - Copy","no","mono","no","18","no","white","no","yes","768","legacy","26","79","C:/Users/User/Desktop/Quant 2020 - Copy/HF-subject-3.csv","legacy","Lentiform Loewenfeld","3.3.3","0","s","NA","h","h","NA","s","571","NA","33438","1929","NA","571","2","legacy","1024","2","48000","-16","experiment","HHSHH","3","odd","36275","183613","NA","202155","2832","225866","NA","231097","2836","181683","NA","229972","231203","231778","231094","231202","New experiment","103","56560","107","yes","1024"
"96.2962962963","96.2962962963","527.481481481","527.481481481","black","legacy","legacy","legacy","0","incongruent","uniform","1","undefined","1","h","0","0","0","107","0","107","0","107","0","0","0","107","107","107","107","107","09/27/20 19:13:54","600","Flanker Task","yes","flankertasksubmission.osexp","C:\Users\User\Desktop\Quant 2020 - Copy","no","mono","no","18","no","white","no","yes","768","legacy","27","79","C:/Users/User/Desktop/Quant 2020 - Copy/HF-subject-3.csv","legacy","Lentiform Loewenfeld","3.3.3","0","h","NA","h","h","NA","h","408","NA","33438","1929","NA","408","2","legacy","1024","2","48000","-16","experiment","SSHSS","3","odd","36275","183613","NA","202155","2832","225866","NA","232920","2836","181683","NA","231787","233026","233435","232917","233026","New experiment","104","56968","108","yes","1024"
"96.3302752294","96.3302752294","527.04587156","527.04587156","black","legacy","legacy","legacy","0","congruent","uniform","1","undefined","1","s","0","0","0","108","0","108","0","108","0","0","0","108","108","108","108","108","09/27/20 19:13:54","600","Flanker Task","yes","flankertasksubmission.osexp","C:\Users\User\Desktop\Quant 2020 - Copy","no","mono","no","18","no","white","no","yes","768","legacy","28","79","C:/Users/User/Desktop/Quant 2020 - Copy/HF-subject-3.csv","legacy","Lentiform Loewenfeld","3.3.3","0","s","NA","h","h","NA","s","480","NA","33438","1929","NA","480","2","legacy","1024","2","48000","-16","experiment","SSSSS","3","odd","36275","183613","NA","202155","2832","225866","NA","234569","2836","181683","NA","233441","234675","235158","234566","234674","New experiment","105","57448","109","yes","1024"
"96.3636363636","96.3636363636","526.190909091","526.190909091","black","legacy","legacy","legacy","0","congruent","uniform","1","undefined","1","s","0","0","0","109","0","109","0","109","0","0","0","109","109","109","109","109","09/27/20 19:13:54","600","Flanker Task","yes","flankertasksubmission.osexp","C:\Users\User\Desktop\Quant 2020 - Copy","no","mono","no","18","no","white","no","yes","768","legacy","29","79","C:/Users/User/Desktop/Quant 2020 - Copy/HF-subject-3.csv","legacy","Lentiform Loewenfeld","3.3.3","0","s","NA","h","h","NA","s","433","NA","33438","1929","NA","433","2","legacy","1024","2","48000","-16","experiment","SSSSS","3","odd","36275","183613","NA","202155","2832","225866","NA","236307","2836","181683","NA","235168","236413","236851","236304","236412","New experiment","106","57881","110","yes","1024"
"96.3963963964","96.3963963964","525.045045045","525.045045045","black","legacy","legacy","legacy","0","incongruent","uniform","1","undefined","1","s","0","0","0","110","0","110","0","110","0","0","0","110","110","110","110","110","09/27/20 19:13:54","600","Flanker Task","yes","flankertasksubmission.osexp","C:\Users\User\Desktop\Quant 2020 - Copy","no","mono","no","18","no","white","no","yes","768","legacy","30","79","C:/Users/User/Desktop/Quant 2020 - Copy/HF-subject-3.csv","legacy","Lentiform Loewenfeld","3.3.3","0","s","NA","h","h","NA","s","399","NA","33438","1929","NA","399","2","legacy","1024","2","48000","-16","experiment","HHSHH","3","odd","36275","183613","NA","202155","2832","225866","NA","238011","2836","181683","NA","236865","238117","238519","238008","238117","New experiment","107","58280","111","yes","1024"
"96.4285714286","96.4285714286","524.026785714","524.026785714","black","legacy","legacy","legacy","0","congruent","uniform","1","undefined","1","h","0","0","0","111","0","111","0","111","0","0","0","111","111","111","111","111","09/27/20 19:13:54","600","Flanker Task","yes","flankertasksubmission.osexp","C:\Users\User\Desktop\Quant 2020 - Copy","no","mono","no","18","no","white","no","yes","768","legacy","31","79","C:/Users/User/Desktop/Quant 2020 - Copy/HF-subject-3.csv","legacy","Lentiform Loewenfeld","3.3.3","0","h","NA","h","h","NA","h","411","NA","33438","1929","NA","411","2","legacy","1024","2","48000","-16","experiment","HHHHH","3","odd","36275","183613","NA","202155","2832","225866","NA","239688","2836","181683","NA","238527","239795","240212","239685","239795","New experiment","108","58691","112","yes","1024"
"96.4601769912","96.4601769912","524.707964602","524.707964602","black","legacy","legacy","legacy","0","incongruent","uniform","1","undefined","1","s","0","0","0","112","0","112","0","112","0","0","0","112","112","112","112","112","09/27/20 19:13:54","600","Flanker Task","yes","flankertasksubmission.osexp","C:\Users\User\Desktop\Quant 2020 - Copy","no","mono","no","18","no","white","no","yes","768","legacy","32","79","C:/Users/User/Desktop/Quant 2020 - Copy/HF-subject-3.csv","legacy","Lentiform Loewenfeld","3.3.3","0","s","NA","h","h","NA","s","601","NA","33438","1929","NA","601","2","legacy","1024","2","48000","-16","experiment","HHSHH","3","odd","36275","183613","NA","202155","2832","225866","NA","241356","2836","181683","NA","240225","241462","242069","241353","241462","New experiment","109","59292","113","yes","1024"
"96.4912280702","96.4912280702","523.877192982","523.877192982","black","legacy","legacy","legacy","0","congruent","uniform","1","undefined","1","s","0","0","0","113","0","113","0","113","0","0","0","113","113","113","113","113","09/27/20 19:13:54","600","Flanker Task","yes","flankertasksubmission.osexp","C:\Users\User\Desktop\Quant 2020 - Copy","no","mono","no","18","no","white","no","yes","768","legacy","33","79","C:/Users/User/Desktop/Quant 2020 - Copy/HF-subject-3.csv","legacy","Lentiform Loewenfeld","3.3.3","0","s","NA","h","h","NA","s","430","NA","33438","1929","NA","430","2","legacy","1024","2","48000","-16","experiment","SSSSS","3","odd","36275","183613","NA","202155","2832","242082","NA","243717","2836","181683","NA","242588","243823","244259","243714","243822","New experiment","110","59722","114","yes","1024"
"96.5217391304","96.5217391304","523.2","523.2","black","legacy","legacy","legacy","0","incongruent","uniform","1","undefined","1","h","0","0","0","114","0","114","0","114","0","0","0","114","114","114","114","114","09/27/20 19:13:54","600","Flanker Task","yes","flankertasksubmission.osexp","C:\Users\User\Desktop\Quant 2020 - Copy","no","mono","no","18","no","white","no","yes","768","legacy","34","79","C:/Users/User/Desktop/Quant 2020 - Copy/HF-subject-3.csv","legacy","Lentiform Loewenfeld","3.3.3","0","h","NA","h","h","NA","h","446","NA","33438","1929","NA","446","2","legacy","1024","2","48000","-16","experiment","SSHSS","3","odd","36275","183613","NA","202155","2832","242082","NA","245402","2836","181683","NA","244273","245508","245956","245399","245507","New experiment","111","60168","115","yes","1024"
"96.5517241379","96.5517241379","524.103448276","524.103448276","black","legacy","legacy","legacy","0","incongruent","uniform","1","undefined","1","h","0","0","0","115","0","115","0","115","0","0","0","115","115","115","115","115","09/27/20 19:13:54","600","Flanker Task","yes","flankertasksubmission.osexp","C:\Users\User\Desktop\Quant 2020 - Copy","no","mono","no","18","no","white","no","yes","768","legacy","35","79","C:/Users/User/Desktop/Quant 2020 - Copy/HF-subject-3.csv","legacy","Lentiform Loewenfeld","3.3.3","0","h","NA","h","h","NA","h","628","NA","33438","1929","NA","628","2","legacy","1024","2","48000","-16","experiment","SSHSS","3","odd","36275","183613","NA","202155","2832","242082","NA","247135","2836","181683","NA","245961","247241","247874","247132","247241","New experiment","112","60796","116","yes","1024"
"96.5811965812","96.5811965812","523.068376068","523.068376068","black","legacy","legacy","legacy","0","congruent","uniform","1","undefined","1","s","0","0","0","116","0","116","0","116","0","0","0","116","116","116","116","116","09/27/20 19:13:54","600","Flanker Task","yes","flankertasksubmission.osexp","C:\Users\User\Desktop\Quant 2020 - Copy","no","mono","no","18","no","white","no","yes","768","legacy","36","79","C:/Users/User/Desktop/Quant 2020 - Copy/HF-subject-3.csv","legacy","Lentiform Loewenfeld","3.3.3","0","s","NA","h","h","NA","s","403","NA","33438","1929","NA","403","2","legacy","1024","2","48000","-16","experiment","SSSSS","3","odd","36275","183613","NA","202155","2832","247883","NA","249530","2836","181683","NA","248390","249636","250042","249527","249635","New experiment","113","61199","117","yes","1024"
"96.6101694915","96.6101694915","522.161016949","522.161016949","black","legacy","legacy","legacy","0","congruent","uniform","1","undefined","1","h","0","0","0","117","0","117","0","117","0","0","0","117","117","117","117","117","09/27/20 19:13:54","600","Flanker Task","yes","flankertasksubmission.osexp","C:\Users\User\Desktop\Quant 2020 - Copy","no","mono","no","18","no","white","no","yes","768","legacy","37","79","C:/Users/User/Desktop/Quant 2020 - Copy/HF-subject-3.csv","legacy","Lentiform Loewenfeld","3.3.3","0","h","NA","h","h","NA","h","416","NA","33438","1929","NA","416","2","legacy","1024","2","48000","-16","experiment","HHHHH","3","odd","36275","183613","NA","202155","2832","247883","NA","251186","2836","181683","NA","250051","251292","251713","251183","251292","New experiment","114","61615","118","yes","1024"
"96.6386554622","96.6386554622","522.210084034","522.210084034","black","legacy","legacy","legacy","0","incongruent","uniform","1","undefined","1","h","0","0","0","118","0","118","0","118","0","0","0","118","118","118","118","118","09/27/20 19:13:54","600","Flanker Task","yes","flankertasksubmission.osexp","C:\Users\User\Desktop\Quant 2020 - Copy","no","mono","no","18","no","white","no","yes","768","legacy","38","79","C:/Users/User/Desktop/Quant 2020 - Copy/HF-subject-3.csv","legacy","Lentiform Loewenfeld","3.3.3","0","h","NA","h","h","NA","h","528","NA","33438","1929","NA","528","2","legacy","1024","2","48000","-16","experiment","SSHSS","3","odd","36275","183613","NA","202155","2832","247883","NA","252867","2836","181683","NA","251726","252973","253504","252864","252972","New experiment","115","62143","119","yes","1024"
"96.6666666667","96.6666666667","521.841666667","521.841666667","black","legacy","legacy","legacy","0","incongruent","uniform","1","undefined","1","h","0","0","0","119","0","119","0","119","0","0","0","119","119","119","119","119","09/27/20 19:13:54","600","Flanker Task","yes","flankertasksubmission.osexp","C:\Users\User\Desktop\Quant 2020 - Copy","no","mono","no","18","no","white","no","yes","768","legacy","39","79","C:/Users/User/Desktop/Quant 2020 - Copy/HF-subject-3.csv","legacy","Lentiform Loewenfeld","3.3.3","0","h","NA","h","h","NA","h","478","NA","33438","1929","NA","478","2","legacy","1024","2","48000","-16","experiment","SSHSS","3","odd","36275","183613","NA","202155","2832","247883","NA","254640","2836","181683","NA","253510","254746","255226","254636","254746","New experiment","116","62621","120","yes","1024"
"96.694214876","96.694214876","521.099173554","521.099173554","black","legacy","legacy","legacy","0","incongruent","uniform","1","undefined","1","h","0","0","0","120","0","120","0","120","0","0","0","120","120","120","120","120","09/27/20 19:13:54","600","Flanker Task","yes","flankertasksubmission.osexp","C:\Users\User\Desktop\Quant 2020 - Copy","no","mono","no","18","no","white","no","yes","768","legacy","40","79","C:/Users/User/Desktop/Quant 2020 - Copy/HF-subject-3.csv","legacy","Lentiform Loewenfeld","3.3.3","0","h","NA","h","h","NA","h","432","NA","33438","1929","NA","432","2","legacy","1024","2","48000","-16","experiment","SSHSS","3","odd","36275","183613","NA","202155","2832","247883","NA","256378","2836","181683","NA","255235","256484","256922","256374","256483","New experiment","117","63053","121","yes","1024"
