"acc","accuracy","average_response_time","avg_rt","background","canvas_backend","clock_backend","color_backend","condition","correct","correct_instructions","correct_keyboard_response","correct_response","count_Block1","count_Block2","count_Block3","count_Faster","count_Finish","count_ISI","count_errorFeedback","count_experiment","count_fixation","count_instruction3","count_instructions","count_instructions2","count_keyboard_response","count_new_logger","count_new_sequence","count_stimulus","datetime","deadline","description","disable_garbage_collection","experiment_file","experiment_path","font_bold","font_family","font_italic","font_size","font_underline","foreground","form_clicks","fullscreen","height","keyboard_backend","live_row","live_row_Block1","logfile","mouse_backend","opensesame_codename","opensesame_version","repeat_cycle","response","response_Finish","response_errorFeedback","response_instruction3","response_instructions","response_instructions2","response_keyboard_response","response_time","response_time_Finish","response_time_errorFeedback","response_time_instruction3","response_time_instructions","response_time_instructions2","response_time_keyboard_response","round_decimals","sampler_backend","sound_buf_size","sound_channels","sound_freq","sound_sample_size","start","stimulus","subject_nr","subject_parity","time_Block1","time_Block2","time_Block3","time_Faster","time_Finish","time_ISI","time_errorFeedback","time_experiment","time_fixation","time_instruction3","time_instructions","time_instructions2","time_keyboard_response","time_new_logger","time_new_sequence","time_stimulus","title","total_correct","total_response_time","total_responses","width"
"100","100","1310","1310","#3d3846","legacy","legacy","legacy","congruent","1","undefined","1","s","0","0","0","0","0","0","0","0","0","0","0","0","0","0","0","0","Thu Sep 14 17:23:32 2023","1500","The main experiment item","True","ewm FlankerTask3.osexp","/Users/izzymcgibbon/Desktop/College/Tarleton State /2023 /Fall /Stats /2.1 ","False","mono","False","18","no","white","no","yes","768","legacy","0","0","/Users/izzymcgibbon/Desktop/College/Tarleton State /2023 /Fall /Stats /2.1 /subject-1.csv","legacy","Melodramatic Milgram","4.0.5","0","s","NA","NA","NA","h","NA","s","1310.0","NA","NA","NA","7071","NA","1310","2","legacy","1024","2","48000","-16","experiment","SSSSS","1","odd","9077","NA","NA","NA","NA","NA","NA","1922","9121","NA","2000","NA","9226","10536","9114","9225","FlankerTask.3","1","1310.0","1","1024"
"100","100","943","943","#3d3846","legacy","legacy","legacy","incongruent","1","undefined","1","h","0","0","0","1","0","1","1","0","1","0","0","0","1","1","1","1","Thu Sep 14 17:23:32 2023","1500","The main experiment item","True","ewm FlankerTask3.osexp","/Users/izzymcgibbon/Desktop/College/Tarleton State /2023 /Fall /Stats /2.1 ","False","mono","False","18","no","white","no","yes","768","legacy","1","1","/Users/izzymcgibbon/Desktop/College/Tarleton State /2023 /Fall /Stats /2.1 /subject-1.csv","legacy","Melodramatic Milgram","4.0.5","0","h","NA","NA","NA","h","NA","h","577.0","NA","NA","NA","7071","NA","577","2","legacy","1024","2","48000","-16","experiment","HHHHH","1","odd","9077","NA","NA","NA","NA","10542","NA","1922","11579","NA","2000","NA","11682","12260","11578","11681","FlankerTask.3","2","1887.0","2","1024"
"100","100","808","808","#3d3846","legacy","legacy","legacy","incongruent","1","undefined","1","h","0","0","0","2","0","2","2","0","2","0","0","0","2","2","2","2","Thu Sep 14 17:23:32 2023","1500","The main experiment item","True","ewm FlankerTask3.osexp","/Users/izzymcgibbon/Desktop/College/Tarleton State /2023 /Fall /Stats /2.1 ","False","mono","False","18","no","white","no","yes","768","legacy","2","2","/Users/izzymcgibbon/Desktop/College/Tarleton State /2023 /Fall /Stats /2.1 /subject-1.csv","legacy","Melodramatic Milgram","4.0.5","0","h","NA","NA","NA","h","NA","h","539.0","NA","NA","NA","7071","NA","539","2","legacy","1024","2","48000","-16","experiment","SSHSS","1","odd","9077","NA","NA","NA","NA","12263","NA","1922","13300","NA","2000","NA","13402","13944","13299","13402","FlankerTask.3","3","2426.0","3","1024"
"100","100","706","706","#3d3846","legacy","legacy","legacy","congruent","1","undefined","1","s","0","0","0","3","0","3","3","0","3","0","0","0","3","3","3","3","Thu Sep 14 17:23:32 2023","1500","The main experiment item","True","ewm FlankerTask3.osexp","/Users/izzymcgibbon/Desktop/College/Tarleton State /2023 /Fall /Stats /2.1 ","False","mono","False","18","no","white","no","yes","768","legacy","3","3","/Users/izzymcgibbon/Desktop/College/Tarleton State /2023 /Fall /Stats /2.1 /subject-1.csv","legacy","Melodramatic Milgram","4.0.5","0","s","NA","NA","NA","h","NA","s","398.0","NA","NA","NA","7071","NA","398","2","legacy","1024","2","48000","-16","experiment","HHSHH","1","odd","9077","NA","NA","NA","NA","13946","NA","1922","14983","NA","2000","NA","15085","15483","14982","15085","FlankerTask.3","4","2824.0","4","1024"
"100","100","680","680","#3d3846","legacy","legacy","legacy","incongruent","1","undefined","1","h","0","0","0","4","0","4","4","0","4","0","0","0","4","4","4","4","Thu Sep 14 17:23:32 2023","1500","The main experiment item","True","ewm FlankerTask3.osexp","/Users/izzymcgibbon/Desktop/College/Tarleton State /2023 /Fall /Stats /2.1 ","False","mono","False","18","no","white","no","yes","768","legacy","4","4","/Users/izzymcgibbon/Desktop/College/Tarleton State /2023 /Fall /Stats /2.1 /subject-1.csv","legacy","Melodramatic Milgram","4.0.5","0","h","NA","NA","NA","h","NA","h","577.0","NA","NA","NA","7071","NA","577","2","legacy","1024","2","48000","-16","experiment","SSHSS","1","odd","9077","NA","NA","NA","NA","15486","NA","1922","16524","NA","2000","NA","16626","17204","16522","16626","FlankerTask.3","5","3401.0","5","1024"
"100","100","667","667","#3d3846","legacy","legacy","legacy","congruent","1","undefined","1","s","0","0","0","5","0","5","5","0","5","0","0","0","5","5","5","5","Thu Sep 14 17:23:32 2023","1500","The main experiment item","True","ewm FlankerTask3.osexp","/Users/izzymcgibbon/Desktop/College/Tarleton State /2023 /Fall /Stats /2.1 ","False","mono","False","18","no","white","no","yes","768","legacy","5","5","/Users/izzymcgibbon/Desktop/College/Tarleton State /2023 /Fall /Stats /2.1 /subject-1.csv","legacy","Melodramatic Milgram","4.0.5","0","s","NA","NA","NA","h","NA","s","603.0","NA","NA","NA","7071","NA","603","2","legacy","1024","2","48000","-16","experiment","HHSHH","1","odd","9077","NA","NA","NA","NA","17207","NA","1922","18245","NA","2000","NA","18348","18951","18243","18347","FlankerTask.3","6","4004.0","6","1024"
"100","100","650","650","#3d3846","legacy","legacy","legacy","incongruent","1","undefined","1","h","0","0","0","6","0","6","6","0","6","0","0","0","6","6","6","6","Thu Sep 14 17:23:32 2023","1500","The main experiment item","True","ewm FlankerTask3.osexp","/Users/izzymcgibbon/Desktop/College/Tarleton State /2023 /Fall /Stats /2.1 ","False","mono","False","18","no","white","no","yes","768","legacy","6","6","/Users/izzymcgibbon/Desktop/College/Tarleton State /2023 /Fall /Stats /2.1 /subject-1.csv","legacy","Melodramatic Milgram","4.0.5","0","h","NA","NA","NA","h","NA","h","551.0","NA","NA","NA","7071","NA","551","2","legacy","1024","2","48000","-16","experiment","HHHHH","1","odd","9077","NA","NA","NA","NA","18954","NA","1922","19991","NA","2000","NA","20094","20646","19990","20094","FlankerTask.3","7","4555.0","7","1024"
"100","100","716","716","#3d3846","legacy","legacy","legacy","congruent","1","undefined","1","s","0","0","0","7","0","7","7","0","7","0","0","0","7","7","7","7","Thu Sep 14 17:23:32 2023","1500","The main experiment item","True","ewm FlankerTask3.osexp","/Users/izzymcgibbon/Desktop/College/Tarleton State /2023 /Fall /Stats /2.1 ","False","mono","False","18","no","white","no","yes","768","legacy","7","7","/Users/izzymcgibbon/Desktop/College/Tarleton State /2023 /Fall /Stats /2.1 /subject-1.csv","legacy","Melodramatic Milgram","4.0.5","0","s","NA","NA","NA","h","NA","s","1173.0","NA","NA","NA","7071","NA","1173","2","legacy","1024","2","48000","-16","experiment","SSSSS","1","odd","9077","NA","NA","NA","NA","20649","NA","1922","21687","NA","2000","NA","21790","22964","21685","21789","FlankerTask.3","8","5728.0","8","1024"
"100","100","709","709","#3d3846","legacy","legacy","legacy","congruent","1","undefined","1","s","0","0","0","8","0","8","8","0","8","0","0","0","8","8","8","8","Thu Sep 14 17:23:32 2023","1500","The main experiment item","True","ewm FlankerTask3.osexp","/Users/izzymcgibbon/Desktop/College/Tarleton State /2023 /Fall /Stats /2.1 ","False","mono","False","18","no","white","no","yes","768","legacy","8","8","/Users/izzymcgibbon/Desktop/College/Tarleton State /2023 /Fall /Stats /2.1 /subject-1.csv","legacy","Melodramatic Milgram","4.0.5","0","s","NA","NA","NA","h","NA","s","659.0","NA","NA","NA","7071","NA","659","2","legacy","1024","2","48000","-16","experiment","SSSSS","1","odd","9077","NA","NA","NA","NA","22967","NA","1922","24009","NA","2000","NA","24111","24771","24007","24111","FlankerTask.3","9","6387.0","9","1024"
"100","100","684","684","#3d3846","legacy","legacy","legacy","incongruent","1","undefined","1","h","0","0","0","9","0","9","9","0","9","0","0","0","9","9","9","9","Thu Sep 14 17:23:32 2023","1500","The main experiment item","True","ewm FlankerTask3.osexp","/Users/izzymcgibbon/Desktop/College/Tarleton State /2023 /Fall /Stats /2.1 ","False","mono","False","18","no","white","no","yes","768","legacy","9","9","/Users/izzymcgibbon/Desktop/College/Tarleton State /2023 /Fall /Stats /2.1 /subject-1.csv","legacy","Melodramatic Milgram","4.0.5","0","h","NA","NA","NA","h","NA","h","460.0","NA","NA","NA","7071","NA","460","2","legacy","1024","2","48000","-16","experiment","SSHSS","1","odd","9077","NA","NA","NA","NA","24774","NA","1922","25806","NA","2000","NA","25908","26369","25804","25908","FlankerTask.3","10","6847.0","10","1024"
"100","100","671","671","#3d3846","legacy","legacy","legacy","incongruent","1","undefined","1","h","0","0","0","10","0","10","10","0","10","0","0","0","10","10","10","10","Thu Sep 14 17:23:32 2023","1500","The main experiment item","True","ewm FlankerTask3.osexp","/Users/izzymcgibbon/Desktop/College/Tarleton State /2023 /Fall /Stats /2.1 ","False","mono","False","18","no","white","no","yes","768","legacy","10","10","/Users/izzymcgibbon/Desktop/College/Tarleton State /2023 /Fall /Stats /2.1 /subject-1.csv","legacy","Melodramatic Milgram","4.0.5","0","h","NA","NA","NA","h","NA","h","536.0","NA","NA","NA","7071","NA","536","2","legacy","1024","2","48000","-16","experiment","SSHSS","1","odd","9077","NA","NA","NA","NA","26372","NA","1922","27406","NA","2000","NA","27508","28045","27404","27508","FlankerTask.3","11","7383.0","11","1024"
"100","100","665","665","#3d3846","legacy","legacy","legacy","congruent","1","undefined","1","s","0","0","0","11","0","11","11","0","11","0","0","0","11","11","11","11","Thu Sep 14 17:23:32 2023","1500","The main experiment item","True","ewm FlankerTask3.osexp","/Users/izzymcgibbon/Desktop/College/Tarleton State /2023 /Fall /Stats /2.1 ","False","mono","False","18","no","white","no","yes","768","legacy","11","11","/Users/izzymcgibbon/Desktop/College/Tarleton State /2023 /Fall /Stats /2.1 /subject-1.csv","legacy","Melodramatic Milgram","4.0.5","0","s","NA","NA","NA","h","NA","s","597.0","NA","NA","NA","7071","NA","597","2","legacy","1024","2","48000","-16","experiment","SSSSS","1","odd","9077","NA","NA","NA","NA","28048","NA","1922","29085","NA","2000","NA","29188","29786","29084","29187","FlankerTask.3","12","7980.0","12","1024"
"100","100","655","655","#3d3846","legacy","legacy","legacy","congruent","1","undefined","1","s","0","0","0","12","0","12","12","0","12","0","0","0","12","12","12","12","Thu Sep 14 17:23:32 2023","1500","The main experiment item","True","ewm FlankerTask3.osexp","/Users/izzymcgibbon/Desktop/College/Tarleton State /2023 /Fall /Stats /2.1 ","False","mono","False","18","no","white","no","yes","768","legacy","12","12","/Users/izzymcgibbon/Desktop/College/Tarleton State /2023 /Fall /Stats /2.1 /subject-1.csv","legacy","Melodramatic Milgram","4.0.5","0","s","NA","NA","NA","h","NA","s","546.0","NA","NA","NA","7071","NA","546","2","legacy","1024","2","48000","-16","experiment","HHSHH","1","odd","9077","NA","NA","NA","NA","29789","NA","1922","30827","NA","2000","NA","30929","31475","30825","30929","FlankerTask.3","13","8526.0","13","1024"
"100","100","647","647","#3d3846","legacy","legacy","legacy","incongruent","1","undefined","1","h","0","0","0","13","0","13","13","0","13","0","0","0","13","13","13","13","Thu Sep 14 17:23:32 2023","1500","The main experiment item","True","ewm FlankerTask3.osexp","/Users/izzymcgibbon/Desktop/College/Tarleton State /2023 /Fall /Stats /2.1 ","False","mono","False","18","no","white","no","yes","768","legacy","13","13","/Users/izzymcgibbon/Desktop/College/Tarleton State /2023 /Fall /Stats /2.1 /subject-1.csv","legacy","Melodramatic Milgram","4.0.5","0","h","NA","NA","NA","h","NA","h","544.0","NA","NA","NA","7071","NA","544","2","legacy","1024","2","48000","-16","experiment","HHHHH","1","odd","9077","NA","NA","NA","NA","31478","NA","1922","32516","NA","2000","NA","32619","33164","32515","32619","FlankerTask.3","14","9070.0","14","1024"
"100","100","673","673","#3d3846","legacy","legacy","legacy","congruent","1","undefined","1","s","0","0","0","14","0","14","14","0","14","0","0","0","14","14","14","14","Thu Sep 14 17:23:32 2023","1500","The main experiment item","True","ewm FlankerTask3.osexp","/Users/izzymcgibbon/Desktop/College/Tarleton State /2023 /Fall /Stats /2.1 ","False","mono","False","18","no","white","no","yes","768","legacy","14","14","/Users/izzymcgibbon/Desktop/College/Tarleton State /2023 /Fall /Stats /2.1 /subject-1.csv","legacy","Melodramatic Milgram","4.0.5","0","s","NA","NA","NA","h","NA","s","1039.0","NA","NA","NA","7071","NA","1039","2","legacy","1024","2","48000","-16","experiment","HHSHH","1","odd","9077","NA","NA","NA","NA","33166","NA","1922","34205","NA","2000","NA","34307","35346","34203","34307","FlankerTask.3","15","10109.0","15","1024"
"100","100","662","662","#3d3846","legacy","legacy","legacy","incongruent","1","undefined","1","h","0","0","0","15","0","15","15","0","15","0","0","0","15","15","15","15","Thu Sep 14 17:23:32 2023","1500","The main experiment item","True","ewm FlankerTask3.osexp","/Users/izzymcgibbon/Desktop/College/Tarleton State /2023 /Fall /Stats /2.1 ","False","mono","False","18","no","white","no","yes","768","legacy","15","15","/Users/izzymcgibbon/Desktop/College/Tarleton State /2023 /Fall /Stats /2.1 /subject-1.csv","legacy","Melodramatic Milgram","4.0.5","0","h","NA","NA","NA","h","NA","h","497.0","NA","NA","NA","7071","NA","497","2","legacy","1024","2","48000","-16","experiment","HHHHH","1","odd","9077","NA","NA","NA","NA","35348","NA","1922","36394","NA","2000","NA","36497","36994","36393","36497","FlankerTask.3","16","10606.0","16","1024"
"100","100","659","659","#3d3846","legacy","legacy","legacy","incongruent","1","undefined","1","h","0","0","0","16","0","16","16","0","16","0","0","0","16","16","16","16","Thu Sep 14 17:23:32 2023","1500","The main experiment item","True","ewm FlankerTask3.osexp","/Users/izzymcgibbon/Desktop/College/Tarleton State /2023 /Fall /Stats /2.1 ","False","mono","False","18","no","white","no","yes","768","legacy","16","16","/Users/izzymcgibbon/Desktop/College/Tarleton State /2023 /Fall /Stats /2.1 /subject-1.csv","legacy","Melodramatic Milgram","4.0.5","0","h","NA","NA","NA","h","NA","h","600.0","NA","NA","NA","7071","NA","600","2","legacy","1024","2","48000","-16","experiment","HHHHH","1","odd","9077","NA","NA","NA","NA","36997","NA","1922","38028","NA","2000","NA","38130","38730","38027","38130","FlankerTask.3","17","11206.0","17","1024"
"100","100","658","658","#3d3846","legacy","legacy","legacy","congruent","1","undefined","1","s","0","0","0","17","0","17","17","0","17","0","0","0","17","17","17","17","Thu Sep 14 17:23:32 2023","1500","The main experiment item","True","ewm FlankerTask3.osexp","/Users/izzymcgibbon/Desktop/College/Tarleton State /2023 /Fall /Stats /2.1 ","False","mono","False","18","no","white","no","yes","768","legacy","17","17","/Users/izzymcgibbon/Desktop/College/Tarleton State /2023 /Fall /Stats /2.1 /subject-1.csv","legacy","Melodramatic Milgram","4.0.5","0","s","NA","NA","NA","h","NA","s","653.0","NA","NA","NA","7071","NA","653","2","legacy","1024","2","48000","-16","experiment","HHSHH","1","odd","9077","NA","NA","NA","NA","38733","NA","1922","39766","NA","2000","NA","39869","40522","39765","39869","FlankerTask.3","18","11859.0","18","1024"
"100","100","660","660","#3d3846","legacy","legacy","legacy","incongruent","1","undefined","1","h","0","0","0","18","0","18","18","0","18","0","0","0","18","18","18","18","Thu Sep 14 17:23:32 2023","1500","The main experiment item","True","ewm FlankerTask3.osexp","/Users/izzymcgibbon/Desktop/College/Tarleton State /2023 /Fall /Stats /2.1 ","False","mono","False","18","no","white","no","yes","768","legacy","18","18","/Users/izzymcgibbon/Desktop/College/Tarleton State /2023 /Fall /Stats /2.1 /subject-1.csv","legacy","Melodramatic Milgram","4.0.5","0","h","NA","NA","NA","h","NA","h","685.0","NA","NA","NA","7071","NA","685","2","legacy","1024","2","48000","-16","experiment","SSHSS","1","odd","9077","NA","NA","NA","NA","40525","NA","1922","41562","NA","2000","NA","41664","42349","41561","41664","FlankerTask.3","19","12544.0","19","1024"
"100","100","652","652","#3d3846","legacy","legacy","legacy","congruent","1","undefined","1","s","0","0","0","19","0","19","19","0","19","0","0","0","19","19","19","19","Thu Sep 14 17:23:32 2023","1500","The main experiment item","True","ewm FlankerTask3.osexp","/Users/izzymcgibbon/Desktop/College/Tarleton State /2023 /Fall /Stats /2.1 ","False","mono","False","18","no","white","no","yes","768","legacy","19","19","/Users/izzymcgibbon/Desktop/College/Tarleton State /2023 /Fall /Stats /2.1 /subject-1.csv","legacy","Melodramatic Milgram","4.0.5","0","s","NA","NA","NA","h","NA","s","502.0","NA","NA","NA","7071","NA","502","2","legacy","1024","2","48000","-16","experiment","HHSHH","1","odd","9077","NA","NA","NA","NA","42352","NA","1922","43389","NA","2000","NA","43491","43994","43388","43491","FlankerTask.3","20","13046.0","20","1024"
"100","100","647","647","#3d3846","legacy","legacy","legacy","congruent","1","undefined","1","s","0","0","0","20","0","20","20","0","20","0","0","0","20","20","20","20","Thu Sep 14 17:23:32 2023","1500","The main experiment item","True","ewm FlankerTask3.osexp","/Users/izzymcgibbon/Desktop/College/Tarleton State /2023 /Fall /Stats /2.1 ","False","mono","False","18","no","white","no","yes","768","legacy","20","20","/Users/izzymcgibbon/Desktop/College/Tarleton State /2023 /Fall /Stats /2.1 /subject-1.csv","legacy","Melodramatic Milgram","4.0.5","0","s","NA","NA","NA","h","NA","s","542.0","NA","NA","NA","7071","NA","542","2","legacy","1024","2","48000","-16","experiment","SSSSS","1","odd","9077","NA","NA","NA","NA","43997","NA","1922","45034","NA","2000","NA","45136","45679","45032","45136","FlankerTask.3","21","13588.0","21","1024"
"100","100","638","638","#3d3846","legacy","legacy","legacy","congruent","1","undefined","1","s","0","0","0","21","0","21","21","0","21","0","0","0","21","21","21","21","Thu Sep 14 17:23:32 2023","1500","The main experiment item","True","ewm FlankerTask3.osexp","/Users/izzymcgibbon/Desktop/College/Tarleton State /2023 /Fall /Stats /2.1 ","False","mono","False","18","no","white","no","yes","768","legacy","21","21","/Users/izzymcgibbon/Desktop/College/Tarleton State /2023 /Fall /Stats /2.1 /subject-1.csv","legacy","Melodramatic Milgram","4.0.5","0","s","NA","NA","NA","h","NA","s","448.0","NA","NA","NA","7071","NA","448","2","legacy","1024","2","48000","-16","experiment","HHSHH","1","odd","9077","NA","NA","NA","NA","45682","NA","1922","46720","NA","2000","NA","46823","47272","46718","46822","FlankerTask.3","22","14036.0","22","1024"
"100","100","634","634","#3d3846","legacy","legacy","legacy","incongruent","1","undefined","1","h","0","0","0","22","0","22","22","0","22","0","0","0","22","22","22","22","Thu Sep 14 17:23:32 2023","1500","The main experiment item","True","ewm FlankerTask3.osexp","/Users/izzymcgibbon/Desktop/College/Tarleton State /2023 /Fall /Stats /2.1 ","False","mono","False","18","no","white","no","yes","768","legacy","22","22","/Users/izzymcgibbon/Desktop/College/Tarleton State /2023 /Fall /Stats /2.1 /subject-1.csv","legacy","Melodramatic Milgram","4.0.5","0","h","NA","NA","NA","h","NA","h","556.0","NA","NA","NA","7071","NA","556","2","legacy","1024","2","48000","-16","experiment","HHHHH","1","odd","9077","NA","NA","NA","NA","47275","NA","1922","48314","NA","2000","NA","48416","48972","48312","48416","FlankerTask.3","23","14592.0","23","1024"
"100","100","634","634","#3d3846","legacy","legacy","legacy","incongruent","1","undefined","1","h","0","0","0","23","0","23","23","0","23","0","0","0","23","23","23","23","Thu Sep 14 17:23:32 2023","1500","The main experiment item","True","ewm FlankerTask3.osexp","/Users/izzymcgibbon/Desktop/College/Tarleton State /2023 /Fall /Stats /2.1 ","False","mono","False","18","no","white","no","yes","768","legacy","23","23","/Users/izzymcgibbon/Desktop/College/Tarleton State /2023 /Fall /Stats /2.1 /subject-1.csv","legacy","Melodramatic Milgram","4.0.5","0","h","NA","NA","NA","h","NA","h","624.0","NA","NA","NA","7071","NA","624","2","legacy","1024","2","48000","-16","experiment","SSHSS","1","odd","9077","NA","NA","NA","NA","48974","NA","1922","50016","NA","2000","NA","50119","50744","50015","50119","FlankerTask.3","24","15216.0","24","1024"
"100","100","633","633","#3d3846","legacy","legacy","legacy","congruent","1","undefined","1","s","0","0","0","24","0","24","24","0","24","0","0","0","24","24","24","24","Thu Sep 14 17:23:32 2023","1500","The main experiment item","True","ewm FlankerTask3.osexp","/Users/izzymcgibbon/Desktop/College/Tarleton State /2023 /Fall /Stats /2.1 ","False","mono","False","18","no","white","no","yes","768","legacy","24","24","/Users/izzymcgibbon/Desktop/College/Tarleton State /2023 /Fall /Stats /2.1 /subject-1.csv","legacy","Melodramatic Milgram","4.0.5","0","s","NA","NA","NA","h","NA","s","633.0","NA","NA","NA","7071","NA","633","2","legacy","1024","2","48000","-16","experiment","HHSHH","1","odd","9077","NA","NA","NA","NA","50748","NA","1922","51780","NA","2000","NA","51882","52516","51778","51882","FlankerTask.3","25","15849.0","25","1024"
"100","100","630","630","#3d3846","legacy","legacy","legacy","incongruent","1","undefined","1","h","0","0","0","25","0","25","25","0","25","0","0","0","25","25","25","25","Thu Sep 14 17:23:32 2023","1500","The main experiment item","True","ewm FlankerTask3.osexp","/Users/izzymcgibbon/Desktop/College/Tarleton State /2023 /Fall /Stats /2.1 ","False","mono","False","18","no","white","no","yes","768","legacy","25","25","/Users/izzymcgibbon/Desktop/College/Tarleton State /2023 /Fall /Stats /2.1 /subject-1.csv","legacy","Melodramatic Milgram","4.0.5","0","h","NA","NA","NA","h","NA","h","534.0","NA","NA","NA","7071","NA","534","2","legacy","1024","2","48000","-16","experiment","HHHHH","1","odd","9077","NA","NA","NA","NA","52518","NA","1922","53553","NA","2000","NA","53655","54190","53551","53655","FlankerTask.3","26","16383.0","26","1024"
"100","100","644","644","#3d3846","legacy","legacy","legacy","incongruent","1","undefined","1","h","0","0","0","26","0","26","26","0","26","0","0","0","26","26","26","26","Thu Sep 14 17:23:32 2023","1500","The main experiment item","True","ewm FlankerTask3.osexp","/Users/izzymcgibbon/Desktop/College/Tarleton State /2023 /Fall /Stats /2.1 ","False","mono","False","18","no","white","no","yes","768","legacy","26","26","/Users/izzymcgibbon/Desktop/College/Tarleton State /2023 /Fall /Stats /2.1 /subject-1.csv","legacy","Melodramatic Milgram","4.0.5","0","h","NA","NA","NA","h","NA","h","1012.0","NA","NA","NA","7071","NA","1012","2","legacy","1024","2","48000","-16","experiment","SSHSS","1","odd","9077","NA","NA","NA","NA","54192","NA","1922","55230","NA","2000","NA","55332","56345","55228","55332","FlankerTask.3","27","17395.0","27","1024"
"100","100","641","641","#3d3846","legacy","legacy","legacy","incongruent","1","undefined","1","h","0","0","0","27","0","27","27","0","27","0","0","0","27","27","27","27","Thu Sep 14 17:23:32 2023","1500","The main experiment item","True","ewm FlankerTask3.osexp","/Users/izzymcgibbon/Desktop/College/Tarleton State /2023 /Fall /Stats /2.1 ","False","mono","False","18","no","white","no","yes","768","legacy","27","27","/Users/izzymcgibbon/Desktop/College/Tarleton State /2023 /Fall /Stats /2.1 /subject-1.csv","legacy","Melodramatic Milgram","4.0.5","0","h","NA","NA","NA","h","NA","h","554.0","NA","NA","NA","7071","NA","554","2","legacy","1024","2","48000","-16","experiment","HHHHH","1","odd","9077","NA","NA","NA","NA","56348","NA","1922","57385","NA","2000","NA","57487","58042","57383","57487","FlankerTask.3","28","17949.0","28","1024"
"100","100","637","637","#3d3846","legacy","legacy","legacy","congruent","1","undefined","1","s","0","0","0","28","0","28","28","0","28","0","0","0","28","28","28","28","Thu Sep 14 17:23:32 2023","1500","The main experiment item","True","ewm FlankerTask3.osexp","/Users/izzymcgibbon/Desktop/College/Tarleton State /2023 /Fall /Stats /2.1 ","False","mono","False","18","no","white","no","yes","768","legacy","28","28","/Users/izzymcgibbon/Desktop/College/Tarleton State /2023 /Fall /Stats /2.1 /subject-1.csv","legacy","Melodramatic Milgram","4.0.5","0","s","NA","NA","NA","h","NA","s","538.0","NA","NA","NA","7071","NA","538","2","legacy","1024","2","48000","-16","experiment","SSSSS","1","odd","9077","NA","NA","NA","NA","58044","NA","1922","59075","NA","2000","NA","59178","59717","59074","59177","FlankerTask.3","29","18487.0","29","1024"
"100","100","652","652","#3d3846","legacy","legacy","legacy","congruent","1","undefined","1","s","0","0","0","29","0","29","29","0","29","0","0","0","29","29","29","29","Thu Sep 14 17:23:32 2023","1500","The main experiment item","True","ewm FlankerTask3.osexp","/Users/izzymcgibbon/Desktop/College/Tarleton State /2023 /Fall /Stats /2.1 ","False","mono","False","18","no","white","no","yes","768","legacy","29","29","/Users/izzymcgibbon/Desktop/College/Tarleton State /2023 /Fall /Stats /2.1 /subject-1.csv","legacy","Melodramatic Milgram","4.0.5","0","s","NA","NA","NA","h","NA","s","1079.0","NA","NA","NA","7071","NA","1079","2","legacy","1024","2","48000","-16","experiment","SSSSS","1","odd","9077","NA","NA","NA","NA","59720","NA","1922","60757","NA","2000","NA","60859","61939","60755","60859","FlankerTask.3","30","19566.0","30","1024"
"100","100","664","664","#3d3846","legacy","legacy","legacy","congruent","1","undefined","1","s","0","0","0","30","0","30","30","0","30","0","0","0","30","30","30","30","Thu Sep 14 17:23:32 2023","1500","The main experiment item","True","ewm FlankerTask3.osexp","/Users/izzymcgibbon/Desktop/College/Tarleton State /2023 /Fall /Stats /2.1 ","False","mono","False","18","no","white","no","yes","768","legacy","30","30","/Users/izzymcgibbon/Desktop/College/Tarleton State /2023 /Fall /Stats /2.1 /subject-1.csv","legacy","Melodramatic Milgram","4.0.5","0","s","NA","NA","NA","h","NA","s","1033.0","NA","NA","NA","7071","NA","1033","2","legacy","1024","2","48000","-16","experiment","HHSHH","1","odd","9077","NA","NA","NA","NA","61942","NA","1922","62987","NA","2000","NA","63089","64122","62986","63089","FlankerTask.3","31","20599.0","31","1024"
"100","100","661","661","#3d3846","legacy","legacy","legacy","incongruent","1","undefined","1","h","0","0","0","31","0","31","31","0","31","0","0","0","31","31","31","31","Thu Sep 14 17:23:32 2023","1500","The main experiment item","True","ewm FlankerTask3.osexp","/Users/izzymcgibbon/Desktop/College/Tarleton State /2023 /Fall /Stats /2.1 ","False","mono","False","18","no","white","no","yes","768","legacy","31","31","/Users/izzymcgibbon/Desktop/College/Tarleton State /2023 /Fall /Stats /2.1 /subject-1.csv","legacy","Melodramatic Milgram","4.0.5","0","h","NA","NA","NA","h","NA","h","568.0","NA","NA","NA","7071","NA","568","2","legacy","1024","2","48000","-16","experiment","SSHSS","1","odd","9077","NA","NA","NA","NA","64125","NA","1922","65157","NA","2000","NA","65259","65828","65155","65259","FlankerTask.3","32","21167.0","32","1024"
"100","100","664","664","#3d3846","legacy","legacy","legacy","incongruent","1","undefined","1","h","0","0","0","32","0","32","32","0","32","0","0","0","32","32","32","32","Thu Sep 14 17:23:32 2023","1500","The main experiment item","True","ewm FlankerTask3.osexp","/Users/izzymcgibbon/Desktop/College/Tarleton State /2023 /Fall /Stats /2.1 ","False","mono","False","18","no","white","no","yes","768","legacy","32","32","/Users/izzymcgibbon/Desktop/College/Tarleton State /2023 /Fall /Stats /2.1 /subject-1.csv","legacy","Melodramatic Milgram","4.0.5","0","h","NA","NA","NA","h","NA","h","763.0","NA","NA","NA","7071","NA","763","2","legacy","1024","2","48000","-16","experiment","HHHHH","1","odd","9077","NA","NA","NA","NA","65830","NA","1922","66863","NA","2000","NA","66965","67728","66861","66965","FlankerTask.3","33","21930.0","33","1024"
"100","100","668","668","#3d3846","legacy","legacy","legacy","congruent","1","undefined","1","s","0","0","0","33","0","33","33","0","33","0","0","0","33","33","33","33","Thu Sep 14 17:23:32 2023","1500","The main experiment item","True","ewm FlankerTask3.osexp","/Users/izzymcgibbon/Desktop/College/Tarleton State /2023 /Fall /Stats /2.1 ","False","mono","False","18","no","white","no","yes","768","legacy","33","33","/Users/izzymcgibbon/Desktop/College/Tarleton State /2023 /Fall /Stats /2.1 /subject-1.csv","legacy","Melodramatic Milgram","4.0.5","0","s","NA","NA","NA","h","NA","s","797.0","NA","NA","NA","7071","NA","797","2","legacy","1024","2","48000","-16","experiment","HHSHH","1","odd","9077","NA","NA","NA","NA","67732","NA","1922","68770","NA","2000","NA","68872","69670","68768","68872","FlankerTask.3","34","22727.0","34","1024"
"100","100","673","673","#3d3846","legacy","legacy","legacy","incongruent","1","undefined","1","h","0","0","0","34","0","34","34","0","34","0","0","0","34","34","34","34","Thu Sep 14 17:23:32 2023","1500","The main experiment item","True","ewm FlankerTask3.osexp","/Users/izzymcgibbon/Desktop/College/Tarleton State /2023 /Fall /Stats /2.1 ","False","mono","False","18","no","white","no","yes","768","legacy","34","34","/Users/izzymcgibbon/Desktop/College/Tarleton State /2023 /Fall /Stats /2.1 /subject-1.csv","legacy","Melodramatic Milgram","4.0.5","0","h","NA","NA","NA","h","NA","h","858.0","NA","NA","NA","7071","NA","858","2","legacy","1024","2","48000","-16","experiment","HHHHH","1","odd","9077","NA","NA","NA","NA","69673","NA","1922","70710","NA","2000","NA","70813","71672","70709","70812","FlankerTask.3","35","23585.0","35","1024"
"100","100","671","671","#3d3846","legacy","legacy","legacy","incongruent","1","undefined","1","h","0","0","0","35","0","35","35","0","35","0","0","0","35","35","35","35","Thu Sep 14 17:23:32 2023","1500","The main experiment item","True","ewm FlankerTask3.osexp","/Users/izzymcgibbon/Desktop/College/Tarleton State /2023 /Fall /Stats /2.1 ","False","mono","False","18","no","white","no","yes","768","legacy","35","35","/Users/izzymcgibbon/Desktop/College/Tarleton State /2023 /Fall /Stats /2.1 /subject-1.csv","legacy","Melodramatic Milgram","4.0.5","0","h","NA","NA","NA","h","NA","h","595.0","NA","NA","NA","7071","NA","595","2","legacy","1024","2","48000","-16","experiment","HHHHH","1","odd","9077","NA","NA","NA","NA","71675","NA","1922","72713","NA","2000","NA","72815","73411","72711","72815","FlankerTask.3","36","24180.0","36","1024"
"100","100","675","675","#3d3846","legacy","legacy","legacy","incongruent","1","undefined","1","h","0","0","0","36","0","36","36","0","36","0","0","0","36","36","36","36","Thu Sep 14 17:23:32 2023","1500","The main experiment item","True","ewm FlankerTask3.osexp","/Users/izzymcgibbon/Desktop/College/Tarleton State /2023 /Fall /Stats /2.1 ","False","mono","False","18","no","white","no","yes","768","legacy","36","36","/Users/izzymcgibbon/Desktop/College/Tarleton State /2023 /Fall /Stats /2.1 /subject-1.csv","legacy","Melodramatic Milgram","4.0.5","0","h","NA","NA","NA","h","NA","h","800.0","NA","NA","NA","7071","NA","800","2","legacy","1024","2","48000","-16","experiment","HHHHH","1","odd","9077","NA","NA","NA","NA","73414","NA","1922","74451","NA","2000","NA","74553","75354","74450","74553","FlankerTask.3","37","24980.0","37","1024"
"97","97","696","696","#3d3846","legacy","legacy","legacy","congruent","0","undefined","0","s","0","0","0","37","0","37","37","0","37","0","0","0","37","37","37","37","Thu Sep 14 17:23:32 2023","1500","The main experiment item","True","ewm FlankerTask3.osexp","/Users/izzymcgibbon/Desktop/College/Tarleton State /2023 /Fall /Stats /2.1 ","False","mono","False","18","no","white","no","yes","768","legacy","37","37","/Users/izzymcgibbon/Desktop/College/Tarleton State /2023 /Fall /Stats /2.1 /subject-1.csv","legacy","Melodramatic Milgram","4.0.5","0","None","NA","NA","NA","h","NA","None","1500.0","NA","NA","NA","7071","NA","1500","2","legacy","1024","2","48000","-16","experiment","SSSSS","1","odd","9077","NA","NA","NA","NA","75356","NA","1922","76394","NA","2000","NA","76496","77996","76393","76496","FlankerTask.3","37","26480.0","38","1024"
"97","97","695","695","#3d3846","legacy","legacy","legacy","incongruent","1","undefined","1","h","0","0","0","38","0","38","38","0","38","0","0","0","38","38","38","38","Thu Sep 14 17:23:32 2023","1500","The main experiment item","True","ewm FlankerTask3.osexp","/Users/izzymcgibbon/Desktop/College/Tarleton State /2023 /Fall /Stats /2.1 ","False","mono","False","18","no","white","no","yes","768","legacy","38","38","/Users/izzymcgibbon/Desktop/College/Tarleton State /2023 /Fall /Stats /2.1 /subject-1.csv","legacy","Melodramatic Milgram","4.0.5","0","h","NA","s","NA","h","NA","h","626.0","NA","163","NA","7071","NA","626","2","legacy","1024","2","48000","-16","experiment","SSHSS","1","odd","9077","NA","NA","NA","NA","78165","77999","1922","79210","NA","2000","NA","79312","79939","79207","79312","FlankerTask.3","38","27106.0","39","1024"
"97","97","694","694","#3d3846","legacy","legacy","legacy","congruent","1","undefined","1","s","0","0","0","39","0","39","39","0","39","0","0","0","39","39","39","39","Thu Sep 14 17:23:32 2023","1500","The main experiment item","True","ewm FlankerTask3.osexp","/Users/izzymcgibbon/Desktop/College/Tarleton State /2023 /Fall /Stats /2.1 ","False","mono","False","18","no","white","no","yes","768","legacy","39","39","/Users/izzymcgibbon/Desktop/College/Tarleton State /2023 /Fall /Stats /2.1 /subject-1.csv","legacy","Melodramatic Milgram","4.0.5","0","s","NA","s","NA","h","NA","s","676.0","NA","163","NA","7071","NA","676","2","legacy","1024","2","48000","-16","experiment","SSSSS","1","odd","9077","NA","NA","NA","NA","79942","77999","1922","80973","NA","2000","NA","81076","81752","80972","81075","FlankerTask.3","39","27782.0","40","1024"
"97","97","688","688","#3d3846","legacy","legacy","legacy","congruent","1","undefined","1","s","0","0","0","40","0","40","40","0","40","0","0","0","40","40","40","40","Thu Sep 14 17:23:32 2023","1500","The main experiment item","True","ewm FlankerTask3.osexp","/Users/izzymcgibbon/Desktop/College/Tarleton State /2023 /Fall /Stats /2.1 ","False","mono","False","18","no","white","no","yes","768","legacy","40","40","/Users/izzymcgibbon/Desktop/College/Tarleton State /2023 /Fall /Stats /2.1 /subject-1.csv","legacy","Melodramatic Milgram","4.0.5","0","s","NA","s","NA","h","NA","s","450.0","NA","163","NA","7071","NA","450","2","legacy","1024","2","48000","-16","experiment","HHSHH","1","odd","9077","NA","NA","NA","NA","81755","77999","1922","82789","NA","2000","NA","82891","83342","82787","82891","FlankerTask.3","40","28232.0","41","1024"
"97","97","683","683","#3d3846","legacy","legacy","legacy","incongruent","1","undefined","1","h","0","0","0","41","0","41","41","0","41","0","0","0","41","41","41","41","Thu Sep 14 17:23:32 2023","1500","The main experiment item","True","ewm FlankerTask3.osexp","/Users/izzymcgibbon/Desktop/College/Tarleton State /2023 /Fall /Stats /2.1 ","False","mono","False","18","no","white","no","yes","768","legacy","41","41","/Users/izzymcgibbon/Desktop/College/Tarleton State /2023 /Fall /Stats /2.1 /subject-1.csv","legacy","Melodramatic Milgram","4.0.5","0","h","NA","s","NA","h","NA","h","473.0","NA","163","NA","7071","NA","473","2","legacy","1024","2","48000","-16","experiment","SSHSS","1","odd","9077","NA","NA","NA","NA","83344","77999","1922","84381","NA","2000","NA","84484","84958","84380","84484","FlankerTask.3","41","28705.0","42","1024"
"97","97","681","681","#3d3846","legacy","legacy","legacy","incongruent","1","undefined","1","h","0","0","0","42","0","42","42","0","42","0","0","0","42","42","42","42","Thu Sep 14 17:23:32 2023","1500","The main experiment item","True","ewm FlankerTask3.osexp","/Users/izzymcgibbon/Desktop/College/Tarleton State /2023 /Fall /Stats /2.1 ","False","mono","False","18","no","white","no","yes","768","legacy","42","42","/Users/izzymcgibbon/Desktop/College/Tarleton State /2023 /Fall /Stats /2.1 /subject-1.csv","legacy","Melodramatic Milgram","4.0.5","0","h","NA","s","NA","h","NA","h","589.0","NA","163","NA","7071","NA","589","2","legacy","1024","2","48000","-16","experiment","HHHHH","1","odd","9077","NA","NA","NA","NA","84960","77999","1922","85997","NA","2000","NA","86099","86688","85996","86099","FlankerTask.3","42","29294.0","43","1024"
"97","97","678","678","#3d3846","legacy","legacy","legacy","congruent","1","undefined","1","s","0","0","0","43","0","43","43","0","43","0","0","0","43","43","43","43","Thu Sep 14 17:23:32 2023","1500","The main experiment item","True","ewm FlankerTask3.osexp","/Users/izzymcgibbon/Desktop/College/Tarleton State /2023 /Fall /Stats /2.1 ","False","mono","False","18","no","white","no","yes","768","legacy","43","43","/Users/izzymcgibbon/Desktop/College/Tarleton State /2023 /Fall /Stats /2.1 /subject-1.csv","legacy","Melodramatic Milgram","4.0.5","0","s","NA","s","NA","h","NA","s","543.0","NA","163","NA","7071","NA","543","2","legacy","1024","2","48000","-16","experiment","SSSSS","1","odd","9077","NA","NA","NA","NA","86691","77999","1922","87728","NA","2000","NA","87830","88374","87727","87830","FlankerTask.3","43","29837.0","44","1024"
"97","97","677","677","#3d3846","legacy","legacy","legacy","congruent","1","undefined","1","s","0","0","0","44","0","44","44","0","44","0","0","0","44","44","44","44","Thu Sep 14 17:23:32 2023","1500","The main experiment item","True","ewm FlankerTask3.osexp","/Users/izzymcgibbon/Desktop/College/Tarleton State /2023 /Fall /Stats /2.1 ","False","mono","False","18","no","white","no","yes","768","legacy","44","44","/Users/izzymcgibbon/Desktop/College/Tarleton State /2023 /Fall /Stats /2.1 /subject-1.csv","legacy","Melodramatic Milgram","4.0.5","0","s","NA","s","NA","h","NA","s","662.0","NA","163","NA","7071","NA","662","2","legacy","1024","2","48000","-16","experiment","HHSHH","1","odd","9077","NA","NA","NA","NA","88376","77999","1922","89414","NA","2000","NA","89516","90179","89412","89516","FlankerTask.3","44","30499.0","45","1024"
"97","97","675","675","#3d3846","legacy","legacy","legacy","congruent","1","undefined","1","s","0","0","0","45","0","45","45","0","45","0","0","0","45","45","45","45","Thu Sep 14 17:23:32 2023","1500","The main experiment item","True","ewm FlankerTask3.osexp","/Users/izzymcgibbon/Desktop/College/Tarleton State /2023 /Fall /Stats /2.1 ","False","mono","False","18","no","white","no","yes","768","legacy","45","45","/Users/izzymcgibbon/Desktop/College/Tarleton State /2023 /Fall /Stats /2.1 /subject-1.csv","legacy","Melodramatic Milgram","4.0.5","0","s","NA","s","NA","h","NA","s","554.0","NA","163","NA","7071","NA","554","2","legacy","1024","2","48000","-16","experiment","HHSHH","1","odd","9077","NA","NA","NA","NA","90181","77999","1922","91242","NA","2000","NA","91344","91899","91240","91344","FlankerTask.3","45","31053.0","46","1024"
"97","97","671","671","#3d3846","legacy","legacy","legacy","incongruent","1","undefined","1","h","0","0","0","46","0","46","46","0","46","0","0","0","46","46","46","46","Thu Sep 14 17:23:32 2023","1500","The main experiment item","True","ewm FlankerTask3.osexp","/Users/izzymcgibbon/Desktop/College/Tarleton State /2023 /Fall /Stats /2.1 ","False","mono","False","18","no","white","no","yes","768","legacy","46","46","/Users/izzymcgibbon/Desktop/College/Tarleton State /2023 /Fall /Stats /2.1 /subject-1.csv","legacy","Melodramatic Milgram","4.0.5","0","h","NA","s","NA","h","NA","h","510.0","NA","163","NA","7071","NA","510","2","legacy","1024","2","48000","-16","experiment","SSHSS","1","odd","9077","NA","NA","NA","NA","91902","77999","1922","92934","NA","2000","NA","93036","93546","92932","93036","FlankerTask.3","46","31563.0","47","1024"
"97","97","667","667","#3d3846","legacy","legacy","legacy","incongruent","1","undefined","1","h","0","0","0","47","0","47","47","0","47","0","0","0","47","47","47","47","Thu Sep 14 17:23:32 2023","1500","The main experiment item","True","ewm FlankerTask3.osexp","/Users/izzymcgibbon/Desktop/College/Tarleton State /2023 /Fall /Stats /2.1 ","False","mono","False","18","no","white","no","yes","768","legacy","47","47","/Users/izzymcgibbon/Desktop/College/Tarleton State /2023 /Fall /Stats /2.1 /subject-1.csv","legacy","Melodramatic Milgram","4.0.5","0","h","NA","s","NA","h","NA","h","499.0","NA","163","NA","7071","NA","499","2","legacy","1024","2","48000","-16","experiment","HHHHH","1","odd","9077","NA","NA","NA","NA","93548","77999","1922","94579","NA","2000","NA","94681","95180","94577","94681","FlankerTask.3","47","32062.0","48","1024"
"97","97","664","664","#3d3846","legacy","legacy","legacy","incongruent","1","undefined","1","h","0","0","0","48","0","48","48","0","48","0","0","0","48","48","48","48","Thu Sep 14 17:23:32 2023","1500","The main experiment item","True","ewm FlankerTask3.osexp","/Users/izzymcgibbon/Desktop/College/Tarleton State /2023 /Fall /Stats /2.1 ","False","mono","False","18","no","white","no","yes","768","legacy","48","48","/Users/izzymcgibbon/Desktop/College/Tarleton State /2023 /Fall /Stats /2.1 /subject-1.csv","legacy","Melodramatic Milgram","4.0.5","0","h","NA","s","NA","h","NA","h","490.0","NA","163","NA","7071","NA","490","2","legacy","1024","2","48000","-16","experiment","SSHSS","1","odd","9077","NA","NA","NA","NA","95183","77999","1922","96220","NA","2000","NA","96322","96813","96219","96322","FlankerTask.3","48","32552.0","49","1024"
"98","98","660","660","#3d3846","legacy","legacy","legacy","congruent","1","undefined","1","s","0","0","0","49","0","49","49","0","49","0","0","0","49","49","49","49","Thu Sep 14 17:23:32 2023","1500","The main experiment item","True","ewm FlankerTask3.osexp","/Users/izzymcgibbon/Desktop/College/Tarleton State /2023 /Fall /Stats /2.1 ","False","mono","False","18","no","white","no","yes","768","legacy","49","49","/Users/izzymcgibbon/Desktop/College/Tarleton State /2023 /Fall /Stats /2.1 /subject-1.csv","legacy","Melodramatic Milgram","4.0.5","0","s","NA","s","NA","h","NA","s","462.0","NA","163","NA","7071","NA","462","2","legacy","1024","2","48000","-16","experiment","HHSHH","1","odd","9077","NA","NA","NA","NA","96815","77999","1922","97853","NA","2000","NA","97955","98418","97852","97955","FlankerTask.3","49","33014.0","50","1024"
"98","98","659","659","#3d3846","legacy","legacy","legacy","incongruent","1","undefined","1","h","0","0","0","50","0","50","50","0","50","0","0","0","50","50","50","50","Thu Sep 14 17:23:32 2023","1500","The main experiment item","True","ewm FlankerTask3.osexp","/Users/izzymcgibbon/Desktop/College/Tarleton State /2023 /Fall /Stats /2.1 ","False","mono","False","18","no","white","no","yes","768","legacy","50","50","/Users/izzymcgibbon/Desktop/College/Tarleton State /2023 /Fall /Stats /2.1 /subject-1.csv","legacy","Melodramatic Milgram","4.0.5","0","h","NA","s","NA","h","NA","h","615.0","NA","163","NA","7071","NA","615","2","legacy","1024","2","48000","-16","experiment","HHHHH","1","odd","9077","NA","NA","NA","NA","98420","77999","1922","99451","NA","2000","NA","99553","100169","99449","99553","FlankerTask.3","50","33629.0","51","1024"
"98","98","658","658","#3d3846","legacy","legacy","legacy","congruent","1","undefined","1","s","0","0","0","51","0","51","51","0","51","0","0","0","51","51","51","51","Thu Sep 14 17:23:32 2023","1500","The main experiment item","True","ewm FlankerTask3.osexp","/Users/izzymcgibbon/Desktop/College/Tarleton State /2023 /Fall /Stats /2.1 ","False","mono","False","18","no","white","no","yes","768","legacy","51","51","/Users/izzymcgibbon/Desktop/College/Tarleton State /2023 /Fall /Stats /2.1 /subject-1.csv","legacy","Melodramatic Milgram","4.0.5","0","s","NA","s","NA","h","NA","s","613.0","NA","163","NA","7071","NA","613","2","legacy","1024","2","48000","-16","experiment","HHSHH","1","odd","9077","NA","NA","NA","NA","100172","77999","1922","101210","NA","2000","NA","101312","101926","101209","101312","FlankerTask.3","51","34242.0","52","1024"
"98","98","658","658","#3d3846","legacy","legacy","legacy","incongruent","1","undefined","1","h","0","0","0","52","0","52","52","0","52","0","0","0","52","52","52","52","Thu Sep 14 17:23:32 2023","1500","The main experiment item","True","ewm FlankerTask3.osexp","/Users/izzymcgibbon/Desktop/College/Tarleton State /2023 /Fall /Stats /2.1 ","False","mono","False","18","no","white","no","yes","768","legacy","52","52","/Users/izzymcgibbon/Desktop/College/Tarleton State /2023 /Fall /Stats /2.1 /subject-1.csv","legacy","Melodramatic Milgram","4.0.5","0","h","NA","s","NA","h","NA","h","672.0","NA","163","NA","7071","NA","672","2","legacy","1024","2","48000","-16","experiment","SSHSS","1","odd","9077","NA","NA","NA","NA","101928","77999","1922","102966","NA","2000","NA","103069","103741","102964","103068","FlankerTask.3","52","34914.0","53","1024"
"98","98","661","661","#3d3846","legacy","legacy","legacy","incongruent","1","undefined","1","h","0","0","0","53","0","53","53","0","53","0","0","0","53","53","53","53","Thu Sep 14 17:23:32 2023","1500","The main experiment item","True","ewm FlankerTask3.osexp","/Users/izzymcgibbon/Desktop/College/Tarleton State /2023 /Fall /Stats /2.1 ","False","mono","False","18","no","white","no","yes","768","legacy","53","53","/Users/izzymcgibbon/Desktop/College/Tarleton State /2023 /Fall /Stats /2.1 /subject-1.csv","legacy","Melodramatic Milgram","4.0.5","0","h","NA","s","NA","h","NA","h","783.0","NA","163","NA","7071","NA","783","2","legacy","1024","2","48000","-16","experiment","SSHSS","1","odd","9077","NA","NA","NA","NA","103744","77999","1922","104787","NA","2000","NA","104889","105673","104785","104889","FlankerTask.3","53","35697.0","54","1024"
"98","98","657","657","#3d3846","legacy","legacy","legacy","congruent","1","undefined","1","s","0","0","0","54","0","54","54","0","54","0","0","0","54","54","54","54","Thu Sep 14 17:23:32 2023","1500","The main experiment item","True","ewm FlankerTask3.osexp","/Users/izzymcgibbon/Desktop/College/Tarleton State /2023 /Fall /Stats /2.1 ","False","mono","False","18","no","white","no","yes","768","legacy","54","54","/Users/izzymcgibbon/Desktop/College/Tarleton State /2023 /Fall /Stats /2.1 /subject-1.csv","legacy","Melodramatic Milgram","4.0.5","0","s","NA","s","NA","h","NA","s","481.0","NA","163","NA","7071","NA","481","2","legacy","1024","2","48000","-16","experiment","HHSHH","1","odd","9077","NA","NA","NA","NA","105676","77999","1922","106708","NA","2000","NA","106810","107291","106707","106810","FlankerTask.3","54","36178.0","55","1024"
"98","98","668","668","#3d3846","legacy","legacy","legacy","congruent","1","undefined","1","s","0","0","0","55","0","55","55","0","55","0","0","0","55","55","55","55","Thu Sep 14 17:23:32 2023","1500","The main experiment item","True","ewm FlankerTask3.osexp","/Users/izzymcgibbon/Desktop/College/Tarleton State /2023 /Fall /Stats /2.1 ","False","mono","False","18","no","white","no","yes","768","legacy","55","55","/Users/izzymcgibbon/Desktop/College/Tarleton State /2023 /Fall /Stats /2.1 /subject-1.csv","legacy","Melodramatic Milgram","4.0.5","0","s","NA","s","NA","h","NA","s","1282.0","NA","163","NA","7071","NA","1282","2","legacy","1024","2","48000","-16","experiment","SSSSS","1","odd","9077","NA","NA","NA","NA","107294","77999","1922","108320","NA","2000","NA","108421","109704","108318","108421","FlankerTask.3","55","37460.0","56","1024"
"98","98","666","666","#3d3846","legacy","legacy","legacy","incongruent","1","undefined","1","h","0","0","0","56","0","56","56","0","56","0","0","0","56","56","56","56","Thu Sep 14 17:23:32 2023","1500","The main experiment item","True","ewm FlankerTask3.osexp","/Users/izzymcgibbon/Desktop/College/Tarleton State /2023 /Fall /Stats /2.1 ","False","mono","False","18","no","white","no","yes","768","legacy","56","56","/Users/izzymcgibbon/Desktop/College/Tarleton State /2023 /Fall /Stats /2.1 /subject-1.csv","legacy","Melodramatic Milgram","4.0.5","0","h","NA","s","NA","h","NA","h","503.0","NA","163","NA","7071","NA","503","2","legacy","1024","2","48000","-16","experiment","HHHHH","1","odd","9077","NA","NA","NA","NA","109705","77999","1922","110735","NA","2000","NA","110837","111341","110733","110837","FlankerTask.3","56","37963.0","57","1024"
"98","98","664","664","#3d3846","legacy","legacy","legacy","incongruent","1","undefined","1","h","0","0","0","57","0","57","57","0","57","0","0","0","57","57","57","57","Thu Sep 14 17:23:32 2023","1500","The main experiment item","True","ewm FlankerTask3.osexp","/Users/izzymcgibbon/Desktop/College/Tarleton State /2023 /Fall /Stats /2.1 ","False","mono","False","18","no","white","no","yes","768","legacy","57","57","/Users/izzymcgibbon/Desktop/College/Tarleton State /2023 /Fall /Stats /2.1 /subject-1.csv","legacy","Melodramatic Milgram","4.0.5","0","h","NA","s","NA","h","NA","h","551.0","NA","163","NA","7071","NA","551","2","legacy","1024","2","48000","-16","experiment","SSHSS","1","odd","9077","NA","NA","NA","NA","111344","77999","1922","112382","NA","2000","NA","112484","113036","112380","112484","FlankerTask.3","57","38514.0","58","1024"
"98","98","671","671","#3d3846","legacy","legacy","legacy","incongruent","1","undefined","1","h","0","0","0","58","0","58","58","0","58","0","0","0","58","58","58","58","Thu Sep 14 17:23:32 2023","1500","The main experiment item","True","ewm FlankerTask3.osexp","/Users/izzymcgibbon/Desktop/College/Tarleton State /2023 /Fall /Stats /2.1 ","False","mono","False","18","no","white","no","yes","768","legacy","58","58","/Users/izzymcgibbon/Desktop/College/Tarleton State /2023 /Fall /Stats /2.1 /subject-1.csv","legacy","Melodramatic Milgram","4.0.5","0","h","NA","s","NA","h","NA","h","1103.0","NA","163","NA","7071","NA","1103","2","legacy","1024","2","48000","-16","experiment","SSHSS","1","odd","9077","NA","NA","NA","NA","113038","77999","1922","114075","NA","2000","NA","114177","115280","114074","114177","FlankerTask.3","58","39617.0","59","1024"
"98","98","670","670","#3d3846","legacy","legacy","legacy","incongruent","1","undefined","1","h","0","0","0","59","0","59","59","0","59","0","0","0","59","59","59","59","Thu Sep 14 17:23:32 2023","1500","The main experiment item","True","ewm FlankerTask3.osexp","/Users/izzymcgibbon/Desktop/College/Tarleton State /2023 /Fall /Stats /2.1 ","False","mono","False","18","no","white","no","yes","768","legacy","59","59","/Users/izzymcgibbon/Desktop/College/Tarleton State /2023 /Fall /Stats /2.1 /subject-1.csv","legacy","Melodramatic Milgram","4.0.5","0","h","NA","s","NA","h","NA","h","630.0","NA","163","NA","7071","NA","630","2","legacy","1024","2","48000","-16","experiment","SSHSS","1","odd","9077","NA","NA","NA","NA","115284","77999","1922","116322","NA","2000","NA","116424","117054","116320","116424","FlankerTask.3","59","40247.0","60","1024"
"98","98","673","673","#3d3846","legacy","legacy","legacy","incongruent","1","undefined","1","h","0","0","0","60","0","60","60","0","60","0","0","0","60","60","60","60","Thu Sep 14 17:23:32 2023","1500","The main experiment item","True","ewm FlankerTask3.osexp","/Users/izzymcgibbon/Desktop/College/Tarleton State /2023 /Fall /Stats /2.1 ","False","mono","False","18","no","white","no","yes","768","legacy","60","60","/Users/izzymcgibbon/Desktop/College/Tarleton State /2023 /Fall /Stats /2.1 /subject-1.csv","legacy","Melodramatic Milgram","4.0.5","0","h","NA","s","NA","h","NA","h","824.0","NA","163","NA","7071","NA","824","2","legacy","1024","2","48000","-16","experiment","HHHHH","1","odd","9077","NA","NA","NA","NA","117057","77999","1922","118102","NA","2000","NA","118204","119028","118100","118204","FlankerTask.3","60","41071.0","61","1024"
"98","98","671","671","#3d3846","legacy","legacy","legacy","incongruent","1","undefined","1","h","0","0","0","61","0","61","61","0","61","0","0","0","61","61","61","61","Thu Sep 14 17:23:32 2023","1500","The main experiment item","True","ewm FlankerTask3.osexp","/Users/izzymcgibbon/Desktop/College/Tarleton State /2023 /Fall /Stats /2.1 ","False","mono","False","18","no","white","no","yes","768","legacy","61","61","/Users/izzymcgibbon/Desktop/College/Tarleton State /2023 /Fall /Stats /2.1 /subject-1.csv","legacy","Melodramatic Milgram","4.0.5","0","h","NA","s","NA","h","NA","h","536.0","NA","163","NA","7071","NA","536","2","legacy","1024","2","48000","-16","experiment","SSHSS","1","odd","9077","NA","NA","NA","NA","119031","77999","1922","120063","NA","2000","NA","120165","120702","120061","120165","FlankerTask.3","61","41607.0","62","1024"
"98","98","671","671","#3d3846","legacy","legacy","legacy","incongruent","1","undefined","1","h","0","0","0","62","0","62","62","0","62","0","0","0","62","62","62","62","Thu Sep 14 17:23:32 2023","1500","The main experiment item","True","ewm FlankerTask3.osexp","/Users/izzymcgibbon/Desktop/College/Tarleton State /2023 /Fall /Stats /2.1 ","False","mono","False","18","no","white","no","yes","768","legacy","62","62","/Users/izzymcgibbon/Desktop/College/Tarleton State /2023 /Fall /Stats /2.1 /subject-1.csv","legacy","Melodramatic Milgram","4.0.5","0","h","NA","s","NA","h","NA","h","706.0","NA","163","NA","7071","NA","706","2","legacy","1024","2","48000","-16","experiment","SSHSS","1","odd","9077","NA","NA","NA","NA","120705","77999","1922","121738","NA","2000","NA","121840","122547","121736","121840","FlankerTask.3","62","42313.0","63","1024"
"98","98","666","666","#3d3846","legacy","legacy","legacy","congruent","1","undefined","1","s","0","0","0","63","0","63","63","0","63","0","0","0","63","63","63","63","Thu Sep 14 17:23:32 2023","1500","The main experiment item","True","ewm FlankerTask3.osexp","/Users/izzymcgibbon/Desktop/College/Tarleton State /2023 /Fall /Stats /2.1 ","False","mono","False","18","no","white","no","yes","768","legacy","63","63","/Users/izzymcgibbon/Desktop/College/Tarleton State /2023 /Fall /Stats /2.1 /subject-1.csv","legacy","Melodramatic Milgram","4.0.5","0","s","NA","s","NA","h","NA","s","370.0","NA","163","NA","7071","NA","370","2","legacy","1024","2","48000","-16","experiment","SSSSS","1","odd","9077","NA","NA","NA","NA","122550","77999","1922","123585","NA","2000","NA","123688","124059","123584","123687","FlankerTask.3","63","42683.0","64","1024"
"98","98","665","665","#3d3846","legacy","legacy","legacy","incongruent","1","undefined","1","h","0","0","0","64","0","64","64","0","64","0","0","0","64","64","64","64","Thu Sep 14 17:23:32 2023","1500","The main experiment item","True","ewm FlankerTask3.osexp","/Users/izzymcgibbon/Desktop/College/Tarleton State /2023 /Fall /Stats /2.1 ","False","mono","False","18","no","white","no","yes","768","legacy","64","64","/Users/izzymcgibbon/Desktop/College/Tarleton State /2023 /Fall /Stats /2.1 /subject-1.csv","legacy","Melodramatic Milgram","4.0.5","0","h","NA","s","NA","h","NA","h","593.0","NA","163","NA","7071","NA","593","2","legacy","1024","2","48000","-16","experiment","HHHHH","1","odd","9077","NA","NA","NA","NA","124062","77999","1922","125100","NA","2000","NA","125203","125797","125098","125202","FlankerTask.3","64","43276.0","65","1024"
"98","98","669","669","#3d3846","legacy","legacy","legacy","congruent","1","undefined","1","s","0","0","0","65","0","65","65","0","65","0","0","0","65","65","65","65","Thu Sep 14 17:23:32 2023","1500","The main experiment item","True","ewm FlankerTask3.osexp","/Users/izzymcgibbon/Desktop/College/Tarleton State /2023 /Fall /Stats /2.1 ","False","mono","False","18","no","white","no","yes","768","legacy","65","65","/Users/izzymcgibbon/Desktop/College/Tarleton State /2023 /Fall /Stats /2.1 /subject-1.csv","legacy","Melodramatic Milgram","4.0.5","0","s","NA","s","NA","h","NA","s","905.0","NA","163","NA","7071","NA","905","2","legacy","1024","2","48000","-16","experiment","HHSHH","1","odd","9077","NA","NA","NA","NA","125800","77999","1922","126837","NA","2000","NA","126939","127845","126836","126939","FlankerTask.3","65","44181.0","66","1024"
"98","98","675","675","#3d3846","legacy","legacy","legacy","congruent","1","undefined","1","s","0","0","0","66","0","66","66","0","66","0","0","0","66","66","66","66","Thu Sep 14 17:23:32 2023","1500","The main experiment item","True","ewm FlankerTask3.osexp","/Users/izzymcgibbon/Desktop/College/Tarleton State /2023 /Fall /Stats /2.1 ","False","mono","False","18","no","white","no","yes","768","legacy","66","66","/Users/izzymcgibbon/Desktop/College/Tarleton State /2023 /Fall /Stats /2.1 /subject-1.csv","legacy","Melodramatic Milgram","4.0.5","0","s","NA","s","NA","h","NA","s","1047.0","NA","163","NA","7071","NA","1047","2","legacy","1024","2","48000","-16","experiment","SSSSS","1","odd","9077","NA","NA","NA","NA","127848","77999","1922","128885","NA","2000","NA","128987","130035","128883","128987","FlankerTask.3","66","45228.0","67","1024"
"98","98","671","671","#3d3846","legacy","legacy","legacy","congruent","1","undefined","1","s","0","0","0","67","0","67","67","0","67","0","0","0","67","67","67","67","Thu Sep 14 17:23:32 2023","1500","The main experiment item","True","ewm FlankerTask3.osexp","/Users/izzymcgibbon/Desktop/College/Tarleton State /2023 /Fall /Stats /2.1 ","False","mono","False","18","no","white","no","yes","768","legacy","67","67","/Users/izzymcgibbon/Desktop/College/Tarleton State /2023 /Fall /Stats /2.1 /subject-1.csv","legacy","Melodramatic Milgram","4.0.5","0","s","NA","s","NA","h","NA","s","428.0","NA","163","NA","7071","NA","428","2","legacy","1024","2","48000","-16","experiment","SSSSS","1","odd","9077","NA","NA","NA","NA","130037","77999","1922","131075","NA","2000","NA","131178","131607","131073","131177","FlankerTask.3","67","45656.0","68","1024"
"98","98","674","674","#3d3846","legacy","legacy","legacy","congruent","1","undefined","1","s","0","0","0","68","0","68","68","0","68","0","0","0","68","68","68","68","Thu Sep 14 17:23:32 2023","1500","The main experiment item","True","ewm FlankerTask3.osexp","/Users/izzymcgibbon/Desktop/College/Tarleton State /2023 /Fall /Stats /2.1 ","False","mono","False","18","no","white","no","yes","768","legacy","68","68","/Users/izzymcgibbon/Desktop/College/Tarleton State /2023 /Fall /Stats /2.1 /subject-1.csv","legacy","Melodramatic Milgram","4.0.5","0","s","NA","s","NA","h","NA","s","907.0","NA","163","NA","7071","NA","907","2","legacy","1024","2","48000","-16","experiment","HHSHH","1","odd","9077","NA","NA","NA","NA","131610","77999","1922","132652","NA","2000","NA","132754","133661","132651","132754","FlankerTask.3","68","46563.0","69","1024"
"97","97","680","680","#3d3846","legacy","legacy","legacy","congruent","0","undefined","0","s","0","0","0","69","0","69","69","0","69","0","0","0","69","69","69","69","Thu Sep 14 17:23:32 2023","1500","The main experiment item","True","ewm FlankerTask3.osexp","/Users/izzymcgibbon/Desktop/College/Tarleton State /2023 /Fall /Stats /2.1 ","False","mono","False","18","no","white","no","yes","768","legacy","69","69","/Users/izzymcgibbon/Desktop/College/Tarleton State /2023 /Fall /Stats /2.1 /subject-1.csv","legacy","Melodramatic Milgram","4.0.5","0","h","NA","s","NA","h","NA","h","1074.0","NA","163","NA","7071","NA","1074","2","legacy","1024","2","48000","-16","experiment","HHSHH","1","odd","9077","NA","NA","NA","NA","133664","77999","1922","134697","NA","2000","NA","134799","135874","134695","134799","FlankerTask.3","68","47637.0","70","1024"
"97","97","677","677","#3d3846","legacy","legacy","legacy","congruent","1","undefined","1","s","0","0","0","70","0","70","70","0","70","0","0","0","70","70","70","70","Thu Sep 14 17:23:32 2023","1500","The main experiment item","True","ewm FlankerTask3.osexp","/Users/izzymcgibbon/Desktop/College/Tarleton State /2023 /Fall /Stats /2.1 ","False","mono","False","18","no","white","no","yes","768","legacy","70","70","/Users/izzymcgibbon/Desktop/College/Tarleton State /2023 /Fall /Stats /2.1 /subject-1.csv","legacy","Melodramatic Milgram","4.0.5","0","s","NA","h","NA","h","NA","s","466.0","NA","800","NA","7071","NA","466","2","legacy","1024","2","48000","-16","experiment","SSSSS","1","odd","9077","NA","NA","NA","NA","136679","135876","1922","137712","NA","2000","NA","137815","138281","137711","137815","FlankerTask.3","69","48103.0","71","1024"
"97","97","675","675","#3d3846","legacy","legacy","legacy","congruent","1","undefined","1","s","0","0","0","71","0","71","71","0","71","0","0","0","71","71","71","71","Thu Sep 14 17:23:32 2023","1500","The main experiment item","True","ewm FlankerTask3.osexp","/Users/izzymcgibbon/Desktop/College/Tarleton State /2023 /Fall /Stats /2.1 ","False","mono","False","18","no","white","no","yes","768","legacy","71","71","/Users/izzymcgibbon/Desktop/College/Tarleton State /2023 /Fall /Stats /2.1 /subject-1.csv","legacy","Melodramatic Milgram","4.0.5","0","s","NA","h","NA","h","NA","s","516.0","NA","800","NA","7071","NA","516","2","legacy","1024","2","48000","-16","experiment","SSSSS","1","odd","9077","NA","NA","NA","NA","138285","135876","1922","139322","NA","2000","NA","139424","139940","139320","139424","FlankerTask.3","70","48619.0","72","1024"
"97","97","675","675","#3d3846","legacy","legacy","legacy","incongruent","1","undefined","1","h","0","0","0","72","0","72","72","0","72","0","0","0","72","72","72","72","Thu Sep 14 17:23:32 2023","1500","The main experiment item","True","ewm FlankerTask3.osexp","/Users/izzymcgibbon/Desktop/College/Tarleton State /2023 /Fall /Stats /2.1 ","False","mono","False","18","no","white","no","yes","768","legacy","72","72","/Users/izzymcgibbon/Desktop/College/Tarleton State /2023 /Fall /Stats /2.1 /subject-1.csv","legacy","Melodramatic Milgram","4.0.5","0","h","NA","h","NA","h","NA","h","671.0","NA","800","NA","7071","NA","671","2","legacy","1024","2","48000","-16","experiment","HHHHH","1","odd","9077","NA","NA","NA","NA","139943","135876","1922","140981","NA","2000","NA","141083","141755","140979","141083","FlankerTask.3","71","49290.0","73","1024"
"97","97","671","671","#3d3846","legacy","legacy","legacy","congruent","1","undefined","1","s","0","0","0","73","0","73","73","0","73","0","0","0","73","73","73","73","Thu Sep 14 17:23:32 2023","1500","The main experiment item","True","ewm FlankerTask3.osexp","/Users/izzymcgibbon/Desktop/College/Tarleton State /2023 /Fall /Stats /2.1 ","False","mono","False","18","no","white","no","yes","768","legacy","73","73","/Users/izzymcgibbon/Desktop/College/Tarleton State /2023 /Fall /Stats /2.1 /subject-1.csv","legacy","Melodramatic Milgram","4.0.5","0","s","NA","h","NA","h","NA","s","425.0","NA","800","NA","7071","NA","425","2","legacy","1024","2","48000","-16","experiment","SSSSS","1","odd","9077","NA","NA","NA","NA","141758","135876","1922","142795","NA","2000","NA","142897","143322","142793","142897","FlankerTask.3","72","49715.0","74","1024"
"97","97","671","671","#3d3846","legacy","legacy","legacy","congruent","1","undefined","1","s","0","0","0","74","0","74","74","0","74","0","0","0","74","74","74","74","Thu Sep 14 17:23:32 2023","1500","The main experiment item","True","ewm FlankerTask3.osexp","/Users/izzymcgibbon/Desktop/College/Tarleton State /2023 /Fall /Stats /2.1 ","False","mono","False","18","no","white","no","yes","768","legacy","74","74","/Users/izzymcgibbon/Desktop/College/Tarleton State /2023 /Fall /Stats /2.1 /subject-1.csv","legacy","Melodramatic Milgram","4.0.5","0","s","NA","h","NA","h","NA","s","682.0","NA","800","NA","7071","NA","682","2","legacy","1024","2","48000","-16","experiment","SSSSS","1","odd","9077","NA","NA","NA","NA","143326","135876","1922","144363","NA","2000","NA","144466","145149","144362","144465","FlankerTask.3","73","50397.0","75","1024"
"97","97","672","672","#3d3846","legacy","legacy","legacy","congruent","1","undefined","1","s","0","0","0","75","0","75","75","0","75","0","0","0","75","75","75","75","Thu Sep 14 17:23:32 2023","1500","The main experiment item","True","ewm FlankerTask3.osexp","/Users/izzymcgibbon/Desktop/College/Tarleton State /2023 /Fall /Stats /2.1 ","False","mono","False","18","no","white","no","yes","768","legacy","75","75","/Users/izzymcgibbon/Desktop/College/Tarleton State /2023 /Fall /Stats /2.1 /subject-1.csv","legacy","Melodramatic Milgram","4.0.5","0","s","NA","h","NA","h","NA","s","688.0","NA","800","NA","7071","NA","688","2","legacy","1024","2","48000","-16","experiment","SSSSS","1","odd","9077","NA","NA","NA","NA","145152","135876","1922","146196","NA","2000","NA","146299","146988","146194","146298","FlankerTask.3","74","51085.0","76","1024"
"97","97","667","667","#3d3846","legacy","legacy","legacy","congruent","1","undefined","1","s","0","0","0","76","0","76","76","0","76","0","0","0","76","76","76","76","Thu Sep 14 17:23:32 2023","1500","The main experiment item","True","ewm FlankerTask3.osexp","/Users/izzymcgibbon/Desktop/College/Tarleton State /2023 /Fall /Stats /2.1 ","False","mono","False","18","no","white","no","yes","768","legacy","76","76","/Users/izzymcgibbon/Desktop/College/Tarleton State /2023 /Fall /Stats /2.1 /subject-1.csv","legacy","Melodramatic Milgram","4.0.5","0","s","NA","h","NA","h","NA","s","311.0","NA","800","NA","7071","NA","311","2","legacy","1024","2","48000","-16","experiment","HHSHH","1","odd","9077","NA","NA","NA","NA","146991","135876","1922","148024","NA","2000","NA","148126","148438","148022","148126","FlankerTask.3","75","51396.0","77","1024"
"97","97","665","665","#3d3846","legacy","legacy","legacy","incongruent","1","undefined","1","h","0","0","0","77","0","77","77","0","77","0","0","0","77","77","77","77","Thu Sep 14 17:23:32 2023","1500","The main experiment item","True","ewm FlankerTask3.osexp","/Users/izzymcgibbon/Desktop/College/Tarleton State /2023 /Fall /Stats /2.1 ","False","mono","False","18","no","white","no","yes","768","legacy","77","77","/Users/izzymcgibbon/Desktop/College/Tarleton State /2023 /Fall /Stats /2.1 /subject-1.csv","legacy","Melodramatic Milgram","4.0.5","0","h","NA","h","NA","h","NA","h","514.0","NA","800","NA","7071","NA","514","2","legacy","1024","2","48000","-16","experiment","HHHHH","1","odd","9077","NA","NA","NA","NA","148441","135876","1922","149474","NA","2000","NA","149576","150091","149472","149576","FlankerTask.3","76","51910.0","78","1024"
"97","97","663","663","#3d3846","legacy","legacy","legacy","incongruent","1","undefined","1","h","0","0","0","78","0","78","78","0","78","0","0","0","78","78","78","78","Thu Sep 14 17:23:32 2023","1500","The main experiment item","True","ewm FlankerTask3.osexp","/Users/izzymcgibbon/Desktop/College/Tarleton State /2023 /Fall /Stats /2.1 ","False","mono","False","18","no","white","no","yes","768","legacy","78","78","/Users/izzymcgibbon/Desktop/College/Tarleton State /2023 /Fall /Stats /2.1 /subject-1.csv","legacy","Melodramatic Milgram","4.0.5","0","h","NA","h","NA","h","NA","h","520.0","NA","800","NA","7071","NA","520","2","legacy","1024","2","48000","-16","experiment","SSHSS","1","odd","9077","NA","NA","NA","NA","150094","135876","1922","151131","NA","2000","NA","151234","151755","151130","151233","FlankerTask.3","77","52430.0","79","1024"
"97","97","661","661","#3d3846","legacy","legacy","legacy","congruent","1","undefined","1","s","0","0","0","79","0","79","79","0","79","0","0","0","79","79","79","79","Thu Sep 14 17:23:32 2023","1500","The main experiment item","True","ewm FlankerTask3.osexp","/Users/izzymcgibbon/Desktop/College/Tarleton State /2023 /Fall /Stats /2.1 ","False","mono","False","18","no","white","no","yes","768","legacy","79","79","/Users/izzymcgibbon/Desktop/College/Tarleton State /2023 /Fall /Stats /2.1 /subject-1.csv","legacy","Melodramatic Milgram","4.0.5","0","s","NA","h","NA","h","NA","s","469.0","NA","800","NA","7071","NA","469","2","legacy","1024","2","48000","-16","experiment","SSSSS","1","odd","9077","NA","NA","NA","NA","151757","135876","1922","152795","NA","2000","NA","152897","153367","152793","152897","FlankerTask.3","78","52899.0","80","1024"
"97","97","660","660","#3d3846","legacy","legacy","legacy","incongruent","1","undefined","1","h","0","0","0","80","0","80","80","0","80","0","0","0","80","80","80","80","Thu Sep 14 17:23:32 2023","600","The main experiment item","True","ewm FlankerTask3.osexp","/Users/izzymcgibbon/Desktop/College/Tarleton State /2023 /Fall /Stats /2.1 ","False","mono","False","18","no","white","no","yes","768","legacy","0","79","/Users/izzymcgibbon/Desktop/College/Tarleton State /2023 /Fall /Stats /2.1 /subject-1.csv","legacy","Melodramatic Milgram","4.0.5","0","h","NA","h","NA","h","h","h","589.0","NA","800","NA","7071","65626","589","2","legacy","1024","2","48000","-16","experiment","HHHHH","1","odd","9077","220000","NA","NA","NA","153370","135876","1922","220044","NA","2000","154373","220149","220738","220038","220149","FlankerTask.3","79","53488.0","81","1024"
"97","97","657","657","#3d3846","legacy","legacy","legacy","congruent","1","undefined","1","s","0","0","0","81","0","81","81","0","81","0","0","0","81","81","81","81","Thu Sep 14 17:23:32 2023","600","The main experiment item","True","ewm FlankerTask3.osexp","/Users/izzymcgibbon/Desktop/College/Tarleton State /2023 /Fall /Stats /2.1 ","False","mono","False","18","no","white","no","yes","768","legacy","1","79","/Users/izzymcgibbon/Desktop/College/Tarleton State /2023 /Fall /Stats /2.1 /subject-1.csv","legacy","Melodramatic Milgram","4.0.5","0","s","NA","h","NA","h","h","s","400.0","NA","800","NA","7071","65626","400","2","legacy","1024","2","48000","-16","experiment","HHSHH","1","odd","9077","220000","NA","NA","NA","220742","135876","1922","221773","NA","2000","154373","221876","222277","221772","221875","FlankerTask.3","80","53888.0","82","1024"
"97","97","652","652","#3d3846","legacy","legacy","legacy","congruent","1","undefined","1","s","0","0","0","82","0","82","82","0","82","0","0","0","82","82","82","82","Thu Sep 14 17:23:32 2023","600","The main experiment item","True","ewm FlankerTask3.osexp","/Users/izzymcgibbon/Desktop/College/Tarleton State /2023 /Fall /Stats /2.1 ","False","mono","False","18","no","white","no","yes","768","legacy","2","79","/Users/izzymcgibbon/Desktop/College/Tarleton State /2023 /Fall /Stats /2.1 /subject-1.csv","legacy","Melodramatic Milgram","4.0.5","0","s","NA","h","NA","h","h","s","308.0","NA","800","NA","7071","65626","308","2","legacy","1024","2","48000","-16","experiment","SSSSS","1","odd","9077","220000","NA","NA","NA","222280","135876","1922","223314","NA","2000","154373","223416","223724","223313","223416","FlankerTask.3","81","54196.0","83","1024"
"96","96","649","649","#3d3846","legacy","legacy","legacy","incongruent","0","undefined","0","h","0","0","0","83","0","83","83","0","83","0","0","0","83","83","83","83","Thu Sep 14 17:23:32 2023","600","The main experiment item","True","ewm FlankerTask3.osexp","/Users/izzymcgibbon/Desktop/College/Tarleton State /2023 /Fall /Stats /2.1 ","False","mono","False","18","no","white","no","yes","768","legacy","3","79","/Users/izzymcgibbon/Desktop/College/Tarleton State /2023 /Fall /Stats /2.1 /subject-1.csv","legacy","Melodramatic Milgram","4.0.5","0","s","NA","h","NA","h","h","s","367.0","NA","800","NA","7071","65626","367","2","legacy","1024","2","48000","-16","experiment","HHHHH","1","odd","9077","220000","NA","NA","NA","223727","135876","1922","224764","NA","2000","154373","224867","225234","224763","224867","FlankerTask.3","81","54563.0","84","1024"
"95","95","646","646","#3d3846","legacy","legacy","legacy","incongruent","0","undefined","0","h","0","0","0","84","0","84","84","0","84","0","0","0","84","84","84","84","Thu Sep 14 17:23:32 2023","600","The main experiment item","True","ewm FlankerTask3.osexp","/Users/izzymcgibbon/Desktop/College/Tarleton State /2023 /Fall /Stats /2.1 ","False","mono","False","18","no","white","no","yes","768","legacy","4","79","/Users/izzymcgibbon/Desktop/College/Tarleton State /2023 /Fall /Stats /2.1 /subject-1.csv","legacy","Melodramatic Milgram","4.0.5","0","s","NA","h","NA","h","h","s","386.0","NA","40","NA","7071","65626","386","2","legacy","1024","2","48000","-16","experiment","SSHSS","1","odd","9077","220000","NA","NA","NA","225280","225237","1922","226318","NA","2000","154373","226420","226807","226317","226420","FlankerTask.3","81","54949.0","85","1024"
"95","95","644","644","#3d3846","legacy","legacy","legacy","congruent","1","undefined","1","s","0","0","0","85","0","85","85","0","85","0","0","0","85","85","85","85","Thu Sep 14 17:23:32 2023","600","The main experiment item","True","ewm FlankerTask3.osexp","/Users/izzymcgibbon/Desktop/College/Tarleton State /2023 /Fall /Stats /2.1 ","False","mono","False","18","no","white","no","yes","768","legacy","5","79","/Users/izzymcgibbon/Desktop/College/Tarleton State /2023 /Fall /Stats /2.1 /subject-1.csv","legacy","Melodramatic Milgram","4.0.5","0","s","NA","s","NA","h","h","s","446.0","NA","1915","NA","7071","65626","446","2","legacy","1024","2","48000","-16","experiment","SSSSS","1","odd","9077","220000","NA","228728","NA","229231","226810","1922","230263","NA","2000","154373","230365","230812","230262","230365","FlankerTask.3","82","55395.0","86","1024"
"95","95","640","640","#3d3846","legacy","legacy","legacy","incongruent","1","undefined","1","h","0","0","0","86","0","86","86","0","86","0","0","0","86","86","86","86","Thu Sep 14 17:23:32 2023","600","The main experiment item","True","ewm FlankerTask3.osexp","/Users/izzymcgibbon/Desktop/College/Tarleton State /2023 /Fall /Stats /2.1 ","False","mono","False","18","no","white","no","yes","768","legacy","6","79","/Users/izzymcgibbon/Desktop/College/Tarleton State /2023 /Fall /Stats /2.1 /subject-1.csv","legacy","Melodramatic Milgram","4.0.5","0","h","NA","s","NA","h","h","h","296.0","NA","1915","NA","7071","65626","296","2","legacy","1024","2","48000","-16","experiment","SSHSS","1","odd","9077","220000","NA","228728","NA","230815","226810","1922","231852","NA","2000","154373","231954","232251","231851","231954","FlankerTask.3","83","55691.0","87","1024"
"94","94","636","636","#3d3846","legacy","legacy","legacy","congruent","0","undefined","0","s","0","0","0","87","0","87","87","0","87","0","0","0","87","87","87","87","Thu Sep 14 17:23:32 2023","600","The main experiment item","True","ewm FlankerTask3.osexp","/Users/izzymcgibbon/Desktop/College/Tarleton State /2023 /Fall /Stats /2.1 ","False","mono","False","18","no","white","no","yes","768","legacy","7","79","/Users/izzymcgibbon/Desktop/College/Tarleton State /2023 /Fall /Stats /2.1 /subject-1.csv","legacy","Melodramatic Milgram","4.0.5","0","h","NA","s","NA","h","h","h","318.0","NA","1915","NA","7071","65626","318","2","legacy","1024","2","48000","-16","experiment","HHSHH","1","odd","9077","220000","NA","228728","NA","232253","226810","1922","233295","NA","2000","154373","233397","233716","233293","233397","FlankerTask.3","83","56009.0","88","1024"
"94","94","629","629","#3d3846","legacy","legacy","legacy","incongruent","1","undefined","1","h","0","0","0","88","0","88","88","0","88","0","0","0","88","88","88","88","Thu Sep 14 17:23:32 2023","600","The main experiment item","True","ewm FlankerTask3.osexp","/Users/izzymcgibbon/Desktop/College/Tarleton State /2023 /Fall /Stats /2.1 ","False","mono","False","18","no","white","no","yes","768","legacy","8","79","/Users/izzymcgibbon/Desktop/College/Tarleton State /2023 /Fall /Stats /2.1 /subject-1.csv","legacy","Melodramatic Milgram","4.0.5","0","h","NA","h","NA","h","h","h","30.0","NA","611","NA","7071","65626","30","2","legacy","1024","2","48000","-16","experiment","HHHHH","1","odd","9077","220000","NA","234332","NA","234834","233718","1922","235867","NA","2000","154373","235970","236001","235865","235970","FlankerTask.3","84","56039.0","89","1024"
"93","93","622","622","#3d3846","legacy","legacy","legacy","incongruent","0","undefined","0","h","0","0","0","89","0","89","89","0","89","0","0","0","89","89","89","89","Thu Sep 14 17:23:32 2023","600","The main experiment item","True","ewm FlankerTask3.osexp","/Users/izzymcgibbon/Desktop/College/Tarleton State /2023 /Fall /Stats /2.1 ","False","mono","False","18","no","white","no","yes","768","legacy","9","79","/Users/izzymcgibbon/Desktop/College/Tarleton State /2023 /Fall /Stats /2.1 /subject-1.csv","legacy","Melodramatic Milgram","4.0.5","0","s","NA","h","NA","h","h","s","5.0","NA","611","NA","7071","65626","5","2","legacy","1024","2","48000","-16","experiment","HHHHH","1","odd","9077","220000","NA","234332","NA","236004","233718","1922","237039","NA","2000","154373","237141","237147","237037","237141","FlankerTask.3","84","56044.0","90","1024"
"93","93","622","622","#3d3846","legacy","legacy","legacy","congruent","1","undefined","1","s","0","0","0","90","0","90","90","0","90","0","0","0","90","90","90","90","Thu Sep 14 17:23:32 2023","600","The main experiment item","True","ewm FlankerTask3.osexp","/Users/izzymcgibbon/Desktop/College/Tarleton State /2023 /Fall /Stats /2.1 ","False","mono","False","18","no","white","no","yes","768","legacy","10","79","/Users/izzymcgibbon/Desktop/College/Tarleton State /2023 /Fall /Stats /2.1 /subject-1.csv","legacy","Melodramatic Milgram","4.0.5","0","s","NA","s","NA","h","h","s","599.0","NA","1037","NA","7071","65626","599","2","legacy","1024","2","48000","-16","experiment","SSSSS","1","odd","9077","220000","NA","238191","NA","238694","237151","1922","239731","NA","2000","154373","239834","240434","239730","239834","FlankerTask.3","85","56643.0","91","1024"
"92","92","619","619","#3d3846","legacy","legacy","legacy","incongruent","0","undefined","0","h","0","0","0","91","0","91","91","0","91","0","0","0","91","91","91","91","Thu Sep 14 17:23:32 2023","600","The main experiment item","True","ewm FlankerTask3.osexp","/Users/izzymcgibbon/Desktop/College/Tarleton State /2023 /Fall /Stats /2.1 ","False","mono","False","18","no","white","no","yes","768","legacy","11","79","/Users/izzymcgibbon/Desktop/College/Tarleton State /2023 /Fall /Stats /2.1 /subject-1.csv","legacy","Melodramatic Milgram","4.0.5","0","s","NA","s","NA","h","h","s","382.0","NA","1037","NA","7071","65626","382","2","legacy","1024","2","48000","-16","experiment","HHHHH","1","odd","9077","220000","NA","238191","NA","240437","237151","1922","241475","NA","2000","154373","241577","241960","241473","241577","FlankerTask.3","85","57025.0","92","1024"
"92","92","614","614","#3d3846","legacy","legacy","legacy","congruent","1","undefined","1","s","0","0","0","92","0","92","92","0","92","0","0","0","92","92","92","92","Thu Sep 14 17:23:32 2023","600","The main experiment item","True","ewm FlankerTask3.osexp","/Users/izzymcgibbon/Desktop/College/Tarleton State /2023 /Fall /Stats /2.1 ","False","mono","False","18","no","white","no","yes","768","legacy","12","79","/Users/izzymcgibbon/Desktop/College/Tarleton State /2023 /Fall /Stats /2.1 /subject-1.csv","legacy","Melodramatic Milgram","4.0.5","0","s","NA","h","NA","h","h","s","162.0","NA","1172","NA","7071","65626","162","2","legacy","1024","2","48000","-16","experiment","HHSHH","1","odd","9077","220000","NA","243137","NA","243640","241962","1922","244678","NA","2000","154373","244781","244943","244675","244781","FlankerTask.3","86","57187.0","93","1024"
"91","91","611","611","#3d3846","legacy","legacy","legacy","congruent","0","undefined","0","s","0","0","0","93","0","93","93","0","93","0","0","0","93","93","93","93","Thu Sep 14 17:23:32 2023","600","The main experiment item","True","ewm FlankerTask3.osexp","/Users/izzymcgibbon/Desktop/College/Tarleton State /2023 /Fall /Stats /2.1 ","False","mono","False","18","no","white","no","yes","768","legacy","13","79","/Users/izzymcgibbon/Desktop/College/Tarleton State /2023 /Fall /Stats /2.1 /subject-1.csv","legacy","Melodramatic Milgram","4.0.5","0","h","NA","h","NA","h","h","h","272.0","NA","1172","NA","7071","65626","272","2","legacy","1024","2","48000","-16","experiment","SSSSS","1","odd","9077","220000","NA","243137","NA","244946","241962","1922","245984","NA","2000","154373","246088","246360","245983","246087","FlankerTask.3","86","57459.0","94","1024"
"90","90","605","605","#3d3846","legacy","legacy","legacy","congruent","0","undefined","0","s","0","0","0","94","0","94","94","0","94","0","0","0","94","94","94","94","Thu Sep 14 17:23:32 2023","600","The main experiment item","True","ewm FlankerTask3.osexp","/Users/izzymcgibbon/Desktop/College/Tarleton State /2023 /Fall /Stats /2.1 ","False","mono","False","18","no","white","no","yes","768","legacy","14","79","/Users/izzymcgibbon/Desktop/College/Tarleton State /2023 /Fall /Stats /2.1 /subject-1.csv","legacy","Melodramatic Milgram","4.0.5","0","h","NA","h","NA","h","h","h","75.0","NA","842","NA","7071","65626","75","2","legacy","1024","2","48000","-16","experiment","HHSHH","1","odd","9077","220000","NA","247209","NA","247712","246363","1922","248753","NA","2000","154373","248856","248931","248752","248856","FlankerTask.3","86","57534.0","95","1024"
"89","89","599","599","#3d3846","legacy","legacy","legacy","congruent","0","undefined","0","s","0","0","0","95","0","95","95","0","95","0","0","0","95","95","95","95","Thu Sep 14 17:23:32 2023","600","The main experiment item","True","ewm FlankerTask3.osexp","/Users/izzymcgibbon/Desktop/College/Tarleton State /2023 /Fall /Stats /2.1 ","False","mono","False","18","no","white","no","yes","768","legacy","15","79","/Users/izzymcgibbon/Desktop/College/Tarleton State /2023 /Fall /Stats /2.1 /subject-1.csv","legacy","Melodramatic Milgram","4.0.5","0","h","NA","v","NA","h","h","h","1.0","NA","45","NA","7071","65626","1","2","legacy","1024","2","48000","-16","experiment","SSSSS","1","odd","9077","220000","NA","247209","NA","248982","248934","1922","250016","NA","2000","154373","250119","250121","250005","250119","FlankerTask.3","86","57535.0","96","1024"
"88","88","595","595","#3d3846","legacy","legacy","legacy","congruent","0","undefined","0","s","0","0","0","96","0","96","96","0","96","0","0","0","96","96","96","96","Thu Sep 14 17:23:32 2023","600","The main experiment item","True","ewm FlankerTask3.osexp","/Users/izzymcgibbon/Desktop/College/Tarleton State /2023 /Fall /Stats /2.1 ","False","mono","False","18","no","white","no","yes","768","legacy","16","79","/Users/izzymcgibbon/Desktop/College/Tarleton State /2023 /Fall /Stats /2.1 /subject-1.csv","legacy","Melodramatic Milgram","4.0.5","0","h","NA","g","NA","h","h","h","267.0","NA","64","NA","7071","65626","267","2","legacy","1024","2","48000","-16","experiment","SSSSS","1","odd","9077","220000","NA","247209","NA","250191","250124","1922","251231","NA","2000","154373","251334","251602","251224","251334","FlankerTask.3","86","57802.0","97","1024"
"87","87","593","593","#3d3846","legacy","legacy","legacy","congruent","0","undefined","0","s","0","0","0","97","0","97","97","0","97","0","0","0","97","97","97","97","Thu Sep 14 17:23:32 2023","600","The main experiment item","True","ewm FlankerTask3.osexp","/Users/izzymcgibbon/Desktop/College/Tarleton State /2023 /Fall /Stats /2.1 ","False","mono","False","18","no","white","no","yes","768","legacy","17","79","/Users/izzymcgibbon/Desktop/College/Tarleton State /2023 /Fall /Stats /2.1 /subject-1.csv","legacy","Melodramatic Milgram","4.0.5","0","h","NA","h","NA","h","h","h","348.0","NA","115","NA","7071","65626","348","2","legacy","1024","2","48000","-16","experiment","HHSHH","1","odd","9077","220000","NA","247209","NA","251722","251604","1922","252766","NA","2000","154373","252870","253219","252759","252870","FlankerTask.3","86","58150.0","98","1024"
"86","86","602","602","#3d3846","legacy","legacy","legacy","incongruent","0","undefined","0","h","0","0","0","98","0","98","98","0","98","0","0","0","98","98","98","98","Thu Sep 14 17:23:32 2023","600","The main experiment item","True","ewm FlankerTask3.osexp","/Users/izzymcgibbon/Desktop/College/Tarleton State /2023 /Fall /Stats /2.1 ","False","mono","False","18","no","white","no","yes","768","legacy","18","79","/Users/izzymcgibbon/Desktop/College/Tarleton State /2023 /Fall /Stats /2.1 /subject-1.csv","legacy","Melodramatic Milgram","4.0.5","0","None","NA","g","NA","h","h","None","1500.0","NA","129","NA","7071","65626","1500","2","legacy","1024","2","48000","-16","experiment","HHHHH","1","odd","9077","220000","NA","247209","NA","253353","253222","1922","254398","NA","2000","154373","254501","256001","254390","254501","FlankerTask.3","86","59650.0","99","1024"
"87","87","601","601","#3d3846","legacy","legacy","legacy","incongruent","1","undefined","1","h","0","0","0","99","0","99","99","0","99","0","0","0","99","99","99","99","Thu Sep 14 17:23:32 2023","600","The main experiment item","True","ewm FlankerTask3.osexp","/Users/izzymcgibbon/Desktop/College/Tarleton State /2023 /Fall /Stats /2.1 ","False","mono","False","18","no","white","no","yes","768","legacy","19","79","/Users/izzymcgibbon/Desktop/College/Tarleton State /2023 /Fall /Stats /2.1 /subject-1.csv","legacy","Melodramatic Milgram","4.0.5","0","h","NA","h","NA","h","h","h","514.0","NA","4433","NA","7071","65626","514","2","legacy","1024","2","48000","-16","experiment","HHHHH","1","odd","9077","220000","NA","260440","NA","260944","256004","1922","261981","NA","2000","154373","262084","262599","261980","262083","FlankerTask.3","87","60164.0","100","1024"
"86","86","598","598","#3d3846","legacy","legacy","legacy","incongruent","0","undefined","0","h","0","0","0","100","0","100","100","0","100","0","0","0","100","100","100","100","Thu Sep 14 17:23:32 2023","600","The main experiment item","True","ewm FlankerTask3.osexp","/Users/izzymcgibbon/Desktop/College/Tarleton State /2023 /Fall /Stats /2.1 ","False","mono","False","18","no","white","no","yes","768","legacy","20","79","/Users/izzymcgibbon/Desktop/College/Tarleton State /2023 /Fall /Stats /2.1 /subject-1.csv","legacy","Melodramatic Milgram","4.0.5","0","s","NA","h","NA","h","h","s","277.0","NA","4433","NA","7071","65626","277","2","legacy","1024","2","48000","-16","experiment","SSHSS","1","odd","9077","220000","NA","260440","NA","262603","256004","1922","263642","NA","2000","154373","263745","264023","263639","263744","FlankerTask.3","87","60441.0","101","1024"
"86","86","596","596","#3d3846","legacy","legacy","legacy","incongruent","1","undefined","1","h","0","0","0","101","0","101","101","0","101","0","0","0","101","101","101","101","Thu Sep 14 17:23:32 2023","600","The main experiment item","True","ewm FlankerTask3.osexp","/Users/izzymcgibbon/Desktop/College/Tarleton State /2023 /Fall /Stats /2.1 ","False","mono","False","18","no","white","no","yes","768","legacy","21","79","/Users/izzymcgibbon/Desktop/College/Tarleton State /2023 /Fall /Stats /2.1 /subject-1.csv","legacy","Melodramatic Milgram","4.0.5","0","h","NA","h","NA","h","h","h","407.0","NA","4205","NA","7071","65626","407","2","legacy","1024","2","48000","-16","experiment","SSHSS","1","odd","9077","220000","NA","268234","NA","268736","264026","1922","269778","NA","2000","154373","269880","270288","269776","269880","FlankerTask.3","88","60848.0","102","1024"
"86","86","596","596","#3d3846","legacy","legacy","legacy","congruent","1","undefined","1","s","0","0","0","102","0","102","102","0","102","0","0","0","102","102","102","102","Thu Sep 14 17:23:32 2023","600","The main experiment item","True","ewm FlankerTask3.osexp","/Users/izzymcgibbon/Desktop/College/Tarleton State /2023 /Fall /Stats /2.1 ","False","mono","False","18","no","white","no","yes","768","legacy","22","79","/Users/izzymcgibbon/Desktop/College/Tarleton State /2023 /Fall /Stats /2.1 /subject-1.csv","legacy","Melodramatic Milgram","4.0.5","0","s","NA","h","NA","h","h","s","558.0","NA","4205","NA","7071","65626","558","2","legacy","1024","2","48000","-16","experiment","HHSHH","1","odd","9077","220000","NA","268234","NA","270290","264026","1922","271324","NA","2000","154373","271426","271985","271322","271426","FlankerTask.3","89","61406.0","103","1024"
"86","86","595","595","#3d3846","legacy","legacy","legacy","incongruent","1","undefined","1","h","0","0","0","103","0","103","103","0","103","0","0","0","103","103","103","103","Thu Sep 14 17:23:32 2023","600","The main experiment item","True","ewm FlankerTask3.osexp","/Users/izzymcgibbon/Desktop/College/Tarleton State /2023 /Fall /Stats /2.1 ","False","mono","False","18","no","white","no","yes","768","legacy","23","79","/Users/izzymcgibbon/Desktop/College/Tarleton State /2023 /Fall /Stats /2.1 /subject-1.csv","legacy","Melodramatic Milgram","4.0.5","0","h","NA","h","NA","h","h","h","542.0","NA","4205","NA","7071","65626","542","2","legacy","1024","2","48000","-16","experiment","HHHHH","1","odd","9077","220000","NA","268234","NA","271987","264026","1922","273021","NA","2000","154373","273123","273666","273020","273123","FlankerTask.3","90","61948.0","104","1024"
"86","86","594","594","#3d3846","legacy","legacy","legacy","incongruent","1","undefined","1","h","0","0","0","104","0","104","104","0","104","0","0","0","104","104","104","104","Thu Sep 14 17:23:32 2023","600","The main experiment item","True","ewm FlankerTask3.osexp","/Users/izzymcgibbon/Desktop/College/Tarleton State /2023 /Fall /Stats /2.1 ","False","mono","False","18","no","white","no","yes","768","legacy","24","79","/Users/izzymcgibbon/Desktop/College/Tarleton State /2023 /Fall /Stats /2.1 /subject-1.csv","legacy","Melodramatic Milgram","4.0.5","0","h","NA","h","NA","h","h","h","468.0","NA","4205","NA","7071","65626","468","2","legacy","1024","2","48000","-16","experiment","SSHSS","1","odd","9077","220000","NA","268234","NA","273670","264026","1922","274707","NA","2000","154373","274809","275278","274706","274809","FlankerTask.3","91","62416.0","105","1024"
"86","86","592","592","#3d3846","legacy","legacy","legacy","incongruent","1","undefined","1","h","0","0","0","105","0","105","105","0","105","0","0","0","105","105","105","105","Thu Sep 14 17:23:32 2023","600","The main experiment item","True","ewm FlankerTask3.osexp","/Users/izzymcgibbon/Desktop/College/Tarleton State /2023 /Fall /Stats /2.1 ","False","mono","False","18","no","white","no","yes","768","legacy","25","79","/Users/izzymcgibbon/Desktop/College/Tarleton State /2023 /Fall /Stats /2.1 /subject-1.csv","legacy","Melodramatic Milgram","4.0.5","0","h","NA","h","NA","h","h","h","426.0","NA","4205","NA","7071","65626","426","2","legacy","1024","2","48000","-16","experiment","HHHHH","1","odd","9077","220000","NA","268234","NA","275280","264026","1922","276317","NA","2000","154373","276420","276847","276316","276420","FlankerTask.3","92","62842.0","106","1024"
"86","86","590","590","#3d3846","legacy","legacy","legacy","incongruent","1","undefined","1","h","0","0","0","106","0","106","106","0","106","0","0","0","106","106","106","106","Thu Sep 14 17:23:32 2023","600","The main experiment item","True","ewm FlankerTask3.osexp","/Users/izzymcgibbon/Desktop/College/Tarleton State /2023 /Fall /Stats /2.1 ","False","mono","False","18","no","white","no","yes","768","legacy","26","79","/Users/izzymcgibbon/Desktop/College/Tarleton State /2023 /Fall /Stats /2.1 /subject-1.csv","legacy","Melodramatic Milgram","4.0.5","0","h","NA","h","NA","h","h","h","367.0","NA","4205","NA","7071","65626","367","2","legacy","1024","2","48000","-16","experiment","SSHSS","1","odd","9077","220000","NA","268234","NA","276850","264026","1922","277887","NA","2000","154373","277990","278358","277885","277989","FlankerTask.3","93","63209.0","107","1024"
"87","87","589","589","#3d3846","legacy","legacy","legacy","congruent","1","undefined","1","s","0","0","0","107","0","107","107","0","107","0","0","0","107","107","107","107","Thu Sep 14 17:23:32 2023","600","The main experiment item","True","ewm FlankerTask3.osexp","/Users/izzymcgibbon/Desktop/College/Tarleton State /2023 /Fall /Stats /2.1 ","False","mono","False","18","no","white","no","yes","768","legacy","27","79","/Users/izzymcgibbon/Desktop/College/Tarleton State /2023 /Fall /Stats /2.1 /subject-1.csv","legacy","Melodramatic Milgram","4.0.5","0","s","NA","h","NA","h","h","s","435.0","NA","4205","NA","7071","65626","435","2","legacy","1024","2","48000","-16","experiment","SSSSS","1","odd","9077","220000","NA","268234","NA","278361","264026","1922","279399","NA","2000","154373","279501","279937","279397","279501","FlankerTask.3","94","63644.0","108","1024"
"86","86","587","587","#3d3846","legacy","legacy","legacy","congruent","0","undefined","0","s","0","0","0","108","0","108","108","0","108","0","0","0","108","108","108","108","Thu Sep 14 17:23:32 2023","600","The main experiment item","True","ewm FlankerTask3.osexp","/Users/izzymcgibbon/Desktop/College/Tarleton State /2023 /Fall /Stats /2.1 ","False","mono","False","18","no","white","no","yes","768","legacy","28","79","/Users/izzymcgibbon/Desktop/College/Tarleton State /2023 /Fall /Stats /2.1 /subject-1.csv","legacy","Melodramatic Milgram","4.0.5","0","h","NA","h","NA","h","h","h","357.0","NA","4205","NA","7071","65626","357","2","legacy","1024","2","48000","-16","experiment","HHSHH","1","odd","9077","220000","NA","268234","NA","279939","264026","1922","280980","NA","2000","154373","281083","281441","280978","281083","FlankerTask.3","94","64001.0","109","1024"
"86","86","586","586","#3d3846","legacy","legacy","legacy","congruent","1","undefined","1","s","0","0","0","109","0","109","109","0","109","0","0","0","109","109","109","109","Thu Sep 14 17:23:32 2023","600","The main experiment item","True","ewm FlankerTask3.osexp","/Users/izzymcgibbon/Desktop/College/Tarleton State /2023 /Fall /Stats /2.1 ","False","mono","False","18","no","white","no","yes","768","legacy","29","79","/Users/izzymcgibbon/Desktop/College/Tarleton State /2023 /Fall /Stats /2.1 /subject-1.csv","legacy","Melodramatic Milgram","4.0.5","0","s","NA","h","NA","h","h","s","473.0","NA","9797","NA","7071","65626","473","2","legacy","1024","2","48000","-16","experiment","HHSHH","1","odd","9077","220000","NA","291247","NA","291750","281444","1922","292783","NA","2000","154373","292885","293358","292781","292885","FlankerTask.3","95","64474.0","110","1024"
"86","86","583","583","#3d3846","legacy","legacy","legacy","congruent","1","undefined","1","s","0","0","0","110","0","110","110","0","110","0","0","0","110","110","110","110","Thu Sep 14 17:23:32 2023","600","The main experiment item","True","ewm FlankerTask3.osexp","/Users/izzymcgibbon/Desktop/College/Tarleton State /2023 /Fall /Stats /2.1 ","False","mono","False","18","no","white","no","yes","768","legacy","30","79","/Users/izzymcgibbon/Desktop/College/Tarleton State /2023 /Fall /Stats /2.1 /subject-1.csv","legacy","Melodramatic Milgram","4.0.5","0","s","NA","h","NA","h","h","s","329.0","NA","9797","NA","7071","65626","329","2","legacy","1024","2","48000","-16","experiment","HHSHH","1","odd","9077","220000","NA","291247","NA","293361","281444","1922","294395","NA","2000","154373","294497","294827","294393","294497","FlankerTask.3","96","64803.0","111","1024"
"85","85","581","581","#3d3846","legacy","legacy","legacy","incongruent","0","undefined","0","h","0","0","0","111","0","111","111","0","111","0","0","0","111","111","111","111","Thu Sep 14 17:23:32 2023","600","The main experiment item","True","ewm FlankerTask3.osexp","/Users/izzymcgibbon/Desktop/College/Tarleton State /2023 /Fall /Stats /2.1 ","False","mono","False","18","no","white","no","yes","768","legacy","31","79","/Users/izzymcgibbon/Desktop/College/Tarleton State /2023 /Fall /Stats /2.1 /subject-1.csv","legacy","Melodramatic Milgram","4.0.5","0","s","NA","h","NA","h","h","s","346.0","NA","9797","NA","7071","65626","346","2","legacy","1024","2","48000","-16","experiment","SSHSS","1","odd","9077","220000","NA","291247","NA","294829","281444","1922","295866","NA","2000","154373","295968","296315","295865","295968","FlankerTask.3","96","65149.0","112","1024"
"85","85","580","580","#3d3846","legacy","legacy","legacy","congruent","1","undefined","1","s","0","0","0","112","0","112","112","0","112","0","0","0","112","112","112","112","Thu Sep 14 17:23:32 2023","600","The main experiment item","True","ewm FlankerTask3.osexp","/Users/izzymcgibbon/Desktop/College/Tarleton State /2023 /Fall /Stats /2.1 ","False","mono","False","18","no","white","no","yes","768","legacy","32","79","/Users/izzymcgibbon/Desktop/College/Tarleton State /2023 /Fall /Stats /2.1 /subject-1.csv","legacy","Melodramatic Milgram","4.0.5","0","s","NA","h","NA","h","h","s","479.0","NA","4877","NA","7071","65626","479","2","legacy","1024","2","48000","-16","experiment","SSSSS","1","odd","9077","220000","NA","301195","NA","301698","296316","1922","302735","NA","2000","154373","302838","303318","302734","302837","FlankerTask.3","97","65628.0","113","1024"
"85","85","579","579","#3d3846","legacy","legacy","legacy","congruent","1","undefined","1","s","0","0","0","113","0","113","113","0","113","0","0","0","113","113","113","113","Thu Sep 14 17:23:32 2023","600","The main experiment item","True","ewm FlankerTask3.osexp","/Users/izzymcgibbon/Desktop/College/Tarleton State /2023 /Fall /Stats /2.1 ","False","mono","False","18","no","white","no","yes","768","legacy","33","79","/Users/izzymcgibbon/Desktop/College/Tarleton State /2023 /Fall /Stats /2.1 /subject-1.csv","legacy","Melodramatic Milgram","4.0.5","0","s","NA","h","NA","h","h","s","425.0","NA","4877","NA","7071","65626","425","2","legacy","1024","2","48000","-16","experiment","SSSSS","1","odd","9077","220000","NA","301195","NA","303322","296316","1922","304358","NA","2000","154373","304461","304887","304357","304461","FlankerTask.3","98","66053.0","114","1024"
"86","86","577","577","#3d3846","legacy","legacy","legacy","congruent","1","undefined","1","s","0","0","0","114","0","114","114","0","114","0","0","0","114","114","114","114","Thu Sep 14 17:23:32 2023","600","The main experiment item","True","ewm FlankerTask3.osexp","/Users/izzymcgibbon/Desktop/College/Tarleton State /2023 /Fall /Stats /2.1 ","False","mono","False","18","no","white","no","yes","768","legacy","34","79","/Users/izzymcgibbon/Desktop/College/Tarleton State /2023 /Fall /Stats /2.1 /subject-1.csv","legacy","Melodramatic Milgram","4.0.5","0","s","NA","h","NA","h","h","s","349.0","NA","4877","NA","7071","65626","349","2","legacy","1024","2","48000","-16","experiment","HHSHH","1","odd","9077","220000","NA","301195","NA","304890","296316","1922","305928","NA","2000","154373","306031","306381","305927","306030","FlankerTask.3","99","66402.0","115","1024"
