"acc","accuracy","average_response_time","avg_rt","background","canvas_backend","clock_backend","color_backend","condition","correct","correct_instructions1","correct_keyboard_response","correct_response","count_ISI","count_block1","count_block2","count_block3","count_errorFeedback","count_experiment","count_faster","count_finish","count_fixatiom","count_instructions1","count_instructions2","count_instructions3","count_keyboard_response","count_logger","count_sequence","count_stimulus","datetime","deadline","description","disable_garbage_collection","experiment_file","experiment_path","font_bold","font_family","font_italic","font_size","font_underline","foreground","form_clicks","fullscreen","height","keyboard_backend","live_row","live_row_block1","logfile","mouse_backend","opensesame_codename","opensesame_version","repeat_cycle","response","response_finish","response_instructions1","response_instructions2","response_instructions3","response_keyboard_response","response_time","response_time_finish","response_time_instructions1","response_time_instructions2","response_time_instructions3","response_time_keyboard_response","round_decimals","sampler_backend","sound_buf_size","sound_channels","sound_freq","sound_sample_size","start","stimulus","subject_nr","subject_parity","time_ISI","time_block1","time_block2","time_block3","time_errorFeedback","time_experiment","time_faster","time_finish","time_fixatiom","time_instructions1","time_instructions2","time_instructions3","time_keyboard_response","time_logger","time_sequence","time_stimulus","title","total_correct","total_response_time","total_responses","width"
"100","100","519","519","black","psycho","psycho","psycho","congruent","1","undefined","1","s","0","0","0","0","0","0","0","0","0","0","0","0","0","0","0","0","Sun Sep 24 19:51:03 2023","1500","The main experiment item","True","Flankertask.osexp","/Users/xaleyelyse/Desktop","False","mono","False","18","no","white","no","yes","768","psycho","0","0","/Users/xaleyelyse/Desktop/xw-subject-3.csv","psycho","Melodramatic Milgram","4.0.5","0","s","NA","h","NA","NA","s","519.5289980038069","NA","8173.212470021099","NA","NA","519.5289980038069","2","psycho","1024","2","48000","-16","experiment","SSSSS","3","odd","NA","15618.847259000177","NA","NA","NA","7384.4972450169735","NA","NA","15704.549745016266","7423.595639993437","NA","NA","15815.096514998004","16336.786328000017","15678.603206994012","15814.618681004504","Flanker task","1","519.5289980038069","1","1024"
"100","100","453","453","black","psycho","psycho","psycho","incongruent","1","undefined","1","h","1","0","0","0","1","0","1","0","1","0","0","0","1","1","1","1","Sun Sep 24 19:51:03 2023","1500","The main experiment item","True","Flankertask.osexp","/Users/xaleyelyse/Desktop","False","mono","False","18","no","white","no","yes","768","psycho","1","1","/Users/xaleyelyse/Desktop/xw-subject-3.csv","psycho","Melodramatic Milgram","4.0.5","0","h","NA","h","NA","NA","h","387.9150809952989","NA","8173.212470021099","NA","NA","387.9150809952989","2","psycho","1024","2","48000","-16","experiment","SSHSS","3","odd","16344.373361993348","15618.847259000177","NA","NA","NA","7384.4972450169735","NA","NA","17397.125346993562","7423.595639993437","NA","NA","17505.81221599714","17895.767658017576","17384.209306997946","17505.301060009515","Flanker task","2","907.4440789991058","2","1024"
"100","100","419","419","black","psycho","psycho","psycho","congruent","1","undefined","1","h","2","0","0","0","2","0","2","0","2","0","0","0","2","2","2","2","Sun Sep 24 19:51:03 2023","1500","The main experiment item","True","Flankertask.osexp","/Users/xaleyelyse/Desktop","False","mono","False","18","no","white","no","yes","768","psycho","2","2","/Users/xaleyelyse/Desktop/xw-subject-3.csv","psycho","Melodramatic Milgram","4.0.5","0","h","NA","h","NA","NA","h","350.7016939984169","NA","8173.212470021099","NA","NA","350.7016939984169","2","psycho","1024","2","48000","-16","experiment","HHHHH","3","odd","17901.87593200244","15618.847259000177","NA","NA","NA","7384.4972450169735","NA","NA","18960.853707016213","7423.595639993437","NA","NA","19069.796343013877","19425.646599993343","18947.881088010035","19069.27686202107","Flanker task","3","1258.1457729975227","3","1024"
"75","75","408","408","black","psycho","psycho","psycho","incongruent","0","undefined","0","h","3","0","0","0","3","0","3","0","3","0","0","0","3","3","3","3","Sun Sep 24 19:51:03 2023","1500","The main experiment item","True","Flankertask.osexp","/Users/xaleyelyse/Desktop","False","mono","False","18","no","white","no","yes","768","psycho","3","3","/Users/xaleyelyse/Desktop/xw-subject-3.csv","psycho","Melodramatic Milgram","4.0.5","0","s","NA","h","NA","NA","s","377.48190699494444","NA","8173.212470021099","NA","NA","377.48190699494444","2","psycho","1024","2","48000","-16","experiment","SSHSS","3","odd","19431.259880017024","15618.847259000177","NA","NA","NA","7384.4972450169735","NA","NA","20482.942564005498","7423.595639993437","NA","NA","20592.039492999902","20971.582322992617","20470.82652899553","20591.53009901638","Flanker task","3","1635.6276799924672","4","1024"
"80","80","410","410","black","psycho","psycho","psycho","congruent","1","undefined","1","s","4","0","0","0","4","0","4","0","4","0","0","0","4","4","4","4","Sun Sep 24 19:51:03 2023","1500","The main experiment item","True","Flankertask.osexp","/Users/xaleyelyse/Desktop","False","mono","False","18","no","white","no","yes","768","psycho","4","4","/Users/xaleyelyse/Desktop/xw-subject-3.csv","psycho","Melodramatic Milgram","4.0.5","0","s","NA","h","NA","NA","s","418.25256499578245","NA","8173.212470021099","NA","NA","418.25256499578245","2","psycho","1024","2","48000","-16","experiment","SSSSS","3","odd","21483.35443600081","15618.847259000177","NA","NA","20977.953580004396","7384.4972450169735","NA","NA","22538.597374019446","7423.595639993437","NA","NA","22647.45064699673","23067.727337998804","22526.705664000474","22646.968675020617","Flanker task","4","2053.8802449882496","5","1024"
"83","83","420","420","black","psycho","psycho","psycho","incongruent","1","undefined","1","h","5","0","0","0","5","0","5","0","5","0","0","0","5","5","5","5","Sun Sep 24 19:51:03 2023","1500","The main experiment item","True","Flankertask.osexp","/Users/xaleyelyse/Desktop","False","mono","False","18","no","white","no","yes","768","psycho","5","5","/Users/xaleyelyse/Desktop/xw-subject-3.csv","psycho","Melodramatic Milgram","4.0.5","0","h","NA","h","NA","NA","h","467.76308200787753","NA","8173.212470021099","NA","NA","467.76308200787753","2","psycho","1024","2","48000","-16","experiment","SSHSS","3","odd","23073.28716001939","15618.847259000177","NA","NA","20977.953580004396","7384.4972450169735","NA","NA","24125.967464002315","7423.595639993437","NA","NA","24234.55396501231","24704.492852004478","24113.92957600765","24234.109448007075","Flanker task","5","2521.643326996127","6","1024"
"85","85","447","447","black","psycho","psycho","psycho","incongruent","1","undefined","1","s","6","0","0","0","6","0","6","0","6","0","0","0","6","6","6","6","Sun Sep 24 19:51:03 2023","1500","The main experiment item","True","Flankertask.osexp","/Users/xaleyelyse/Desktop","False","mono","False","18","no","white","no","yes","768","psycho","6","6","/Users/xaleyelyse/Desktop/xw-subject-3.csv","psycho","Melodramatic Milgram","4.0.5","0","s","NA","h","NA","NA","s","613.2580490084365","NA","8173.212470021099","NA","NA","613.2580490084365","2","psycho","1024","2","48000","-16","experiment","HHSHH","3","odd","24710.28849601862","15618.847259000177","NA","NA","20977.953580004396","7384.4972450169735","NA","NA","25762.27913700859","7423.595639993437","NA","NA","25871.94879600429","26487.53968201345","25749.80424201931","25869.378991017584","Flanker task","6","3134.9013760045636","7","1024"
"87","87","445","445","black","psycho","psycho","psycho","incongruent","1","undefined","1","s","7","0","0","0","7","0","7","0","7","0","0","0","7","7","7","7","Sun Sep 24 19:51:03 2023","1500","The main experiment item","True","Flankertask.osexp","/Users/xaleyelyse/Desktop","False","mono","False","18","no","white","no","yes","768","psycho","7","7","/Users/xaleyelyse/Desktop/xw-subject-3.csv","psycho","Melodramatic Milgram","4.0.5","0","s","NA","h","NA","NA","s","426.9083779945504","NA","8173.212470021099","NA","NA","426.9083779945504","2","psycho","1024","2","48000","-16","experiment","HHSHH","3","odd","26493.627945019398","15618.847259000177","NA","NA","20977.953580004396","7384.4972450169735","NA","NA","27546.337715000845","7423.595639993437","NA","NA","27656.400503998157","28085.345372004667","27533.86462299386","27653.762322006514","Flanker task","7","3561.809753999114","8","1024"
"88","88","451","451","black","psycho","psycho","psycho","congruent","1","undefined","1","s","8","0","0","0","8","0","8","0","8","0","0","0","8","8","8","8","Sun Sep 24 19:51:03 2023","1500","The main experiment item","True","Flankertask.osexp","/Users/xaleyelyse/Desktop","False","mono","False","18","no","white","no","yes","768","psycho","8","8","/Users/xaleyelyse/Desktop/xw-subject-3.csv","psycho","Melodramatic Milgram","4.0.5","0","s","NA","h","NA","NA","s","500.3335349902045","NA","8173.212470021099","NA","NA","500.3335349902045","2","psycho","1024","2","48000","-16","experiment","SSSSS","3","odd","28091.724266996607","15618.847259000177","NA","NA","20977.953580004396","7384.4972450169735","NA","NA","29143.448688992066","7423.595639993437","NA","NA","29253.772785014007","29756.16722801351","29131.038944004104","29251.089491997845","Flanker task","8","4062.1432889893185","9","1024"
"90","90","457","457","black","psycho","psycho","psycho","incongruent","1","undefined","1","h","9","0","0","0","9","0","9","0","9","0","0","0","9","9","9","9","Sun Sep 24 19:51:03 2023","1500","The main experiment item","True","Flankertask.osexp","/Users/xaleyelyse/Desktop","False","mono","False","18","no","white","no","yes","768","psycho","9","9","/Users/xaleyelyse/Desktop/xw-subject-3.csv","psycho","Melodramatic Milgram","4.0.5","0","h","NA","h","NA","NA","h","517.5135410099756","NA","8173.212470021099","NA","NA","517.5135410099756","2","psycho","1024","2","48000","-16","experiment","SSHSS","3","odd","29762.065913004335","15618.847259000177","NA","NA","20977.953580004396","7384.4972450169735","NA","NA","30813.739389006514","7423.595639993437","NA","NA","30922.565443004714","31441.979996016016","30802.090179000515","30922.068025014596","Flanker task","9","4579.656829999294","10","1024"
"90","90","454","454","black","psycho","psycho","psycho","incongruent","1","undefined","1","h","10","0","0","0","10","0","10","0","10","0","0","0","10","10","10","10","Sun Sep 24 19:51:03 2023","1500","The main experiment item","True","Flankertask.osexp","/Users/xaleyelyse/Desktop","False","mono","False","18","no","white","no","yes","768","psycho","10","10","/Users/xaleyelyse/Desktop/xw-subject-3.csv","psycho","Melodramatic Milgram","4.0.5","0","h","NA","h","NA","NA","h","424.1083550150506","NA","8173.212470021099","NA","NA","424.1083550150506","2","psycho","1024","2","48000","-16","experiment","SSHSS","3","odd","31447.770186001435","15618.847259000177","NA","NA","20977.953580004396","7384.4972450169735","NA","NA","32507.195426995168","7423.595639993437","NA","NA","32615.887360996567","33041.97629200644","32495.468572014943","32615.369792009005","Flanker task","10","5003.765185014345","11","1024"
"91","91","450","450","black","psycho","psycho","psycho","incongruent","1","undefined","1","h","11","0","0","0","11","0","11","0","11","0","0","0","11","11","11","11","Sun Sep 24 19:51:03 2023","1500","The main experiment item","True","Flankertask.osexp","/Users/xaleyelyse/Desktop","False","mono","False","18","no","white","no","yes","768","psycho","11","11","/Users/xaleyelyse/Desktop/xw-subject-3.csv","psycho","Melodramatic Milgram","4.0.5","0","h","NA","h","NA","NA","h","406.46273098536767","NA","8173.212470021099","NA","NA","406.46273098536767","2","psycho","1024","2","48000","-16","experiment","SSHSS","3","odd","33047.71826101933","15618.847259000177","NA","NA","20977.953580004396","7384.4972450169735","NA","NA","34101.50894901017","7423.595639993437","NA","NA","34210.132174019236","34618.84250701405","34089.926907996414","34209.72853800049","Flanker task","11","5410.227915999712","12","1024"
"92","92","444","444","black","psycho","psycho","psycho","congruent","1","undefined","1","s","12","0","0","0","12","0","12","0","12","0","0","0","12","12","12","12","Sun Sep 24 19:51:03 2023","1500","The main experiment item","True","Flankertask.osexp","/Users/xaleyelyse/Desktop","False","mono","False","18","no","white","no","yes","768","psycho","12","12","/Users/xaleyelyse/Desktop/xw-subject-3.csv","psycho","Melodramatic Milgram","4.0.5","0","s","NA","h","NA","NA","s","371.2065859872382","NA","8173.212470021099","NA","NA","371.2065859872382","2","psycho","1024","2","48000","-16","experiment","SSSSS","3","odd","34624.7444729961","15618.847259000177","NA","NA","20977.953580004396","7384.4972450169735","NA","NA","35675.786433013855","7423.595639993437","NA","NA","35784.79062800761","36158.23032500339","35663.6786860181","35784.35279201949","Flanker task","12","5781.434501986951","13","1024"
"92","92","441","441","black","psycho","psycho","psycho","congruent","1","undefined","1","h","13","0","0","0","13","0","13","0","13","0","0","0","13","13","13","13","Sun Sep 24 19:51:03 2023","1500","The main experiment item","True","Flankertask.osexp","/Users/xaleyelyse/Desktop","False","mono","False","18","no","white","no","yes","768","psycho","13","13","/Users/xaleyelyse/Desktop/xw-subject-3.csv","psycho","Melodramatic Milgram","4.0.5","0","h","NA","h","NA","NA","h","406.0347790073138","NA","8173.212470021099","NA","NA","406.0347790073138","2","psycho","1024","2","48000","-16","experiment","HHHHH","3","odd","36164.226588996826","15618.847259000177","NA","NA","20977.953580004396","7384.4972450169735","NA","NA","37221.186842012685","7423.595639993437","NA","NA","37329.72513700952","37737.809579994064","37209.1848970158","37329.320980992634","Flanker task","13","6187.469280994264","14","1024"
"93","93","437","437","black","psycho","psycho","psycho","congruent","1","undefined","1","s","14","0","0","0","14","0","14","0","14","0","0","0","14","14","14","14","Sun Sep 24 19:51:03 2023","1500","The main experiment item","True","Flankertask.osexp","/Users/xaleyelyse/Desktop","False","mono","False","18","no","white","no","yes","768","psycho","14","14","/Users/xaleyelyse/Desktop/xw-subject-3.csv","psycho","Melodramatic Milgram","4.0.5","0","s","NA","h","NA","NA","s","377.29088999913074","NA","8173.212470021099","NA","NA","377.29088999913074","2","psycho","1024","2","48000","-16","experiment","SSSSS","3","odd","37744.11498900736","15618.847259000177","NA","NA","20977.953580004396","7384.4972450169735","NA","NA","38796.598403016105","7423.595639993437","NA","NA","38904.55120801926","39283.75704601058","38784.57963000983","38902.1431330184","Flanker task","14","6564.760170993395","15","1024"
"93","93","434","434","black","psycho","psycho","psycho","congruent","1","undefined","1","s","15","0","0","0","15","0","15","0","15","0","0","0","15","15","15","15","Sun Sep 24 19:51:03 2023","1500","The main experiment item","True","Flankertask.osexp","/Users/xaleyelyse/Desktop","False","mono","False","18","no","white","no","yes","768","psycho","15","15","/Users/xaleyelyse/Desktop/xw-subject-3.csv","psycho","Melodramatic Milgram","4.0.5","0","s","NA","h","NA","NA","s","379.87022098968737","NA","8173.212470021099","NA","NA","379.87022098968737","2","psycho","1024","2","48000","-16","experiment","SSSSS","3","odd","39292.83426201437","15618.847259000177","NA","NA","20977.953580004396","7384.4972450169735","NA","NA","40346.880989003694","7423.595639993437","NA","NA","40455.88005700847","40837.77596600703","40335.35468199989","40455.38256701548","Flanker task","15","6944.6303919830825","16","1024"
"94","94","431","431","black","psycho","psycho","psycho","congruent","1","undefined","1","h","16","0","0","0","16","0","16","0","16","0","0","0","16","16","16","16","Sun Sep 24 19:51:03 2023","1500","The main experiment item","True","Flankertask.osexp","/Users/xaleyelyse/Desktop","False","mono","False","18","no","white","no","yes","768","psycho","16","16","/Users/xaleyelyse/Desktop/xw-subject-3.csv","psycho","Melodramatic Milgram","4.0.5","0","h","NA","h","NA","NA","h","391.71109299059026","NA","8173.212470021099","NA","NA","391.71109299059026","2","psycho","1024","2","48000","-16","experiment","HHHHH","3","odd","40843.969328008825","15618.847259000177","NA","NA","20977.953580004396","7384.4972450169735","NA","NA","41898.98294600425","7423.595639993437","NA","NA","42007.92123700376","42401.549574016826","41888.2768570038","42005.253376002656","Flanker task","16","7336.341484973673","17","1024"
"94","94","440","440","black","psycho","psycho","psycho","congruent","1","undefined","1","s","17","0","0","0","17","0","17","0","17","0","0","0","17","17","17","17","Sun Sep 24 19:51:03 2023","1500","The main experiment item","True","Flankertask.osexp","/Users/xaleyelyse/Desktop","False","mono","False","18","no","white","no","yes","768","psycho","17","17","/Users/xaleyelyse/Desktop/xw-subject-3.csv","psycho","Melodramatic Milgram","4.0.5","0","s","NA","h","NA","NA","s","594.7638299840037","NA","8173.212470021099","NA","NA","594.7638299840037","2","psycho","1024","2","48000","-16","experiment","SSSSS","3","odd","42407.58866499527","15618.847259000177","NA","NA","20977.953580004396","7384.4972450169735","NA","NA","43458.05916201789","7423.595639993437","NA","NA","43567.59634701302","44164.29596900707","43447.355470998446","43567.066236020764","Flanker task","17","7931.1053149576765","18","1024"
"94","94","444","444","black","psycho","psycho","psycho","incongruent","1","undefined","1","s","18","0","0","0","18","0","18","0","18","0","0","0","18","18","18","18","Sun Sep 24 19:51:03 2023","1500","The main experiment item","True","Flankertask.osexp","/Users/xaleyelyse/Desktop","False","mono","False","18","no","white","no","yes","768","psycho","18","18","/Users/xaleyelyse/Desktop/xw-subject-3.csv","psycho","Melodramatic Milgram","4.0.5","0","s","NA","h","NA","NA","s","509.4063149881549","NA","8173.212470021099","NA","NA","509.4063149881549","2","psycho","1024","2","48000","-16","experiment","HHSHH","3","odd","44175.88988301577","15618.847259000177","NA","NA","20977.953580004396","7384.4972450169735","NA","NA","45225.781568995444","7423.595639993437","NA","NA","45334.85587700852","45846.29650300485","45215.2956740174","45334.31224900414","Flanker task","18","8440.511629945831","19","1024"
"95","95","441","441","black","psycho","psycho","psycho","congruent","1","undefined","1","h","19","0","0","0","19","0","19","0","19","0","0","0","19","19","19","19","Sun Sep 24 19:51:03 2023","1500","The main experiment item","True","Flankertask.osexp","/Users/xaleyelyse/Desktop","False","mono","False","18","no","white","no","yes","768","psycho","19","19","/Users/xaleyelyse/Desktop/xw-subject-3.csv","psycho","Melodramatic Milgram","4.0.5","0","h","NA","h","NA","NA","h","386.43988501280546","NA","8173.212470021099","NA","NA","386.43988501280546","2","psycho","1024","2","48000","-16","experiment","HHHHH","3","odd","45855.38026000722","15618.847259000177","NA","NA","20977.953580004396","7384.4972450169735","NA","NA","46906.40073799295","7423.595639993437","NA","NA","47016.015250992496","47404.653599020094","46895.930646016495","47013.39599501807","Flanker task","19","8826.951514958637","20","1024"
"95","95","443","443","black","psycho","psycho","psycho","incongruent","1","undefined","1","h","20","0","0","0","20","0","20","0","20","0","0","0","20","20","20","20","Sun Sep 24 19:51:03 2023","1500","The main experiment item","True","Flankertask.osexp","/Users/xaleyelyse/Desktop","False","mono","False","18","no","white","no","yes","768","psycho","20","20","/Users/xaleyelyse/Desktop/xw-subject-3.csv","psycho","Melodramatic Milgram","4.0.5","0","h","NA","h","NA","NA","h","487.5703449943103","NA","8173.212470021099","NA","NA","487.5703449943103","2","psycho","1024","2","48000","-16","experiment","SSHSS","3","odd","47410.787264001556","15618.847259000177","NA","NA","20977.953580004396","7384.4972450169735","NA","NA","48477.87276300369","7423.595639993437","NA","NA","48588.21533701848","49077.67996500479","48466.645628010156","48587.0523120102","Flanker task","20","9314.521859952947","21","1024"
"95","95","443","443","black","psycho","psycho","psycho","incongruent","1","undefined","1","s","21","0","0","0","21","0","21","0","21","0","0","0","21","21","21","21","Sun Sep 24 19:51:03 2023","1500","The main experiment item","True","Flankertask.osexp","/Users/xaleyelyse/Desktop","False","mono","False","18","no","white","no","yes","768","psycho","21","21","/Users/xaleyelyse/Desktop/xw-subject-3.csv","psycho","Melodramatic Milgram","4.0.5","0","s","NA","h","NA","NA","s","437.5855599937495","NA","8173.212470021099","NA","NA","437.5855599937495","2","psycho","1024","2","48000","-16","experiment","HHSHH","3","odd","49083.402082993416","15618.847259000177","NA","NA","20977.953580004396","7384.4972450169735","NA","NA","50133.87555300142","7423.595639993437","NA","NA","50243.061842018506","50682.7952270105","50123.3262430178","50242.633938003564","Flanker task","21","9752.107419946697","22","1024"
"95","95","445","445","black","psycho","psycho","psycho","incongruent","1","undefined","1","h","22","0","0","0","22","0","22","0","22","0","0","0","22","22","22","22","Sun Sep 24 19:51:03 2023","1500","The main experiment item","True","Flankertask.osexp","/Users/xaleyelyse/Desktop","False","mono","False","18","no","white","no","yes","768","psycho","22","22","/Users/xaleyelyse/Desktop/xw-subject-3.csv","psycho","Melodramatic Milgram","4.0.5","0","h","NA","h","NA","NA","h","498.02716498379596","NA","8173.212470021099","NA","NA","498.02716498379596","2","psycho","1024","2","48000","-16","experiment","SSHSS","3","odd","50691.39041300514","15618.847259000177","NA","NA","20977.953580004396","7384.4972450169735","NA","NA","51741.80528099532","7423.595639993437","NA","NA","51850.015043019084","52350.234747020295","51731.16167599801","51847.58446601336","Flanker task","22","10250.134584930493","23","1024"
"95","95","445","445","black","psycho","psycho","psycho","incongruent","1","undefined","1","h","23","0","0","0","23","0","23","0","23","0","0","0","23","23","23","23","Sun Sep 24 19:51:03 2023","1500","The main experiment item","True","Flankertask.osexp","/Users/xaleyelyse/Desktop","False","mono","False","18","no","white","no","yes","768","psycho","23","23","/Users/xaleyelyse/Desktop/xw-subject-3.csv","psycho","Melodramatic Milgram","4.0.5","0","h","NA","h","NA","NA","h","439.208708005026","NA","8173.212470021099","NA","NA","439.208708005026","2","psycho","1024","2","48000","-16","experiment","SSHSS","3","odd","52356.40974101261","15618.847259000177","NA","NA","20977.953580004396","7384.4972450169735","NA","NA","53408.28610499739","7423.595639993437","NA","NA","53516.78915999946","53958.24973800336","53397.45493500959","53516.361920017516","Flanker task","23","10689.343292935519","24","1024"
"96","96","443","443","black","psycho","psycho","psycho","congruent","1","undefined","1","s","24","0","0","0","24","0","24","0","24","0","0","0","24","24","24","24","Sun Sep 24 19:51:03 2023","1500","The main experiment item","True","Flankertask.osexp","/Users/xaleyelyse/Desktop","False","mono","False","18","no","white","no","yes","768","psycho","24","24","/Users/xaleyelyse/Desktop/xw-subject-3.csv","psycho","Melodramatic Milgram","4.0.5","0","s","NA","h","NA","NA","s","391.0517859912943","NA","8173.212470021099","NA","NA","391.0517859912943","2","psycho","1024","2","48000","-16","experiment","SSSSS","3","odd","53967.260158009594","15618.847259000177","NA","NA","20977.953580004396","7384.4972450169735","NA","NA","55017.33448501909","7423.595639993437","NA","NA","55126.08704101876","55519.492702995194","55006.69392099371","55125.67386199953","Flanker task","24","11080.395078926813","25","1024"
"96","96","442","442","black","psycho","psycho","psycho","congruent","1","undefined","1","h","25","0","0","0","25","0","25","0","25","0","0","0","25","25","25","25","Sun Sep 24 19:51:03 2023","1500","The main experiment item","True","Flankertask.osexp","/Users/xaleyelyse/Desktop","False","mono","False","18","no","white","no","yes","768","psycho","25","25","/Users/xaleyelyse/Desktop/xw-subject-3.csv","psycho","Melodramatic Milgram","4.0.5","0","h","NA","h","NA","NA","h","414.9973570019938","NA","8173.212470021099","NA","NA","414.9973570019938","2","psycho","1024","2","48000","-16","experiment","HHHHH","3","odd","55525.31664201524","15618.847259000177","NA","NA","20977.953580004396","7384.4972450169735","NA","NA","56592.54058302031","7423.595639993437","NA","NA","56701.85262200539","57119.239655003184","56576.298931002384","56701.41958701424","Flanker task","25","11495.392435928807","26","1024"
"96","96","444","444","black","psycho","psycho","psycho","incongruent","1","undefined","1","h","26","0","0","0","26","0","26","0","26","0","0","0","26","26","26","26","Sun Sep 24 19:51:03 2023","1500","The main experiment item","True","Flankertask.osexp","/Users/xaleyelyse/Desktop","False","mono","False","18","no","white","no","yes","768","psycho","26","26","/Users/xaleyelyse/Desktop/xw-subject-3.csv","psycho","Melodramatic Milgram","4.0.5","0","h","NA","h","NA","NA","h","497.7940690005198","NA","8173.212470021099","NA","NA","497.7940690005198","2","psycho","1024","2","48000","-16","experiment","SSHSS","3","odd","57124.87819700618","15618.847259000177","NA","NA","20977.953580004396","7384.4972450169735","NA","NA","58175.235088012414","7423.595639993437","NA","NA","58284.16547900997","58784.193718020106","58164.123816008214","58283.75919899554","Flanker task","26","11993.186504929326","27","1024"
"96","96","442","442","black","psycho","psycho","psycho","congruent","1","undefined","1","s","27","0","0","0","27","0","27","0","27","0","0","0","27","27","27","27","Sun Sep 24 19:51:03 2023","1500","The main experiment item","True","Flankertask.osexp","/Users/xaleyelyse/Desktop","False","mono","False","18","no","white","no","yes","768","psycho","27","27","/Users/xaleyelyse/Desktop/xw-subject-3.csv","psycho","Melodramatic Milgram","4.0.5","0","s","NA","h","NA","NA","s","403.3702249871567","NA","8173.212470021099","NA","NA","403.3702249871567","2","psycho","1024","2","48000","-16","experiment","SSSSS","3","odd","58789.990918012336","15618.847259000177","NA","NA","20977.953580004396","7384.4972450169735","NA","NA","59841.17232699646","7423.595639993437","NA","NA","59950.407479016576","60356.34848001064","59831.02765399963","59949.91621101508","Flanker task","27","12396.556729916483","28","1024"
"96","96","439","439","black","psycho","psycho","psycho","incongruent","1","undefined","1","h","28","0","0","0","28","0","28","0","28","0","0","0","28","28","28","28","Sun Sep 24 19:51:03 2023","1500","The main experiment item","True","Flankertask.osexp","/Users/xaleyelyse/Desktop","False","mono","False","18","no","white","no","yes","768","psycho","28","28","/Users/xaleyelyse/Desktop/xw-subject-3.csv","psycho","Melodramatic Milgram","4.0.5","0","h","NA","h","NA","NA","h","360.8264069771394","NA","8173.212470021099","NA","NA","360.8264069771394","2","psycho","1024","2","48000","-16","experiment","SSHSS","3","odd","60365.477807004936","15618.847259000177","NA","NA","20977.953580004396","7384.4972450169735","NA","NA","61415.953043993795","7423.595639993437","NA","NA","61525.01609001774","61888.08801799314","61405.23382902029","61524.598891992355","Flanker task","28","12757.383136893623","29","1024"
"96","96","437","437","black","psycho","psycho","psycho","congruent","1","undefined","1","h","29","0","0","0","29","0","29","0","29","0","0","0","29","29","29","29","Sun Sep 24 19:51:03 2023","1500","The main experiment item","True","Flankertask.osexp","/Users/xaleyelyse/Desktop","False","mono","False","18","no","white","no","yes","768","psycho","29","29","/Users/xaleyelyse/Desktop/xw-subject-3.csv","psycho","Melodramatic Milgram","4.0.5","0","h","NA","h","NA","NA","h","354.2910149844829","NA","8173.212470021099","NA","NA","354.2910149844829","2","psycho","1024","2","48000","-16","experiment","HHHHH","3","odd","61896.797796012834","15618.847259000177","NA","NA","20977.953580004396","7384.4972450169735","NA","NA","62948.86582301115","7423.595639993437","NA","NA","63057.16700400808","63413.67950499989","62937.801752006635","63054.6786240011","Flanker task","29","13111.674151878105","30","1024"
"96","96","434","434","black","psycho","psycho","psycho","incongruent","1","undefined","1","s","30","0","0","0","30","0","30","0","30","0","0","0","30","30","30","30","Sun Sep 24 19:51:03 2023","1500","The main experiment item","True","Flankertask.osexp","/Users/xaleyelyse/Desktop","False","mono","False","18","no","white","no","yes","768","psycho","30","30","/Users/xaleyelyse/Desktop/xw-subject-3.csv","psycho","Melodramatic Milgram","4.0.5","0","s","NA","h","NA","NA","s","346.3619199756067","NA","8173.212470021099","NA","NA","346.3619199756067","2","psycho","1024","2","48000","-16","experiment","HHSHH","3","odd","63425.40799101698","15618.847259000177","NA","NA","20977.953580004396","7384.4972450169735","NA","NA","64481.37613100698","7423.595639993437","NA","NA","64589.50061001815","64938.3293389983","64471.056367008714","64587.158804992214","Flanker task","30","13458.036071853712","31","1024"
"93","93","430","430","black","psycho","psycho","psycho","incongruent","0","undefined","0","s","31","0","0","0","31","0","31","0","31","0","0","0","31","31","31","31","Sun Sep 24 19:51:03 2023","1500","The main experiment item","True","Flankertask.osexp","/Users/xaleyelyse/Desktop","False","mono","False","18","no","white","no","yes","768","psycho","31","31","/Users/xaleyelyse/Desktop/xw-subject-3.csv","psycho","Melodramatic Milgram","4.0.5","0","h","NA","h","NA","NA","h","303.25620700023137","NA","8173.212470021099","NA","NA","303.25620700023137","2","psycho","1024","2","48000","-16","experiment","HHSHH","3","odd","64944.131715019466","15618.847259000177","NA","NA","20977.953580004396","7384.4972450169735","NA","NA","65996.52100700769","7423.595639993437","NA","NA","66105.19735701382","66410.95760601456","65985.46013201121","66104.85275299288","Flanker task","30","13761.292278853944","32","1024"
"93","93","432","432","black","psycho","psycho","psycho","incongruent","1","undefined","1","s","32","0","0","0","32","0","32","0","32","0","0","0","32","32","32","32","Sun Sep 24 19:51:03 2023","1500","The main experiment item","True","Flankertask.osexp","/Users/xaleyelyse/Desktop","False","mono","False","18","no","white","no","yes","768","psycho","32","32","/Users/xaleyelyse/Desktop/xw-subject-3.csv","psycho","Melodramatic Milgram","4.0.5","0","s","NA","h","NA","NA","s","516.3992599991616","NA","8173.212470021099","NA","NA","516.3992599991616","2","psycho","1024","2","48000","-16","experiment","HHSHH","3","odd","66926.57862202032","15618.847259000177","NA","NA","66417.25972099812","7384.4972450169735","NA","NA","67976.82518299553","7423.595639993437","NA","NA","68084.89316600026","68603.73161599273","67965.60727400356","68082.4216940091","Flanker task","31","14277.691538853105","33","1024"
"94","94","432","432","black","psycho","psycho","psycho","incongruent","1","undefined","1","s","33","0","0","0","33","0","33","0","33","0","0","0","33","33","33","33","Sun Sep 24 19:51:03 2023","1500","The main experiment item","True","Flankertask.osexp","/Users/xaleyelyse/Desktop","False","mono","False","18","no","white","no","yes","768","psycho","33","33","/Users/xaleyelyse/Desktop/xw-subject-3.csv","psycho","Melodramatic Milgram","4.0.5","0","s","NA","h","NA","NA","s","431.1163760139607","NA","8173.212470021099","NA","NA","431.1163760139607","2","psycho","1024","2","48000","-16","experiment","HHSHH","3","odd","68610.03043601522","15618.847259000177","NA","NA","66417.25972099812","7384.4972450169735","NA","NA","69664.83979401528","7423.595639993437","NA","NA","69774.38262599753","70207.92470601737","69653.38162999251","69773.8890380133","Flanker task","32","14708.807914867066","34","1024"
"94","94","431","431","black","psycho","psycho","psycho","incongruent","1","undefined","1","h","34","0","0","0","34","0","34","0","34","0","0","0","34","34","34","34","Sun Sep 24 19:51:03 2023","1500","The main experiment item","True","Flankertask.osexp","/Users/xaleyelyse/Desktop","False","mono","False","18","no","white","no","yes","768","psycho","34","34","/Users/xaleyelyse/Desktop/xw-subject-3.csv","psycho","Melodramatic Milgram","4.0.5","0","h","NA","h","NA","NA","h","392.27467399905436","NA","8173.212470021099","NA","NA","392.27467399905436","2","psycho","1024","2","48000","-16","experiment","SSHSS","3","odd","70214.40649300348","15618.847259000177","NA","NA","66417.25972099812","7384.4972450169735","NA","NA","71263.8947069936","7423.595639993437","NA","NA","71372.99788999371","71768.18801899208","71253.00552500994","71372.36189001123","Flanker task","33","15101.08258886612","35","1024"
"94","94","430","430","black","psycho","psycho","psycho","congruent","1","undefined","1","s","35","0","0","0","35","0","35","0","35","0","0","0","35","35","35","35","Sun Sep 24 19:51:03 2023","1500","The main experiment item","True","Flankertask.osexp","/Users/xaleyelyse/Desktop","False","mono","False","18","no","white","no","yes","768","psycho","35","35","/Users/xaleyelyse/Desktop/xw-subject-3.csv","psycho","Melodramatic Milgram","4.0.5","0","s","NA","h","NA","NA","s","399.89307802170515","NA","8173.212470021099","NA","NA","399.89307802170515","2","psycho","1024","2","48000","-16","experiment","SSSSS","3","odd","71774.32519799913","15618.847259000177","NA","NA","66417.25972099812","7384.4972450169735","NA","NA","72830.79549201648","7423.595639993437","NA","NA","72939.33454999933","73341.57455601962","72819.82930802042","72939.00318699889","Flanker task","34","15500.975666887825","36","1024"
"94","94","427","427","black","psycho","psycho","psycho","congruent","1","undefined","1","s","36","0","0","0","36","0","36","0","36","0","0","0","36","36","36","36","Sun Sep 24 19:51:03 2023","1500","The main experiment item","True","Flankertask.osexp","/Users/xaleyelyse/Desktop","False","mono","False","18","no","white","no","yes","768","psycho","36","36","/Users/xaleyelyse/Desktop/xw-subject-3.csv","psycho","Melodramatic Milgram","4.0.5","0","s","NA","h","NA","NA","s","320.46587602235377","NA","8173.212470021099","NA","NA","320.46587602235377","2","psycho","1024","2","48000","-16","experiment","SSSSS","3","odd","73347.56415901938","15618.847259000177","NA","NA","66417.25972099812","7384.4972450169735","NA","NA","74401.64433300379","7423.595639993437","NA","NA","74510.67295999383","74833.25352100655","74390.91752600507","74510.17171799322","Flanker task","35","15821.44154291018","37","1024"
"92","92","423","423","black","psycho","psycho","psycho","incongruent","0","undefined","0","s","37","0","0","0","37","0","37","0","37","0","0","0","37","37","37","37","Sun Sep 24 19:51:03 2023","1500","The main experiment item","True","Flankertask.osexp","/Users/xaleyelyse/Desktop","False","mono","False","18","no","white","no","yes","768","psycho","37","37","/Users/xaleyelyse/Desktop/xw-subject-3.csv","psycho","Melodramatic Milgram","4.0.5","0","h","NA","h","NA","NA","h","279.9944189900998","NA","8173.212470021099","NA","NA","279.9944189900998","2","psycho","1024","2","48000","-16","experiment","HHSHH","3","odd","74839.4353390031","15618.847259000177","NA","NA","66417.25972099812","7384.4972450169735","NA","NA","75890.26933402056","7423.595639993437","NA","NA","75998.87311601196","76281.25849101343","75879.60674901842","75998.48799500614","Flanker task","35","16101.435961900279","38","1024"
"92","92","421","421","black","psycho","psycho","psycho","congruent","1","undefined","1","s","38","0","0","0","38","0","38","0","38","0","0","0","38","38","38","38","Sun Sep 24 19:51:03 2023","1500","The main experiment item","True","Flankertask.osexp","/Users/xaleyelyse/Desktop","False","mono","False","18","no","white","no","yes","768","psycho","38","38","/Users/xaleyelyse/Desktop/xw-subject-3.csv","psycho","Melodramatic Milgram","4.0.5","0","s","NA","h","NA","NA","s","342.7140839921776","NA","8173.212470021099","NA","NA","342.7140839921776","2","psycho","1024","2","48000","-16","experiment","SSSSS","3","odd","76801.74794001505","15618.847259000177","NA","NA","76293.18319499725","7384.4972450169735","NA","NA","77849.09105100087","7423.595639993437","NA","NA","77955.20487200702","78300.23229200742","77841.76649700385","77953.96801299648","Flanker task","36","16444.150045892457","39","1024"
"92","92","421","421","black","psycho","psycho","psycho","incongruent","1","undefined","1","h","39","0","0","0","39","0","39","0","39","0","0","0","39","39","39","39","Sun Sep 24 19:51:03 2023","1500","The main experiment item","True","Flankertask.osexp","/Users/xaleyelyse/Desktop","False","mono","False","18","no","white","no","yes","768","psycho","39","39","/Users/xaleyelyse/Desktop/xw-subject-3.csv","psycho","Melodramatic Milgram","4.0.5","0","h","NA","h","NA","NA","h","435.2688439830672","NA","8173.212470021099","NA","NA","435.2688439830672","2","psycho","1024","2","48000","-16","experiment","SSHSS","3","odd","78306.07149100979","15618.847259000177","NA","NA","76293.18319499725","7384.4972450169735","NA","NA","79356.67308801203","7423.595639993437","NA","NA","79465.83425201243","79903.1295220193","79346.35705201072","79465.06885401323","Flanker task","37","16879.418889875524","40","1024"
"92","92","424","424","black","psycho","psycho","psycho","incongruent","1","undefined","1","s","40","0","0","0","40","0","40","0","40","0","0","0","40","40","40","40","Sun Sep 24 19:51:03 2023","1500","The main experiment item","True","Flankertask.osexp","/Users/xaleyelyse/Desktop","False","mono","False","18","no","white","no","yes","768","psycho","40","40","/Users/xaleyelyse/Desktop/xw-subject-3.csv","psycho","Melodramatic Milgram","4.0.5","0","s","NA","h","NA","NA","s","525.4104009945877","NA","8173.212470021099","NA","NA","525.4104009945877","2","psycho","1024","2","48000","-16","experiment","HHSHH","3","odd","79909.02098600054","15618.847259000177","NA","NA","76293.18319499725","7384.4972450169735","NA","NA","80960.28204300092","7423.595639993437","NA","NA","81068.62442201236","81596.68019399396","80949.55486099934","81065.80731601571","Flanker task","38","17404.82929087011","41","1024"
"92","92","423","423","black","psycho","psycho","psycho","congruent","1","undefined","1","h","41","0","0","0","41","0","41","0","41","0","0","0","41","41","41","41","Sun Sep 24 19:51:03 2023","1500","The main experiment item","True","Flankertask.osexp","/Users/xaleyelyse/Desktop","False","mono","False","18","no","white","no","yes","768","psycho","41","41","/Users/xaleyelyse/Desktop/xw-subject-3.csv","psycho","Melodramatic Milgram","4.0.5","0","h","NA","h","NA","NA","h","389.68443000339903","NA","8173.212470021099","NA","NA","389.68443000339903","2","psycho","1024","2","48000","-16","experiment","HHHHH","3","odd","81608.77032802091","15618.847259000177","NA","NA","76293.18319499725","7384.4972450169735","NA","NA","82658.20458999951","7423.595639993437","NA","NA","82766.46183000412","83158.52172899758","82647.72301199264","82764.09422201687","Flanker task","39","17794.51372087351","42","1024"
"93","93","423","423","black","psycho","psycho","psycho","congruent","1","undefined","1","h","42","0","0","0","42","0","42","0","42","0","0","0","42","42","42","42","Sun Sep 24 19:51:03 2023","1500","The main experiment item","True","Flankertask.osexp","/Users/xaleyelyse/Desktop","False","mono","False","18","no","white","no","yes","768","psycho","42","42","/Users/xaleyelyse/Desktop/xw-subject-3.csv","psycho","Melodramatic Milgram","4.0.5","0","h","NA","h","NA","NA","h","421.33116599870846","NA","8173.212470021099","NA","NA","421.33116599870846","2","psycho","1024","2","48000","-16","experiment","HHHHH","3","odd","83165.22425599396","15618.847259000177","NA","NA","76293.18319499725","7384.4972450169735","NA","NA","84215.85276600672","7423.595639993437","NA","NA","84324.2023519997","84747.61598501937","84205.04111700575","84321.78377400851","Flanker task","40","18215.84488687222","43","1024"
"93","93","426","426","black","psycho","psycho","psycho","incongruent","1","undefined","1","h","43","0","0","0","43","0","43","0","43","0","0","0","43","43","43","43","Sun Sep 24 19:51:03 2023","1500","The main experiment item","True","Flankertask.osexp","/Users/xaleyelyse/Desktop","False","mono","False","18","no","white","no","yes","768","psycho","43","43","/Users/xaleyelyse/Desktop/xw-subject-3.csv","psycho","Melodramatic Milgram","4.0.5","0","h","NA","h","NA","NA","h","534.5732570276596","NA","8173.212470021099","NA","NA","534.5732570276596","2","psycho","1024","2","48000","-16","experiment","SSHSS","3","odd","84758.91944399336","15618.847259000177","NA","NA","76293.18319499725","7384.4972450169735","NA","NA","85811.86001500464","7423.595639993437","NA","NA","85921.08774799271","86457.76306299376","85800.60420799418","85920.67456399673","Flanker task","41","18750.41814389988","44","1024"
"93","93","425","425","black","psycho","psycho","psycho","incongruent","1","undefined","1","s","44","0","0","0","44","0","44","0","44","0","0","0","44","44","44","44","Sun Sep 24 19:51:03 2023","1500","The main experiment item","True","Flankertask.osexp","/Users/xaleyelyse/Desktop","False","mono","False","18","no","white","no","yes","768","psycho","44","44","/Users/xaleyelyse/Desktop/xw-subject-3.csv","psycho","Melodramatic Milgram","4.0.5","0","s","NA","h","NA","NA","s","406.5143259940669","NA","8173.212470021099","NA","NA","406.5143259940669","2","psycho","1024","2","48000","-16","experiment","HHSHH","3","odd","86463.54447299382","15618.847259000177","NA","NA","76293.18319499725","7384.4972450169735","NA","NA","87515.32787401811","7423.595639993437","NA","NA","87625.24101301096","88034.01243701228","87504.3647440034","87622.99023001106","Flanker task","42","19156.932469893945","45","1024"
"93","93","426","426","black","psycho","psycho","psycho","incongruent","1","undefined","1","h","45","0","0","0","45","0","45","0","45","0","0","0","45","45","45","45","Sun Sep 24 19:51:03 2023","1500","The main experiment item","True","Flankertask.osexp","/Users/xaleyelyse/Desktop","False","mono","False","18","no","white","no","yes","768","psycho","45","45","/Users/xaleyelyse/Desktop/xw-subject-3.csv","psycho","Melodramatic Milgram","4.0.5","0","h","NA","h","NA","NA","h","440.14584901742637","NA","8173.212470021099","NA","NA","440.14584901742637","2","psycho","1024","2","48000","-16","experiment","SSHSS","3","odd","88040.11093999725","15618.847259000177","NA","NA","76293.18319499725","7384.4972450169735","NA","NA","89092.24094400997","7423.595639993437","NA","NA","89200.26924999547","89642.5941970083","89081.50977100013","89197.68747600028","Flanker task","43","19597.07831891137","46","1024"
"93","93","426","426","black","psycho","psycho","psycho","incongruent","1","undefined","1","s","46","0","0","0","46","0","46","0","46","0","0","0","46","46","46","46","Sun Sep 24 19:51:03 2023","1500","The main experiment item","True","Flankertask.osexp","/Users/xaleyelyse/Desktop","False","mono","False","18","no","white","no","yes","768","psycho","46","46","/Users/xaleyelyse/Desktop/xw-subject-3.csv","psycho","Melodramatic Milgram","4.0.5","0","s","NA","h","NA","NA","s","442.3444650019519","NA","8173.212470021099","NA","NA","442.3444650019519","2","psycho","1024","2","48000","-16","experiment","HHSHH","3","odd","89648.24398400378","15618.847259000177","NA","NA","76293.18319499725","7384.4972450169735","NA","NA","90706.07754102093","7423.595639993437","NA","NA","90816.25028699636","91260.90443501016","90691.43357200664","90815.74388599256","Flanker task","44","20039.422783913324","47","1024"
"93","93","426","426","black","psycho","psycho","psycho","incongruent","1","undefined","1","s","47","0","0","0","47","0","47","0","47","0","0","0","47","47","47","47","Sun Sep 24 19:51:03 2023","1500","The main experiment item","True","Flankertask.osexp","/Users/xaleyelyse/Desktop","False","mono","False","18","no","white","no","yes","768","psycho","47","47","/Users/xaleyelyse/Desktop/xw-subject-3.csv","psycho","Melodramatic Milgram","4.0.5","0","s","NA","h","NA","NA","s","436.2841389956884","NA","8173.212470021099","NA","NA","436.2841389956884","2","psycho","1024","2","48000","-16","experiment","HHSHH","3","odd","91266.93187199999","15618.847259000177","NA","NA","76293.18319499725","7384.4972450169735","NA","NA","92319.07632600632","7423.595639993437","NA","NA","92427.15834401315","92865.78518600436","92308.51180801983","92424.60579200997","Flanker task","45","20475.706922909012","48","1024"
"93","93","426","426","black","psycho","psycho","psycho","incongruent","1","undefined","1","s","48","0","0","0","48","0","48","0","48","0","0","0","48","48","48","48","Sun Sep 24 19:51:03 2023","1500","The main experiment item","True","Flankertask.osexp","/Users/xaleyelyse/Desktop","False","mono","False","18","no","white","no","yes","768","psycho","48","48","/Users/xaleyelyse/Desktop/xw-subject-3.csv","psycho","Melodramatic Milgram","4.0.5","0","s","NA","h","NA","NA","s","442.0510370109696","NA","8173.212470021099","NA","NA","442.0510370109696","2","psycho","1024","2","48000","-16","experiment","HHSHH","3","odd","92871.94846599596","15618.847259000177","NA","NA","76293.18319499725","7384.4972450169735","NA","NA","93921.85755301034","7423.595639993437","NA","NA","94030.97077700659","94475.37789400667","93911.14069201285","94030.47651800443","Flanker task","46","20917.75795991998","49","1024"
"94","94","425","425","black","psycho","psycho","psycho","incongruent","1","undefined","1","s","49","0","0","0","49","0","49","0","49","0","0","0","49","49","49","49","Sun Sep 24 19:51:03 2023","1500","The main experiment item","True","Flankertask.osexp","/Users/xaleyelyse/Desktop","False","mono","False","18","no","white","no","yes","768","psycho","49","49","/Users/xaleyelyse/Desktop/xw-subject-3.csv","psycho","Melodramatic Milgram","4.0.5","0","s","NA","h","NA","NA","s","354.9820429761894","NA","8173.212470021099","NA","NA","354.9820429761894","2","psycho","1024","2","48000","-16","experiment","HHSHH","3","odd","94480.84538400872","15618.847259000177","NA","NA","76293.18319499725","7384.4972450169735","NA","NA","95531.3051440171","7423.595639993437","NA","NA","95640.28505102033","95997.58682301035","95520.9045560041","95639.79423901765","Flanker task","47","21272.74000289617","50","1024"
"94","94","429","429","black","psycho","psycho","psycho","congruent","1","undefined","1","s","50","0","0","0","50","0","50","0","50","0","0","0","50","50","50","50","Sun Sep 24 19:51:03 2023","1500","The main experiment item","True","Flankertask.osexp","/Users/xaleyelyse/Desktop","False","mono","False","18","no","white","no","yes","768","psycho","50","50","/Users/xaleyelyse/Desktop/xw-subject-3.csv","psycho","Melodramatic Milgram","4.0.5","0","s","NA","h","NA","NA","s","610.3928250086028","NA","8173.212470021099","NA","NA","610.3928250086028","2","psycho","1024","2","48000","-16","experiment","SSSSS","3","odd","96008.35486501455","15618.847259000177","NA","NA","76293.18319499725","7384.4972450169735","NA","NA","97058.33578199963","7423.595639993437","NA","NA","97167.75298799621","97780.8022859972","97046.82292201323","97167.23619701224","Flanker task","48","21883.132827904774","51","1024"
"94","94","427","427","black","psycho","psycho","psycho","incongruent","1","undefined","1","s","51","0","0","0","51","0","51","0","51","0","0","0","51","51","51","51","Sun Sep 24 19:51:03 2023","1500","The main experiment item","True","Flankertask.osexp","/Users/xaleyelyse/Desktop","False","mono","False","18","no","white","no","yes","768","psycho","51","51","/Users/xaleyelyse/Desktop/xw-subject-3.csv","psycho","Melodramatic Milgram","4.0.5","0","s","NA","h","NA","NA","s","366.77523801336065","NA","8173.212470021099","NA","NA","366.77523801336065","2","psycho","1024","2","48000","-16","experiment","HHSHH","3","odd","97791.50317099993","15618.847259000177","NA","NA","76293.18319499725","7384.4972450169735","NA","NA","98845.15657401062","7423.595639993437","NA","NA","98953.20761000039","99322.2224090132","98834.94759901077","98950.75940899551","Flanker task","49","22249.908065918135","52","1024"
"94","94","429","429","black","psycho","psycho","psycho","congruent","1","undefined","1","s","52","0","0","0","52","0","52","0","52","0","0","0","52","52","52","52","Sun Sep 24 19:51:03 2023","1500","The main experiment item","True","Flankertask.osexp","/Users/xaleyelyse/Desktop","False","mono","False","18","no","white","no","yes","768","psycho","52","52","/Users/xaleyelyse/Desktop/xw-subject-3.csv","psycho","Melodramatic Milgram","4.0.5","0","s","NA","h","NA","NA","s","518.6271200072952","NA","8173.212470021099","NA","NA","518.6271200072952","2","psycho","1024","2","48000","-16","experiment","SSSSS","3","odd","99328.1630090205","15618.847259000177","NA","NA","76293.18319499725","7384.4972450169735","NA","NA","100388.60387899331","7423.595639993437","NA","NA","100497.34125999385","101018.34155901452","100377.63479101704","100496.94001799799","Flanker task","50","22768.53518592543","53","1024"
"94","94","429","429","black","psycho","psycho","psycho","incongruent","1","undefined","1","h","53","0","0","0","53","0","53","0","53","0","0","0","53","53","53","53","Sun Sep 24 19:51:03 2023","1500","The main experiment item","True","Flankertask.osexp","/Users/xaleyelyse/Desktop","False","mono","False","18","no","white","no","yes","768","psycho","53","53","/Users/xaleyelyse/Desktop/xw-subject-3.csv","psycho","Melodramatic Milgram","4.0.5","0","h","NA","h","NA","NA","h","421.73945301328786","NA","8173.212470021099","NA","NA","421.73945301328786","2","psycho","1024","2","48000","-16","experiment","SSHSS","3","odd","101024.51210800791","15618.847259000177","NA","NA","76293.18319499725","7384.4972450169735","NA","NA","102075.579182012","7423.595639993437","NA","NA","102184.24434799817","102608.183844015","102064.7518960177","102183.82737599313","Flanker task","51","23190.274638938718","54","1024"
"94","94","428","428","black","psycho","psycho","psycho","congruent","1","undefined","1","h","54","0","0","0","54","0","54","0","54","0","0","0","54","54","54","54","Sun Sep 24 19:51:03 2023","1500","The main experiment item","True","Flankertask.osexp","/Users/xaleyelyse/Desktop","False","mono","False","18","no","white","no","yes","768","psycho","54","54","/Users/xaleyelyse/Desktop/xw-subject-3.csv","psycho","Melodramatic Milgram","4.0.5","0","h","NA","h","NA","NA","h","394.03846199274994","NA","8173.212470021099","NA","NA","394.03846199274994","2","psycho","1024","2","48000","-16","experiment","HHHHH","3","odd","102614.11008500727","15618.847259000177","NA","NA","76293.18319499725","7384.4972450169735","NA","NA","103672.7496960084","7423.595639993437","NA","NA","103780.90876201168","104177.83418801264","103658.47051300807","103778.37681901292","Flanker task","52","23584.313100931467","55","1024"
"94","94","430","430","black","psycho","psycho","psycho","congruent","1","undefined","1","h","55","0","0","0","55","0","55","0","55","0","0","0","55","55","55","55","Sun Sep 24 19:51:03 2023","1500","The main experiment item","True","Flankertask.osexp","/Users/xaleyelyse/Desktop","False","mono","False","18","no","white","no","yes","768","psycho","55","55","/Users/xaleyelyse/Desktop/xw-subject-3.csv","psycho","Melodramatic Milgram","4.0.5","0","h","NA","h","NA","NA","h","549.2657389841042","NA","8173.212470021099","NA","NA","549.2657389841042","2","psycho","1024","2","48000","-16","experiment","HHHHH","3","odd","104184.34984001215","15618.847259000177","NA","NA","76293.18319499725","7384.4972450169735","NA","NA","105233.82769001182","7423.595639993437","NA","NA","105342.57885601255","105894.01210800861","105223.64455999923","105340.14370801742","Flanker task","53","24133.57883991557","56","1024"
"94","94","431","431","black","psycho","psycho","psycho","congruent","1","undefined","1","h","56","0","0","0","56","0","56","0","56","0","0","0","56","56","56","56","Sun Sep 24 19:51:03 2023","1500","The main experiment item","True","Flankertask.osexp","/Users/xaleyelyse/Desktop","False","mono","False","18","no","white","no","yes","768","psycho","56","56","/Users/xaleyelyse/Desktop/xw-subject-3.csv","psycho","Melodramatic Milgram","4.0.5","0","h","NA","h","NA","NA","h","455.64069401007146","NA","8173.212470021099","NA","NA","455.64069401007146","2","psycho","1024","2","48000","-16","experiment","HHHHH","3","odd","105900.31987000839","15618.847259000177","NA","NA","76293.18319499725","7384.4972450169735","NA","NA","106955.43568601715","7423.595639993437","NA","NA","107064.04343000031","107521.84760701493","106944.80602399562","107063.55123600224","Flanker task","54","24589.219533925643","57","1024"
"94","94","430","430","black","psycho","psycho","psycho","congruent","1","undefined","1","h","57","0","0","0","57","0","57","0","57","0","0","0","57","57","57","57","Sun Sep 24 19:51:03 2023","1500","The main experiment item","True","Flankertask.osexp","/Users/xaleyelyse/Desktop","False","mono","False","18","no","white","no","yes","768","psycho","57","57","/Users/xaleyelyse/Desktop/xw-subject-3.csv","psycho","Melodramatic Milgram","4.0.5","0","h","NA","h","NA","NA","h","352.49973298050463","NA","8173.212470021099","NA","NA","352.49973298050463","2","psycho","1024","2","48000","-16","experiment","HHHHH","3","odd","107530.3388320026","15618.847259000177","NA","NA","76293.18319499725","7384.4972450169735","NA","NA","108581.49002300343","7423.595639993437","NA","NA","108690.21517201327","109045.01419901499","108571.39168999856","108689.80374399689","Flanker task","55","24941.719266906148","58","1024"
"94","94","429","429","black","psycho","psycho","psycho","congruent","1","undefined","1","s","58","0","0","0","58","0","58","0","58","0","0","0","58","58","58","58","Sun Sep 24 19:51:03 2023","1500","The main experiment item","True","Flankertask.osexp","/Users/xaleyelyse/Desktop","False","mono","False","18","no","white","no","yes","768","psycho","58","58","/Users/xaleyelyse/Desktop/xw-subject-3.csv","psycho","Melodramatic Milgram","4.0.5","0","s","NA","h","NA","NA","s","395.01275902148336","NA","8173.212470021099","NA","NA","395.01275902148336","2","psycho","1024","2","48000","-16","experiment","SSSSS","3","odd","109051.12531999475","15618.847259000177","NA","NA","76293.18319499725","7384.4972450169735","NA","NA","110104.47313301847","7423.595639993437","NA","NA","110212.45586799341","110610.35143700428","110093.20674900664","110210.0228650088","Flanker task","56","25336.73202592763","59","1024"
"95","95","429","429","black","psycho","psycho","psycho","incongruent","1","undefined","1","h","59","0","0","0","59","0","59","0","59","0","0","0","59","59","59","59","Sun Sep 24 19:51:03 2023","1500","The main experiment item","True","Flankertask.osexp","/Users/xaleyelyse/Desktop","False","mono","False","18","no","white","no","yes","768","psycho","59","59","/Users/xaleyelyse/Desktop/xw-subject-3.csv","psycho","Melodramatic Milgram","4.0.5","0","h","NA","h","NA","NA","h","446.8836640007794","NA","8173.212470021099","NA","NA","446.8836640007794","2","psycho","1024","2","48000","-16","experiment","SSHSS","3","odd","110617.62332601938","15618.847259000177","NA","NA","76293.18319499725","7384.4972450169735","NA","NA","111667.94334500446","7423.595639993437","NA","NA","111776.38768500765","112225.96043700469","111656.8158309965","111775.97848000005","Flanker task","57","25783.61568992841","60","1024"
"95","95","428","428","black","psycho","psycho","psycho","congruent","1","undefined","1","s","60","0","0","0","60","0","60","0","60","0","0","0","60","60","60","60","Sun Sep 24 19:51:03 2023","1500","The main experiment item","True","Flankertask.osexp","/Users/xaleyelyse/Desktop","False","mono","False","18","no","white","no","yes","768","psycho","60","60","/Users/xaleyelyse/Desktop/xw-subject-3.csv","psycho","Melodramatic Milgram","4.0.5","0","s","NA","h","NA","NA","s","373.5552820144221","NA","8173.212470021099","NA","NA","373.5552820144221","2","psycho","1024","2","48000","-16","experiment","SSSSS","3","odd","112232.34291400877","15618.847259000177","NA","NA","76293.18319499725","7384.4972450169735","NA","NA","113294.70687100547","7423.595639993437","NA","NA","113403.23852599249","113779.11221401882","113282.36140601803","113400.27777801151","Flanker task","58","26157.170971942833","61","1024"
"95","95","427","427","black","psycho","psycho","psycho","congruent","1","undefined","1","h","61","0","0","0","61","0","61","0","61","0","0","0","61","61","61","61","Sun Sep 24 19:51:03 2023","1500","The main experiment item","True","Flankertask.osexp","/Users/xaleyelyse/Desktop","False","mono","False","18","no","white","no","yes","768","psycho","61","61","/Users/xaleyelyse/Desktop/xw-subject-3.csv","psycho","Melodramatic Milgram","4.0.5","0","h","NA","h","NA","NA","h","354.1287870029919","NA","8173.212470021099","NA","NA","354.1287870029919","2","psycho","1024","2","48000","-16","experiment","HHHHH","3","odd","113790.87651000009","15618.847259000177","NA","NA","76293.18319499725","7384.4972450169735","NA","NA","114843.42126801494","7423.595639993437","NA","NA","114952.31679300196","115308.80411999533","114831.99045801302","114951.85595101793","Flanker task","59","26511.299758945825","62","1024"
"95","95","427","427","black","psycho","psycho","psycho","congruent","1","undefined","1","h","62","0","0","0","62","0","62","0","62","0","0","0","62","62","62","62","Sun Sep 24 19:51:03 2023","1500","The main experiment item","True","Flankertask.osexp","/Users/xaleyelyse/Desktop","False","mono","False","18","no","white","no","yes","768","psycho","62","62","/Users/xaleyelyse/Desktop/xw-subject-3.csv","psycho","Melodramatic Milgram","4.0.5","0","h","NA","h","NA","NA","h","396.5187619905919","NA","8173.212470021099","NA","NA","396.5187619905919","2","psycho","1024","2","48000","-16","experiment","HHHHH","3","odd","115315.71392001933","15618.847259000177","NA","NA","76293.18319499725","7384.4972450169735","NA","NA","116365.7623300096","7423.595639993437","NA","NA","116474.01991300285","116872.63124101446","116355.48031501821","116471.60118600004","Flanker task","60","26907.818520936416","63","1024"
"95","95","426","426","black","psycho","psycho","psycho","congruent","1","undefined","1","h","63","0","0","0","63","0","63","0","63","0","0","0","63","63","63","63","Sun Sep 24 19:51:03 2023","1500","The main experiment item","True","Flankertask.osexp","/Users/xaleyelyse/Desktop","False","mono","False","18","no","white","no","yes","768","psycho","63","63","/Users/xaleyelyse/Desktop/xw-subject-3.csv","psycho","Melodramatic Milgram","4.0.5","0","h","NA","h","NA","NA","h","370.80630499986","NA","8173.212470021099","NA","NA","370.80630499986","2","psycho","1024","2","48000","-16","experiment","HHHHH","3","odd","116881.25878799474","15618.847259000177","NA","NA","76293.18319499725","7384.4972450169735","NA","NA","117930.80433201976","7423.595639993437","NA","NA","118039.61889701895","118412.64700700413","117920.09992100066","118039.1280540207","Flanker task","61","27278.624825936276","64","1024"
"95","95","427","427","black","psycho","psycho","psycho","incongruent","1","undefined","1","h","64","0","0","0","64","0","64","0","64","0","0","0","64","64","64","64","Sun Sep 24 19:51:03 2023","1500","The main experiment item","True","Flankertask.osexp","/Users/xaleyelyse/Desktop","False","mono","False","18","no","white","no","yes","768","psycho","64","64","/Users/xaleyelyse/Desktop/xw-subject-3.csv","psycho","Melodramatic Milgram","4.0.5","0","h","NA","h","NA","NA","h","529.194369999459","NA","8173.212470021099","NA","NA","529.194369999459","2","psycho","1024","2","48000","-16","experiment","SSHSS","3","odd","118424.48619799688","15618.847259000177","NA","NA","76293.18319499725","7384.4972450169735","NA","NA","119476.36528400471","7423.595639993437","NA","NA","119585.972624016","120117.83988500247","119465.67600700655","119585.42800700525","Flanker task","62","27807.819195935735","65","1024"
"95","95","428","428","black","psycho","psycho","psycho","congruent","1","undefined","1","s","65","0","0","0","65","0","65","0","65","0","0","0","65","65","65","65","Sun Sep 24 19:51:03 2023","1500","The main experiment item","True","Flankertask.osexp","/Users/xaleyelyse/Desktop","False","mono","False","18","no","white","no","yes","768","psycho","65","65","/Users/xaleyelyse/Desktop/xw-subject-3.csv","psycho","Melodramatic Milgram","4.0.5","0","s","NA","h","NA","NA","s","454.97407199582085","NA","8173.212470021099","NA","NA","454.97407199582085","2","psycho","1024","2","48000","-16","experiment","SSSSS","3","odd","120141.29070099443","15618.847259000177","NA","NA","76293.18319499725","7384.4972450169735","NA","NA","121196.61764599732","7423.595639993437","NA","NA","121306.12985600601","121763.23262602091","121188.33376700059","121305.627291993","Flanker task","63","28262.793267931556","66","1024"
"95","95","430","430","black","psycho","psycho","psycho","congruent","1","undefined","1","h","66","0","0","0","66","0","66","0","66","0","0","0","66","66","66","66","Sun Sep 24 19:51:03 2023","1500","The main experiment item","True","Flankertask.osexp","/Users/xaleyelyse/Desktop","False","mono","False","18","no","white","no","yes","768","psycho","66","66","/Users/xaleyelyse/Desktop/xw-subject-3.csv","psycho","Melodramatic Milgram","4.0.5","0","h","NA","h","NA","NA","h","610.6964950158726","NA","8173.212470021099","NA","NA","610.6964950158726","2","psycho","1024","2","48000","-16","experiment","HHHHH","3","odd","121774.49555299245","15618.847259000177","NA","NA","76293.18319499725","7384.4972450169735","NA","NA","122831.57274400583","7423.595639993437","NA","NA","122940.34651000402","123553.67063701851","122820.749127015","122939.97593701351","Flanker task","64","28873.48976294743","67","1024"
"95","95","430","430","black","psycho","psycho","psycho","congruent","1","undefined","1","s","67","0","0","0","67","0","67","0","67","0","0","0","67","67","67","67","Sun Sep 24 19:51:03 2023","1500","The main experiment item","True","Flankertask.osexp","/Users/xaleyelyse/Desktop","False","mono","False","18","no","white","no","yes","768","psycho","67","67","/Users/xaleyelyse/Desktop/xw-subject-3.csv","psycho","Melodramatic Milgram","4.0.5","0","s","NA","h","NA","NA","s","415.2047839888837","NA","8173.212470021099","NA","NA","415.2047839888837","2","psycho","1024","2","48000","-16","experiment","SSSSS","3","odd","123559.94417201146","15618.847259000177","NA","NA","76293.18319499725","7384.4972450169735","NA","NA","124617.23499701475","7423.595639993437","NA","NA","124725.79596101423","125143.21093901526","124606.04484399664","124725.24086901103","Flanker task","65","29288.694546936313","68","1024"
"95","95","430","430","black","psycho","psycho","psycho","incongruent","1","undefined","1","h","68","0","0","0","68","0","68","0","68","0","0","0","68","68","68","68","Sun Sep 24 19:51:03 2023","1500","The main experiment item","True","Flankertask.osexp","/Users/xaleyelyse/Desktop","False","mono","False","18","no","white","no","yes","768","psycho","68","68","/Users/xaleyelyse/Desktop/xw-subject-3.csv","psycho","Melodramatic Milgram","4.0.5","0","h","NA","h","NA","NA","h","428.3551099942997","NA","8173.212470021099","NA","NA","428.3551099942997","2","psycho","1024","2","48000","-16","experiment","SSHSS","3","odd","125149.00860202033","15618.847259000177","NA","NA","76293.18319499725","7384.4972450169735","NA","NA","126198.31085801707","7423.595639993437","NA","NA","126307.66606400721","126738.30549101694","126188.03288601339","126305.37467301474","Flanker task","66","29717.049656930612","69","1024"
"95","95","431","431","black","psycho","psycho","psycho","incongruent","1","undefined","1","h","69","0","0","0","69","0","69","0","69","0","0","0","69","69","69","69","Sun Sep 24 19:51:03 2023","1500","The main experiment item","True","Flankertask.osexp","/Users/xaleyelyse/Desktop","False","mono","False","18","no","white","no","yes","768","psycho","69","69","/Users/xaleyelyse/Desktop/xw-subject-3.csv","psycho","Melodramatic Milgram","4.0.5","0","h","NA","h","NA","NA","h","454.3371530016884","NA","8173.212470021099","NA","NA","454.3371530016884","2","psycho","1024","2","48000","-16","experiment","SSHSS","3","odd","126746.97295101942","15618.847259000177","NA","NA","76293.18319499725","7384.4972450169735","NA","NA","127805.08159499732","7423.595639993437","NA","NA","127914.68000499299","128371.7907720129","127790.49201600719","127912.16570101096","Flanker task","67","30171.3868099323","70","1024"
"95","95","431","431","black","psycho","psycho","psycho","incongruent","1","undefined","1","s","70","0","0","0","70","0","70","0","70","0","0","0","70","70","70","70","Sun Sep 24 19:51:03 2023","1500","The main experiment item","True","Flankertask.osexp","/Users/xaleyelyse/Desktop","False","mono","False","18","no","white","no","yes","768","psycho","70","70","/Users/xaleyelyse/Desktop/xw-subject-3.csv","psycho","Melodramatic Milgram","4.0.5","0","s","NA","h","NA","NA","s","494.1672080021817","NA","8173.212470021099","NA","NA","494.1672080021817","2","psycho","1024","2","48000","-16","experiment","HHSHH","3","odd","128377.69392001792","15618.847259000177","NA","NA","76293.18319499725","7384.4972450169735","NA","NA","129426.89776502084","7423.595639993437","NA","NA","129536.43048400409","130032.92704399792","129416.69664200163","129533.71921100188","Flanker task","68","30665.554017934483","71","1024"
"95","95","431","431","black","psycho","psycho","psycho","congruent","1","undefined","1","h","71","0","0","0","71","0","71","0","71","0","0","0","71","71","71","71","Sun Sep 24 19:51:03 2023","1500","The main experiment item","True","Flankertask.osexp","/Users/xaleyelyse/Desktop","False","mono","False","18","no","white","no","yes","768","psycho","71","71","/Users/xaleyelyse/Desktop/xw-subject-3.csv","psycho","Melodramatic Milgram","4.0.5","0","h","NA","h","NA","NA","h","415.36307998467237","NA","8173.212470021099","NA","NA","415.36307998467237","2","psycho","1024","2","48000","-16","experiment","HHHHH","3","odd","130041.23278800398","15618.847259000177","NA","NA","76293.18319499725","7384.4972450169735","NA","NA","131092.27913900395","7423.595639993437","NA","NA","131201.26735101803","131618.93459100975","131082.0101640129","131200.83228099975","Flanker task","69","31080.917097919155","72","1024"
"95","95","432","432","black","psycho","psycho","psycho","congruent","1","undefined","1","h","72","0","0","0","72","0","72","0","72","0","0","0","72","72","72","72","Sun Sep 24 19:51:03 2023","1500","The main experiment item","True","Flankertask.osexp","/Users/xaleyelyse/Desktop","False","mono","False","18","no","white","no","yes","768","psycho","72","72","/Users/xaleyelyse/Desktop/xw-subject-3.csv","psycho","Melodramatic Milgram","4.0.5","0","h","NA","h","NA","NA","h","482.120592991123","NA","8173.212470021099","NA","NA","482.120592991123","2","psycho","1024","2","48000","-16","experiment","HHHHH","3","odd","131625.08849799633","15618.847259000177","NA","NA","76293.18319499725","7384.4972450169735","NA","NA","132678.45874401974","7423.595639993437","NA","NA","132788.6873820098","133273.47139600897","132671.21565900743","132786.2364909961","Flanker task","70","31563.037690910278","73","1024"
"95","95","432","432","black","psycho","psycho","psycho","congruent","1","undefined","1","h","73","0","0","0","73","0","73","0","73","0","0","0","73","73","73","73","Sun Sep 24 19:51:03 2023","1500","The main experiment item","True","Flankertask.osexp","/Users/xaleyelyse/Desktop","False","mono","False","18","no","white","no","yes","768","psycho","73","73","/Users/xaleyelyse/Desktop/xw-subject-3.csv","psycho","Melodramatic Milgram","4.0.5","0","h","NA","h","NA","NA","h","443.5680750175379","NA","8173.212470021099","NA","NA","443.5680750175379","2","psycho","1024","2","48000","-16","experiment","HHHHH","3","odd","133279.66255799402","15618.847259000177","NA","NA","76293.18319499725","7384.4972450169735","NA","NA","134338.90635400894","7423.595639993437","NA","NA","134447.35330800177","134893.2055030018","134324.139578006","134444.91535701673","Flanker task","71","32006.605765927816","74","1024"
"96","96","431","431","black","psycho","psycho","psycho","incongruent","1","undefined","1","s","74","0","0","0","74","0","74","0","74","0","0","0","74","74","74","74","Sun Sep 24 19:51:03 2023","1500","The main experiment item","True","Flankertask.osexp","/Users/xaleyelyse/Desktop","False","mono","False","18","no","white","no","yes","768","psycho","74","74","/Users/xaleyelyse/Desktop/xw-subject-3.csv","psycho","Melodramatic Milgram","4.0.5","0","s","NA","h","NA","NA","s","379.2174109839834","NA","8173.212470021099","NA","NA","379.2174109839834","2","psycho","1024","2","48000","-16","experiment","HHSHH","3","odd","134900.13584500412","15618.847259000177","NA","NA","76293.18319499725","7384.4972450169735","NA","NA","135951.92591901287","7423.595639993437","NA","NA","136061.2697690085","136442.78864801163","135942.29410099797","136060.63267900026","Flanker task","72","32385.8231769118","75","1024"
"96","96","432","432","black","psycho","psycho","psycho","incongruent","1","undefined","1","s","75","0","0","0","75","0","75","0","75","0","0","0","75","75","75","75","Sun Sep 24 19:51:03 2023","1500","The main experiment item","True","Flankertask.osexp","/Users/xaleyelyse/Desktop","False","mono","False","18","no","white","no","yes","768","psycho","75","75","/Users/xaleyelyse/Desktop/xw-subject-3.csv","psycho","Melodramatic Milgram","4.0.5","0","s","NA","h","NA","NA","s","471.5696960047353","NA","8173.212470021099","NA","NA","471.5696960047353","2","psycho","1024","2","48000","-16","experiment","HHSHH","3","odd","136448.52180301677","15618.847259000177","NA","NA","76293.18319499725","7384.4972450169735","NA","NA","137498.95580200246","7423.595639993437","NA","NA","137607.97362099402","138081.90012400155","137488.18747099722","137605.53472299944","Flanker task","73","32857.392872916535","76","1024"
"96","96","431","431","black","psycho","psycho","psycho","congruent","1","undefined","1","h","76","0","0","0","76","0","76","0","76","0","0","0","76","76","76","76","Sun Sep 24 19:51:03 2023","1500","The main experiment item","True","Flankertask.osexp","/Users/xaleyelyse/Desktop","False","mono","False","18","no","white","no","yes","768","psycho","76","76","/Users/xaleyelyse/Desktop/xw-subject-3.csv","psycho","Melodramatic Milgram","4.0.5","0","h","NA","h","NA","NA","h","354.9566970032174","NA","8173.212470021099","NA","NA","354.9566970032174","2","psycho","1024","2","48000","-16","experiment","HHHHH","3","odd","138087.73302301415","15618.847259000177","NA","NA","76293.18319499725","7384.4972450169735","NA","NA","139142.64820699464","7423.595639993437","NA","NA","139252.52756100963","139609.90549399867","139132.5563150167","139249.96860700776","Flanker task","74","33212.34956991975","77","1024"
"96","96","430","430","black","psycho","psycho","psycho","congruent","1","undefined","1","s","77","0","0","0","77","0","77","0","77","0","0","0","77","77","77","77","Sun Sep 24 19:51:03 2023","1500","The main experiment item","True","Flankertask.osexp","/Users/xaleyelyse/Desktop","False","mono","False","18","no","white","no","yes","768","psycho","77","77","/Users/xaleyelyse/Desktop/xw-subject-3.csv","psycho","Melodramatic Milgram","4.0.5","0","s","NA","h","NA","NA","s","376.24454899923876","NA","8173.212470021099","NA","NA","376.24454899923876","2","psycho","1024","2","48000","-16","experiment","SSSSS","3","odd","139616.12024100032","15618.847259000177","NA","NA","76293.18319499725","7384.4972450169735","NA","NA","140671.82029000833","7423.595639993437","NA","NA","140781.01694499492","141159.52696700697","140657.6421869977","140778.50810001837","Flanker task","75","33588.59411891899","78","1024"
"96","96","429","429","black","psycho","psycho","psycho","congruent","1","undefined","1","s","78","0","0","0","78","0","78","0","78","0","0","0","78","78","78","78","Sun Sep 24 19:51:03 2023","1500","The main experiment item","True","Flankertask.osexp","/Users/xaleyelyse/Desktop","False","mono","False","18","no","white","no","yes","768","psycho","78","78","/Users/xaleyelyse/Desktop/xw-subject-3.csv","psycho","Melodramatic Milgram","4.0.5","0","s","NA","h","NA","NA","s","345.21021001273766","NA","8173.212470021099","NA","NA","345.21021001273766","2","psycho","1024","2","48000","-16","experiment","SSSSS","3","odd","141165.2841489995","15618.847259000177","NA","NA","76293.18319499725","7384.4972450169735","NA","NA","142225.2740630065","7423.595639993437","NA","NA","142333.14093199442","142680.8016480063","142215.05162899848","142330.70807001786","Flanker task","76","33933.80432893173","79","1024"
"95","95","428","428","black","psycho","psycho","psycho","incongruent","0","undefined","0","s","79","0","0","0","79","0","79","0","79","0","0","0","79","79","79","79","Sun Sep 24 19:51:03 2023","1500","The main experiment item","True","Flankertask.osexp","/Users/xaleyelyse/Desktop","False","mono","False","18","no","white","no","yes","768","psycho","79","79","/Users/xaleyelyse/Desktop/xw-subject-3.csv","psycho","Melodramatic Milgram","4.0.5","0","h","NA","h","NA","NA","h","366.1763359850738","NA","8173.212470021099","NA","NA","366.1763359850738","2","psycho","1024","2","48000","-16","experiment","HHSHH","3","odd","142686.66320800548","15618.847259000177","NA","NA","76293.18319499725","7384.4972450169735","NA","NA","143739.05472600018","7423.595639993437","NA","NA","143848.14498701598","144216.65142499842","143729.07550199307","143847.6384160167","Flanker task","76","34299.9806649168","80","1024"
"95","95","429","429","black","psycho","psycho","psycho","congruent","1","undefined","1","s","80","0","0","0","80","0","80","0","80","0","0","0","80","80","80","80","Sun Sep 24 19:51:03 2023","600","The main experiment item","True","Flankertask.osexp","/Users/xaleyelyse/Desktop","False","mono","False","18","no","white","no","yes","768","psycho","0","79","/Users/xaleyelyse/Desktop/xw-subject-3.csv","psycho","Melodramatic Milgram","4.0.5","0","s","NA","h","s","NA","s","470.02728600637056","NA","8173.212470021099","55373.15578700509","NA","470.02728600637056","2","psycho","1024","2","48000","-16","experiment","SSSSS","3","odd","144728.44712799997","15618.847259000177","201122.99140900723","NA","144223.05582999252","7384.4972450169735","NA","NA","201185.0931700028","7423.595639993437","145747.22247500904","NA","201295.288060006","201767.55235801102","201170.47566000838","201294.7872200166","Flanker task","77","34770.00795092317","81","1024"
"95","95","428","428","black","psycho","psycho","psycho","congruent","1","undefined","1","h","81","0","0","0","81","0","81","0","81","0","0","0","81","81","81","81","Sun Sep 24 19:51:03 2023","600","The main experiment item","True","Flankertask.osexp","/Users/xaleyelyse/Desktop","False","mono","False","18","no","white","no","yes","768","psycho","1","79","/Users/xaleyelyse/Desktop/xw-subject-3.csv","psycho","Melodramatic Milgram","4.0.5","0","h","NA","h","s","NA","h","371.5802899969276","NA","8173.212470021099","55373.15578700509","NA","371.5802899969276","2","psycho","1024","2","48000","-16","experiment","HHHHH","3","odd","201773.5526440083","15618.847259000177","201122.99140900723","NA","144223.05582999252","7384.4972450169735","NA","NA","202830.8256950113","7423.595639993437","145747.22247500904","NA","202939.66756100417","203313.65680499584","202820.0807410176","202937.18816101318","Flanker task","78","35141.5882409201","82","1024"
"95","95","427","427","black","psycho","psycho","psycho","congruent","1","undefined","1","h","82","0","0","0","82","0","82","0","82","0","0","0","82","82","82","82","Sun Sep 24 19:51:03 2023","600","The main experiment item","True","Flankertask.osexp","/Users/xaleyelyse/Desktop","False","mono","False","18","no","white","no","yes","768","psycho","2","79","/Users/xaleyelyse/Desktop/xw-subject-3.csv","psycho","Melodramatic Milgram","4.0.5","0","h","NA","h","s","NA","h","378.0144240008667","NA","8173.212470021099","55373.15578700509","NA","378.0144240008667","2","psycho","1024","2","48000","-16","experiment","HHHHH","3","odd","203319.2433649965","15618.847259000177","201122.99140900723","NA","144223.05582999252","7384.4972450169735","NA","NA","204375.62795099802","7423.595639993437","145747.22247500904","NA","204485.07348800194","204865.56184699293","204365.70889499853","204484.61420001695","Flanker task","79","35519.60266492097","83","1024"
"95","95","427","427","black","psycho","psycho","psycho","incongruent","1","undefined","1","s","83","0","0","0","83","0","83","0","83","0","0","0","83","83","83","83","Sun Sep 24 19:51:03 2023","600","The main experiment item","True","Flankertask.osexp","/Users/xaleyelyse/Desktop","False","mono","False","18","no","white","no","yes","768","psycho","3","79","/Users/xaleyelyse/Desktop/xw-subject-3.csv","psycho","Melodramatic Milgram","4.0.5","0","s","NA","h","s","NA","s","376.953834987944","NA","8173.212470021099","55373.15578700509","NA","376.953834987944","2","psycho","1024","2","48000","-16","experiment","HHSHH","3","odd","204871.75567701343","15618.847259000177","201122.99140900723","NA","144223.05582999252","7384.4972450169735","NA","NA","205921.32089901133","7423.595639993437","145747.22247500904","NA","206031.0342980083","206410.4538510146","205911.7090110085","206028.41451601125","Flanker task","80","35896.55649990891","84","1024"
"95","95","428","428","black","psycho","psycho","psycho","congruent","1","undefined","1","h","84","0","0","0","84","0","84","0","84","0","0","0","84","84","84","84","Sun Sep 24 19:51:03 2023","600","The main experiment item","True","Flankertask.osexp","/Users/xaleyelyse/Desktop","False","mono","False","18","no","white","no","yes","768","psycho","4","79","/Users/xaleyelyse/Desktop/xw-subject-3.csv","psycho","Melodramatic Milgram","4.0.5","0","h","NA","h","s","NA","h","526.7465620127041","NA","8173.212470021099","55373.15578700509","NA","526.7465620127041","2","psycho","1024","2","48000","-16","experiment","HHHHH","3","odd","206416.62585400627","15618.847259000177","201122.99140900723","NA","144223.05582999252","7384.4972450169735","NA","NA","207470.6064950151","7423.595639993437","145747.22247500904","NA","207579.15219600545","208108.26612700475","207460.1107900089","207578.74364001327","Flanker task","81","36423.303061921615","85","1024"
"95","95","427","427","black","psycho","psycho","psycho","congruent","1","undefined","1","s","85","0","0","0","85","0","85","0","85","0","0","0","85","85","85","85","Sun Sep 24 19:51:03 2023","600","The main experiment item","True","Flankertask.osexp","/Users/xaleyelyse/Desktop","False","mono","False","18","no","white","no","yes","768","psycho","5","79","/Users/xaleyelyse/Desktop/xw-subject-3.csv","psycho","Melodramatic Milgram","4.0.5","0","s","NA","h","s","NA","s","337.46657200390473","NA","8173.212470021099","55373.15578700509","NA","337.46657200390473","2","psycho","1024","2","48000","-16","experiment","SSSSS","3","odd","208114.33645599755","15618.847259000177","201122.99140900723","NA","144223.05582999252","7384.4972450169735","NA","NA","209168.21888901177","7423.595639993437","145747.22247500904","NA","209277.209338994","209617.21689099795","209158.14087699982","209274.7336780012","Flanker task","82","36760.76963392552","86","1024"
"95","95","426","426","black","psycho","psycho","psycho","congruent","1","undefined","1","h","86","0","0","0","86","0","86","0","86","0","0","0","86","86","86","86","Sun Sep 24 19:51:03 2023","600","The main experiment item","True","Flankertask.osexp","/Users/xaleyelyse/Desktop","False","mono","False","18","no","white","no","yes","768","psycho","6","79","/Users/xaleyelyse/Desktop/xw-subject-3.csv","psycho","Melodramatic Milgram","4.0.5","0","h","NA","h","s","NA","h","355.02945599728264","NA","8173.212470021099","55373.15578700509","NA","355.02945599728264","2","psycho","1024","2","48000","-16","experiment","HHHHH","3","odd","209623.24171399814","15618.847259000177","201122.99140900723","NA","144223.05582999252","7384.4972450169735","NA","NA","210673.70210701483","7423.595639993437","145747.22247500904","NA","210783.50489400327","211141.11288299318","210662.88687099586","210780.62988101738","Flanker task","83","37115.7990899228","87","1024"
"95","95","426","426","black","psycho","psycho","psycho","incongruent","1","undefined","1","s","87","0","0","0","87","0","87","0","87","0","0","0","87","87","87","87","Sun Sep 24 19:51:03 2023","600","The main experiment item","True","Flankertask.osexp","/Users/xaleyelyse/Desktop","False","mono","False","18","no","white","no","yes","768","psycho","7","79","/Users/xaleyelyse/Desktop/xw-subject-3.csv","psycho","Melodramatic Milgram","4.0.5","0","s","NA","h","s","NA","s","416.06928198598325","NA","8173.212470021099","55373.15578700509","NA","416.06928198598325","2","psycho","1024","2","48000","-16","experiment","HHSHH","3","odd","211146.82519901544","15618.847259000177","201122.99140900723","NA","144223.05582999252","7384.4972450169735","NA","NA","212196.6433720081","7423.595639993437","145747.22247500904","NA","212305.4889870109","212723.9348150033","212186.65684800362","212304.99874200905","Flanker task","84","37531.868371908786","88","1024"
"95","95","426","426","black","psycho","psycho","psycho","incongruent","1","undefined","1","h","88","0","0","0","88","0","88","0","88","0","0","0","88","88","88","88","Sun Sep 24 19:51:03 2023","600","The main experiment item","True","Flankertask.osexp","/Users/xaleyelyse/Desktop","False","mono","False","18","no","white","no","yes","768","psycho","8","79","/Users/xaleyelyse/Desktop/xw-subject-3.csv","psycho","Melodramatic Milgram","4.0.5","0","h","NA","h","s","NA","h","441.4721910143271","NA","8173.212470021099","55373.15578700509","NA","441.4721910143271","2","psycho","1024","2","48000","-16","experiment","SSHSS","3","odd","212730.27157399338","15618.847259000177","201122.99140900723","NA","144223.05582999252","7384.4972450169735","NA","NA","213786.51303701918","7423.595639993437","145747.22247500904","NA","213895.1350970019","214339.0409980202","213776.90507200896","213894.730377011","Flanker task","85","37973.34056292311","89","1024"
"94","94","425","425","black","psycho","psycho","psycho","incongruent","0","undefined","0","h","89","0","0","0","89","0","89","0","89","0","0","0","89","89","89","89","Sun Sep 24 19:51:03 2023","600","The main experiment item","True","Flankertask.osexp","/Users/xaleyelyse/Desktop","False","mono","False","18","no","white","no","yes","768","psycho","9","79","/Users/xaleyelyse/Desktop/xw-subject-3.csv","psycho","Melodramatic Milgram","4.0.5","0","s","NA","h","s","NA","s","292.36104199662805","NA","8173.212470021099","55373.15578700509","NA","292.36104199662805","2","psycho","1024","2","48000","-16","experiment","SSHSS","3","odd","214344.9016950035","15618.847259000177","201122.99140900723","NA","144223.05582999252","7384.4972450169735","NA","NA","215393.15909100696","7423.595639993437","145747.22247500904","NA","215501.15474499762","215796.1496770149","215383.5654320137","215498.75846802024","Flanker task","85","38265.70160491974","90","1024"
"94","94","424","424","black","psycho","psycho","psycho","incongruent","1","undefined","1","s","90","0","0","0","90","0","90","0","90","0","0","0","90","90","90","90","Sun Sep 24 19:51:03 2023","600","The main experiment item","True","Flankertask.osexp","/Users/xaleyelyse/Desktop","False","mono","False","18","no","white","no","yes","768","psycho","10","79","/Users/xaleyelyse/Desktop/xw-subject-3.csv","psycho","Melodramatic Milgram","4.0.5","0","s","NA","h","s","NA","s","341.52548798010685","NA","8173.212470021099","55373.15578700509","NA","341.52548798010685","2","psycho","1024","2","48000","-16","experiment","HHSHH","3","odd","216312.61428599828","15618.847259000177","201122.99140900723","NA","215804.51716700918","7384.4972450169735","NA","NA","217362.2126429982","7423.595639993437","145747.22247500904","NA","217470.64244601643","217815.0317260006","217352.05309599405","217468.2815959968","Flanker task","86","38607.22709289985","91","1024"
"94","94","424","424","black","psycho","psycho","psycho","incongruent","1","undefined","1","s","91","0","0","0","91","0","91","0","91","0","0","0","91","91","91","91","Sun Sep 24 19:51:03 2023","600","The main experiment item","True","Flankertask.osexp","/Users/xaleyelyse/Desktop","False","mono","False","18","no","white","no","yes","768","psycho","11","79","/Users/xaleyelyse/Desktop/xw-subject-3.csv","psycho","Melodramatic Milgram","4.0.5","0","s","NA","h","s","NA","s","437.79126802110113","NA","8173.212470021099","55373.15578700509","NA","437.79126802110113","2","psycho","1024","2","48000","-16","experiment","HHSHH","3","odd","217821.04430301115","15618.847259000177","201122.99140900723","NA","215804.51716700918","7384.4972450169735","NA","NA","218873.2822049933","7423.595639993437","145747.22247500904","NA","218982.59685799712","219423.248142004","218863.1316900137","218982.1541820129","Flanker task","87","39045.01836092095","92","1024"
"94","94","425","425","black","psycho","psycho","psycho","incongruent","1","undefined","1","h","92","0","0","0","92","0","92","0","92","0","0","0","92","92","92","92","Sun Sep 24 19:51:03 2023","600","The main experiment item","True","Flankertask.osexp","/Users/xaleyelyse/Desktop","False","mono","False","18","no","white","no","yes","768","psycho","12","79","/Users/xaleyelyse/Desktop/xw-subject-3.csv","psycho","Melodramatic Milgram","4.0.5","0","h","NA","h","s","NA","h","496.74147300538607","NA","8173.212470021099","55373.15578700509","NA","496.74147300538607","2","psycho","1024","2","48000","-16","experiment","SSHSS","3","odd","219429.650614009","15618.847259000177","201122.99140900723","NA","215804.51716700918","7384.4972450169735","NA","NA","220479.47645699605","7423.595639993437","145747.22247500904","NA","220589.28144199308","221088.3552110172","220469.48309001164","220588.8531510136","Flanker task","88","39541.759833926335","93","1024"
"94","94","425","425","black","psycho","psycho","psycho","incongruent","1","undefined","1","h","93","0","0","0","93","0","93","0","93","0","0","0","93","93","93","93","Sun Sep 24 19:51:03 2023","600","The main experiment item","True","Flankertask.osexp","/Users/xaleyelyse/Desktop","False","mono","False","18","no","white","no","yes","768","psycho","13","79","/Users/xaleyelyse/Desktop/xw-subject-3.csv","psycho","Melodramatic Milgram","4.0.5","0","h","NA","h","s","NA","h","413.6875179829076","NA","8173.212470021099","55373.15578700509","NA","413.6875179829076","2","psycho","1024","2","48000","-16","experiment","SSHSS","3","odd","221094.32786499383","15618.847259000177","201122.99140900723","NA","215804.51716700918","7384.4972450169735","NA","NA","222149.36409299844","7423.595639993437","145747.22247500904","NA","222258.37210801546","222674.5851720043","222138.90148801147","222255.96686502104","Flanker task","89","39955.44735190924","94","1024"
"94","94","424","424","black","psycho","psycho","psycho","congruent","1","undefined","1","h","94","0","0","0","94","0","94","0","94","0","0","0","94","94","94","94","Sun Sep 24 19:51:03 2023","600","The main experiment item","True","Flankertask.osexp","/Users/xaleyelyse/Desktop","False","mono","False","18","no","white","no","yes","768","psycho","14","79","/Users/xaleyelyse/Desktop/xw-subject-3.csv","psycho","Melodramatic Milgram","4.0.5","0","h","NA","h","s","NA","h","385.3984300221782","NA","8173.212470021099","55373.15578700509","NA","385.3984300221782","2","psycho","1024","2","48000","-16","experiment","HHHHH","3","odd","222680.541483016","15618.847259000177","201122.99140900723","NA","215804.51716700918","7384.4972450169735","NA","NA","223737.57675400702","7423.595639993437","145747.22247500904","NA","223845.77582299244","224233.63039799733","223727.24790900247","223843.4430870111","Flanker task","90","40340.84578193142","95","1024"
"94","94","424","424","black","psycho","psycho","psycho","incongruent","1","undefined","1","h","95","0","0","0","95","0","95","0","95","0","0","0","95","95","95","95","Sun Sep 24 19:51:03 2023","600","The main experiment item","True","Flankertask.osexp","/Users/xaleyelyse/Desktop","False","mono","False","18","no","white","no","yes","768","psycho","15","79","/Users/xaleyelyse/Desktop/xw-subject-3.csv","psycho","Melodramatic Milgram","4.0.5","0","h","NA","h","s","NA","h","366.3486519944854","NA","8173.212470021099","55373.15578700509","NA","366.3486519944854","2","psycho","1024","2","48000","-16","experiment","SSHSS","3","odd","224239.7919660143","15618.847259000177","201122.99140900723","NA","215804.51716700918","7384.4972450169735","NA","NA","225295.3656540194","7423.595639993437","145747.22247500904","NA","225404.22610301175","225772.8496970085","225284.92379601812","225403.68952800054","Flanker task","91","40707.194433925906","96","1024"
"94","94","424","424","black","psycho","psycho","psycho","congruent","1","undefined","1","s","96","0","0","0","96","0","96","0","96","0","0","0","96","96","96","96","Sun Sep 24 19:51:03 2023","600","The main experiment item","True","Flankertask.osexp","/Users/xaleyelyse/Desktop","False","mono","False","18","no","white","no","yes","768","psycho","16","79","/Users/xaleyelyse/Desktop/xw-subject-3.csv","psycho","Melodramatic Milgram","4.0.5","0","s","NA","h","s","NA","s","429.25442301202565","NA","8173.212470021099","55373.15578700509","NA","429.25442301202565","2","psycho","1024","2","48000","-16","experiment","SSSSS","3","odd","225778.7516080134","15618.847259000177","201122.99140900723","NA","215804.51716700918","7384.4972450169735","NA","NA","226831.2236930069","7423.595639993437","145747.22247500904","NA","226940.41773700155","227372.8391250188","226820.34768300946","226939.92486799834","Flanker task","92","41136.44885693793","97","1024"
"94","94","423","423","black","psycho","psycho","psycho","congruent","1","undefined","1","s","97","0","0","0","97","0","97","0","97","0","0","0","97","97","97","97","Sun Sep 24 19:51:03 2023","600","The main experiment item","True","Flankertask.osexp","/Users/xaleyelyse/Desktop","False","mono","False","18","no","white","no","yes","768","psycho","17","79","/Users/xaleyelyse/Desktop/xw-subject-3.csv","psycho","Melodramatic Milgram","4.0.5","0","s","NA","h","s","NA","s","366.58701501437463","NA","8173.212470021099","55373.15578700509","NA","366.58701501437463","2","psycho","1024","2","48000","-16","experiment","SSSSS","3","odd","227380.03029601532","15618.847259000177","201122.99140900723","NA","215804.51716700918","7384.4972450169735","NA","NA","228435.32643499202","7423.595639993437","145747.22247500904","NA","228543.32559299655","228912.41997800535","228425.26259299484","228540.86445100256","Flanker task","93","41503.03587195231","98","1024"
"94","94","423","423","black","psycho","psycho","psycho","incongruent","1","undefined","1","s","98","0","0","0","98","0","98","0","98","0","0","0","98","98","98","98","Sun Sep 24 19:51:03 2023","600","The main experiment item","True","Flankertask.osexp","/Users/xaleyelyse/Desktop","False","mono","False","18","no","white","no","yes","768","psycho","18","79","/Users/xaleyelyse/Desktop/xw-subject-3.csv","psycho","Melodramatic Milgram","4.0.5","0","s","NA","h","s","NA","s","463.38855000794865","NA","8173.212470021099","55373.15578700509","NA","463.38855000794865","2","psycho","1024","2","48000","-16","experiment","HHSHH","3","odd","228923.2828420063","15618.847259000177","201122.99140900723","NA","215804.51716700918","7384.4972450169735","NA","NA","229972.4185820087","7423.595639993437","145747.22247500904","NA","230081.00588599336","230546.75124000642","229962.50861900626","230080.59316701838","Flanker task","94","41966.424421960255","99","1024"
"95","95","423","423","black","psycho","psycho","psycho","incongruent","1","undefined","1","s","99","0","0","0","99","0","99","0","99","0","0","0","99","99","99","99","Sun Sep 24 19:51:03 2023","600","The main experiment item","True","Flankertask.osexp","/Users/xaleyelyse/Desktop","False","mono","False","18","no","white","no","yes","768","psycho","19","79","/Users/xaleyelyse/Desktop/xw-subject-3.csv","psycho","Melodramatic Milgram","4.0.5","0","s","NA","h","s","NA","s","363.92794002313167","NA","8173.212470021099","55373.15578700509","NA","363.92794002313167","2","psycho","1024","2","48000","-16","experiment","HHSHH","3","odd","230552.74613399524","15618.847259000177","201122.99140900723","NA","215804.51716700918","7384.4972450169735","NA","NA","231610.40699700243","7423.595639993437","145747.22247500904","NA","231719.5995899965","232085.90007800376","231600.02699701","231717.07575401524","Flanker task","95","42330.35236198339","100","1024"
"95","95","423","423","black","psycho","psycho","psycho","incongruent","1","undefined","1","h","100","0","0","0","100","0","100","0","100","0","0","0","100","100","100","100","Sun Sep 24 19:51:03 2023","600","The main experiment item","True","Flankertask.osexp","/Users/xaleyelyse/Desktop","False","mono","False","18","no","white","no","yes","768","psycho","20","79","/Users/xaleyelyse/Desktop/xw-subject-3.csv","psycho","Melodramatic Milgram","4.0.5","0","h","NA","h","s","NA","h","485.2921910060104","NA","8173.212470021099","55373.15578700509","NA","485.2921910060104","2","psycho","1024","2","48000","-16","experiment","SSHSS","3","odd","232092.05288099474","15618.847259000177","201122.99140900723","NA","215804.51716700918","7384.4972450169735","NA","NA","233146.1265970138","7423.595639993437","145747.22247500904","NA","233251.4405559923","233739.6266120195","233138.6340559984","233250.34253799822","Flanker task","96","42815.6445529894","101","1024"
"95","95","424","424","black","psycho","psycho","psycho","congruent","1","undefined","1","s","101","0","0","0","101","0","101","0","101","0","0","0","101","101","101","101","Sun Sep 24 19:51:03 2023","600","The main experiment item","True","Flankertask.osexp","/Users/xaleyelyse/Desktop","False","mono","False","18","no","white","no","yes","768","psycho","21","79","/Users/xaleyelyse/Desktop/xw-subject-3.csv","psycho","Melodramatic Milgram","4.0.5","0","s","NA","h","s","NA","s","475.6129379966296","NA","8173.212470021099","55373.15578700509","NA","475.6129379966296","2","psycho","1024","2","48000","-16","experiment","SSSSS","3","odd","233745.37002501893","15618.847259000177","201122.99140900723","NA","215804.51716700918","7384.4972450169735","NA","NA","234797.17035900103","7423.595639993437","145747.22247500904","NA","234904.98385200044","235383.16682100412","234786.8438269943","234902.70398100256","Flanker task","97","43291.25749098603","102","1024"
"95","95","424","424","black","psycho","psycho","psycho","congruent","1","undefined","1","h","102","0","0","0","102","0","102","0","102","0","0","0","102","102","102","102","Sun Sep 24 19:51:03 2023","600","The main experiment item","True","Flankertask.osexp","/Users/xaleyelyse/Desktop","False","mono","False","18","no","white","no","yes","768","psycho","22","79","/Users/xaleyelyse/Desktop/xw-subject-3.csv","psycho","Melodramatic Milgram","4.0.5","0","h","NA","h","s","NA","h","455.9441389865242","NA","8173.212470021099","55373.15578700509","NA","455.9441389865242","2","psycho","1024","2","48000","-16","experiment","HHHHH","3","odd","235389.14723900962","15618.847259000177","201122.99140900723","NA","215804.51716700918","7384.4972450169735","NA","NA","236442.7157320024","7423.595639993437","145747.22247500904","NA","236552.71967101726","237011.07364700874","236433.05136199342","236551.58911601757","Flanker task","98","43747.20162997255","103","1024"
"95","95","424","424","black","psycho","psycho","psycho","incongruent","1","undefined","1","s","103","0","0","0","103","0","103","0","103","0","0","0","103","103","103","103","Sun Sep 24 19:51:03 2023","600","The main experiment item","True","Flankertask.osexp","/Users/xaleyelyse/Desktop","False","mono","False","18","no","white","no","yes","768","psycho","23","79","/Users/xaleyelyse/Desktop/xw-subject-3.csv","psycho","Melodramatic Milgram","4.0.5","0","s","NA","h","s","NA","s","378.3376479987055","NA","8173.212470021099","55373.15578700509","NA","378.3376479987055","2","psycho","1024","2","48000","-16","experiment","HHSHH","3","odd","237022.82276499318","15618.847259000177","201122.99140900723","NA","215804.51716700918","7384.4972450169735","NA","NA","238078.51172599476","7423.595639993437","145747.22247500904","NA","238187.1702420176","238567.9149600037","238068.34662801703","238184.71097701695","Flanker task","99","44125.53927797126","104","1024"
"95","95","423","423","black","psycho","psycho","psycho","congruent","1","undefined","1","h","104","0","0","0","104","0","104","0","104","0","0","0","104","104","104","104","Sun Sep 24 19:51:03 2023","600","The main experiment item","True","Flankertask.osexp","/Users/xaleyelyse/Desktop","False","mono","False","18","no","white","no","yes","768","psycho","24","79","/Users/xaleyelyse/Desktop/xw-subject-3.csv","psycho","Melodramatic Milgram","4.0.5","0","h","NA","h","s","NA","h","328.0376589973457","NA","8173.212470021099","55373.15578700509","NA","328.0376589973457","2","psycho","1024","2","48000","-16","experiment","HHHHH","3","odd","238573.83933500387","15618.847259000177","201122.99140900723","NA","215804.51716700918","7384.4972450169735","NA","NA","239626.41764900764","7423.595639993437","145747.22247500904","NA","239736.35396600002","240066.89526501577","239616.3253520208","239735.1114510093","Flanker task","100","44453.5769369686","105","1024"
"94","94","422","422","black","psycho","psycho","psycho","incongruent","0","undefined","0","h","105","0","0","0","105","0","105","0","105","0","0","0","105","105","105","105","Sun Sep 24 19:51:03 2023","600","The main experiment item","True","Flankertask.osexp","/Users/xaleyelyse/Desktop","False","mono","False","18","no","white","no","yes","768","psycho","25","79","/Users/xaleyelyse/Desktop/xw-subject-3.csv","psycho","Melodramatic Milgram","4.0.5","0","s","NA","h","s","NA","s","292.257808992872","NA","8173.212470021099","55373.15578700509","NA","292.257808992872","2","psycho","1024","2","48000","-16","experiment","SSHSS","3","odd","240073.07347201277","15618.847259000177","201122.99140900723","NA","215804.51716700918","7384.4972450169735","NA","NA","241121.45810000948","7423.595639993437","145747.22247500904","NA","241230.1772380015","241524.76292900974","241111.28706100862","241229.65342199313","Flanker task","100","44745.834745961474","106","1024"
"94","94","422","422","black","psycho","psycho","psycho","incongruent","1","undefined","1","h","106","0","0","0","106","0","106","0","106","0","0","0","106","106","106","106","Sun Sep 24 19:51:03 2023","600","The main experiment item","True","Flankertask.osexp","/Users/xaleyelyse/Desktop","False","mono","False","18","no","white","no","yes","768","psycho","26","79","/Users/xaleyelyse/Desktop/xw-subject-3.csv","psycho","Melodramatic Milgram","4.0.5","0","h","NA","h","s","NA","h","464.5321170100942","NA","8173.212470021099","55373.15578700509","NA","464.5321170100942","2","psycho","1024","2","48000","-16","experiment","SSHSS","3","odd","242039.77603602107","15618.847259000177","201122.99140900723","NA","241531.7333030107","7384.4972450169735","NA","NA","243090.41643101955","7423.595639993437","145747.22247500904","NA","243198.78482900094","243665.93810601626","243079.16067101178","243196.24805499916","Flanker task","101","45210.36686297157","107","1024"
