acc,accuracy,average_response_time,avg_rt,background,canvas_backend,clock_backend,color_backend,compensation,condition,coordinates,correct,correct_instructions1,correct_keyboard_response,correct_response,count_Block1,count_Block2,count_Block3,count_ISI,count_errorFeedback,count_experiment,count_faster,count_finish,count_fixation,count_instruction2,count_instruction3,count_instructions1,count_keyboard_response,count_logger,count_sequence,count_stimulus,datetime,deadline,description,disable_garbage_collection,experiment_file,experiment_path,font_bold,font_family,font_italic,font_size,font_underline,foreground,form_clicks,fullscreen,height,keyboard_backend,live_row,live_row_Block1,logfile,mouse_backend,opensesame_codename,opensesame_version,repeat_cycle,response,response_finish,response_instruction2,response_instruction3,response_instructions1,response_keyboard_response,response_time,response_time_finish,response_time_instruction2,response_time_instruction3,response_time_instructions1,response_time_keyboard_response,round_decimals,sampler_backend,sound_buf_size,sound_channels,sound_freq,sound_sample_size,start,stimulus,subject_nr,subject_parity,time_Block1,time_Block2,time_Block3,time_ISI,time_errorFeedback,time_experiment,time_faster,time_finish,time_fixation,time_instruction2,time_instruction3,time_instructions1,time_keyboard_response,time_logger,time_sequence,time_stimulus,title,total_correct,total_response_time,total_responses,uniform_coordinates,width
100,100,1100,1100,black,legacy,legacy,legacy,0,incongruent,uniform,1,undefined,1,s,0,0,0,0,0,0,0,0,0,0,0,0,0,0,0,0,Sun Sep 18 20:09:07 2022,1500,The main experiment item,yes,Flanker_Task_by_Katherine_Hays.osexp,/Users/katherinehays/Desktop,no,mono,no,18,no,white,no,no,768,legacy,0,0,/Users/katherinehays/Desktop/KH-subject-1.csv,legacy,Lentiform Loewenfeld,3.3.12,0,s,NA,NA,NA,s,s,1100,NA,NA,NA,8216,1100,2,legacy,1024,2,48000,-16,experiment,HHSHH,0,even,10331,NA,NA,NA,NA,1968,NA,NA,10361,NA,NA,2100,10467,11577,10357,10467,Flanker Task (by Katherine Hays),1,1100,1,yes,1024
100,100,753.5,753.5,black,legacy,legacy,legacy,0,incongruent,uniform,1,undefined,1,h,0,0,0,1,1,0,1,0,1,0,0,0,1,1,1,1,Sun Sep 18 20:09:07 2022,1500,The main experiment item,yes,Flanker_Task_by_Katherine_Hays.osexp,/Users/katherinehays/Desktop,no,mono,no,18,no,white,no,no,768,legacy,1,1,/Users/katherinehays/Desktop/KH-subject-1.csv,legacy,Lentiform Loewenfeld,3.3.12,0,h,NA,NA,NA,s,h,407,NA,NA,NA,8216,407,2,legacy,1024,2,48000,-16,experiment,SSHSS,0,even,10331,NA,NA,11581,NA,1968,NA,NA,12634,NA,NA,2100,12740,13148,12630,12740,Flanker Task (by Katherine Hays),2,1507,2,yes,1024
100,100,644.6666667,644.6666667,black,legacy,legacy,legacy,0,incongruent,uniform,1,undefined,1,s,0,0,0,2,2,0,2,0,2,0,0,0,2,2,2,2,Sun Sep 18 20:09:07 2022,1500,The main experiment item,yes,Flanker_Task_by_Katherine_Hays.osexp,/Users/katherinehays/Desktop,no,mono,no,18,no,white,no,no,768,legacy,2,2,/Users/katherinehays/Desktop/KH-subject-1.csv,legacy,Lentiform Loewenfeld,3.3.12,0,s,NA,NA,NA,s,s,427,NA,NA,NA,8216,427,2,legacy,1024,2,48000,-16,experiment,HHSHH,0,even,10331,NA,NA,13152,NA,1968,NA,NA,14216,NA,NA,2100,14322,14749,14211,14322,Flanker Task (by Katherine Hays),3,1934,3,yes,1024
75,75,584.25,584.25,black,legacy,legacy,legacy,0,incongruent,uniform,0,undefined,0,s,0,0,0,3,3,0,3,0,3,0,0,0,3,3,3,3,Sun Sep 18 20:09:07 2022,1500,The main experiment item,yes,Flanker_Task_by_Katherine_Hays.osexp,/Users/katherinehays/Desktop,no,mono,no,18,no,white,no,no,768,legacy,3,3,/Users/katherinehays/Desktop/KH-subject-1.csv,legacy,Lentiform Loewenfeld,3.3.12,0,h,NA,NA,NA,s,h,403,NA,NA,NA,8216,403,2,legacy,1024,2,48000,-16,experiment,HHSHH,0,even,10331,NA,NA,14754,NA,1968,NA,NA,15815,NA,NA,2100,15922,16326,15810,15922,Flanker Task (by Katherine Hays),3,2337,4,yes,1024
60,60,529,529,black,legacy,legacy,legacy,0,congruent,uniform,0,undefined,0,h,0,0,0,4,4,0,4,0,4,0,0,0,4,4,4,4,Sun Sep 18 20:09:07 2022,1500,The main experiment item,yes,Flanker_Task_by_Katherine_Hays.osexp,/Users/katherinehays/Desktop,no,mono,no,18,no,white,no,no,768,legacy,4,4,/Users/katherinehays/Desktop/KH-subject-1.csv,legacy,Lentiform Loewenfeld,3.3.12,0,s,NA,NA,NA,s,s,308,NA,NA,NA,8216,308,2,legacy,1024,2,48000,-16,experiment,HHHHH,0,even,10331,NA,NA,16840,16330,1968,NA,NA,17902,NA,NA,2100,18009,18317,17898,18009,Flanker Task (by Katherine Hays),3,2645,5,yes,1024
66.66666667,66.66666667,661.1666667,661.1666667,black,legacy,legacy,legacy,0,congruent,uniform,1,undefined,1,h,0,0,0,5,5,0,5,0,5,0,0,0,5,5,5,5,Sun Sep 18 20:09:07 2022,1500,The main experiment item,yes,Flanker_Task_by_Katherine_Hays.osexp,/Users/katherinehays/Desktop,no,mono,no,18,no,white,no,no,768,legacy,5,5,/Users/katherinehays/Desktop/KH-subject-1.csv,legacy,Lentiform Loewenfeld,3.3.12,0,h,NA,NA,NA,s,h,1322,NA,NA,NA,8216,1322,2,legacy,1024,2,48000,-16,experiment,HHHHH,0,even,10331,NA,NA,18829,18321,1968,NA,NA,19883,NA,NA,2100,19989,21311,19879,19989,Flanker Task (by Katherine Hays),4,3967,6,yes,1024
71.42857143,71.42857143,650.7142857,650.7142857,black,legacy,legacy,legacy,0,congruent,uniform,1,undefined,1,s,0,0,0,6,6,0,6,0,6,0,0,0,6,6,6,6,Sun Sep 18 20:09:07 2022,1500,The main experiment item,yes,Flanker_Task_by_Katherine_Hays.osexp,/Users/katherinehays/Desktop,no,mono,no,18,no,white,no,no,768,legacy,6,6,/Users/katherinehays/Desktop/KH-subject-1.csv,legacy,Lentiform Loewenfeld,3.3.12,0,s,NA,NA,NA,s,s,588,NA,NA,NA,8216,588,2,legacy,1024,2,48000,-16,experiment,SSSSS,0,even,10331,NA,NA,21316,18321,1968,NA,NA,22379,NA,NA,2100,22486,23074,22375,22486,Flanker Task (by Katherine Hays),5,4555,7,yes,1024
75,75,638.125,638.125,black,legacy,legacy,legacy,0,congruent,uniform,1,undefined,1,s,0,0,0,7,7,0,7,0,7,0,0,0,7,7,7,7,Sun Sep 18 20:09:07 2022,1500,The main experiment item,yes,Flanker_Task_by_Katherine_Hays.osexp,/Users/katherinehays/Desktop,no,mono,no,18,no,white,no,no,768,legacy,7,7,/Users/katherinehays/Desktop/KH-subject-1.csv,legacy,Lentiform Loewenfeld,3.3.12,0,s,NA,NA,NA,s,s,550,NA,NA,NA,8216,550,2,legacy,1024,2,48000,-16,experiment,SSSSS,0,even,10331,NA,NA,23078,18321,1968,NA,NA,24131,NA,NA,2100,24237,24788,24126,24237,Flanker Task (by Katherine Hays),6,5105,8,yes,1024
77.77777778,77.77777778,616.2222222,616.2222222,black,legacy,legacy,legacy,0,incongruent,uniform,1,undefined,1,s,0,0,0,8,8,0,8,0,8,0,0,0,8,8,8,8,Sun Sep 18 20:09:07 2022,1500,The main experiment item,yes,Flanker_Task_by_Katherine_Hays.osexp,/Users/katherinehays/Desktop,no,mono,no,18,no,white,no,no,768,legacy,8,8,/Users/katherinehays/Desktop/KH-subject-1.csv,legacy,Lentiform Loewenfeld,3.3.12,0,s,NA,NA,NA,s,s,441,NA,NA,NA,8216,441,2,legacy,1024,2,48000,-16,experiment,HHSHH,0,even,10331,NA,NA,24792,18321,1968,NA,NA,25854,NA,NA,2100,25960,26401,25850,25960,Flanker Task (by Katherine Hays),7,5546,9,yes,1024
70,70,597.5,597.5,black,legacy,legacy,legacy,0,incongruent,uniform,0,undefined,0,h,0,0,0,9,9,0,9,0,9,0,0,0,9,9,9,9,Sun Sep 18 20:09:07 2022,1500,The main experiment item,yes,Flanker_Task_by_Katherine_Hays.osexp,/Users/katherinehays/Desktop,no,mono,no,18,no,white,no,no,768,legacy,9,9,/Users/katherinehays/Desktop/KH-subject-1.csv,legacy,Lentiform Loewenfeld,3.3.12,0,s,NA,NA,NA,s,s,429,NA,NA,NA,8216,429,2,legacy,1024,2,48000,-16,experiment,SSHSS,0,even,10331,NA,NA,26405,18321,1968,NA,NA,27465,NA,NA,2100,27572,28001,27460,27572,Flanker Task (by Katherine Hays),7,5975,10,yes,1024
72.72727273,72.72727273,590.9090909,590.9090909,black,legacy,legacy,legacy,0,congruent,uniform,1,undefined,1,h,0,0,0,10,10,0,10,0,10,0,0,0,10,10,10,10,Sun Sep 18 20:09:07 2022,1500,The main experiment item,yes,Flanker_Task_by_Katherine_Hays.osexp,/Users/katherinehays/Desktop,no,mono,no,18,no,white,no,no,768,legacy,10,10,/Users/katherinehays/Desktop/KH-subject-1.csv,legacy,Lentiform Loewenfeld,3.3.12,0,h,NA,NA,NA,s,h,525,NA,NA,NA,8216,525,2,legacy,1024,2,48000,-16,experiment,HHHHH,0,even,10331,NA,NA,28516,28005,1968,NA,NA,29576,NA,NA,2100,29683,30208,29571,29683,Flanker Task (by Katherine Hays),8,6500,11,yes,1024
75,75,589.6666667,589.6666667,black,legacy,legacy,legacy,0,incongruent,uniform,1,undefined,1,s,0,0,0,11,11,0,11,0,11,0,0,0,11,11,11,11,Sun Sep 18 20:09:07 2022,1500,The main experiment item,yes,Flanker_Task_by_Katherine_Hays.osexp,/Users/katherinehays/Desktop,no,mono,no,18,no,white,no,no,768,legacy,11,11,/Users/katherinehays/Desktop/KH-subject-1.csv,legacy,Lentiform Loewenfeld,3.3.12,0,s,NA,NA,NA,s,s,576,NA,NA,NA,8216,576,2,legacy,1024,2,48000,-16,experiment,HHSHH,0,even,10331,NA,NA,30212,28005,1968,NA,NA,31272,NA,NA,2100,31379,31955,31267,31379,Flanker Task (by Katherine Hays),9,7076,12,yes,1024
76.92307692,76.92307692,610.0769231,610.0769231,black,legacy,legacy,legacy,0,congruent,uniform,1,undefined,1,s,0,0,0,12,12,0,12,0,12,0,0,0,12,12,12,12,Sun Sep 18 20:09:07 2022,1500,The main experiment item,yes,Flanker_Task_by_Katherine_Hays.osexp,/Users/katherinehays/Desktop,no,mono,no,18,no,white,no,no,768,legacy,12,12,/Users/katherinehays/Desktop/KH-subject-1.csv,legacy,Lentiform Loewenfeld,3.3.12,0,s,NA,NA,NA,s,s,855,NA,NA,NA,8216,855,2,legacy,1024,2,48000,-16,experiment,SSSSS,0,even,10331,NA,NA,31961,28005,1968,NA,NA,33028,NA,NA,2100,33134,33990,33024,33134,Flanker Task (by Katherine Hays),10,7931,13,yes,1024
78.57142857,78.57142857,624.9285714,624.9285714,black,legacy,legacy,legacy,0,congruent,uniform,1,undefined,1,h,0,0,0,13,13,0,13,0,13,0,0,0,13,13,13,13,Sun Sep 18 20:09:07 2022,1500,The main experiment item,yes,Flanker_Task_by_Katherine_Hays.osexp,/Users/katherinehays/Desktop,no,mono,no,18,no,white,no,no,768,legacy,13,13,/Users/katherinehays/Desktop/KH-subject-1.csv,legacy,Lentiform Loewenfeld,3.3.12,0,h,NA,NA,NA,s,h,818,NA,NA,NA,8216,818,2,legacy,1024,2,48000,-16,experiment,HHHHH,0,even,10331,NA,NA,33994,28005,1968,NA,NA,35061,NA,NA,2100,35166,35984,35056,35166,Flanker Task (by Katherine Hays),11,8749,14,yes,1024
80,80,619.3333333,619.3333333,black,legacy,legacy,legacy,0,congruent,uniform,1,undefined,1,h,0,0,0,14,14,0,14,0,14,0,0,0,14,14,14,14,Sun Sep 18 20:09:07 2022,1500,The main experiment item,yes,Flanker_Task_by_Katherine_Hays.osexp,/Users/katherinehays/Desktop,no,mono,no,18,no,white,no,no,768,legacy,14,14,/Users/katherinehays/Desktop/KH-subject-1.csv,legacy,Lentiform Loewenfeld,3.3.12,0,h,NA,NA,NA,s,h,541,NA,NA,NA,8216,541,2,legacy,1024,2,48000,-16,experiment,HHHHH,0,even,10331,NA,NA,35988,28005,1968,NA,NA,37046,NA,NA,2100,37151,37693,37041,37151,Flanker Task (by Katherine Hays),12,9290,15,yes,1024
81.25,81.25,617.5,617.5,black,legacy,legacy,legacy,0,congruent,uniform,1,undefined,1,s,0,0,0,15,15,0,15,0,15,0,0,0,15,15,15,15,Sun Sep 18 20:09:07 2022,1500,The main experiment item,yes,Flanker_Task_by_Katherine_Hays.osexp,/Users/katherinehays/Desktop,no,mono,no,18,no,white,no,no,768,legacy,15,15,/Users/katherinehays/Desktop/KH-subject-1.csv,legacy,Lentiform Loewenfeld,3.3.12,0,s,NA,NA,NA,s,s,590,NA,NA,NA,8216,590,2,legacy,1024,2,48000,-16,experiment,SSSSS,0,even,10331,NA,NA,37697,28005,1968,NA,NA,38757,NA,NA,2100,38864,39454,38752,38864,Flanker Task (by Katherine Hays),13,9880,16,yes,1024
82.35294118,82.35294118,618.1176471,618.1176471,black,legacy,legacy,legacy,0,incongruent,uniform,1,undefined,1,h,0,0,0,16,16,0,16,0,16,0,0,0,16,16,16,16,Sun Sep 18 20:09:07 2022,1500,The main experiment item,yes,Flanker_Task_by_Katherine_Hays.osexp,/Users/katherinehays/Desktop,no,mono,no,18,no,white,no,no,768,legacy,16,16,/Users/katherinehays/Desktop/KH-subject-1.csv,legacy,Lentiform Loewenfeld,3.3.12,0,h,NA,NA,NA,s,h,628,NA,NA,NA,8216,628,2,legacy,1024,2,48000,-16,experiment,SSHSS,0,even,10331,NA,NA,39458,28005,1968,NA,NA,40509,NA,NA,2100,40615,41244,40505,40615,Flanker Task (by Katherine Hays),14,10508,17,yes,1024
83.33333333,83.33333333,616.8333333,616.8333333,black,legacy,legacy,legacy,0,incongruent,uniform,1,undefined,1,h,0,0,0,17,17,0,17,0,17,0,0,0,17,17,17,17,Sun Sep 18 20:09:07 2022,1500,The main experiment item,yes,Flanker_Task_by_Katherine_Hays.osexp,/Users/katherinehays/Desktop,no,mono,no,18,no,white,no,no,768,legacy,17,17,/Users/katherinehays/Desktop/KH-subject-1.csv,legacy,Lentiform Loewenfeld,3.3.12,0,h,NA,NA,NA,s,h,595,NA,NA,NA,8216,595,2,legacy,1024,2,48000,-16,experiment,SSHSS,0,even,10331,NA,NA,41248,28005,1968,NA,NA,42302,NA,NA,2100,42409,43005,42297,42409,Flanker Task (by Katherine Hays),15,11103,18,yes,1024
84.21052632,84.21052632,614.1578947,614.1578947,black,legacy,legacy,legacy,0,incongruent,uniform,1,undefined,1,h,0,0,0,18,18,0,18,0,18,0,0,0,18,18,18,18,Sun Sep 18 20:09:07 2022,1500,The main experiment item,yes,Flanker_Task_by_Katherine_Hays.osexp,/Users/katherinehays/Desktop,no,mono,no,18,no,white,no,no,768,legacy,18,18,/Users/katherinehays/Desktop/KH-subject-1.csv,legacy,Lentiform Loewenfeld,3.3.12,0,h,NA,NA,NA,s,h,566,NA,NA,NA,8216,566,2,legacy,1024,2,48000,-16,experiment,SSHSS,0,even,10331,NA,NA,43009,28005,1968,NA,NA,44068,NA,NA,2100,44175,44742,44063,44175,Flanker Task (by Katherine Hays),16,11669,19,yes,1024
85,85,610.1,610.1,black,legacy,legacy,legacy,0,congruent,uniform,1,undefined,1,s,0,0,0,19,19,0,19,0,19,0,0,0,19,19,19,19,Sun Sep 18 20:09:07 2022,1500,The main experiment item,yes,Flanker_Task_by_Katherine_Hays.osexp,/Users/katherinehays/Desktop,no,mono,no,18,no,white,no,no,768,legacy,19,19,/Users/katherinehays/Desktop/KH-subject-1.csv,legacy,Lentiform Loewenfeld,3.3.12,0,s,NA,NA,NA,s,s,533,NA,NA,NA,8216,533,2,legacy,1024,2,48000,-16,experiment,SSSSS,0,even,10331,NA,NA,44746,28005,1968,NA,NA,45804,NA,NA,2100,45911,46444,45799,45911,Flanker Task (by Katherine Hays),17,12202,20,yes,1024
85.71428571,85.71428571,612.4761905,612.4761905,black,legacy,legacy,legacy,0,incongruent,uniform,1,undefined,1,h,0,0,0,20,20,0,20,0,20,0,0,0,20,20,20,20,Sun Sep 18 20:09:07 2022,1500,The main experiment item,yes,Flanker_Task_by_Katherine_Hays.osexp,/Users/katherinehays/Desktop,no,mono,no,18,no,white,no,no,768,legacy,20,20,/Users/katherinehays/Desktop/KH-subject-1.csv,legacy,Lentiform Loewenfeld,3.3.12,0,h,NA,NA,NA,s,h,660,NA,NA,NA,8216,660,2,legacy,1024,2,48000,-16,experiment,SSHSS,0,even,10331,NA,NA,46448,28005,1968,NA,NA,47503,NA,NA,2100,47608,48268,47499,47608,Flanker Task (by Katherine Hays),18,12862,21,yes,1024
86.36363636,86.36363636,614.5909091,614.5909091,black,legacy,legacy,legacy,0,incongruent,uniform,1,undefined,1,h,0,0,0,21,21,0,21,0,21,0,0,0,21,21,21,21,Sun Sep 18 20:09:07 2022,1500,The main experiment item,yes,Flanker_Task_by_Katherine_Hays.osexp,/Users/katherinehays/Desktop,no,mono,no,18,no,white,no,no,768,legacy,21,21,/Users/katherinehays/Desktop/KH-subject-1.csv,legacy,Lentiform Loewenfeld,3.3.12,0,h,NA,NA,NA,s,h,659,NA,NA,NA,8216,659,2,legacy,1024,2,48000,-16,experiment,SSHSS,0,even,10331,NA,NA,48272,28005,1968,NA,NA,49343,NA,NA,2100,49449,50109,49338,49449,Flanker Task (by Katherine Hays),19,13521,22,yes,1024
86.95652174,86.95652174,612.3913043,612.3913043,black,legacy,legacy,legacy,0,congruent,uniform,1,undefined,1,s,0,0,0,22,22,0,22,0,22,0,0,0,22,22,22,22,Sun Sep 18 20:09:07 2022,1500,The main experiment item,yes,Flanker_Task_by_Katherine_Hays.osexp,/Users/katherinehays/Desktop,no,mono,no,18,no,white,no,no,768,legacy,22,22,/Users/katherinehays/Desktop/KH-subject-1.csv,legacy,Lentiform Loewenfeld,3.3.12,0,s,NA,NA,NA,s,s,564,NA,NA,NA,8216,564,2,legacy,1024,2,48000,-16,experiment,SSSSS,0,even,10331,NA,NA,50113,28005,1968,NA,NA,51168,NA,NA,2100,51274,51838,51163,51274,Flanker Task (by Katherine Hays),20,14085,23,yes,1024
87.5,87.5,610.5833333,610.5833333,black,legacy,legacy,legacy,0,incongruent,uniform,1,undefined,1,s,0,0,0,23,23,0,23,0,23,0,0,0,23,23,23,23,Sun Sep 18 20:09:07 2022,1500,The main experiment item,yes,Flanker_Task_by_Katherine_Hays.osexp,/Users/katherinehays/Desktop,no,mono,no,18,no,white,no,no,768,legacy,23,23,/Users/katherinehays/Desktop/KH-subject-1.csv,legacy,Lentiform Loewenfeld,3.3.12,0,s,NA,NA,NA,s,s,569,NA,NA,NA,8216,569,2,legacy,1024,2,48000,-16,experiment,HHSHH,0,even,10331,NA,NA,51842,28005,1968,NA,NA,52898,NA,NA,2100,53004,53574,52893,53004,Flanker Task (by Katherine Hays),21,14654,24,yes,1024
88,88,605.32,605.32,black,legacy,legacy,legacy,0,congruent,uniform,1,undefined,1,h,0,0,0,24,24,0,24,0,24,0,0,0,24,24,24,24,Sun Sep 18 20:09:07 2022,1500,The main experiment item,yes,Flanker_Task_by_Katherine_Hays.osexp,/Users/katherinehays/Desktop,no,mono,no,18,no,white,no,no,768,legacy,24,24,/Users/katherinehays/Desktop/KH-subject-1.csv,legacy,Lentiform Loewenfeld,3.3.12,0,h,NA,NA,NA,s,h,479,NA,NA,NA,8216,479,2,legacy,1024,2,48000,-16,experiment,HHHHH,0,even,10331,NA,NA,53578,28005,1968,NA,NA,54637,NA,NA,2100,54744,55223,54632,54744,Flanker Task (by Katherine Hays),22,15133,25,yes,1024
88.46153846,88.46153846,599.7307692,599.7307692,black,legacy,legacy,legacy,0,congruent,uniform,1,undefined,1,s,0,0,0,25,25,0,25,0,25,0,0,0,25,25,25,25,Sun Sep 18 20:09:07 2022,1500,The main experiment item,yes,Flanker_Task_by_Katherine_Hays.osexp,/Users/katherinehays/Desktop,no,mono,no,18,no,white,no,no,768,legacy,25,25,/Users/katherinehays/Desktop/KH-subject-1.csv,legacy,Lentiform Loewenfeld,3.3.12,0,s,NA,NA,NA,s,s,460,NA,NA,NA,8216,460,2,legacy,1024,2,48000,-16,experiment,SSSSS,0,even,10331,NA,NA,55227,28005,1968,NA,NA,56288,NA,NA,2100,56395,56856,56283,56395,Flanker Task (by Katherine Hays),23,15593,26,yes,1024
88.88888889,88.88888889,597.2222222,597.2222222,black,legacy,legacy,legacy,0,congruent,uniform,1,undefined,1,h,0,0,0,26,26,0,26,0,26,0,0,0,26,26,26,26,Sun Sep 18 20:09:07 2022,1500,The main experiment item,yes,Flanker_Task_by_Katherine_Hays.osexp,/Users/katherinehays/Desktop,no,mono,no,18,no,white,no,no,768,legacy,26,26,/Users/katherinehays/Desktop/KH-subject-1.csv,legacy,Lentiform Loewenfeld,3.3.12,0,h,NA,NA,NA,s,h,532,NA,NA,NA,8216,532,2,legacy,1024,2,48000,-16,experiment,HHHHH,0,even,10331,NA,NA,56860,28005,1968,NA,NA,57919,NA,NA,2100,58026,58559,57914,58026,Flanker Task (by Katherine Hays),24,16125,27,yes,1024
89.28571429,89.28571429,598.5357143,598.5357143,black,legacy,legacy,legacy,0,congruent,uniform,1,undefined,1,h,0,0,0,27,27,0,27,0,27,0,0,0,27,27,27,27,Sun Sep 18 20:09:07 2022,1500,The main experiment item,yes,Flanker_Task_by_Katherine_Hays.osexp,/Users/katherinehays/Desktop,no,mono,no,18,no,white,no,no,768,legacy,27,27,/Users/katherinehays/Desktop/KH-subject-1.csv,legacy,Lentiform Loewenfeld,3.3.12,0,h,NA,NA,NA,s,h,634,NA,NA,NA,8216,634,2,legacy,1024,2,48000,-16,experiment,HHHHH,0,even,10331,NA,NA,58563,28005,1968,NA,NA,59608,NA,NA,2100,59714,60349,59604,59714,Flanker Task (by Katherine Hays),25,16759,28,yes,1024
86.20689655,86.20689655,591.9310345,591.9310345,black,legacy,legacy,legacy,0,incongruent,uniform,0,undefined,0,h,0,0,0,28,28,0,28,0,28,0,0,0,28,28,28,28,Sun Sep 18 20:09:07 2022,1500,The main experiment item,yes,Flanker_Task_by_Katherine_Hays.osexp,/Users/katherinehays/Desktop,no,mono,no,18,no,white,no,no,768,legacy,28,28,/Users/katherinehays/Desktop/KH-subject-1.csv,legacy,Lentiform Loewenfeld,3.3.12,0,s,NA,NA,NA,s,s,407,NA,NA,NA,8216,407,2,legacy,1024,2,48000,-16,experiment,SSHSS,0,even,10331,NA,NA,60353,28005,1968,NA,NA,61413,NA,NA,2100,61520,61927,61408,61520,Flanker Task (by Katherine Hays),25,17166,29,yes,1024
86.66666667,86.66666667,594.4,594.4,black,legacy,legacy,legacy,0,incongruent,uniform,1,undefined,1,h,0,0,0,29,29,0,29,0,29,0,0,0,29,29,29,29,Sun Sep 18 20:09:07 2022,1500,The main experiment item,yes,Flanker_Task_by_Katherine_Hays.osexp,/Users/katherinehays/Desktop,no,mono,no,18,no,white,no,no,768,legacy,29,29,/Users/katherinehays/Desktop/KH-subject-1.csv,legacy,Lentiform Loewenfeld,3.3.12,0,h,NA,NA,NA,s,h,666,NA,NA,NA,8216,666,2,legacy,1024,2,48000,-16,experiment,SSHSS,0,even,10331,NA,NA,62442,61931,1968,NA,NA,63502,NA,NA,2100,63609,64275,63497,63609,Flanker Task (by Katherine Hays),26,17832,30,yes,1024
87.09677419,87.09677419,592.1612903,592.1612903,black,legacy,legacy,legacy,0,incongruent,uniform,1,undefined,1,h,0,0,0,30,30,0,30,0,30,0,0,0,30,30,30,30,Sun Sep 18 20:09:07 2022,1500,The main experiment item,yes,Flanker_Task_by_Katherine_Hays.osexp,/Users/katherinehays/Desktop,no,mono,no,18,no,white,no,no,768,legacy,30,30,/Users/katherinehays/Desktop/KH-subject-1.csv,legacy,Lentiform Loewenfeld,3.3.12,0,h,NA,NA,NA,s,h,525,NA,NA,NA,8216,525,2,legacy,1024,2,48000,-16,experiment,SSHSS,0,even,10331,NA,NA,64280,61931,1968,NA,NA,65338,NA,NA,2100,65445,65971,65333,65445,Flanker Task (by Katherine Hays),27,18357,31,yes,1024
87.5,87.5,596.5625,596.5625,black,legacy,legacy,legacy,0,congruent,uniform,1,undefined,1,h,0,0,0,31,31,0,31,0,31,0,0,0,31,31,31,31,Sun Sep 18 20:09:07 2022,1500,The main experiment item,yes,Flanker_Task_by_Katherine_Hays.osexp,/Users/katherinehays/Desktop,no,mono,no,18,no,white,no,no,768,legacy,31,31,/Users/katherinehays/Desktop/KH-subject-1.csv,legacy,Lentiform Loewenfeld,3.3.12,0,h,NA,NA,NA,s,h,733,NA,NA,NA,8216,733,2,legacy,1024,2,48000,-16,experiment,HHHHH,0,even,10331,NA,NA,65975,61931,1968,NA,NA,67030,NA,NA,2100,67136,67870,67025,67136,Flanker Task (by Katherine Hays),28,19090,32,yes,1024
87.87878788,87.87878788,596.3333333,596.3333333,black,legacy,legacy,legacy,0,incongruent,uniform,1,undefined,1,s,0,0,0,32,32,0,32,0,32,0,0,0,32,32,32,32,Sun Sep 18 20:09:07 2022,1500,The main experiment item,yes,Flanker_Task_by_Katherine_Hays.osexp,/Users/katherinehays/Desktop,no,mono,no,18,no,white,no,no,768,legacy,32,32,/Users/katherinehays/Desktop/KH-subject-1.csv,legacy,Lentiform Loewenfeld,3.3.12,0,s,NA,NA,NA,s,s,589,NA,NA,NA,8216,589,2,legacy,1024,2,48000,-16,experiment,HHSHH,0,even,10331,NA,NA,67874,61931,1968,NA,NA,68931,NA,NA,2100,69037,69627,68926,69037,Flanker Task (by Katherine Hays),29,19679,33,yes,1024
88.23529412,88.23529412,596.3235294,596.3235294,black,legacy,legacy,legacy,0,congruent,uniform,1,undefined,1,h,0,0,0,33,33,0,33,0,33,0,0,0,33,33,33,33,Sun Sep 18 20:09:07 2022,1500,The main experiment item,yes,Flanker_Task_by_Katherine_Hays.osexp,/Users/katherinehays/Desktop,no,mono,no,18,no,white,no,no,768,legacy,33,33,/Users/katherinehays/Desktop/KH-subject-1.csv,legacy,Lentiform Loewenfeld,3.3.12,0,h,NA,NA,NA,s,h,596,NA,NA,NA,8216,596,2,legacy,1024,2,48000,-16,experiment,HHHHH,0,even,10331,NA,NA,69631,61931,1968,NA,NA,70690,NA,NA,2100,70795,71392,70685,70795,Flanker Task (by Katherine Hays),30,20275,34,yes,1024
88.57142857,88.57142857,599.0857143,599.0857143,black,legacy,legacy,legacy,0,incongruent,uniform,1,undefined,1,h,0,0,0,34,34,0,34,0,34,0,0,0,34,34,34,34,Sun Sep 18 20:09:07 2022,1500,The main experiment item,yes,Flanker_Task_by_Katherine_Hays.osexp,/Users/katherinehays/Desktop,no,mono,no,18,no,white,no,no,768,legacy,34,34,/Users/katherinehays/Desktop/KH-subject-1.csv,legacy,Lentiform Loewenfeld,3.3.12,0,h,NA,NA,NA,s,h,693,NA,NA,NA,8216,693,2,legacy,1024,2,48000,-16,experiment,SSHSS,0,even,10331,NA,NA,71396,61931,1968,NA,NA,72459,NA,NA,2100,72566,73260,72454,72566,Flanker Task (by Katherine Hays),31,20968,35,yes,1024
88.88888889,88.88888889,596.6666667,596.6666667,black,legacy,legacy,legacy,0,congruent,uniform,1,undefined,1,s,0,0,0,35,35,0,35,0,35,0,0,0,35,35,35,35,Sun Sep 18 20:09:07 2022,1500,The main experiment item,yes,Flanker_Task_by_Katherine_Hays.osexp,/Users/katherinehays/Desktop,no,mono,no,18,no,white,no,no,768,legacy,35,35,/Users/katherinehays/Desktop/KH-subject-1.csv,legacy,Lentiform Loewenfeld,3.3.12,0,s,NA,NA,NA,s,s,512,NA,NA,NA,8216,512,2,legacy,1024,2,48000,-16,experiment,SSSSS,0,even,10331,NA,NA,73264,61931,1968,NA,NA,74323,NA,NA,2100,74430,74943,74318,74430,Flanker Task (by Katherine Hays),32,21480,36,yes,1024
89.18918919,89.18918919,594.4864865,594.4864865,black,legacy,legacy,legacy,0,incongruent,uniform,1,undefined,1,h,0,0,0,36,36,0,36,0,36,0,0,0,36,36,36,36,Sun Sep 18 20:09:07 2022,1500,The main experiment item,yes,Flanker_Task_by_Katherine_Hays.osexp,/Users/katherinehays/Desktop,no,mono,no,18,no,white,no,no,768,legacy,36,36,/Users/katherinehays/Desktop/KH-subject-1.csv,legacy,Lentiform Loewenfeld,3.3.12,0,h,NA,NA,NA,s,h,516,NA,NA,NA,8216,516,2,legacy,1024,2,48000,-16,experiment,SSHSS,0,even,10331,NA,NA,74947,61931,1968,NA,NA,76000,NA,NA,2100,76107,76623,75995,76107,Flanker Task (by Katherine Hays),33,21996,37,yes,1024
89.47368421,89.47368421,596.6315789,596.6315789,black,legacy,legacy,legacy,0,congruent,uniform,1,undefined,1,h,0,0,0,37,37,0,37,0,37,0,0,0,37,37,37,37,Sun Sep 18 20:09:07 2022,1500,The main experiment item,yes,Flanker_Task_by_Katherine_Hays.osexp,/Users/katherinehays/Desktop,no,mono,no,18,no,white,no,no,768,legacy,37,37,/Users/katherinehays/Desktop/KH-subject-1.csv,legacy,Lentiform Loewenfeld,3.3.12,0,h,NA,NA,NA,s,h,676,NA,NA,NA,8216,676,2,legacy,1024,2,48000,-16,experiment,HHHHH,0,even,10331,NA,NA,76627,61931,1968,NA,NA,77685,NA,NA,2100,77792,78469,77680,77792,Flanker Task (by Katherine Hays),34,22672,38,yes,1024
89.74358974,89.74358974,597.6923077,597.6923077,black,legacy,legacy,legacy,0,incongruent,uniform,1,undefined,1,h,0,0,0,38,38,0,38,0,38,0,0,0,38,38,38,38,Sun Sep 18 20:09:07 2022,1500,The main experiment item,yes,Flanker_Task_by_Katherine_Hays.osexp,/Users/katherinehays/Desktop,no,mono,no,18,no,white,no,no,768,legacy,38,38,/Users/katherinehays/Desktop/KH-subject-1.csv,legacy,Lentiform Loewenfeld,3.3.12,0,h,NA,NA,NA,s,h,638,NA,NA,NA,8216,638,2,legacy,1024,2,48000,-16,experiment,SSHSS,0,even,10331,NA,NA,78473,61931,1968,NA,NA,79532,NA,NA,2100,79640,80279,79527,79640,Flanker Task (by Katherine Hays),35,23310,39,yes,1024
90,90,595.55,595.55,black,legacy,legacy,legacy,0,congruent,uniform,1,undefined,1,s,0,0,0,39,39,0,39,0,39,0,0,0,39,39,39,39,Sun Sep 18 20:09:07 2022,1500,The main experiment item,yes,Flanker_Task_by_Katherine_Hays.osexp,/Users/katherinehays/Desktop,no,mono,no,18,no,white,no,no,768,legacy,39,39,/Users/katherinehays/Desktop/KH-subject-1.csv,legacy,Lentiform Loewenfeld,3.3.12,0,s,NA,NA,NA,s,s,512,NA,NA,NA,8216,512,2,legacy,1024,2,48000,-16,experiment,SSSSS,0,even,10331,NA,NA,80283,61931,1968,NA,NA,81334,NA,NA,2100,81440,81953,81329,81439,Flanker Task (by Katherine Hays),36,23822,40,yes,1024
90.24390244,90.24390244,594.6585366,594.6585366,black,legacy,legacy,legacy,0,incongruent,uniform,1,undefined,1,s,0,0,0,40,40,0,40,0,40,0,0,0,40,40,40,40,Sun Sep 18 20:09:07 2022,1500,The main experiment item,yes,Flanker_Task_by_Katherine_Hays.osexp,/Users/katherinehays/Desktop,no,mono,no,18,no,white,no,no,768,legacy,40,40,/Users/katherinehays/Desktop/KH-subject-1.csv,legacy,Lentiform Loewenfeld,3.3.12,0,s,NA,NA,NA,s,s,559,NA,NA,NA,8216,559,2,legacy,1024,2,48000,-16,experiment,HHSHH,0,even,10331,NA,NA,81957,61931,1968,NA,NA,83023,NA,NA,2100,83130,83689,83019,83130,Flanker Task (by Katherine Hays),37,24381,41,yes,1024
90.47619048,90.47619048,593.7142857,593.7142857,black,legacy,legacy,legacy,0,incongruent,uniform,1,undefined,1,s,0,0,0,41,41,0,41,0,41,0,0,0,41,41,41,41,Sun Sep 18 20:09:07 2022,1500,The main experiment item,yes,Flanker_Task_by_Katherine_Hays.osexp,/Users/katherinehays/Desktop,no,mono,no,18,no,white,no,no,768,legacy,41,41,/Users/katherinehays/Desktop/KH-subject-1.csv,legacy,Lentiform Loewenfeld,3.3.12,0,s,NA,NA,NA,s,s,555,NA,NA,NA,8216,555,2,legacy,1024,2,48000,-16,experiment,HHSHH,0,even,10331,NA,NA,83693,61931,1968,NA,NA,84752,NA,NA,2100,84859,85415,84747,84859,Flanker Task (by Katherine Hays),38,24936,42,yes,1024
90.69767442,90.69767442,590.6976744,590.6976744,black,legacy,legacy,legacy,0,incongruent,uniform,1,undefined,1,s,0,0,0,42,42,0,42,0,42,0,0,0,42,42,42,42,Sun Sep 18 20:09:07 2022,1500,The main experiment item,yes,Flanker_Task_by_Katherine_Hays.osexp,/Users/katherinehays/Desktop,no,mono,no,18,no,white,no,no,768,legacy,42,42,/Users/katherinehays/Desktop/KH-subject-1.csv,legacy,Lentiform Loewenfeld,3.3.12,0,s,NA,NA,NA,s,s,464,NA,NA,NA,8216,464,2,legacy,1024,2,48000,-16,experiment,HHSHH,0,even,10331,NA,NA,85419,61931,1968,NA,NA,86478,NA,NA,2100,86585,87049,86473,86585,Flanker Task (by Katherine Hays),39,25400,43,yes,1024
90.90909091,90.90909091,588.3636364,588.3636364,black,legacy,legacy,legacy,0,congruent,uniform,1,undefined,1,s,0,0,0,43,43,0,43,0,43,0,0,0,43,43,43,43,Sun Sep 18 20:09:07 2022,1500,The main experiment item,yes,Flanker_Task_by_Katherine_Hays.osexp,/Users/katherinehays/Desktop,no,mono,no,18,no,white,no,no,768,legacy,43,43,/Users/katherinehays/Desktop/KH-subject-1.csv,legacy,Lentiform Loewenfeld,3.3.12,0,s,NA,NA,NA,s,s,488,NA,NA,NA,8216,488,2,legacy,1024,2,48000,-16,experiment,SSSSS,0,even,10331,NA,NA,87053,61931,1968,NA,NA,88109,NA,NA,2100,88214,88703,88105,88214,Flanker Task (by Katherine Hays),40,25888,44,yes,1024
91.11111111,91.11111111,587.4222222,587.4222222,black,legacy,legacy,legacy,0,incongruent,uniform,1,undefined,1,h,0,0,0,44,44,0,44,0,44,0,0,0,44,44,44,44,Sun Sep 18 20:09:07 2022,1500,The main experiment item,yes,Flanker_Task_by_Katherine_Hays.osexp,/Users/katherinehays/Desktop,no,mono,no,18,no,white,no,no,768,legacy,44,44,/Users/katherinehays/Desktop/KH-subject-1.csv,legacy,Lentiform Loewenfeld,3.3.12,0,h,NA,NA,NA,s,h,546,NA,NA,NA,8216,546,2,legacy,1024,2,48000,-16,experiment,SSHSS,0,even,10331,NA,NA,88707,61931,1968,NA,NA,89755,NA,NA,2100,89860,90407,89751,89860,Flanker Task (by Katherine Hays),41,26434,45,yes,1024
91.30434783,91.30434783,591.2826087,591.2826087,black,legacy,legacy,legacy,0,incongruent,uniform,1,undefined,1,s,0,0,0,45,45,0,45,0,45,0,0,0,45,45,45,45,Sun Sep 18 20:09:07 2022,1500,The main experiment item,yes,Flanker_Task_by_Katherine_Hays.osexp,/Users/katherinehays/Desktop,no,mono,no,18,no,white,no,no,768,legacy,45,45,/Users/katherinehays/Desktop/KH-subject-1.csv,legacy,Lentiform Loewenfeld,3.3.12,0,s,NA,NA,NA,s,s,765,NA,NA,NA,8216,765,2,legacy,1024,2,48000,-16,experiment,HHSHH,0,even,10331,NA,NA,90411,61931,1968,NA,NA,91471,NA,NA,2100,91578,92343,91466,91578,Flanker Task (by Katherine Hays),42,27199,46,yes,1024
91.4893617,91.4893617,589.2978723,589.2978723,black,legacy,legacy,legacy,0,congruent,uniform,1,undefined,1,s,0,0,0,46,46,0,46,0,46,0,0,0,46,46,46,46,Sun Sep 18 20:09:07 2022,1500,The main experiment item,yes,Flanker_Task_by_Katherine_Hays.osexp,/Users/katherinehays/Desktop,no,mono,no,18,no,white,no,no,768,legacy,46,46,/Users/katherinehays/Desktop/KH-subject-1.csv,legacy,Lentiform Loewenfeld,3.3.12,0,s,NA,NA,NA,s,s,498,NA,NA,NA,8216,498,2,legacy,1024,2,48000,-16,experiment,SSSSS,0,even,10331,NA,NA,92347,61931,1968,NA,NA,93399,NA,NA,2100,93505,94003,93394,93505,Flanker Task (by Katherine Hays),43,27697,47,yes,1024
91.66666667,91.66666667,588.7708333,588.7708333,black,legacy,legacy,legacy,0,incongruent,uniform,1,undefined,1,h,0,0,0,47,47,0,47,0,47,0,0,0,47,47,47,47,Sun Sep 18 20:09:07 2022,1500,The main experiment item,yes,Flanker_Task_by_Katherine_Hays.osexp,/Users/katherinehays/Desktop,no,mono,no,18,no,white,no,no,768,legacy,47,47,/Users/katherinehays/Desktop/KH-subject-1.csv,legacy,Lentiform Loewenfeld,3.3.12,0,h,NA,NA,NA,s,h,564,NA,NA,NA,8216,564,2,legacy,1024,2,48000,-16,experiment,SSHSS,0,even,10331,NA,NA,94007,61931,1968,NA,NA,95064,NA,NA,2100,95171,95736,95060,95170,Flanker Task (by Katherine Hays),44,28261,48,yes,1024
91.83673469,91.83673469,587.9591837,587.9591837,black,legacy,legacy,legacy,0,congruent,uniform,1,undefined,1,s,0,0,0,48,48,0,48,0,48,0,0,0,48,48,48,48,Sun Sep 18 20:09:07 2022,1500,The main experiment item,yes,Flanker_Task_by_Katherine_Hays.osexp,/Users/katherinehays/Desktop,no,mono,no,18,no,white,no,no,768,legacy,48,48,/Users/katherinehays/Desktop/KH-subject-1.csv,legacy,Lentiform Loewenfeld,3.3.12,0,s,NA,NA,NA,s,s,549,NA,NA,NA,8216,549,2,legacy,1024,2,48000,-16,experiment,SSSSS,0,even,10331,NA,NA,95740,61931,1968,NA,NA,96798,NA,NA,2100,96905,97455,96793,96905,Flanker Task (by Katherine Hays),45,28810,49,yes,1024
92,92,585.92,585.92,black,legacy,legacy,legacy,0,congruent,uniform,1,undefined,1,s,0,0,0,49,49,0,49,0,49,0,0,0,49,49,49,49,Sun Sep 18 20:09:07 2022,1500,The main experiment item,yes,Flanker_Task_by_Katherine_Hays.osexp,/Users/katherinehays/Desktop,no,mono,no,18,no,white,no,no,768,legacy,49,49,/Users/katherinehays/Desktop/KH-subject-1.csv,legacy,Lentiform Loewenfeld,3.3.12,0,s,NA,NA,NA,s,s,486,NA,NA,NA,8216,486,2,legacy,1024,2,48000,-16,experiment,SSSSS,0,even,10331,NA,NA,97458,61931,1968,NA,NA,98518,NA,NA,2100,98625,99112,98512,98625,Flanker Task (by Katherine Hays),46,29296,50,yes,1024
92.15686275,92.15686275,583.1960784,583.1960784,black,legacy,legacy,legacy,0,congruent,uniform,1,undefined,1,s,0,0,0,50,50,0,50,0,50,0,0,0,50,50,50,50,Sun Sep 18 20:09:07 2022,1500,The main experiment item,yes,Flanker_Task_by_Katherine_Hays.osexp,/Users/katherinehays/Desktop,no,mono,no,18,no,white,no,no,768,legacy,50,50,/Users/katherinehays/Desktop/KH-subject-1.csv,legacy,Lentiform Loewenfeld,3.3.12,0,s,NA,NA,NA,s,s,447,NA,NA,NA,8216,447,2,legacy,1024,2,48000,-16,experiment,SSSSS,0,even,10331,NA,NA,99116,61931,1968,NA,NA,100177,NA,NA,2100,100284,100732,100171,100284,Flanker Task (by Katherine Hays),47,29743,51,yes,1024
92.30769231,92.30769231,581.75,581.75,black,legacy,legacy,legacy,0,congruent,uniform,1,undefined,1,h,0,0,0,51,51,0,51,0,51,0,0,0,51,51,51,51,Sun Sep 18 20:09:07 2022,1500,The main experiment item,yes,Flanker_Task_by_Katherine_Hays.osexp,/Users/katherinehays/Desktop,no,mono,no,18,no,white,no,no,768,legacy,51,51,/Users/katherinehays/Desktop/KH-subject-1.csv,legacy,Lentiform Loewenfeld,3.3.12,0,h,NA,NA,NA,s,h,508,NA,NA,NA,8216,508,2,legacy,1024,2,48000,-16,experiment,HHHHH,0,even,10331,NA,NA,100736,61931,1968,NA,NA,101798,NA,NA,2100,101905,102414,101792,101905,Flanker Task (by Katherine Hays),48,30251,52,yes,1024
92.45283019,92.45283019,579.6226415,579.6226415,black,legacy,legacy,legacy,0,congruent,uniform,1,undefined,1,h,0,0,0,52,52,0,52,0,52,0,0,0,52,52,52,52,Sun Sep 18 20:09:07 2022,1500,The main experiment item,yes,Flanker_Task_by_Katherine_Hays.osexp,/Users/katherinehays/Desktop,no,mono,no,18,no,white,no,no,768,legacy,52,52,/Users/katherinehays/Desktop/KH-subject-1.csv,legacy,Lentiform Loewenfeld,3.3.12,0,h,NA,NA,NA,s,h,469,NA,NA,NA,8216,469,2,legacy,1024,2,48000,-16,experiment,HHHHH,0,even,10331,NA,NA,102418,61931,1968,NA,NA,103484,NA,NA,2100,103590,104060,103479,103590,Flanker Task (by Katherine Hays),49,30720,53,yes,1024
92.59259259,92.59259259,577.4074074,577.4074074,black,legacy,legacy,legacy,0,incongruent,uniform,1,undefined,1,h,0,0,0,53,53,0,53,0,53,0,0,0,53,53,53,53,Sun Sep 18 20:09:07 2022,1500,The main experiment item,yes,Flanker_Task_by_Katherine_Hays.osexp,/Users/katherinehays/Desktop,no,mono,no,18,no,white,no,no,768,legacy,53,53,/Users/katherinehays/Desktop/KH-subject-1.csv,legacy,Lentiform Loewenfeld,3.3.12,0,h,NA,NA,NA,s,h,460,NA,NA,NA,8216,460,2,legacy,1024,2,48000,-16,experiment,SSHSS,0,even,10331,NA,NA,104064,61931,1968,NA,NA,105123,NA,NA,2100,105230,105691,105117,105230,Flanker Task (by Katherine Hays),50,31180,54,yes,1024
92.72727273,92.72727273,576.2,576.2,black,legacy,legacy,legacy,0,incongruent,uniform,1,undefined,1,h,0,0,0,54,54,0,54,0,54,0,0,0,54,54,54,54,Sun Sep 18 20:09:07 2022,1500,The main experiment item,yes,Flanker_Task_by_Katherine_Hays.osexp,/Users/katherinehays/Desktop,no,mono,no,18,no,white,no,no,768,legacy,54,54,/Users/katherinehays/Desktop/KH-subject-1.csv,legacy,Lentiform Loewenfeld,3.3.12,0,h,NA,NA,NA,s,h,511,NA,NA,NA,8216,511,2,legacy,1024,2,48000,-16,experiment,SSHSS,0,even,10331,NA,NA,105695,61931,1968,NA,NA,106756,NA,NA,2100,106863,107375,106751,106863,Flanker Task (by Katherine Hays),51,31691,55,yes,1024
92.85714286,92.85714286,574.4464286,574.4464286,black,legacy,legacy,legacy,0,congruent,uniform,1,undefined,1,h,0,0,0,55,55,0,55,0,55,0,0,0,55,55,55,55,Sun Sep 18 20:09:07 2022,1500,The main experiment item,yes,Flanker_Task_by_Katherine_Hays.osexp,/Users/katherinehays/Desktop,no,mono,no,18,no,white,no,no,768,legacy,55,55,/Users/katherinehays/Desktop/KH-subject-1.csv,legacy,Lentiform Loewenfeld,3.3.12,0,h,NA,NA,NA,s,h,478,NA,NA,NA,8216,478,2,legacy,1024,2,48000,-16,experiment,HHHHH,0,even,10331,NA,NA,107378,61931,1968,NA,NA,108437,NA,NA,2100,108544,109023,108432,108544,Flanker Task (by Katherine Hays),52,32169,56,yes,1024
92.98245614,92.98245614,575.3157895,575.3157895,black,legacy,legacy,legacy,0,incongruent,uniform,1,undefined,1,s,0,0,0,56,56,0,56,0,56,0,0,0,56,56,56,56,Sun Sep 18 20:09:07 2022,1500,The main experiment item,yes,Flanker_Task_by_Katherine_Hays.osexp,/Users/katherinehays/Desktop,no,mono,no,18,no,white,no,no,768,legacy,56,56,/Users/katherinehays/Desktop/KH-subject-1.csv,legacy,Lentiform Loewenfeld,3.3.12,0,s,NA,NA,NA,s,s,624,NA,NA,NA,8216,624,2,legacy,1024,2,48000,-16,experiment,HHSHH,0,even,10331,NA,NA,109027,61931,1968,NA,NA,110085,NA,NA,2100,110193,110818,110081,110193,Flanker Task (by Katherine Hays),53,32793,57,yes,1024
93.10344828,93.10344828,575.3448276,575.3448276,black,legacy,legacy,legacy,0,congruent,uniform,1,undefined,1,s,0,0,0,57,57,0,57,0,57,0,0,0,57,57,57,57,Sun Sep 18 20:09:07 2022,1500,The main experiment item,yes,Flanker_Task_by_Katherine_Hays.osexp,/Users/katherinehays/Desktop,no,mono,no,18,no,white,no,no,768,legacy,57,57,/Users/katherinehays/Desktop/KH-subject-1.csv,legacy,Lentiform Loewenfeld,3.3.12,0,s,NA,NA,NA,s,s,577,NA,NA,NA,8216,577,2,legacy,1024,2,48000,-16,experiment,SSSSS,0,even,10331,NA,NA,110822,61931,1968,NA,NA,111881,NA,NA,2100,111988,112566,111876,111988,Flanker Task (by Katherine Hays),54,33370,58,yes,1024
93.22033898,93.22033898,575.440678,575.440678,black,legacy,legacy,legacy,0,incongruent,uniform,1,undefined,1,s,0,0,0,58,58,0,58,0,58,0,0,0,58,58,58,58,Sun Sep 18 20:09:07 2022,1500,The main experiment item,yes,Flanker_Task_by_Katherine_Hays.osexp,/Users/katherinehays/Desktop,no,mono,no,18,no,white,no,no,768,legacy,58,58,/Users/katherinehays/Desktop/KH-subject-1.csv,legacy,Lentiform Loewenfeld,3.3.12,0,s,NA,NA,NA,s,s,581,NA,NA,NA,8216,581,2,legacy,1024,2,48000,-16,experiment,HHSHH,0,even,10331,NA,NA,112569,61931,1968,NA,NA,113628,NA,NA,2100,113733,114315,113623,113733,Flanker Task (by Katherine Hays),55,33951,59,yes,1024
93.33333333,93.33333333,573.35,573.35,black,legacy,legacy,legacy,0,congruent,uniform,1,undefined,1,h,0,0,0,59,59,0,59,0,59,0,0,0,59,59,59,59,Sun Sep 18 20:09:07 2022,1500,The main experiment item,yes,Flanker_Task_by_Katherine_Hays.osexp,/Users/katherinehays/Desktop,no,mono,no,18,no,white,no,no,768,legacy,59,59,/Users/katherinehays/Desktop/KH-subject-1.csv,legacy,Lentiform Loewenfeld,3.3.12,0,h,NA,NA,NA,s,h,450,NA,NA,NA,8216,450,2,legacy,1024,2,48000,-16,experiment,HHHHH,0,even,10331,NA,NA,114319,61931,1968,NA,NA,115376,NA,NA,2100,115482,115933,115372,115482,Flanker Task (by Katherine Hays),56,34401,60,yes,1024
93.44262295,93.44262295,570.557377,570.557377,black,legacy,legacy,legacy,0,incongruent,uniform,1,undefined,1,h,0,0,0,60,60,0,60,0,60,0,0,0,60,60,60,60,Sun Sep 18 20:09:07 2022,1500,The main experiment item,yes,Flanker_Task_by_Katherine_Hays.osexp,/Users/katherinehays/Desktop,no,mono,no,18,no,white,no,no,768,legacy,60,60,/Users/katherinehays/Desktop/KH-subject-1.csv,legacy,Lentiform Loewenfeld,3.3.12,0,h,NA,NA,NA,s,h,403,NA,NA,NA,8216,403,2,legacy,1024,2,48000,-16,experiment,SSHSS,0,even,10331,NA,NA,115937,61931,1968,NA,NA,116998,NA,NA,2100,117105,117509,116993,117105,Flanker Task (by Katherine Hays),57,34804,61,yes,1024
93.5483871,93.5483871,573.5,573.5,black,legacy,legacy,legacy,0,incongruent,uniform,1,undefined,1,s,0,0,0,61,61,0,61,0,61,0,0,0,61,61,61,61,Sun Sep 18 20:09:07 2022,1500,The main experiment item,yes,Flanker_Task_by_Katherine_Hays.osexp,/Users/katherinehays/Desktop,no,mono,no,18,no,white,no,no,768,legacy,61,61,/Users/katherinehays/Desktop/KH-subject-1.csv,legacy,Lentiform Loewenfeld,3.3.12,0,s,NA,NA,NA,s,s,753,NA,NA,NA,8216,753,2,legacy,1024,2,48000,-16,experiment,HHSHH,0,even,10331,NA,NA,117513,61931,1968,NA,NA,118570,NA,NA,2100,118678,119432,118566,118678,Flanker Task (by Katherine Hays),58,35557,62,yes,1024
93.65079365,93.65079365,573.6666667,573.6666667,black,legacy,legacy,legacy,0,incongruent,uniform,1,undefined,1,s,0,0,0,62,62,0,62,0,62,0,0,0,62,62,62,62,Sun Sep 18 20:09:07 2022,1500,The main experiment item,yes,Flanker_Task_by_Katherine_Hays.osexp,/Users/katherinehays/Desktop,no,mono,no,18,no,white,no,no,768,legacy,62,62,/Users/katherinehays/Desktop/KH-subject-1.csv,legacy,Lentiform Loewenfeld,3.3.12,0,s,NA,NA,NA,s,s,584,NA,NA,NA,8216,584,2,legacy,1024,2,48000,-16,experiment,HHSHH,0,even,10331,NA,NA,119435,61931,1968,NA,NA,120495,NA,NA,2100,120602,121187,120490,120602,Flanker Task (by Katherine Hays),59,36141,63,yes,1024
93.75,93.75,573.359375,573.359375,black,legacy,legacy,legacy,0,congruent,uniform,1,undefined,1,h,0,0,0,63,63,0,63,0,63,0,0,0,63,63,63,63,Sun Sep 18 20:09:07 2022,1500,The main experiment item,yes,Flanker_Task_by_Katherine_Hays.osexp,/Users/katherinehays/Desktop,no,mono,no,18,no,white,no,no,768,legacy,63,63,/Users/katherinehays/Desktop/KH-subject-1.csv,legacy,Lentiform Loewenfeld,3.3.12,0,h,NA,NA,NA,s,h,554,NA,NA,NA,8216,554,2,legacy,1024,2,48000,-16,experiment,HHHHH,0,even,10331,NA,NA,121191,61931,1968,NA,NA,122251,NA,NA,2100,122358,122913,122246,122358,Flanker Task (by Katherine Hays),60,36695,64,yes,1024
93.84615385,93.84615385,571.6923077,571.6923077,black,legacy,legacy,legacy,0,congruent,uniform,1,undefined,1,h,0,0,0,64,64,0,64,0,64,0,0,0,64,64,64,64,Sun Sep 18 20:09:07 2022,1500,The main experiment item,yes,Flanker_Task_by_Katherine_Hays.osexp,/Users/katherinehays/Desktop,no,mono,no,18,no,white,no,no,768,legacy,64,64,/Users/katherinehays/Desktop/KH-subject-1.csv,legacy,Lentiform Loewenfeld,3.3.12,0,h,NA,NA,NA,s,h,465,NA,NA,NA,8216,465,2,legacy,1024,2,48000,-16,experiment,HHHHH,0,even,10331,NA,NA,122917,61931,1968,NA,NA,123967,NA,NA,2100,124074,124540,123962,124074,Flanker Task (by Katherine Hays),61,37160,65,yes,1024
93.93939394,93.93939394,572.4393939,572.4393939,black,legacy,legacy,legacy,0,congruent,uniform,1,undefined,1,s,0,0,0,65,65,0,65,0,65,0,0,0,65,65,65,65,Sun Sep 18 20:09:07 2022,1500,The main experiment item,yes,Flanker_Task_by_Katherine_Hays.osexp,/Users/katherinehays/Desktop,no,mono,no,18,no,white,no,no,768,legacy,65,65,/Users/katherinehays/Desktop/KH-subject-1.csv,legacy,Lentiform Loewenfeld,3.3.12,0,s,NA,NA,NA,s,s,621,NA,NA,NA,8216,621,2,legacy,1024,2,48000,-16,experiment,SSSSS,0,even,10331,NA,NA,124544,61931,1968,NA,NA,125604,NA,NA,2100,125711,126333,125599,125711,Flanker Task (by Katherine Hays),62,37781,66,yes,1024
94.02985075,94.02985075,572.1343284,572.1343284,black,legacy,legacy,legacy,0,congruent,uniform,1,undefined,1,s,0,0,0,66,66,0,66,0,66,0,0,0,66,66,66,66,Sun Sep 18 20:09:07 2022,1500,The main experiment item,yes,Flanker_Task_by_Katherine_Hays.osexp,/Users/katherinehays/Desktop,no,mono,no,18,no,white,no,no,768,legacy,66,66,/Users/katherinehays/Desktop/KH-subject-1.csv,legacy,Lentiform Loewenfeld,3.3.12,0,s,NA,NA,NA,s,s,552,NA,NA,NA,8216,552,2,legacy,1024,2,48000,-16,experiment,SSSSS,0,even,10331,NA,NA,126337,61931,1968,NA,NA,127396,NA,NA,2100,127503,128055,127391,127503,Flanker Task (by Katherine Hays),63,38333,67,yes,1024
94.11764706,94.11764706,571.25,571.25,black,legacy,legacy,legacy,0,congruent,uniform,1,undefined,1,h,0,0,0,67,67,0,67,0,67,0,0,0,67,67,67,67,Sun Sep 18 20:09:07 2022,1500,The main experiment item,yes,Flanker_Task_by_Katherine_Hays.osexp,/Users/katherinehays/Desktop,no,mono,no,18,no,white,no,no,768,legacy,67,67,/Users/katherinehays/Desktop/KH-subject-1.csv,legacy,Lentiform Loewenfeld,3.3.12,0,h,NA,NA,NA,s,h,512,NA,NA,NA,8216,512,2,legacy,1024,2,48000,-16,experiment,HHHHH,0,even,10331,NA,NA,128059,61931,1968,NA,NA,129117,NA,NA,2100,129224,129737,129112,129224,Flanker Task (by Katherine Hays),64,38845,68,yes,1024
94.20289855,94.20289855,576.7391304,576.7391304,black,legacy,legacy,legacy,0,congruent,uniform,1,undefined,1,s,0,0,0,68,68,0,68,0,68,0,0,0,68,68,68,68,Sun Sep 18 20:09:07 2022,1500,The main experiment item,yes,Flanker_Task_by_Katherine_Hays.osexp,/Users/katherinehays/Desktop,no,mono,no,18,no,white,no,no,768,legacy,68,68,/Users/katherinehays/Desktop/KH-subject-1.csv,legacy,Lentiform Loewenfeld,3.3.12,0,s,NA,NA,NA,s,s,950,NA,NA,NA,8216,950,2,legacy,1024,2,48000,-16,experiment,SSSSS,0,even,10331,NA,NA,129741,61931,1968,NA,NA,130796,NA,NA,2100,130904,131855,130792,130903,Flanker Task (by Katherine Hays),65,39795,69,yes,1024
94.28571429,94.28571429,576.8,576.8,black,legacy,legacy,legacy,0,incongruent,uniform,1,undefined,1,h,0,0,0,69,69,0,69,0,69,0,0,0,69,69,69,69,Sun Sep 18 20:09:07 2022,1500,The main experiment item,yes,Flanker_Task_by_Katherine_Hays.osexp,/Users/katherinehays/Desktop,no,mono,no,18,no,white,no,no,768,legacy,69,69,/Users/katherinehays/Desktop/KH-subject-1.csv,legacy,Lentiform Loewenfeld,3.3.12,0,h,NA,NA,NA,s,h,581,NA,NA,NA,8216,581,2,legacy,1024,2,48000,-16,experiment,SSHSS,0,even,10331,NA,NA,131859,61931,1968,NA,NA,132914,NA,NA,2100,133020,133602,132909,133020,Flanker Task (by Katherine Hays),66,40376,70,yes,1024
94.36619718,94.36619718,575.7183099,575.7183099,black,legacy,legacy,legacy,0,incongruent,uniform,1,undefined,1,s,0,0,0,70,70,0,70,0,70,0,0,0,70,70,70,70,Sun Sep 18 20:09:07 2022,1500,The main experiment item,yes,Flanker_Task_by_Katherine_Hays.osexp,/Users/katherinehays/Desktop,no,mono,no,18,no,white,no,no,768,legacy,70,70,/Users/katherinehays/Desktop/KH-subject-1.csv,legacy,Lentiform Loewenfeld,3.3.12,0,s,NA,NA,NA,s,s,500,NA,NA,NA,8216,500,2,legacy,1024,2,48000,-16,experiment,HHSHH,0,even,10331,NA,NA,133606,61931,1968,NA,NA,134667,NA,NA,2100,134774,135275,134662,134774,Flanker Task (by Katherine Hays),67,40876,71,yes,1024
94.44444444,94.44444444,575.9027778,575.9027778,black,legacy,legacy,legacy,0,congruent,uniform,1,undefined,1,s,0,0,0,71,71,0,71,0,71,0,0,0,71,71,71,71,Sun Sep 18 20:09:07 2022,1500,The main experiment item,yes,Flanker_Task_by_Katherine_Hays.osexp,/Users/katherinehays/Desktop,no,mono,no,18,no,white,no,no,768,legacy,71,71,/Users/katherinehays/Desktop/KH-subject-1.csv,legacy,Lentiform Loewenfeld,3.3.12,0,s,NA,NA,NA,s,s,589,NA,NA,NA,8216,589,2,legacy,1024,2,48000,-16,experiment,SSSSS,0,even,10331,NA,NA,135278,61931,1968,NA,NA,136333,NA,NA,2100,136440,137030,136329,136439,Flanker Task (by Katherine Hays),68,41465,72,yes,1024
94.52054795,94.52054795,578.4246575,578.4246575,black,legacy,legacy,legacy,0,incongruent,uniform,1,undefined,1,h,0,0,0,72,72,0,72,0,72,0,0,0,72,72,72,72,Sun Sep 18 20:09:07 2022,1500,The main experiment item,yes,Flanker_Task_by_Katherine_Hays.osexp,/Users/katherinehays/Desktop,no,mono,no,18,no,white,no,no,768,legacy,72,72,/Users/katherinehays/Desktop/KH-subject-1.csv,legacy,Lentiform Loewenfeld,3.3.12,0,h,NA,NA,NA,s,h,760,NA,NA,NA,8216,760,2,legacy,1024,2,48000,-16,experiment,SSHSS,0,even,10331,NA,NA,137034,61931,1968,NA,NA,138092,NA,NA,2100,138197,138958,138087,138197,Flanker Task (by Katherine Hays),69,42225,73,yes,1024
94.59459459,94.59459459,579.1756757,579.1756757,black,legacy,legacy,legacy,0,incongruent,uniform,1,undefined,1,s,0,0,0,73,73,0,73,0,73,0,0,0,73,73,73,73,Sun Sep 18 20:09:07 2022,1500,The main experiment item,yes,Flanker_Task_by_Katherine_Hays.osexp,/Users/katherinehays/Desktop,no,mono,no,18,no,white,no,no,768,legacy,73,73,/Users/katherinehays/Desktop/KH-subject-1.csv,legacy,Lentiform Loewenfeld,3.3.12,0,s,NA,NA,NA,s,s,634,NA,NA,NA,8216,634,2,legacy,1024,2,48000,-16,experiment,HHSHH,0,even,10331,NA,NA,138962,61931,1968,NA,NA,140020,NA,NA,2100,140127,140762,140015,140127,Flanker Task (by Katherine Hays),70,42859,74,yes,1024
94.66666667,94.66666667,578.1333333,578.1333333,black,legacy,legacy,legacy,0,congruent,uniform,1,undefined,1,h,0,0,0,74,74,0,74,0,74,0,0,0,74,74,74,74,Sun Sep 18 20:09:07 2022,1500,The main experiment item,yes,Flanker_Task_by_Katherine_Hays.osexp,/Users/katherinehays/Desktop,no,mono,no,18,no,white,no,no,768,legacy,74,74,/Users/katherinehays/Desktop/KH-subject-1.csv,legacy,Lentiform Loewenfeld,3.3.12,0,h,NA,NA,NA,s,h,501,NA,NA,NA,8216,501,2,legacy,1024,2,48000,-16,experiment,HHHHH,0,even,10331,NA,NA,140766,61931,1968,NA,NA,141829,NA,NA,2100,141936,142438,141824,141936,Flanker Task (by Katherine Hays),71,43360,75,yes,1024
94.73684211,94.73684211,577.5657895,577.5657895,black,legacy,legacy,legacy,0,incongruent,uniform,1,undefined,1,s,0,0,0,75,75,0,75,0,75,0,0,0,75,75,75,75,Sun Sep 18 20:09:07 2022,1500,The main experiment item,yes,Flanker_Task_by_Katherine_Hays.osexp,/Users/katherinehays/Desktop,no,mono,no,18,no,white,no,no,768,legacy,75,75,/Users/katherinehays/Desktop/KH-subject-1.csv,legacy,Lentiform Loewenfeld,3.3.12,0,s,NA,NA,NA,s,s,535,NA,NA,NA,8216,535,2,legacy,1024,2,48000,-16,experiment,HHSHH,0,even,10331,NA,NA,142442,61931,1968,NA,NA,143499,NA,NA,2100,143606,144142,143494,143606,Flanker Task (by Katherine Hays),72,43895,76,yes,1024
94.80519481,94.80519481,577.1298701,577.1298701,black,legacy,legacy,legacy,0,incongruent,uniform,1,undefined,1,s,0,0,0,76,76,0,76,0,76,0,0,0,76,76,76,76,Sun Sep 18 20:09:07 2022,1500,The main experiment item,yes,Flanker_Task_by_Katherine_Hays.osexp,/Users/katherinehays/Desktop,no,mono,no,18,no,white,no,no,768,legacy,76,76,/Users/katherinehays/Desktop/KH-subject-1.csv,legacy,Lentiform Loewenfeld,3.3.12,0,s,NA,NA,NA,s,s,544,NA,NA,NA,8216,544,2,legacy,1024,2,48000,-16,experiment,HHSHH,0,even,10331,NA,NA,144146,61931,1968,NA,NA,145203,NA,NA,2100,145315,145860,145199,145315,Flanker Task (by Katherine Hays),73,44439,77,yes,1024
94.87179487,94.87179487,575.9230769,575.9230769,black,legacy,legacy,legacy,0,congruent,uniform,1,undefined,1,h,0,0,0,77,77,0,77,0,77,0,0,0,77,77,77,77,Sun Sep 18 20:09:07 2022,1500,The main experiment item,yes,Flanker_Task_by_Katherine_Hays.osexp,/Users/katherinehays/Desktop,no,mono,no,18,no,white,no,no,768,legacy,77,77,/Users/katherinehays/Desktop/KH-subject-1.csv,legacy,Lentiform Loewenfeld,3.3.12,0,h,NA,NA,NA,s,h,483,NA,NA,NA,8216,483,2,legacy,1024,2,48000,-16,experiment,HHHHH,0,even,10331,NA,NA,145864,61931,1968,NA,NA,146925,NA,NA,2100,147032,147516,146920,147032,Flanker Task (by Katherine Hays),74,44922,78,yes,1024
94.93670886,94.93670886,574.8734177,574.8734177,black,legacy,legacy,legacy,0,congruent,uniform,1,undefined,1,s,0,0,0,78,78,0,78,0,78,0,0,0,78,78,78,78,Sun Sep 18 20:09:07 2022,1500,The main experiment item,yes,Flanker_Task_by_Katherine_Hays.osexp,/Users/katherinehays/Desktop,no,mono,no,18,no,white,no,no,768,legacy,78,78,/Users/katherinehays/Desktop/KH-subject-1.csv,legacy,Lentiform Loewenfeld,3.3.12,0,s,NA,NA,NA,s,s,493,NA,NA,NA,8216,493,2,legacy,1024,2,48000,-16,experiment,SSSSS,0,even,10331,NA,NA,147520,61931,1968,NA,NA,148575,NA,NA,2100,148682,149176,148570,148682,Flanker Task (by Katherine Hays),75,45415,79,yes,1024
95,95,574.7625,574.7625,black,legacy,legacy,legacy,0,incongruent,uniform,1,undefined,1,s,0,0,0,79,79,0,79,0,79,0,0,0,79,79,79,79,Sun Sep 18 20:09:07 2022,1500,The main experiment item,yes,Flanker_Task_by_Katherine_Hays.osexp,/Users/katherinehays/Desktop,no,mono,no,18,no,white,no,no,768,legacy,79,79,/Users/katherinehays/Desktop/KH-subject-1.csv,legacy,Lentiform Loewenfeld,3.3.12,0,s,NA,NA,NA,s,s,566,NA,NA,NA,8216,566,2,legacy,1024,2,48000,-16,experiment,HHSHH,0,even,10331,NA,NA,149180,61931,1968,NA,NA,150231,NA,NA,2100,150337,150904,150226,150336,Flanker Task (by Katherine Hays),76,45981,80,yes,1024
95.0617284,95.0617284,577.9259259,577.9259259,black,legacy,legacy,legacy,0,incongruent,uniform,1,undefined,1,h,0,0,0,80,80,0,80,0,80,0,0,0,80,80,80,80,Sun Sep 18 20:09:07 2022,600,The main experiment item,yes,Flanker_Task_by_Katherine_Hays.osexp,/Users/katherinehays/Desktop,no,mono,no,18,no,white,no,no,768,legacy,0,79,/Users/katherinehays/Desktop/KH-subject-1.csv,legacy,Lentiform Loewenfeld,3.3.12,0,h,NA,h,NA,s,h,831,NA,37334,NA,8216,831,2,legacy,1024,2,48000,-16,experiment,SSHSS,0,even,10331,189280,NA,150908,61931,1968,NA,NA,189300,151945,NA,2100,189406,190238,189297,189406,Flanker Task (by Katherine Hays),77,46812,81,yes,1024
93.90243902,93.90243902,589.1707317,589.1707317,black,legacy,legacy,legacy,0,congruent,uniform,0,undefined,0,s,0,0,0,81,81,0,81,0,81,0,0,0,81,81,81,81,Sun Sep 18 20:09:07 2022,600,The main experiment item,yes,Flanker_Task_by_Katherine_Hays.osexp,/Users/katherinehays/Desktop,no,mono,no,18,no,white,no,no,768,legacy,1,79,/Users/katherinehays/Desktop/KH-subject-1.csv,legacy,Lentiform Loewenfeld,3.3.12,0,None,NA,h,NA,s,None,1500,NA,37334,NA,8216,1500,2,legacy,1024,2,48000,-16,experiment,SSSSS,0,even,10331,189280,NA,190751,61931,1968,190242,NA,191808,151945,NA,2100,191915,193415,191803,191915,Flanker Task (by Katherine Hays),77,48312,82,yes,1024
93.97590361,93.97590361,591.4337349,591.4337349,black,legacy,legacy,legacy,0,incongruent,uniform,1,undefined,1,h,0,0,0,82,82,0,82,0,82,0,0,0,82,82,82,82,Sun Sep 18 20:09:07 2022,600,The main experiment item,yes,Flanker_Task_by_Katherine_Hays.osexp,/Users/katherinehays/Desktop,no,mono,no,18,no,white,no,no,768,legacy,2,79,/Users/katherinehays/Desktop/KH-subject-1.csv,legacy,Lentiform Loewenfeld,3.3.12,0,h,NA,h,NA,s,h,777,NA,37334,NA,8216,777,2,legacy,1024,2,48000,-16,experiment,SSHSS,0,even,10331,189280,NA,194434,193419,1968,193926,NA,195493,151945,NA,2100,195600,196378,195489,195600,Flanker Task (by Katherine Hays),78,49089,83,yes,1024
94.04761905,94.04761905,589.8571429,589.8571429,black,legacy,legacy,legacy,0,congruent,uniform,1,undefined,1,h,0,0,0,83,83,0,83,0,83,0,0,0,83,83,83,83,Sun Sep 18 20:09:07 2022,600,The main experiment item,yes,Flanker_Task_by_Katherine_Hays.osexp,/Users/katherinehays/Desktop,no,mono,no,18,no,white,no,no,768,legacy,3,79,/Users/katherinehays/Desktop/KH-subject-1.csv,legacy,Lentiform Loewenfeld,3.3.12,0,h,NA,h,NA,s,h,459,NA,37334,NA,8216,459,2,legacy,1024,2,48000,-16,experiment,HHHHH,0,even,10331,189280,NA,196897,193419,1968,196382,NA,197960,151945,NA,2100,198067,198527,197954,198067,Flanker Task (by Katherine Hays),79,49548,84,yes,1024
94.11764706,94.11764706,589.1294118,589.1294118,black,legacy,legacy,legacy,0,congruent,uniform,1,undefined,1,s,0,0,0,84,84,0,84,0,84,0,0,0,84,84,84,84,Sun Sep 18 20:09:07 2022,600,The main experiment item,yes,Flanker_Task_by_Katherine_Hays.osexp,/Users/katherinehays/Desktop,no,mono,no,18,no,white,no,no,768,legacy,4,79,/Users/katherinehays/Desktop/KH-subject-1.csv,legacy,Lentiform Loewenfeld,3.3.12,0,s,NA,h,NA,s,s,528,NA,37334,NA,8216,528,2,legacy,1024,2,48000,-16,experiment,SSSSS,0,even,10331,189280,NA,198531,193419,1968,196382,NA,199590,151945,NA,2100,199698,200227,199585,199698,Flanker Task (by Katherine Hays),80,50076,85,yes,1024
94.18604651,94.18604651,588.3604651,588.3604651,black,legacy,legacy,legacy,0,incongruent,uniform,1,undefined,1,h,0,0,0,85,85,0,85,0,85,0,0,0,85,85,85,85,Sun Sep 18 20:09:07 2022,600,The main experiment item,yes,Flanker_Task_by_Katherine_Hays.osexp,/Users/katherinehays/Desktop,no,mono,no,18,no,white,no,no,768,legacy,5,79,/Users/katherinehays/Desktop/KH-subject-1.csv,legacy,Lentiform Loewenfeld,3.3.12,0,h,NA,h,NA,s,h,523,NA,37334,NA,8216,523,2,legacy,1024,2,48000,-16,experiment,SSHSS,0,even,10331,189280,NA,200231,193419,1968,196382,NA,201286,151945,NA,2100,201391,201915,201281,201391,Flanker Task (by Katherine Hays),81,50599,86,yes,1024
93.10344828,93.10344828,585.6551724,585.6551724,black,legacy,legacy,legacy,0,incongruent,uniform,0,undefined,0,h,0,0,0,86,86,0,86,0,86,0,0,0,86,86,86,86,Sun Sep 18 20:09:07 2022,600,The main experiment item,yes,Flanker_Task_by_Katherine_Hays.osexp,/Users/katherinehays/Desktop,no,mono,no,18,no,white,no,no,768,legacy,6,79,/Users/katherinehays/Desktop/KH-subject-1.csv,legacy,Lentiform Loewenfeld,3.3.12,0,s,NA,h,NA,s,s,353,NA,37334,NA,8216,353,2,legacy,1024,2,48000,-16,experiment,SSHSS,0,even,10331,189280,NA,201919,193419,1968,196382,NA,202976,151945,NA,2100,203084,203437,202971,203084,Flanker Task (by Katherine Hays),81,50952,87,yes,1024
93.18181818,93.18181818,585.1363636,585.1363636,black,legacy,legacy,legacy,0,incongruent,uniform,1,undefined,1,h,0,0,0,87,87,0,87,0,87,0,0,0,87,87,87,87,Sun Sep 18 20:09:07 2022,600,The main experiment item,yes,Flanker_Task_by_Katherine_Hays.osexp,/Users/katherinehays/Desktop,no,mono,no,18,no,white,no,no,768,legacy,7,79,/Users/katherinehays/Desktop/KH-subject-1.csv,legacy,Lentiform Loewenfeld,3.3.12,0,h,NA,h,NA,s,h,540,NA,37334,NA,8216,540,2,legacy,1024,2,48000,-16,experiment,SSHSS,0,even,10331,189280,NA,203950,203441,1968,196382,NA,205010,151945,NA,2100,205117,205658,205006,205117,Flanker Task (by Katherine Hays),82,51492,88,yes,1024
93.25842697,93.25842697,583.7303371,583.7303371,black,legacy,legacy,legacy,0,congruent,uniform,1,undefined,1,s,0,0,0,88,88,0,88,0,88,0,0,0,88,88,88,88,Sun Sep 18 20:09:07 2022,600,The main experiment item,yes,Flanker_Task_by_Katherine_Hays.osexp,/Users/katherinehays/Desktop,no,mono,no,18,no,white,no,no,768,legacy,8,79,/Users/katherinehays/Desktop/KH-subject-1.csv,legacy,Lentiform Loewenfeld,3.3.12,0,s,NA,h,NA,s,s,460,NA,37334,NA,8216,460,2,legacy,1024,2,48000,-16,experiment,SSSSS,0,even,10331,189280,NA,205662,203441,1968,196382,NA,206719,151945,NA,2100,206826,207287,206715,206826,Flanker Task (by Katherine Hays),83,51952,89,yes,1024
93.33333333,93.33333333,582.2444444,582.2444444,black,legacy,legacy,legacy,0,congruent,uniform,1,undefined,1,s,0,0,0,89,89,0,89,0,89,0,0,0,89,89,89,89,Sun Sep 18 20:09:07 2022,600,The main experiment item,yes,Flanker_Task_by_Katherine_Hays.osexp,/Users/katherinehays/Desktop,no,mono,no,18,no,white,no,no,768,legacy,9,79,/Users/katherinehays/Desktop/KH-subject-1.csv,legacy,Lentiform Loewenfeld,3.3.12,0,s,NA,h,NA,s,s,450,NA,37334,NA,8216,450,2,legacy,1024,2,48000,-16,experiment,SSSSS,0,even,10331,189280,NA,207291,203441,1968,196382,NA,208349,151945,NA,2100,208462,208913,208344,208462,Flanker Task (by Katherine Hays),84,52402,90,yes,1024
93.40659341,93.40659341,582.4065934,582.4065934,black,legacy,legacy,legacy,0,incongruent,uniform,1,undefined,1,s,0,0,0,90,90,0,90,0,90,0,0,0,90,90,90,90,Sun Sep 18 20:09:07 2022,600,The main experiment item,yes,Flanker_Task_by_Katherine_Hays.osexp,/Users/katherinehays/Desktop,no,mono,no,18,no,white,no,no,768,legacy,10,79,/Users/katherinehays/Desktop/KH-subject-1.csv,legacy,Lentiform Loewenfeld,3.3.12,0,s,NA,h,NA,s,s,597,NA,37334,NA,8216,597,2,legacy,1024,2,48000,-16,experiment,HHSHH,0,even,10331,189280,NA,208918,203441,1968,196382,NA,209979,151945,NA,2100,210086,210684,209974,210086,Flanker Task (by Katherine Hays),85,52999,91,yes,1024
93.47826087,93.47826087,580.9673913,580.9673913,black,legacy,legacy,legacy,0,incongruent,uniform,1,undefined,1,s,0,0,0,91,91,0,91,0,91,0,0,0,91,91,91,91,Sun Sep 18 20:09:07 2022,600,The main experiment item,yes,Flanker_Task_by_Katherine_Hays.osexp,/Users/katherinehays/Desktop,no,mono,no,18,no,white,no,no,768,legacy,11,79,/Users/katherinehays/Desktop/KH-subject-1.csv,legacy,Lentiform Loewenfeld,3.3.12,0,s,NA,h,NA,s,s,450,NA,37334,NA,8216,450,2,legacy,1024,2,48000,-16,experiment,HHSHH,0,even,10331,189280,NA,210688,203441,1968,196382,NA,211745,151945,NA,2100,211852,212303,211740,211852,Flanker Task (by Katherine Hays),86,53449,92,yes,1024
93.5483871,93.5483871,579.6344086,579.6344086,black,legacy,legacy,legacy,0,congruent,uniform,1,undefined,1,h,0,0,0,92,92,0,92,0,92,0,0,0,92,92,92,92,Sun Sep 18 20:09:07 2022,600,The main experiment item,yes,Flanker_Task_by_Katherine_Hays.osexp,/Users/katherinehays/Desktop,no,mono,no,18,no,white,no,no,768,legacy,12,79,/Users/katherinehays/Desktop/KH-subject-1.csv,legacy,Lentiform Loewenfeld,3.3.12,0,h,NA,h,NA,s,h,457,NA,37334,NA,8216,457,2,legacy,1024,2,48000,-16,experiment,HHHHH,0,even,10331,189280,NA,212307,203441,1968,196382,NA,213359,151945,NA,2100,213465,213923,213354,213465,Flanker Task (by Katherine Hays),87,53906,93,yes,1024
93.61702128,93.61702128,578.4042553,578.4042553,black,legacy,legacy,legacy,0,congruent,uniform,1,undefined,1,h,0,0,0,93,93,0,93,0,93,0,0,0,93,93,93,93,Sun Sep 18 20:09:07 2022,600,The main experiment item,yes,Flanker_Task_by_Katherine_Hays.osexp,/Users/katherinehays/Desktop,no,mono,no,18,no,white,no,no,768,legacy,13,79,/Users/katherinehays/Desktop/KH-subject-1.csv,legacy,Lentiform Loewenfeld,3.3.12,0,h,NA,h,NA,s,h,464,NA,37334,NA,8216,464,2,legacy,1024,2,48000,-16,experiment,HHHHH,0,even,10331,189280,NA,213928,203441,1968,196382,NA,214979,151945,NA,2100,215085,215550,214974,215085,Flanker Task (by Katherine Hays),88,54370,94,yes,1024
93.68421053,93.68421053,578.6842105,578.6842105,black,legacy,legacy,legacy,0,incongruent,uniform,1,undefined,1,s,0,0,0,94,94,0,94,0,94,0,0,0,94,94,94,94,Sun Sep 18 20:09:07 2022,600,The main experiment item,yes,Flanker_Task_by_Katherine_Hays.osexp,/Users/katherinehays/Desktop,no,mono,no,18,no,white,no,no,768,legacy,14,79,/Users/katherinehays/Desktop/KH-subject-1.csv,legacy,Lentiform Loewenfeld,3.3.12,0,s,NA,h,NA,s,s,605,NA,37334,NA,8216,605,2,legacy,1024,2,48000,-16,experiment,HHSHH,0,even,10331,189280,NA,215554,203441,1968,196382,NA,216614,151945,NA,2100,216719,217324,216609,216719,Flanker Task (by Katherine Hays),89,54975,95,yes,1024
93.75,93.75,577.9270833,577.9270833,black,legacy,legacy,legacy,0,congruent,uniform,1,undefined,1,h,0,0,0,95,95,0,95,0,95,0,0,0,95,95,95,95,Sun Sep 18 20:09:07 2022,600,The main experiment item,yes,Flanker_Task_by_Katherine_Hays.osexp,/Users/katherinehays/Desktop,no,mono,no,18,no,white,no,no,768,legacy,15,79,/Users/katherinehays/Desktop/KH-subject-1.csv,legacy,Lentiform Loewenfeld,3.3.12,0,h,NA,h,NA,s,h,506,NA,37334,NA,8216,506,2,legacy,1024,2,48000,-16,experiment,HHHHH,0,even,10331,189280,NA,217839,203441,1968,217328,NA,218891,151945,NA,2100,218998,219505,218887,218998,Flanker Task (by Katherine Hays),90,55481,96,yes,1024
93.81443299,93.81443299,577.1958763,577.1958763,black,legacy,legacy,legacy,0,incongruent,uniform,1,undefined,1,s,0,0,0,96,96,0,96,0,96,0,0,0,96,96,96,96,Sun Sep 18 20:09:07 2022,600,The main experiment item,yes,Flanker_Task_by_Katherine_Hays.osexp,/Users/katherinehays/Desktop,no,mono,no,18,no,white,no,no,768,legacy,16,79,/Users/katherinehays/Desktop/KH-subject-1.csv,legacy,Lentiform Loewenfeld,3.3.12,0,s,NA,h,NA,s,s,507,NA,37334,NA,8216,507,2,legacy,1024,2,48000,-16,experiment,HHSHH,0,even,10331,189280,NA,219509,203441,1968,217328,NA,220565,151945,NA,2100,220672,221180,220560,220672,Flanker Task (by Katherine Hays),91,55988,97,yes,1024
93.87755102,93.87755102,576.8265306,576.8265306,black,legacy,legacy,legacy,0,incongruent,uniform,1,undefined,1,h,0,0,0,97,97,0,97,0,97,0,0,0,97,97,97,97,Sun Sep 18 20:09:07 2022,600,The main experiment item,yes,Flanker_Task_by_Katherine_Hays.osexp,/Users/katherinehays/Desktop,no,mono,no,18,no,white,no,no,768,legacy,17,79,/Users/katherinehays/Desktop/KH-subject-1.csv,legacy,Lentiform Loewenfeld,3.3.12,0,h,NA,h,NA,s,h,541,NA,37334,NA,8216,541,2,legacy,1024,2,48000,-16,experiment,SSHSS,0,even,10331,189280,NA,221184,203441,1968,217328,NA,222241,151945,NA,2100,222348,222889,222236,222348,Flanker Task (by Katherine Hays),92,56529,98,yes,1024
93.93939394,93.93939394,576.7777778,576.7777778,black,legacy,legacy,legacy,0,incongruent,uniform,1,undefined,1,s,0,0,0,98,98,0,98,0,98,0,0,0,98,98,98,98,Sun Sep 18 20:09:07 2022,600,The main experiment item,yes,Flanker_Task_by_Katherine_Hays.osexp,/Users/katherinehays/Desktop,no,mono,no,18,no,white,no,no,768,legacy,18,79,/Users/katherinehays/Desktop/KH-subject-1.csv,legacy,Lentiform Loewenfeld,3.3.12,0,s,NA,h,NA,s,s,572,NA,37334,NA,8216,572,2,legacy,1024,2,48000,-16,experiment,HHSHH,0,even,10331,189280,NA,222893,203441,1968,217328,NA,223947,151945,NA,2100,224055,224628,223943,224055,Flanker Task (by Katherine Hays),93,57101,99,yes,1024
94,94,576,576,black,legacy,legacy,legacy,0,incongruent,uniform,1,undefined,1,s,0,0,0,99,99,0,99,0,99,0,0,0,99,99,99,99,Sun Sep 18 20:09:07 2022,600,The main experiment item,yes,Flanker_Task_by_Katherine_Hays.osexp,/Users/katherinehays/Desktop,no,mono,no,18,no,white,no,no,768,legacy,19,79,/Users/katherinehays/Desktop/KH-subject-1.csv,legacy,Lentiform Loewenfeld,3.3.12,0,s,NA,h,NA,s,s,499,NA,37334,NA,8216,499,2,legacy,1024,2,48000,-16,experiment,HHSHH,0,even,10331,189280,NA,224632,203441,1968,217328,NA,225690,151945,NA,2100,225798,226298,225686,225797,Flanker Task (by Katherine Hays),94,57600,100,yes,1024
94.05940594,94.05940594,575.3168317,575.3168317,black,legacy,legacy,legacy,0,incongruent,uniform,1,undefined,1,s,0,0,0,100,100,0,100,0,100,0,0,0,100,100,100,100,Sun Sep 18 20:09:07 2022,600,The main experiment item,yes,Flanker_Task_by_Katherine_Hays.osexp,/Users/katherinehays/Desktop,no,mono,no,18,no,white,no,no,768,legacy,20,79,/Users/katherinehays/Desktop/KH-subject-1.csv,legacy,Lentiform Loewenfeld,3.3.12,0,s,NA,h,NA,s,s,507,NA,37334,NA,8216,507,2,legacy,1024,2,48000,-16,experiment,HHSHH,0,even,10331,189280,NA,226302,203441,1968,217328,NA,227366,151945,NA,2100,227473,227981,227361,227473,Flanker Task (by Katherine Hays),95,58107,101,yes,1024
94.11764706,94.11764706,574.2941176,574.2941176,black,legacy,legacy,legacy,0,incongruent,uniform,1,undefined,1,h,0,0,0,101,101,0,101,0,101,0,0,0,101,101,101,101,Sun Sep 18 20:09:07 2022,600,The main experiment item,yes,Flanker_Task_by_Katherine_Hays.osexp,/Users/katherinehays/Desktop,no,mono,no,18,no,white,no,no,768,legacy,21,79,/Users/katherinehays/Desktop/KH-subject-1.csv,legacy,Lentiform Loewenfeld,3.3.12,0,h,NA,h,NA,s,h,471,NA,37334,NA,8216,471,2,legacy,1024,2,48000,-16,experiment,SSHSS,0,even,10331,189280,NA,227985,203441,1968,217328,NA,229034,151945,NA,2100,229141,229613,229030,229141,Flanker Task (by Katherine Hays),96,58578,102,yes,1024
94.17475728,94.17475728,573.184466,573.184466,black,legacy,legacy,legacy,0,congruent,uniform,1,undefined,1,s,0,0,0,102,102,0,102,0,102,0,0,0,102,102,102,102,Sun Sep 18 20:09:07 2022,600,The main experiment item,yes,Flanker_Task_by_Katherine_Hays.osexp,/Users/katherinehays/Desktop,no,mono,no,18,no,white,no,no,768,legacy,22,79,/Users/katherinehays/Desktop/KH-subject-1.csv,legacy,Lentiform Loewenfeld,3.3.12,0,s,NA,h,NA,s,s,460,NA,37334,NA,8216,460,2,legacy,1024,2,48000,-16,experiment,SSSSS,0,even,10331,189280,NA,229617,203441,1968,217328,NA,230673,151945,NA,2100,230779,231240,230669,230779,Flanker Task (by Katherine Hays),97,59038,103,yes,1024
94.23076923,94.23076923,572.5480769,572.5480769,black,legacy,legacy,legacy,0,congruent,uniform,1,undefined,1,h,0,0,0,103,103,0,103,0,103,0,0,0,103,103,103,103,Sun Sep 18 20:09:07 2022,600,The main experiment item,yes,Flanker_Task_by_Katherine_Hays.osexp,/Users/katherinehays/Desktop,no,mono,no,18,no,white,no,no,768,legacy,23,79,/Users/katherinehays/Desktop/KH-subject-1.csv,legacy,Lentiform Loewenfeld,3.3.12,0,h,NA,h,NA,s,h,507,NA,37334,NA,8216,507,2,legacy,1024,2,48000,-16,experiment,HHHHH,0,even,10331,189280,NA,231244,203441,1968,217328,NA,232303,151945,NA,2100,232410,232918,232298,232410,Flanker Task (by Katherine Hays),98,59545,104,yes,1024
94.28571429,94.28571429,571.0095238,571.0095238,black,legacy,legacy,legacy,0,congruent,uniform,1,undefined,1,s,0,0,0,104,104,0,104,0,104,0,0,0,104,104,104,104,Sun Sep 18 20:09:07 2022,600,The main experiment item,yes,Flanker_Task_by_Katherine_Hays.osexp,/Users/katherinehays/Desktop,no,mono,no,18,no,white,no,no,768,legacy,24,79,/Users/katherinehays/Desktop/KH-subject-1.csv,legacy,Lentiform Loewenfeld,3.3.12,0,s,NA,h,NA,s,s,411,NA,37334,NA,8216,411,2,legacy,1024,2,48000,-16,experiment,SSSSS,0,even,10331,189280,NA,232922,203441,1968,217328,NA,233974,151945,NA,2100,234079,234491,233970,234078,Flanker Task (by Katherine Hays),99,59956,105,yes,1024
94.33962264,94.33962264,570.2735849,570.2735849,black,legacy,legacy,legacy,0,incongruent,uniform,1,undefined,1,s,0,0,0,105,105,0,105,0,105,0,0,0,105,105,105,105,Sun Sep 18 20:09:07 2022,600,The main experiment item,yes,Flanker_Task_by_Katherine_Hays.osexp,/Users/katherinehays/Desktop,no,mono,no,18,no,white,no,no,768,legacy,25,79,/Users/katherinehays/Desktop/KH-subject-1.csv,legacy,Lentiform Loewenfeld,3.3.12,0,s,NA,h,NA,s,s,493,NA,37334,NA,8216,493,2,legacy,1024,2,48000,-16,experiment,HHSHH,0,even,10331,189280,NA,234495,203441,1968,217328,NA,235558,151945,NA,2100,235665,236159,235553,235665,Flanker Task (by Katherine Hays),100,60449,106,yes,1024
94.39252336,94.39252336,569.0280374,569.0280374,black,legacy,legacy,legacy,0,congruent,uniform,1,undefined,1,h,0,0,0,106,106,0,106,0,106,0,0,0,106,106,106,106,Sun Sep 18 20:09:07 2022,600,The main experiment item,yes,Flanker_Task_by_Katherine_Hays.osexp,/Users/katherinehays/Desktop,no,mono,no,18,no,white,no,no,768,legacy,26,79,/Users/katherinehays/Desktop/KH-subject-1.csv,legacy,Lentiform Loewenfeld,3.3.12,0,h,NA,h,NA,s,h,437,NA,37334,NA,8216,437,2,legacy,1024,2,48000,-16,experiment,HHHHH,0,even,10331,189280,NA,236163,203441,1968,217328,NA,237214,151945,NA,2100,237320,237758,237210,237320,Flanker Task (by Katherine Hays),101,60886,107,yes,1024
94.44444444,94.44444444,567.5925926,567.5925926,black,legacy,legacy,legacy,0,congruent,uniform,1,undefined,1,s,0,0,0,107,107,0,107,0,107,0,0,0,107,107,107,107,Sun Sep 18 20:09:07 2022,600,The main experiment item,yes,Flanker_Task_by_Katherine_Hays.osexp,/Users/katherinehays/Desktop,no,mono,no,18,no,white,no,no,768,legacy,27,79,/Users/katherinehays/Desktop/KH-subject-1.csv,legacy,Lentiform Loewenfeld,3.3.12,0,s,NA,h,NA,s,s,414,NA,37334,NA,8216,414,2,legacy,1024,2,48000,-16,experiment,SSSSS,0,even,10331,189280,NA,237762,203441,1968,217328,NA,238820,151945,NA,2100,238927,239342,238815,238927,Flanker Task (by Katherine Hays),102,61300,108,yes,1024
94.49541284,94.49541284,566.6330275,566.6330275,black,legacy,legacy,legacy,0,congruent,uniform,1,undefined,1,h,0,0,0,108,108,0,108,0,108,0,0,0,108,108,108,108,Sun Sep 18 20:09:07 2022,600,The main experiment item,yes,Flanker_Task_by_Katherine_Hays.osexp,/Users/katherinehays/Desktop,no,mono,no,18,no,white,no,no,768,legacy,28,79,/Users/katherinehays/Desktop/KH-subject-1.csv,legacy,Lentiform Loewenfeld,3.3.12,0,h,NA,h,NA,s,h,463,NA,37334,NA,8216,463,2,legacy,1024,2,48000,-16,experiment,HHHHH,0,even,10331,189280,NA,239346,203441,1968,217328,NA,240402,151945,NA,2100,240509,240973,240397,240509,Flanker Task (by Katherine Hays),103,61763,109,yes,1024
94.54545455,94.54545455,565.9,565.9,black,legacy,legacy,legacy,0,congruent,uniform,1,undefined,1,h,0,0,0,109,109,0,109,0,109,0,0,0,109,109,109,109,Sun Sep 18 20:09:07 2022,600,The main experiment item,yes,Flanker_Task_by_Katherine_Hays.osexp,/Users/katherinehays/Desktop,no,mono,no,18,no,white,no,no,768,legacy,29,79,/Users/katherinehays/Desktop/KH-subject-1.csv,legacy,Lentiform Loewenfeld,3.3.12,0,h,NA,h,NA,s,h,486,NA,37334,NA,8216,486,2,legacy,1024,2,48000,-16,experiment,HHHHH,0,even,10331,189280,NA,240977,203441,1968,217328,NA,242037,151945,NA,2100,242144,242631,242032,242144,Flanker Task (by Katherine Hays),104,62249,110,yes,1024
94.59459459,94.59459459,566.7747748,566.7747748,black,legacy,legacy,legacy,0,incongruent,uniform,1,undefined,1,h,0,0,0,110,110,0,110,0,110,0,0,0,110,110,110,110,Sun Sep 18 20:09:07 2022,600,The main experiment item,yes,Flanker_Task_by_Katherine_Hays.osexp,/Users/katherinehays/Desktop,no,mono,no,18,no,white,no,no,768,legacy,30,79,/Users/katherinehays/Desktop/KH-subject-1.csv,legacy,Lentiform Loewenfeld,3.3.12,0,h,NA,h,NA,s,h,663,NA,37334,NA,8216,663,2,legacy,1024,2,48000,-16,experiment,SSHSS,0,even,10331,189280,NA,242635,203441,1968,217328,NA,243693,151945,NA,2100,243800,244464,243688,243800,Flanker Task (by Katherine Hays),105,62912,111,yes,1024
94.64285714,94.64285714,565.0267857,565.0267857,black,legacy,legacy,legacy,0,congruent,uniform,1,undefined,1,h,0,0,0,111,111,0,111,0,111,0,0,0,111,111,111,111,Sun Sep 18 20:09:07 2022,600,The main experiment item,yes,Flanker_Task_by_Katherine_Hays.osexp,/Users/katherinehays/Desktop,no,mono,no,18,no,white,no,no,768,legacy,31,79,/Users/katherinehays/Desktop/KH-subject-1.csv,legacy,Lentiform Loewenfeld,3.3.12,0,h,NA,h,NA,s,h,371,NA,37334,NA,8216,371,2,legacy,1024,2,48000,-16,experiment,HHHHH,0,even,10331,189280,NA,244977,203441,1968,244468,NA,246036,151945,NA,2100,246143,246515,246032,246143,Flanker Task (by Katherine Hays),106,63283,112,yes,1024
94.69026549,94.69026549,564.3628319,564.3628319,black,legacy,legacy,legacy,0,congruent,uniform,1,undefined,1,s,0,0,0,112,112,0,112,0,112,0,0,0,112,112,112,112,Sun Sep 18 20:09:07 2022,600,The main experiment item,yes,Flanker_Task_by_Katherine_Hays.osexp,/Users/katherinehays/Desktop,no,mono,no,18,no,white,no,no,768,legacy,32,79,/Users/katherinehays/Desktop/KH-subject-1.csv,legacy,Lentiform Loewenfeld,3.3.12,0,s,NA,h,NA,s,s,490,NA,37334,NA,8216,490,2,legacy,1024,2,48000,-16,experiment,SSSSS,0,even,10331,189280,NA,246519,203441,1968,244468,NA,247577,151945,NA,2100,247684,248175,247573,247684,Flanker Task (by Katherine Hays),107,63773,113,yes,1024
93.85964912,93.85964912,563.1929825,563.1929825,black,legacy,legacy,legacy,0,incongruent,uniform,0,undefined,0,s,0,0,0,113,113,0,113,0,113,0,0,0,113,113,113,113,Sun Sep 18 20:09:07 2022,600,The main experiment item,yes,Flanker_Task_by_Katherine_Hays.osexp,/Users/katherinehays/Desktop,no,mono,no,18,no,white,no,no,768,legacy,33,79,/Users/katherinehays/Desktop/KH-subject-1.csv,legacy,Lentiform Loewenfeld,3.3.12,0,h,NA,h,NA,s,h,431,NA,37334,NA,8216,431,2,legacy,1024,2,48000,-16,experiment,HHSHH,0,even,10331,189280,NA,248179,203441,1968,244468,NA,249230,151945,NA,2100,249339,249771,249226,249339,Flanker Task (by Katherine Hays),107,64204,114,yes,1024
93.91304348,93.91304348,562.6521739,562.6521739,black,legacy,legacy,legacy,0,congruent,uniform,1,undefined,1,s,0,0,0,114,114,0,114,0,114,0,0,0,114,114,114,114,Sun Sep 18 20:09:07 2022,600,The main experiment item,yes,Flanker_Task_by_Katherine_Hays.osexp,/Users/katherinehays/Desktop,no,mono,no,18,no,white,no,no,768,legacy,34,79,/Users/katherinehays/Desktop/KH-subject-1.csv,legacy,Lentiform Loewenfeld,3.3.12,0,s,NA,h,NA,s,s,501,NA,37334,NA,8216,501,2,legacy,1024,2,48000,-16,experiment,SSSSS,0,even,10331,189280,NA,250285,249775,1968,244468,NA,251344,151945,NA,2100,251449,251950,251339,251449,Flanker Task (by Katherine Hays),108,64705,115,yes,1024
93.96551724,93.96551724,561.1896552,561.1896552,black,legacy,legacy,legacy,0,congruent,uniform,1,undefined,1,s,0,0,0,115,115,0,115,0,115,0,0,0,115,115,115,115,Sun Sep 18 20:09:07 2022,600,The main experiment item,yes,Flanker_Task_by_Katherine_Hays.osexp,/Users/katherinehays/Desktop,no,mono,no,18,no,white,no,no,768,legacy,35,79,/Users/katherinehays/Desktop/KH-subject-1.csv,legacy,Lentiform Loewenfeld,3.3.12,0,s,NA,h,NA,s,s,393,NA,37334,NA,8216,393,2,legacy,1024,2,48000,-16,experiment,SSSSS,0,even,10331,189280,NA,251955,249775,1968,244468,NA,253015,151945,NA,2100,253122,253516,253010,253122,Flanker Task (by Katherine Hays),109,65098,116,yes,1024
94.01709402,94.01709402,560.1452991,560.1452991,black,legacy,legacy,legacy,0,congruent,uniform,1,undefined,1,h,0,0,0,116,116,0,116,0,116,0,0,0,116,116,116,116,Sun Sep 18 20:09:07 2022,600,The main experiment item,yes,Flanker_Task_by_Katherine_Hays.osexp,/Users/katherinehays/Desktop,no,mono,no,18,no,white,no,no,768,legacy,36,79,/Users/katherinehays/Desktop/KH-subject-1.csv,legacy,Lentiform Loewenfeld,3.3.12,0,h,NA,h,NA,s,h,439,NA,37334,NA,8216,439,2,legacy,1024,2,48000,-16,experiment,HHHHH,0,even,10331,189280,NA,253519,249775,1968,244468,NA,254572,151945,NA,2100,254678,255118,254568,254678,Flanker Task (by Katherine Hays),110,65537,117,yes,1024
94.06779661,94.06779661,560.220339,560.220339,black,legacy,legacy,legacy,0,congruent,uniform,1,undefined,1,h,0,0,0,117,117,0,117,0,117,0,0,0,117,117,117,117,Sun Sep 18 20:09:07 2022,600,The main experiment item,yes,Flanker_Task_by_Katherine_Hays.osexp,/Users/katherinehays/Desktop,no,mono,no,18,no,white,no,no,768,legacy,37,79,/Users/katherinehays/Desktop/KH-subject-1.csv,legacy,Lentiform Loewenfeld,3.3.12,0,h,NA,h,NA,s,h,569,NA,37334,NA,8216,569,2,legacy,1024,2,48000,-16,experiment,HHHHH,0,even,10331,189280,NA,255123,249775,1968,244468,NA,256187,151945,NA,2100,256294,256864,256182,256294,Flanker Task (by Katherine Hays),111,66106,118,yes,1024
93.27731092,93.27731092,558.4285714,558.4285714,black,legacy,legacy,legacy,0,incongruent,uniform,0,undefined,0,h,0,0,0,118,118,0,118,0,118,0,0,0,118,118,118,118,Sun Sep 18 20:09:07 2022,600,The main experiment item,yes,Flanker_Task_by_Katherine_Hays.osexp,/Users/katherinehays/Desktop,no,mono,no,18,no,white,no,no,768,legacy,38,79,/Users/katherinehays/Desktop/KH-subject-1.csv,legacy,Lentiform Loewenfeld,3.3.12,0,s,NA,h,NA,s,s,347,NA,37334,NA,8216,347,2,legacy,1024,2,48000,-16,experiment,SSHSS,0,even,10331,189280,NA,256869,249775,1968,244468,NA,257928,151945,NA,2100,258035,258383,257924,258035,Flanker Task (by Katherine Hays),111,66453,119,yes,1024
93.33333333,93.33333333,556.9083333,556.9083333,black,legacy,legacy,legacy,0,congruent,uniform,1,undefined,1,h,0,0,0,119,119,0,119,0,119,0,0,0,119,119,119,119,Sun Sep 18 20:09:07 2022,600,The main experiment item,yes,Flanker_Task_by_Katherine_Hays.osexp,/Users/katherinehays/Desktop,no,mono,no,18,no,white,no,no,768,legacy,39,79,/Users/katherinehays/Desktop/KH-subject-1.csv,legacy,Lentiform Loewenfeld,3.3.12,0,h,NA,h,NA,s,h,376,NA,37334,NA,8216,376,2,legacy,1024,2,48000,-16,experiment,HHHHH,0,even,10331,189280,NA,258897,258387,1968,244468,NA,259953,151945,NA,2100,260058,260435,259949,260058,Flanker Task (by Katherine Hays),112,66829,120,yes,1024
93.38842975,93.38842975,555.5867769,555.5867769,black,legacy,legacy,legacy,0,congruent,uniform,1,undefined,1,h,0,0,0,120,120,0,120,0,120,0,0,0,120,120,120,120,Sun Sep 18 20:09:07 2022,600,The main experiment item,yes,Flanker_Task_by_Katherine_Hays.osexp,/Users/katherinehays/Desktop,no,mono,no,18,no,white,no,no,768,legacy,40,79,/Users/katherinehays/Desktop/KH-subject-1.csv,legacy,Lentiform Loewenfeld,3.3.12,0,h,NA,h,NA,s,h,397,NA,37334,NA,8216,397,2,legacy,1024,2,48000,-16,experiment,HHHHH,0,even,10331,189280,NA,260439,258387,1968,244468,NA,261498,151945,NA,2100,261603,262001,261493,261603,Flanker Task (by Katherine Hays),113,67226,121,yes,1024
93.44262295,93.44262295,555.0901639,555.0901639,black,legacy,legacy,legacy,0,incongruent,uniform,1,undefined,1,s,0,0,0,121,121,0,121,0,121,0,0,0,121,121,121,121,Sun Sep 18 20:09:07 2022,600,The main experiment item,yes,Flanker_Task_by_Katherine_Hays.osexp,/Users/katherinehays/Desktop,no,mono,no,18,no,white,no,no,768,legacy,41,79,/Users/katherinehays/Desktop/KH-subject-1.csv,legacy,Lentiform Loewenfeld,3.3.12,0,s,NA,h,NA,s,s,495,NA,37334,NA,8216,495,2,legacy,1024,2,48000,-16,experiment,HHSHH,0,even,10331,189280,NA,262005,258387,1968,244468,NA,263064,151945,NA,2100,263171,263667,263059,263171,Flanker Task (by Katherine Hays),114,67721,122,yes,1024
93.49593496,93.49593496,555.4552846,555.4552846,black,legacy,legacy,legacy,0,incongruent,uniform,1,undefined,1,s,0,0,0,122,122,0,122,0,122,0,0,0,122,122,122,122,Sun Sep 18 20:09:07 2022,600,The main experiment item,yes,Flanker_Task_by_Katherine_Hays.osexp,/Users/katherinehays/Desktop,no,mono,no,18,no,white,no,no,768,legacy,42,79,/Users/katherinehays/Desktop/KH-subject-1.csv,legacy,Lentiform Loewenfeld,3.3.12,0,s,NA,h,NA,s,s,600,NA,37334,NA,8216,600,2,legacy,1024,2,48000,-16,experiment,HHSHH,0,even,10331,189280,NA,263670,258387,1968,244468,NA,264715,151945,NA,2100,264821,265422,264711,264821,Flanker Task (by Katherine Hays),115,68321,123,yes,1024
93.5483871,93.5483871,554.3951613,554.3951613,black,legacy,legacy,legacy,0,incongruent,uniform,1,undefined,1,s,0,0,0,123,123,0,123,0,123,0,0,0,123,123,123,123,Sun Sep 18 20:09:07 2022,600,The main experiment item,yes,Flanker_Task_by_Katherine_Hays.osexp,/Users/katherinehays/Desktop,no,mono,no,18,no,white,no,no,768,legacy,43,79,/Users/katherinehays/Desktop/KH-subject-1.csv,legacy,Lentiform Loewenfeld,3.3.12,0,s,NA,h,NA,s,s,424,NA,37334,NA,8216,424,2,legacy,1024,2,48000,-16,experiment,HHSHH,0,even,10331,189280,NA,265426,258387,1968,244468,NA,266486,151945,NA,2100,266593,267018,266481,266593,Flanker Task (by Katherine Hays),116,68745,124,yes,1024
93.6,93.6,553.44,553.44,black,legacy,legacy,legacy,0,incongruent,uniform,1,undefined,1,s,0,0,0,124,124,0,124,0,124,0,0,0,124,124,124,124,Sun Sep 18 20:09:07 2022,600,The main experiment item,yes,Flanker_Task_by_Katherine_Hays.osexp,/Users/katherinehays/Desktop,no,mono,no,18,no,white,no,no,768,legacy,44,79,/Users/katherinehays/Desktop/KH-subject-1.csv,legacy,Lentiform Loewenfeld,3.3.12,0,s,NA,h,NA,s,s,435,NA,37334,NA,8216,435,2,legacy,1024,2,48000,-16,experiment,HHSHH,0,even,10331,189280,NA,267022,258387,1968,244468,NA,268082,151945,NA,2100,268189,268625,268077,268189,Flanker Task (by Katherine Hays),117,69180,125,yes,1024
92.85714286,92.85714286,552.5714286,552.5714286,black,legacy,legacy,legacy,0,incongruent,uniform,0,undefined,0,h,0,0,0,125,125,0,125,0,125,0,0,0,125,125,125,125,Sun Sep 18 20:09:07 2022,600,The main experiment item,yes,Flanker_Task_by_Katherine_Hays.osexp,/Users/katherinehays/Desktop,no,mono,no,18,no,white,no,no,768,legacy,45,79,/Users/katherinehays/Desktop/KH-subject-1.csv,legacy,Lentiform Loewenfeld,3.3.12,0,s,NA,h,NA,s,s,444,NA,37334,NA,8216,444,2,legacy,1024,2,48000,-16,experiment,SSHSS,0,even,10331,189280,NA,268629,258387,1968,244468,NA,269682,151945,NA,2100,269786,270231,269677,269786,Flanker Task (by Katherine Hays),117,69624,126,yes,1024
92.91338583,92.91338583,552.5905512,552.5905512,black,legacy,legacy,legacy,0,incongruent,uniform,1,undefined,1,s,0,0,0,126,126,0,126,0,126,0,0,0,126,126,126,126,Sun Sep 18 20:09:07 2022,600,The main experiment item,yes,Flanker_Task_by_Katherine_Hays.osexp,/Users/katherinehays/Desktop,no,mono,no,18,no,white,no,no,768,legacy,46,79,/Users/katherinehays/Desktop/KH-subject-1.csv,legacy,Lentiform Loewenfeld,3.3.12,0,s,NA,h,NA,s,s,555,NA,37334,NA,8216,555,2,legacy,1024,2,48000,-16,experiment,HHSHH,0,even,10331,189280,NA,270744,270235,1968,244468,NA,271812,151945,NA,2100,271919,272475,271807,271919,Flanker Task (by Katherine Hays),118,70179,127,yes,1024
92.96875,92.96875,551.75,551.75,black,legacy,legacy,legacy,0,congruent,uniform,1,undefined,1,s,0,0,0,127,127,0,127,0,127,0,0,0,127,127,127,127,Sun Sep 18 20:09:07 2022,600,The main experiment item,yes,Flanker_Task_by_Katherine_Hays.osexp,/Users/katherinehays/Desktop,no,mono,no,18,no,white,no,no,768,legacy,47,79,/Users/katherinehays/Desktop/KH-subject-1.csv,legacy,Lentiform Loewenfeld,3.3.12,0,s,NA,h,NA,s,s,445,NA,37334,NA,8216,445,2,legacy,1024,2,48000,-16,experiment,SSSSS,0,even,10331,189280,NA,272480,270235,1968,244468,NA,273544,151945,NA,2100,273652,274098,273538,273652,Flanker Task (by Katherine Hays),119,70624,128,yes,1024
93.02325581,93.02325581,550.6511628,550.6511628,black,legacy,legacy,legacy,0,congruent,uniform,1,undefined,1,s,0,0,0,128,128,0,128,0,128,0,0,0,128,128,128,128,Sun Sep 18 20:09:07 2022,600,The main experiment item,yes,Flanker_Task_by_Katherine_Hays.osexp,/Users/katherinehays/Desktop,no,mono,no,18,no,white,no,no,768,legacy,48,79,/Users/katherinehays/Desktop/KH-subject-1.csv,legacy,Lentiform Loewenfeld,3.3.12,0,s,NA,h,NA,s,s,410,NA,37334,NA,8216,410,2,legacy,1024,2,48000,-16,experiment,SSSSS,0,even,10331,189280,NA,274102,270235,1968,244468,NA,275164,151945,NA,2100,275271,275682,275159,275271,Flanker Task (by Katherine Hays),120,71034,129,yes,1024
92.30769231,92.30769231,549.3,549.3,black,legacy,legacy,legacy,0,incongruent,uniform,0,undefined,0,h,0,0,0,129,129,0,129,0,129,0,0,0,129,129,129,129,Sun Sep 18 20:09:07 2022,600,The main experiment item,yes,Flanker_Task_by_Katherine_Hays.osexp,/Users/katherinehays/Desktop,no,mono,no,18,no,white,no,no,768,legacy,49,79,/Users/katherinehays/Desktop/KH-subject-1.csv,legacy,Lentiform Loewenfeld,3.3.12,0,s,NA,h,NA,s,s,375,NA,37334,NA,8216,375,2,legacy,1024,2,48000,-16,experiment,SSHSS,0,even,10331,189280,NA,275686,270235,1968,244468,NA,276736,151945,NA,2100,276842,277218,276731,276842,Flanker Task (by Katherine Hays),120,71409,130,yes,1024
92.36641221,92.36641221,549.6946565,549.6946565,black,legacy,legacy,legacy,0,incongruent,uniform,1,undefined,1,s,0,0,0,130,130,0,130,0,130,0,0,0,130,130,130,130,Sun Sep 18 20:09:07 2022,600,The main experiment item,yes,Flanker_Task_by_Katherine_Hays.osexp,/Users/katherinehays/Desktop,no,mono,no,18,no,white,no,no,768,legacy,50,79,/Users/katherinehays/Desktop/KH-subject-1.csv,legacy,Lentiform Loewenfeld,3.3.12,0,s,NA,h,NA,s,s,601,NA,37334,NA,8216,601,2,legacy,1024,2,48000,-16,experiment,HHSHH,0,even,10331,189280,NA,277731,277222,1968,244468,NA,278791,151945,NA,2100,278898,279500,278786,278898,Flanker Task (by Katherine Hays),121,72010,131,yes,1024
92.42424242,92.42424242,550.1969697,550.1969697,black,legacy,legacy,legacy,0,congruent,uniform,1,undefined,1,s,0,0,0,131,131,0,131,0,131,0,0,0,131,131,131,131,Sun Sep 18 20:09:07 2022,600,The main experiment item,yes,Flanker_Task_by_Katherine_Hays.osexp,/Users/katherinehays/Desktop,no,mono,no,18,no,white,no,no,768,legacy,51,79,/Users/katherinehays/Desktop/KH-subject-1.csv,legacy,Lentiform Loewenfeld,3.3.12,0,s,NA,h,NA,s,s,616,NA,37334,NA,8216,616,2,legacy,1024,2,48000,-16,experiment,SSSSS,0,even,10331,189280,NA,280010,277222,1968,279504,NA,281061,151945,NA,2100,281167,281784,281056,281167,Flanker Task (by Katherine Hays),122,72626,132,yes,1024
92.48120301,92.48120301,549.3308271,549.3308271,black,legacy,legacy,legacy,0,congruent,uniform,1,undefined,1,h,0,0,0,132,132,0,132,0,132,0,0,0,132,132,132,132,Sun Sep 18 20:09:07 2022,600,The main experiment item,yes,Flanker_Task_by_Katherine_Hays.osexp,/Users/katherinehays/Desktop,no,mono,no,18,no,white,no,no,768,legacy,52,79,/Users/katherinehays/Desktop/KH-subject-1.csv,legacy,Lentiform Loewenfeld,3.3.12,0,h,NA,h,NA,s,h,435,NA,37334,NA,8216,435,2,legacy,1024,2,48000,-16,experiment,HHHHH,0,even,10331,189280,NA,282297,277222,1968,281788,NA,283356,151945,NA,2100,283463,283899,283352,283463,Flanker Task (by Katherine Hays),123,73061,133,yes,1024
92.53731343,92.53731343,549.6940299,549.6940299,black,legacy,legacy,legacy,0,congruent,uniform,1,undefined,1,s,0,0,0,133,133,0,133,0,133,0,0,0,133,133,133,133,Sun Sep 18 20:09:07 2022,600,The main experiment item,yes,Flanker_Task_by_Katherine_Hays.osexp,/Users/katherinehays/Desktop,no,mono,no,18,no,white,no,no,768,legacy,53,79,/Users/katherinehays/Desktop/KH-subject-1.csv,legacy,Lentiform Loewenfeld,3.3.12,0,s,NA,h,NA,s,s,598,NA,37334,NA,8216,598,2,legacy,1024,2,48000,-16,experiment,SSSSS,0,even,10331,189280,NA,283903,277222,1968,281788,NA,284963,151945,NA,2100,285070,285669,284958,285070,Flanker Task (by Katherine Hays),124,73659,134,yes,1024
92.59259259,92.59259259,548.6444444,548.6444444,black,legacy,legacy,legacy,0,congruent,uniform,1,undefined,1,s,0,0,0,134,134,0,134,0,134,0,0,0,134,134,134,134,Sun Sep 18 20:09:07 2022,600,The main experiment item,yes,Flanker_Task_by_Katherine_Hays.osexp,/Users/katherinehays/Desktop,no,mono,no,18,no,white,no,no,768,legacy,54,79,/Users/katherinehays/Desktop/KH-subject-1.csv,legacy,Lentiform Loewenfeld,3.3.12,0,s,NA,h,NA,s,s,408,NA,37334,NA,8216,408,2,legacy,1024,2,48000,-16,experiment,SSSSS,0,even,10331,189280,NA,285673,277222,1968,281788,NA,286730,151945,NA,2100,286838,287247,286725,286838,Flanker Task (by Katherine Hays),125,74067,135,yes,1024
92.64705882,92.64705882,548.2132353,548.2132353,black,legacy,legacy,legacy,0,incongruent,uniform,1,undefined,1,s,0,0,0,135,135,0,135,0,135,0,0,0,135,135,135,135,Sun Sep 18 20:09:07 2022,600,The main experiment item,yes,Flanker_Task_by_Katherine_Hays.osexp,/Users/katherinehays/Desktop,no,mono,no,18,no,white,no,no,768,legacy,55,79,/Users/katherinehays/Desktop/KH-subject-1.csv,legacy,Lentiform Loewenfeld,3.3.12,0,s,NA,h,NA,s,s,490,NA,37334,NA,8216,490,2,legacy,1024,2,48000,-16,experiment,HHSHH,0,even,10331,189280,NA,287251,277222,1968,281788,NA,288304,151945,NA,2100,288410,288901,288299,288410,Flanker Task (by Katherine Hays),126,74557,136,yes,1024
92.70072993,92.70072993,547.5839416,547.5839416,black,legacy,legacy,legacy,0,congruent,uniform,1,undefined,1,h,0,0,0,136,136,0,136,0,136,0,0,0,136,136,136,136,Sun Sep 18 20:09:07 2022,600,The main experiment item,yes,Flanker_Task_by_Katherine_Hays.osexp,/Users/katherinehays/Desktop,no,mono,no,18,no,white,no,no,768,legacy,56,79,/Users/katherinehays/Desktop/KH-subject-1.csv,legacy,Lentiform Loewenfeld,3.3.12,0,h,NA,h,NA,s,h,462,NA,37334,NA,8216,462,2,legacy,1024,2,48000,-16,experiment,HHHHH,0,even,10331,189280,NA,288905,277222,1968,281788,NA,289958,151945,NA,2100,290065,290528,289954,290065,Flanker Task (by Katherine Hays),127,75019,137,yes,1024
92.75362319,92.75362319,547.6956522,547.6956522,black,legacy,legacy,legacy,0,incongruent,uniform,1,undefined,1,s,0,0,0,137,137,0,137,0,137,0,0,0,137,137,137,137,Sun Sep 18 20:09:07 2022,600,The main experiment item,yes,Flanker_Task_by_Katherine_Hays.osexp,/Users/katherinehays/Desktop,no,mono,no,18,no,white,no,no,768,legacy,57,79,/Users/katherinehays/Desktop/KH-subject-1.csv,legacy,Lentiform Loewenfeld,3.3.12,0,s,NA,h,NA,s,s,563,NA,37334,NA,8216,563,2,legacy,1024,2,48000,-16,experiment,HHSHH,0,even,10331,189280,NA,290532,277222,1968,281788,NA,291593,151945,NA,2100,291701,292265,291588,291701,Flanker Task (by Katherine Hays),128,75582,138,yes,1024
92.8057554,92.8057554,547.3956835,547.3956835,black,legacy,legacy,legacy,0,congruent,uniform,1,undefined,1,h,0,0,0,138,138,0,138,0,138,0,0,0,138,138,138,138,Sun Sep 18 20:09:07 2022,600,The main experiment item,yes,Flanker_Task_by_Katherine_Hays.osexp,/Users/katherinehays/Desktop,no,mono,no,18,no,white,no,no,768,legacy,58,79,/Users/katherinehays/Desktop/KH-subject-1.csv,legacy,Lentiform Loewenfeld,3.3.12,0,h,NA,h,NA,s,h,506,NA,37334,NA,8216,506,2,legacy,1024,2,48000,-16,experiment,HHHHH,0,even,10331,189280,NA,292270,277222,1968,281788,NA,293339,151945,NA,2100,293445,293953,293334,293445,Flanker Task (by Katherine Hays),129,76088,139,yes,1024
92.85714286,92.85714286,547.3857143,547.3857143,black,legacy,legacy,legacy,0,incongruent,uniform,1,undefined,1,s,0,0,0,139,139,0,139,0,139,0,0,0,139,139,139,139,Sun Sep 18 20:09:07 2022,600,The main experiment item,yes,Flanker_Task_by_Katherine_Hays.osexp,/Users/katherinehays/Desktop,no,mono,no,18,no,white,no,no,768,legacy,59,79,/Users/katherinehays/Desktop/KH-subject-1.csv,legacy,Lentiform Loewenfeld,3.3.12,0,s,NA,h,NA,s,s,546,NA,37334,NA,8216,546,2,legacy,1024,2,48000,-16,experiment,HHSHH,0,even,10331,189280,NA,293957,277222,1968,281788,NA,295015,151945,NA,2100,295122,295669,295010,295122,Flanker Task (by Katherine Hays),130,76634,140,yes,1024
92.19858156,92.19858156,547.4539007,547.4539007,black,legacy,legacy,legacy,0,congruent,uniform,0,undefined,0,s,0,0,0,140,140,0,140,0,140,0,0,0,140,140,140,140,Sun Sep 18 20:09:07 2022,600,The main experiment item,yes,Flanker_Task_by_Katherine_Hays.osexp,/Users/katherinehays/Desktop,no,mono,no,18,no,white,no,no,768,legacy,60,79,/Users/katherinehays/Desktop/KH-subject-1.csv,legacy,Lentiform Loewenfeld,3.3.12,0,h,NA,h,NA,s,h,557,NA,37334,NA,8216,557,2,legacy,1024,2,48000,-16,experiment,SSSSS,0,even,10331,189280,NA,295674,277222,1968,281788,NA,296728,151945,NA,2100,296834,297397,296724,296834,Flanker Task (by Katherine Hays),130,77191,141,yes,1024
91.54929577,91.54929577,546.9084507,546.9084507,black,legacy,legacy,legacy,0,incongruent,uniform,0,undefined,0,h,0,0,0,141,141,0,141,0,141,0,0,0,141,141,141,141,Sun Sep 18 20:09:07 2022,600,The main experiment item,yes,Flanker_Task_by_Katherine_Hays.osexp,/Users/katherinehays/Desktop,no,mono,no,18,no,white,no,no,768,legacy,61,79,/Users/katherinehays/Desktop/KH-subject-1.csv,legacy,Lentiform Loewenfeld,3.3.12,0,s,NA,h,NA,s,s,470,NA,37334,NA,8216,470,2,legacy,1024,2,48000,-16,experiment,SSHSS,0,even,10331,189280,NA,297913,297403,1968,281788,NA,298970,151945,NA,2100,299076,299546,298965,299076,Flanker Task (by Katherine Hays),130,77661,142,yes,1024
91.60839161,91.60839161,546.1608392,546.1608392,black,legacy,legacy,legacy,0,congruent,uniform,1,undefined,1,s,0,0,0,142,142,0,142,0,142,0,0,0,142,142,142,142,Sun Sep 18 20:09:07 2022,600,The main experiment item,yes,Flanker_Task_by_Katherine_Hays.osexp,/Users/katherinehays/Desktop,no,mono,no,18,no,white,no,no,768,legacy,62,79,/Users/katherinehays/Desktop/KH-subject-1.csv,legacy,Lentiform Loewenfeld,3.3.12,0,s,NA,h,NA,s,s,440,NA,37334,NA,8216,440,2,legacy,1024,2,48000,-16,experiment,SSSSS,0,even,10331,189280,NA,300059,299550,1968,281788,NA,301108,151945,NA,2100,301214,301655,301104,301214,Flanker Task (by Katherine Hays),131,78101,143,yes,1024
90.97222222,90.97222222,545.4375,545.4375,black,legacy,legacy,legacy,0,incongruent,uniform,0,undefined,0,h,0,0,0,143,143,0,143,0,143,0,0,0,143,143,143,143,Sun Sep 18 20:09:07 2022,600,The main experiment item,yes,Flanker_Task_by_Katherine_Hays.osexp,/Users/katherinehays/Desktop,no,mono,no,18,no,white,no,no,768,legacy,63,79,/Users/katherinehays/Desktop/KH-subject-1.csv,legacy,Lentiform Loewenfeld,3.3.12,0,s,NA,h,NA,s,s,442,NA,37334,NA,8216,442,2,legacy,1024,2,48000,-16,experiment,SSHSS,0,even,10331,189280,NA,301659,299550,1968,281788,NA,302708,151945,NA,2100,302814,303257,302704,302814,Flanker Task (by Katherine Hays),131,78543,144,yes,1024
91.03448276,91.03448276,545.5793103,545.5793103,black,legacy,legacy,legacy,0,incongruent,uniform,1,undefined,1,h,0,0,0,144,144,0,144,0,144,0,0,0,144,144,144,144,Sun Sep 18 20:09:07 2022,600,The main experiment item,yes,Flanker_Task_by_Katherine_Hays.osexp,/Users/katherinehays/Desktop,no,mono,no,18,no,white,no,no,768,legacy,64,79,/Users/katherinehays/Desktop/KH-subject-1.csv,legacy,Lentiform Loewenfeld,3.3.12,0,h,NA,h,NA,s,h,566,NA,37334,NA,8216,566,2,legacy,1024,2,48000,-16,experiment,SSHSS,0,even,10331,189280,NA,303769,303261,1968,281788,NA,304828,151945,NA,2100,304935,305502,304823,304935,Flanker Task (by Katherine Hays),132,79109,145,yes,1024
91.09589041,91.09589041,546.8493151,546.8493151,black,legacy,legacy,legacy,0,congruent,uniform,1,undefined,1,h,0,0,0,145,145,0,145,0,145,0,0,0,145,145,145,145,Sun Sep 18 20:09:07 2022,600,The main experiment item,yes,Flanker_Task_by_Katherine_Hays.osexp,/Users/katherinehays/Desktop,no,mono,no,18,no,white,no,no,768,legacy,65,79,/Users/katherinehays/Desktop/KH-subject-1.csv,legacy,Lentiform Loewenfeld,3.3.12,0,h,NA,h,NA,s,h,731,NA,37334,NA,8216,731,2,legacy,1024,2,48000,-16,experiment,HHHHH,0,even,10331,189280,NA,305506,303261,1968,281788,NA,306564,151945,NA,2100,306670,307402,306558,306670,Flanker Task (by Katherine Hays),133,79840,146,yes,1024
91.15646259,91.15646259,546.0680272,546.0680272,black,legacy,legacy,legacy,0,congruent,uniform,1,undefined,1,h,0,0,0,146,146,0,146,0,146,0,0,0,146,146,146,146,Sun Sep 18 20:09:07 2022,600,The main experiment item,yes,Flanker_Task_by_Katherine_Hays.osexp,/Users/katherinehays/Desktop,no,mono,no,18,no,white,no,no,768,legacy,66,79,/Users/katherinehays/Desktop/KH-subject-1.csv,legacy,Lentiform Loewenfeld,3.3.12,0,h,NA,h,NA,s,h,432,NA,37334,NA,8216,432,2,legacy,1024,2,48000,-16,experiment,HHHHH,0,even,10331,189280,NA,307916,303261,1968,307407,NA,308972,151945,NA,2100,309079,309512,308968,309079,Flanker Task (by Katherine Hays),134,80272,147,yes,1024
91.21621622,91.21621622,544.9391892,544.9391892,black,legacy,legacy,legacy,0,incongruent,uniform,1,undefined,1,h,0,0,0,147,147,0,147,0,147,0,0,0,147,147,147,147,Sun Sep 18 20:09:07 2022,600,The main experiment item,yes,Flanker_Task_by_Katherine_Hays.osexp,/Users/katherinehays/Desktop,no,mono,no,18,no,white,no,no,768,legacy,67,79,/Users/katherinehays/Desktop/KH-subject-1.csv,legacy,Lentiform Loewenfeld,3.3.12,0,h,NA,h,NA,s,h,379,NA,37334,NA,8216,379,2,legacy,1024,2,48000,-16,experiment,SSHSS,0,even,10331,189280,NA,309516,303261,1968,307407,NA,310576,151945,NA,2100,310684,311064,310571,310684,Flanker Task (by Katherine Hays),135,80651,148,yes,1024
91.27516779,91.27516779,543.7114094,543.7114094,black,legacy,legacy,legacy,0,incongruent,uniform,1,undefined,1,h,0,0,0,148,148,0,148,0,148,0,0,0,148,148,148,148,Sun Sep 18 20:09:07 2022,600,The main experiment item,yes,Flanker_Task_by_Katherine_Hays.osexp,/Users/katherinehays/Desktop,no,mono,no,18,no,white,no,no,768,legacy,68,79,/Users/katherinehays/Desktop/KH-subject-1.csv,legacy,Lentiform Loewenfeld,3.3.12,0,h,NA,h,NA,s,h,362,NA,37334,NA,8216,362,2,legacy,1024,2,48000,-16,experiment,SSHSS,0,even,10331,189280,NA,311068,303261,1968,307407,NA,312124,151945,NA,2100,312231,312594,312119,312230,Flanker Task (by Katherine Hays),136,81013,149,yes,1024
91.33333333,91.33333333,543.7066667,543.7066667,black,legacy,legacy,legacy,0,congruent,uniform,1,undefined,1,h,0,0,0,149,149,0,149,0,149,0,0,0,149,149,149,149,Sun Sep 18 20:09:07 2022,600,The main experiment item,yes,Flanker_Task_by_Katherine_Hays.osexp,/Users/katherinehays/Desktop,no,mono,no,18,no,white,no,no,768,legacy,69,79,/Users/katherinehays/Desktop/KH-subject-1.csv,legacy,Lentiform Loewenfeld,3.3.12,0,h,NA,h,NA,s,h,543,NA,37334,NA,8216,543,2,legacy,1024,2,48000,-16,experiment,HHHHH,0,even,10331,189280,NA,312598,303261,1968,307407,NA,313657,151945,NA,2100,313761,314305,313652,313761,Flanker Task (by Katherine Hays),137,81556,150,yes,1024
91.39072848,91.39072848,543.5231788,543.5231788,black,legacy,legacy,legacy,0,incongruent,uniform,1,undefined,1,s,0,0,0,150,150,0,150,0,150,0,0,0,150,150,150,150,Sun Sep 18 20:09:07 2022,600,The main experiment item,yes,Flanker_Task_by_Katherine_Hays.osexp,/Users/katherinehays/Desktop,no,mono,no,18,no,white,no,no,768,legacy,70,79,/Users/katherinehays/Desktop/KH-subject-1.csv,legacy,Lentiform Loewenfeld,3.3.12,0,s,NA,h,NA,s,s,516,NA,37334,NA,8216,516,2,legacy,1024,2,48000,-16,experiment,HHSHH,0,even,10331,189280,NA,314309,303261,1968,307407,NA,315369,151945,NA,2100,315476,315993,315364,315476,Flanker Task (by Katherine Hays),138,82072,151,yes,1024
91.44736842,91.44736842,543.5263158,543.5263158,black,legacy,legacy,legacy,0,incongruent,uniform,1,undefined,1,h,0,0,0,151,151,0,151,0,151,0,0,0,151,151,151,151,Sun Sep 18 20:09:07 2022,600,The main experiment item,yes,Flanker_Task_by_Katherine_Hays.osexp,/Users/katherinehays/Desktop,no,mono,no,18,no,white,no,no,768,legacy,71,79,/Users/katherinehays/Desktop/KH-subject-1.csv,legacy,Lentiform Loewenfeld,3.3.12,0,h,NA,h,NA,s,h,544,NA,37334,NA,8216,544,2,legacy,1024,2,48000,-16,experiment,SSHSS,0,even,10331,189280,NA,315997,303261,1968,307407,NA,317058,151945,NA,2100,317165,317710,317053,317165,Flanker Task (by Katherine Hays),139,82616,152,yes,1024
91.50326797,91.50326797,543.2614379,543.2614379,black,legacy,legacy,legacy,0,incongruent,uniform,1,undefined,1,h,0,0,0,152,152,0,152,0,152,0,0,0,152,152,152,152,Sun Sep 18 20:09:07 2022,600,The main experiment item,yes,Flanker_Task_by_Katherine_Hays.osexp,/Users/katherinehays/Desktop,no,mono,no,18,no,white,no,no,768,legacy,72,79,/Users/katherinehays/Desktop/KH-subject-1.csv,legacy,Lentiform Loewenfeld,3.3.12,0,h,NA,h,NA,s,h,503,NA,37334,NA,8216,503,2,legacy,1024,2,48000,-16,experiment,SSHSS,0,even,10331,189280,NA,317714,303261,1968,307407,NA,318775,151945,NA,2100,318880,319384,318770,318879,Flanker Task (by Katherine Hays),140,83119,153,yes,1024
90.90909091,90.90909091,543.0064935,543.0064935,black,legacy,legacy,legacy,0,congruent,uniform,0,undefined,0,h,0,0,0,153,153,0,153,0,153,0,0,0,153,153,153,153,Sun Sep 18 20:09:07 2022,600,The main experiment item,yes,Flanker_Task_by_Katherine_Hays.osexp,/Users/katherinehays/Desktop,no,mono,no,18,no,white,no,no,768,legacy,73,79,/Users/katherinehays/Desktop/KH-subject-1.csv,legacy,Lentiform Loewenfeld,3.3.12,0,s,NA,h,NA,s,s,504,NA,37334,NA,8216,504,2,legacy,1024,2,48000,-16,experiment,HHHHH,0,even,10331,189280,NA,319388,303261,1968,307407,NA,320448,151945,NA,2100,320555,321060,320443,320555,Flanker Task (by Katherine Hays),140,83623,154,yes,1024
90.96774194,90.96774194,544.8064516,544.8064516,black,legacy,legacy,legacy,0,congruent,uniform,1,undefined,1,s,0,0,0,154,154,0,154,0,154,0,0,0,154,154,154,154,Sun Sep 18 20:09:07 2022,600,The main experiment item,yes,Flanker_Task_by_Katherine_Hays.osexp,/Users/katherinehays/Desktop,no,mono,no,18,no,white,no,no,768,legacy,74,79,/Users/katherinehays/Desktop/KH-subject-1.csv,legacy,Lentiform Loewenfeld,3.3.12,0,s,NA,h,NA,s,s,822,NA,37334,NA,8216,822,2,legacy,1024,2,48000,-16,experiment,SSSSS,0,even,10331,189280,NA,321573,321064,1968,307407,NA,322632,151945,NA,2100,322739,323562,322627,322739,Flanker Task (by Katherine Hays),141,84445,155,yes,1024
