"acc","accuracy","average_response_time","avg_rt","background","canvas_backend","clock_backend","color_backend","compensation","condition","coordinates","correct","correct_instructions1","correct_keyboard_response","correct_response","count_Block1","count_Block2","count_Block3","count_ISI","count_errorFeedback","count_experiment","count_faster","count_finish","count_fixation","count_instructions1","count_instructions2","count_instructions3","count_keyboard_response","count_logger","count_sequence","count_stimulus","datetime","deadline","description","disable_garbage_collection","experiment_file","experiment_path","font_bold","font_family","font_italic","font_size","font_underline","foreground","form_clicks","fullscreen","height","keyboard_backend","live_row","live_row_Block1","logfile","mouse_backend","opensesame_codename","opensesame_version","repeat_cycle","response","response_finish","response_instructions1","response_instructions2","response_instructions3","response_keyboard_response","response_time","response_time_finish","response_time_instructions1","response_time_instructions2","response_time_instructions3","response_time_keyboard_response","round_decimals","sampler_backend","sound_buf_size","sound_channels","sound_freq","sound_sample_size","start","stimulus","subject_nr","subject_parity","time_Block1","time_Block2","time_Block3","time_ISI","time_errorFeedback","time_experiment","time_faster","time_finish","time_fixation","time_instructions1","time_instructions2","time_instructions3","time_keyboard_response","time_logger","time_sequence","time_stimulus","title","total_correct","total_response_time","total_responses","uniform_coordinates","width"
"100","100","1311","1311","#800080","legacy","legacy","legacy","0","congruent","uniform","1","undefined","1","s","0","0","0","0","0","0","0","0","0","0","0","0","0","0","0","0","Sat Sep 26 11:01:02 2020","1500","The main experiment item","yes","FlankerTaskLab.osexp","/Users/Arianna/Desktop","no","sans","no","18","no","white","no","yes","768","legacy","0","0","/Users/Arianna/Desktop/AG-subject-3.csv","legacy","Lentiform Loewenfeld","3.3.3","0","s","NA","h","NA","NA","s","1311","NA","39393","NA","NA","1311","2","legacy","1024","2","48000","-16","experiment","SSSSS","3","odd","42898","NA","NA","NA","NA","3458","NA","NA","42975","3473","NA","NA","43090","44403","42960","43090","Flanker Task Lab 2.1","1","1311","1","yes","1024"
"100","100","890.5","890.5","#800080","legacy","legacy","legacy","0","congruent","uniform","1","undefined","1","s","0","0","0","1","1","0","1","0","1","0","0","0","1","1","1","1","Sat Sep 26 11:01:02 2020","1500","The main experiment item","yes","FlankerTaskLab.osexp","/Users/Arianna/Desktop","no","sans","no","18","no","white","no","yes","768","legacy","1","1","/Users/Arianna/Desktop/AG-subject-3.csv","legacy","Lentiform Loewenfeld","3.3.3","0","s","NA","h","NA","NA","s","470","NA","39393","NA","NA","470","2","legacy","1024","2","48000","-16","experiment","SSSSS","3","odd","42898","NA","NA","44433","NA","3458","NA","NA","45543","3473","NA","NA","45666","46137","45526","45665","Flanker Task Lab 2.1","2","1781","2","yes","1024"
"100","100","774","774","#800080","legacy","legacy","legacy","0","congruent","uniform","1","undefined","1","h","0","0","0","2","2","0","2","0","2","0","0","0","2","2","2","2","Sat Sep 26 11:01:02 2020","1500","The main experiment item","yes","FlankerTaskLab.osexp","/Users/Arianna/Desktop","no","sans","no","18","no","white","no","yes","768","legacy","2","2","/Users/Arianna/Desktop/AG-subject-3.csv","legacy","Lentiform Loewenfeld","3.3.3","0","h","NA","h","NA","NA","h","541","NA","39393","NA","NA","541","2","legacy","1024","2","48000","-16","experiment","HHHHH","3","odd","42898","NA","NA","46170","NA","3458","NA","NA","47260","3473","NA","NA","47379","47921","47247","47379","Flanker Task Lab 2.1","3","2322","3","yes","1024"
"100","100","691.5","691.5","#800080","legacy","legacy","legacy","0","congruent","uniform","1","undefined","1","h","0","0","0","3","3","0","3","0","3","0","0","0","3","3","3","3","Sat Sep 26 11:01:02 2020","1500","The main experiment item","yes","FlankerTaskLab.osexp","/Users/Arianna/Desktop","no","sans","no","18","no","white","no","yes","768","legacy","3","3","/Users/Arianna/Desktop/AG-subject-3.csv","legacy","Lentiform Loewenfeld","3.3.3","0","h","NA","h","NA","NA","h","444","NA","39393","NA","NA","444","2","legacy","1024","2","48000","-16","experiment","HHHHH","3","odd","42898","NA","NA","47947","NA","3458","NA","NA","49035","3473","NA","NA","49150","49595","49021","49150","Flanker Task Lab 2.1","4","2766","4","yes","1024"
"100","100","699.8","699.8","#800080","legacy","legacy","legacy","0","incongruent","uniform","1","undefined","1","s","0","0","0","4","4","0","4","0","4","0","0","0","4","4","4","4","Sat Sep 26 11:01:02 2020","1500","The main experiment item","yes","FlankerTaskLab.osexp","/Users/Arianna/Desktop","no","sans","no","18","no","white","no","yes","768","legacy","4","4","/Users/Arianna/Desktop/AG-subject-3.csv","legacy","Lentiform Loewenfeld","3.3.3","0","s","NA","h","NA","NA","s","733","NA","39393","NA","NA","733","2","legacy","1024","2","48000","-16","experiment","HHSHH","3","odd","42898","NA","NA","49611","NA","3458","NA","NA","50697","3473","NA","NA","50813","51547","50683","50813","Flanker Task Lab 2.1","5","3499","5","yes","1024"
"100","100","708.6666666666666","708.6666666666666","#800080","legacy","legacy","legacy","0","congruent","uniform","1","undefined","1","s","0","0","0","5","5","0","5","0","5","0","0","0","5","5","5","5","Sat Sep 26 11:01:02 2020","1500","The main experiment item","yes","FlankerTaskLab.osexp","/Users/Arianna/Desktop","no","sans","no","18","no","white","no","yes","768","legacy","5","5","/Users/Arianna/Desktop/AG-subject-3.csv","legacy","Lentiform Loewenfeld","3.3.3","0","s","NA","h","NA","NA","s","753","NA","39393","NA","NA","753","2","legacy","1024","2","48000","-16","experiment","SSSSS","3","odd","42898","NA","NA","51575","NA","3458","NA","NA","52661","3473","NA","NA","52778","53532","52648","52778","Flanker Task Lab 2.1","6","4252","6","yes","1024"
"100","100","674.4285714285714","674.4285714285714","#800080","legacy","legacy","legacy","0","congruent","uniform","1","undefined","1","s","0","0","0","6","6","0","6","0","6","0","0","0","6","6","6","6","Sat Sep 26 11:01:02 2020","1500","The main experiment item","yes","FlankerTaskLab.osexp","/Users/Arianna/Desktop","no","sans","no","18","no","white","no","yes","768","legacy","6","6","/Users/Arianna/Desktop/AG-subject-3.csv","legacy","Lentiform Loewenfeld","3.3.3","0","s","NA","h","NA","NA","s","469","NA","39393","NA","NA","469","2","legacy","1024","2","48000","-16","experiment","SSSSS","3","odd","42898","NA","NA","53560","NA","3458","NA","NA","54646","3473","NA","NA","54766","55237","54633","54766","Flanker Task Lab 2.1","7","4721","7","yes","1024"
"100","100","664","664","#800080","legacy","legacy","legacy","0","incongruent","uniform","1","undefined","1","h","0","0","0","7","7","0","7","0","7","0","0","0","7","7","7","7","Sat Sep 26 11:01:02 2020","1500","The main experiment item","yes","FlankerTaskLab.osexp","/Users/Arianna/Desktop","no","sans","no","18","no","white","no","yes","768","legacy","7","7","/Users/Arianna/Desktop/AG-subject-3.csv","legacy","Lentiform Loewenfeld","3.3.3","0","h","NA","h","NA","NA","h","591","NA","39393","NA","NA","591","2","legacy","1024","2","48000","-16","experiment","SSHSS","3","odd","42898","NA","NA","55255","NA","3458","NA","NA","56340","3473","NA","NA","56455","57048","56326","56455","Flanker Task Lab 2.1","8","5312","8","yes","1024"
"100","100","666.2222222222222","666.2222222222222","#800080","legacy","legacy","legacy","0","incongruent","uniform","1","undefined","1","s","0","0","0","8","8","0","8","0","8","0","0","0","8","8","8","8","Sat Sep 26 11:01:02 2020","1500","The main experiment item","yes","FlankerTaskLab.osexp","/Users/Arianna/Desktop","no","sans","no","18","no","white","no","yes","768","legacy","8","8","/Users/Arianna/Desktop/AG-subject-3.csv","legacy","Lentiform Loewenfeld","3.3.3","0","s","NA","h","NA","NA","s","684","NA","39393","NA","NA","684","2","legacy","1024","2","48000","-16","experiment","HHSHH","3","odd","42898","NA","NA","57072","NA","3458","NA","NA","58157","3473","NA","NA","58275","58960","58144","58275","Flanker Task Lab 2.1","9","5996","9","yes","1024"
"100","100","668.8","668.8","#800080","legacy","legacy","legacy","0","incongruent","uniform","1","undefined","1","h","0","0","0","9","9","0","9","0","9","0","0","0","9","9","9","9","Sat Sep 26 11:01:02 2020","1500","The main experiment item","yes","FlankerTaskLab.osexp","/Users/Arianna/Desktop","no","sans","no","18","no","white","no","yes","768","legacy","9","9","/Users/Arianna/Desktop/AG-subject-3.csv","legacy","Lentiform Loewenfeld","3.3.3","0","h","NA","h","NA","NA","h","692","NA","39393","NA","NA","692","2","legacy","1024","2","48000","-16","experiment","SSHSS","3","odd","42898","NA","NA","58987","NA","3458","NA","NA","60073","3473","NA","NA","60191","60884","60057","60191","Flanker Task Lab 2.1","10","6688","10","yes","1024"
"100","100","662.6363636363636","662.6363636363636","#800080","legacy","legacy","legacy","0","incongruent","uniform","1","undefined","1","s","0","0","0","10","10","0","10","0","10","0","0","0","10","10","10","10","Sat Sep 26 11:01:02 2020","1500","The main experiment item","yes","FlankerTaskLab.osexp","/Users/Arianna/Desktop","no","sans","no","18","no","white","no","yes","768","legacy","10","10","/Users/Arianna/Desktop/AG-subject-3.csv","legacy","Lentiform Loewenfeld","3.3.3","0","s","NA","h","NA","NA","s","601","NA","39393","NA","NA","601","2","legacy","1024","2","48000","-16","experiment","HHSHH","3","odd","42898","NA","NA","60910","NA","3458","NA","NA","61997","3473","NA","NA","62112","62714","61984","62112","Flanker Task Lab 2.1","11","7289","11","yes","1024"
"100","100","657.3333333333334","657.3333333333334","#800080","legacy","legacy","legacy","0","incongruent","uniform","1","undefined","1","h","0","0","0","11","11","0","11","0","11","0","0","0","11","11","11","11","Sat Sep 26 11:01:02 2020","1500","The main experiment item","yes","FlankerTaskLab.osexp","/Users/Arianna/Desktop","no","sans","no","18","no","white","no","yes","768","legacy","11","11","/Users/Arianna/Desktop/AG-subject-3.csv","legacy","Lentiform Loewenfeld","3.3.3","0","h","NA","h","NA","NA","h","599","NA","39393","NA","NA","599","2","legacy","1024","2","48000","-16","experiment","SSHSS","3","odd","42898","NA","NA","62738","NA","3458","NA","NA","63824","3473","NA","NA","63941","64541","63811","63940","Flanker Task Lab 2.1","12","7888","12","yes","1024"
"100","100","650.4615384615385","650.4615384615385","#800080","legacy","legacy","legacy","0","congruent","uniform","1","undefined","1","h","0","0","0","12","12","0","12","0","12","0","0","0","12","12","12","12","Sat Sep 26 11:01:02 2020","1500","The main experiment item","yes","FlankerTaskLab.osexp","/Users/Arianna/Desktop","no","sans","no","18","no","white","no","yes","768","legacy","12","12","/Users/Arianna/Desktop/AG-subject-3.csv","legacy","Lentiform Loewenfeld","3.3.3","0","h","NA","h","NA","NA","h","568","NA","39393","NA","NA","568","2","legacy","1024","2","48000","-16","experiment","HHHHH","3","odd","42898","NA","NA","64569","NA","3458","NA","NA","65653","3473","NA","NA","65770","66339","65641","65770","Flanker Task Lab 2.1","13","8456","13","yes","1024"
"100","100","638.3571428571429","638.3571428571429","#800080","legacy","legacy","legacy","0","congruent","uniform","1","undefined","1","h","0","0","0","13","13","0","13","0","13","0","0","0","13","13","13","13","Sat Sep 26 11:01:02 2020","1500","The main experiment item","yes","FlankerTaskLab.osexp","/Users/Arianna/Desktop","no","sans","no","18","no","white","no","yes","768","legacy","13","13","/Users/Arianna/Desktop/AG-subject-3.csv","legacy","Lentiform Loewenfeld","3.3.3","0","h","NA","h","NA","NA","h","481","NA","39393","NA","NA","481","2","legacy","1024","2","48000","-16","experiment","HHHHH","3","odd","42898","NA","NA","66366","NA","3458","NA","NA","67460","3473","NA","NA","67576","68058","67440","67576","Flanker Task Lab 2.1","14","8937","14","yes","1024"
"100","100","631.5333333333333","631.5333333333333","#800080","legacy","legacy","legacy","0","congruent","uniform","1","undefined","1","s","0","0","0","14","14","0","14","0","14","0","0","0","14","14","14","14","Sat Sep 26 11:01:02 2020","1500","The main experiment item","yes","FlankerTaskLab.osexp","/Users/Arianna/Desktop","no","sans","no","18","no","white","no","yes","768","legacy","14","14","/Users/Arianna/Desktop/AG-subject-3.csv","legacy","Lentiform Loewenfeld","3.3.3","0","s","NA","h","NA","NA","s","536","NA","39393","NA","NA","536","2","legacy","1024","2","48000","-16","experiment","SSSSS","3","odd","42898","NA","NA","68085","NA","3458","NA","NA","69172","3473","NA","NA","69287","69824","69159","69287","Flanker Task Lab 2.1","15","9473","15","yes","1024"
"100","100","619.625","619.625","#800080","legacy","legacy","legacy","0","congruent","uniform","1","undefined","1","s","0","0","0","15","15","0","15","0","15","0","0","0","15","15","15","15","Sat Sep 26 11:01:02 2020","1500","The main experiment item","yes","FlankerTaskLab.osexp","/Users/Arianna/Desktop","no","sans","no","18","no","white","no","yes","768","legacy","15","15","/Users/Arianna/Desktop/AG-subject-3.csv","legacy","Lentiform Loewenfeld","3.3.3","0","s","NA","h","NA","NA","s","441","NA","39393","NA","NA","441","2","legacy","1024","2","48000","-16","experiment","SSSSS","3","odd","42898","NA","NA","69850","NA","3458","NA","NA","70935","3473","NA","NA","71050","71492","70921","71050","Flanker Task Lab 2.1","16","9914","16","yes","1024"
"100","100","616.1176470588235","616.1176470588235","#800080","legacy","legacy","legacy","0","incongruent","uniform","1","undefined","1","s","0","0","0","16","16","0","16","0","16","0","0","0","16","16","16","16","Sat Sep 26 11:01:02 2020","1500","The main experiment item","yes","FlankerTaskLab.osexp","/Users/Arianna/Desktop","no","sans","no","18","no","white","no","yes","768","legacy","16","16","/Users/Arianna/Desktop/AG-subject-3.csv","legacy","Lentiform Loewenfeld","3.3.3","0","s","NA","h","NA","NA","s","560","NA","39393","NA","NA","560","2","legacy","1024","2","48000","-16","experiment","HHSHH","3","odd","42898","NA","NA","71519","NA","3458","NA","NA","72604","3473","NA","NA","72725","73286","72590","72724","Flanker Task Lab 2.1","17","10474","17","yes","1024"
"100","100","615.7222222222222","615.7222222222222","#800080","legacy","legacy","legacy","0","incongruent","uniform","1","undefined","1","h","0","0","0","17","17","0","17","0","17","0","0","0","17","17","17","17","Sat Sep 26 11:01:02 2020","1500","The main experiment item","yes","FlankerTaskLab.osexp","/Users/Arianna/Desktop","no","sans","no","18","no","white","no","yes","768","legacy","17","17","/Users/Arianna/Desktop/AG-subject-3.csv","legacy","Lentiform Loewenfeld","3.3.3","0","h","NA","h","NA","NA","h","609","NA","39393","NA","NA","609","2","legacy","1024","2","48000","-16","experiment","SSHSS","3","odd","42898","NA","NA","73300","NA","3458","NA","NA","74387","3473","NA","NA","74502","75113","74373","74502","Flanker Task Lab 2.1","18","11083","18","yes","1024"
"100","100","607.578947368421","607.578947368421","#800080","legacy","legacy","legacy","0","congruent","uniform","1","undefined","1","h","0","0","0","18","18","0","18","0","18","0","0","0","18","18","18","18","Sat Sep 26 11:01:02 2020","1500","The main experiment item","yes","FlankerTaskLab.osexp","/Users/Arianna/Desktop","no","sans","no","18","no","white","no","yes","768","legacy","18","18","/Users/Arianna/Desktop/AG-subject-3.csv","legacy","Lentiform Loewenfeld","3.3.3","0","h","NA","h","NA","NA","h","461","NA","39393","NA","NA","461","2","legacy","1024","2","48000","-16","experiment","HHHHH","3","odd","42898","NA","NA","75140","NA","3458","NA","NA","76229","3473","NA","NA","76345","76808","76215","76345","Flanker Task Lab 2.1","19","11544","19","yes","1024"
"100","100","601.7","601.7","#800080","legacy","legacy","legacy","0","incongruent","uniform","1","undefined","1","h","0","0","0","19","19","0","19","0","19","0","0","0","19","19","19","19","Sat Sep 26 11:01:02 2020","1500","The main experiment item","yes","FlankerTaskLab.osexp","/Users/Arianna/Desktop","no","sans","no","18","no","white","no","yes","768","legacy","19","19","/Users/Arianna/Desktop/AG-subject-3.csv","legacy","Lentiform Loewenfeld","3.3.3","0","h","NA","h","NA","NA","h","490","NA","39393","NA","NA","490","2","legacy","1024","2","48000","-16","experiment","SSHSS","3","odd","42898","NA","NA","76835","NA","3458","NA","NA","77926","3473","NA","NA","78041","78532","77912","78041","Flanker Task Lab 2.1","20","12034","20","yes","1024"
"100","100","599.952380952381","599.952380952381","#800080","legacy","legacy","legacy","0","incongruent","uniform","1","undefined","1","s","0","0","0","20","20","0","20","0","20","0","0","0","20","20","20","20","Sat Sep 26 11:01:02 2020","1500","The main experiment item","yes","FlankerTaskLab.osexp","/Users/Arianna/Desktop","no","sans","no","18","no","white","no","yes","768","legacy","20","20","/Users/Arianna/Desktop/AG-subject-3.csv","legacy","Lentiform Loewenfeld","3.3.3","0","s","NA","h","NA","NA","s","565","NA","39393","NA","NA","565","2","legacy","1024","2","48000","-16","experiment","HHSHH","3","odd","42898","NA","NA","78556","NA","3458","NA","NA","79645","3473","NA","NA","79761","80327","79631","79761","Flanker Task Lab 2.1","21","12599","21","yes","1024"
"100","100","598.9545454545455","598.9545454545455","#800080","legacy","legacy","legacy","0","incongruent","uniform","1","undefined","1","h","0","0","0","21","21","0","21","0","21","0","0","0","21","21","21","21","Sat Sep 26 11:01:02 2020","1500","The main experiment item","yes","FlankerTaskLab.osexp","/Users/Arianna/Desktop","no","sans","no","18","no","white","no","yes","768","legacy","21","21","/Users/Arianna/Desktop/AG-subject-3.csv","legacy","Lentiform Loewenfeld","3.3.3","0","h","NA","h","NA","NA","h","578","NA","39393","NA","NA","578","2","legacy","1024","2","48000","-16","experiment","SSHSS","3","odd","42898","NA","NA","80353","NA","3458","NA","NA","81440","3473","NA","NA","81555","82134","81427","81554","Flanker Task Lab 2.1","22","13177","22","yes","1024"
"100","100","595.304347826087","595.304347826087","#800080","legacy","legacy","legacy","0","congruent","uniform","1","undefined","1","s","0","0","0","22","22","0","22","0","22","0","0","0","22","22","22","22","Sat Sep 26 11:01:02 2020","1500","The main experiment item","yes","FlankerTaskLab.osexp","/Users/Arianna/Desktop","no","sans","no","18","no","white","no","yes","768","legacy","22","22","/Users/Arianna/Desktop/AG-subject-3.csv","legacy","Lentiform Loewenfeld","3.3.3","0","s","NA","h","NA","NA","s","515","NA","39393","NA","NA","515","2","legacy","1024","2","48000","-16","experiment","SSSSS","3","odd","42898","NA","NA","82160","NA","3458","NA","NA","83247","3473","NA","NA","83363","83879","83234","83362","Flanker Task Lab 2.1","23","13692","23","yes","1024"
"100","100","587.9166666666666","587.9166666666666","#800080","legacy","legacy","legacy","0","congruent","uniform","1","undefined","1","h","0","0","0","23","23","0","23","0","23","0","0","0","23","23","23","23","Sat Sep 26 11:01:02 2020","1500","The main experiment item","yes","FlankerTaskLab.osexp","/Users/Arianna/Desktop","no","sans","no","18","no","white","no","yes","768","legacy","23","23","/Users/Arianna/Desktop/AG-subject-3.csv","legacy","Lentiform Loewenfeld","3.3.3","0","h","NA","h","NA","NA","h","418","NA","39393","NA","NA","418","2","legacy","1024","2","48000","-16","experiment","HHHHH","3","odd","42898","NA","NA","83906","NA","3458","NA","NA","84992","3473","NA","NA","85107","85526","84979","85107","Flanker Task Lab 2.1","24","14110","24","yes","1024"
"100","100","584.12","584.12","#800080","legacy","legacy","legacy","0","congruent","uniform","1","undefined","1","s","0","0","0","24","24","0","24","0","24","0","0","0","24","24","24","24","Sat Sep 26 11:01:02 2020","1500","The main experiment item","yes","FlankerTaskLab.osexp","/Users/Arianna/Desktop","no","sans","no","18","no","white","no","yes","768","legacy","24","24","/Users/Arianna/Desktop/AG-subject-3.csv","legacy","Lentiform Loewenfeld","3.3.3","0","s","NA","h","NA","NA","s","493","NA","39393","NA","NA","493","2","legacy","1024","2","48000","-16","experiment","SSSSS","3","odd","42898","NA","NA","85542","NA","3458","NA","NA","86627","3473","NA","NA","86743","87238","86614","86743","Flanker Task Lab 2.1","25","14603","25","yes","1024"
"100","100","582.5769230769231","582.5769230769231","#800080","legacy","legacy","legacy","0","congruent","uniform","1","undefined","1","h","0","0","0","25","25","0","25","0","25","0","0","0","25","25","25","25","Sat Sep 26 11:01:02 2020","1500","The main experiment item","yes","FlankerTaskLab.osexp","/Users/Arianna/Desktop","no","sans","no","18","no","white","no","yes","768","legacy","25","25","/Users/Arianna/Desktop/AG-subject-3.csv","legacy","Lentiform Loewenfeld","3.3.3","0","h","NA","h","NA","NA","h","544","NA","39393","NA","NA","544","2","legacy","1024","2","48000","-16","experiment","HHHHH","3","odd","42898","NA","NA","87265","NA","3458","NA","NA","88355","3473","NA","NA","88471","89017","88340","88470","Flanker Task Lab 2.1","26","15147","26","yes","1024"
"100","100","586.6296296296297","586.6296296296297","#800080","legacy","legacy","legacy","0","incongruent","uniform","1","undefined","1","s","0","0","0","26","26","0","26","0","26","0","0","0","26","26","26","26","Sat Sep 26 11:01:02 2020","1500","The main experiment item","yes","FlankerTaskLab.osexp","/Users/Arianna/Desktop","no","sans","no","18","no","white","no","yes","768","legacy","26","26","/Users/Arianna/Desktop/AG-subject-3.csv","legacy","Lentiform Loewenfeld","3.3.3","0","s","NA","h","NA","NA","s","692","NA","39393","NA","NA","692","2","legacy","1024","2","48000","-16","experiment","HHSHH","3","odd","42898","NA","NA","89042","NA","3458","NA","NA","90131","3473","NA","NA","90246","90940","90117","90246","Flanker Task Lab 2.1","27","15839","27","yes","1024"
"100","100","580.1785714285714","580.1785714285714","#800080","legacy","legacy","legacy","0","congruent","uniform","1","undefined","1","h","0","0","0","27","27","0","27","0","27","0","0","0","27","27","27","27","Sat Sep 26 11:01:02 2020","1500","The main experiment item","yes","FlankerTaskLab.osexp","/Users/Arianna/Desktop","no","sans","no","18","no","white","no","yes","768","legacy","27","27","/Users/Arianna/Desktop/AG-subject-3.csv","legacy","Lentiform Loewenfeld","3.3.3","0","h","NA","h","NA","NA","h","406","NA","39393","NA","NA","406","2","legacy","1024","2","48000","-16","experiment","HHHHH","3","odd","42898","NA","NA","90965","NA","3458","NA","NA","92049","3473","NA","NA","92165","92572","92036","92165","Flanker Task Lab 2.1","28","16245","28","yes","1024"
"100","100","574.551724137931","574.551724137931","#800080","legacy","legacy","legacy","0","congruent","uniform","1","undefined","1","h","0","0","0","28","28","0","28","0","28","0","0","0","28","28","28","28","Sat Sep 26 11:01:02 2020","1500","The main experiment item","yes","FlankerTaskLab.osexp","/Users/Arianna/Desktop","no","sans","no","18","no","white","no","yes","768","legacy","28","28","/Users/Arianna/Desktop/AG-subject-3.csv","legacy","Lentiform Loewenfeld","3.3.3","0","h","NA","h","NA","NA","h","417","NA","39393","NA","NA","417","2","legacy","1024","2","48000","-16","experiment","HHHHH","3","odd","42898","NA","NA","92598","NA","3458","NA","NA","93684","3473","NA","NA","93800","94218","93670","93800","Flanker Task Lab 2.1","29","16662","29","yes","1024"
"100","100","571.8","571.8","#800080","legacy","legacy","legacy","0","congruent","uniform","1","undefined","1","s","0","0","0","29","29","0","29","0","29","0","0","0","29","29","29","29","Sat Sep 26 11:01:02 2020","1500","The main experiment item","yes","FlankerTaskLab.osexp","/Users/Arianna/Desktop","no","sans","no","18","no","white","no","yes","768","legacy","29","29","/Users/Arianna/Desktop/AG-subject-3.csv","legacy","Lentiform Loewenfeld","3.3.3","0","s","NA","h","NA","NA","s","492","NA","39393","NA","NA","492","2","legacy","1024","2","48000","-16","experiment","SSSSS","3","odd","42898","NA","NA","94245","NA","3458","NA","NA","95329","3473","NA","NA","95445","95938","95316","95445","Flanker Task Lab 2.1","30","17154","30","yes","1024"
"100","100","568.0645161290323","568.0645161290323","#800080","legacy","legacy","legacy","0","congruent","uniform","1","undefined","1","h","0","0","0","30","30","0","30","0","30","0","0","0","30","30","30","30","Sat Sep 26 11:01:02 2020","1500","The main experiment item","yes","FlankerTaskLab.osexp","/Users/Arianna/Desktop","no","sans","no","18","no","white","no","yes","768","legacy","30","30","/Users/Arianna/Desktop/AG-subject-3.csv","legacy","Lentiform Loewenfeld","3.3.3","0","h","NA","h","NA","NA","h","456","NA","39393","NA","NA","456","2","legacy","1024","2","48000","-16","experiment","HHHHH","3","odd","42898","NA","NA","95965","NA","3458","NA","NA","97049","3473","NA","NA","97165","97622","97035","97164","Flanker Task Lab 2.1","31","17610","31","yes","1024"
"100","100","567.78125","567.78125","#800080","legacy","legacy","legacy","0","incongruent","uniform","1","undefined","1","s","0","0","0","31","31","0","31","0","31","0","0","0","31","31","31","31","Sat Sep 26 11:01:02 2020","1500","The main experiment item","yes","FlankerTaskLab.osexp","/Users/Arianna/Desktop","no","sans","no","18","no","white","no","yes","768","legacy","31","31","/Users/Arianna/Desktop/AG-subject-3.csv","legacy","Lentiform Loewenfeld","3.3.3","0","s","NA","h","NA","NA","s","559","NA","39393","NA","NA","559","2","legacy","1024","2","48000","-16","experiment","HHSHH","3","odd","42898","NA","NA","97649","NA","3458","NA","NA","98741","3473","NA","NA","98856","99416","98725","98856","Flanker Task Lab 2.1","32","18169","32","yes","1024"
"100","100","562.6060606060606","562.6060606060606","#800080","legacy","legacy","legacy","0","congruent","uniform","1","undefined","1","h","0","0","0","32","32","0","32","0","32","0","0","0","32","32","32","32","Sat Sep 26 11:01:02 2020","1500","The main experiment item","yes","FlankerTaskLab.osexp","/Users/Arianna/Desktop","no","sans","no","18","no","white","no","yes","768","legacy","32","32","/Users/Arianna/Desktop/AG-subject-3.csv","legacy","Lentiform Loewenfeld","3.3.3","0","h","NA","h","NA","NA","h","397","NA","39393","NA","NA","397","2","legacy","1024","2","48000","-16","experiment","HHHHH","3","odd","42898","NA","NA","99443","NA","3458","NA","NA","100531","3473","NA","NA","100647","101045","100517","100647","Flanker Task Lab 2.1","33","18566","33","yes","1024"
"100","100","557.5294117647059","557.5294117647059","#800080","legacy","legacy","legacy","0","congruent","uniform","1","undefined","1","s","0","0","0","33","33","0","33","0","33","0","0","0","33","33","33","33","Sat Sep 26 11:01:02 2020","1500","The main experiment item","yes","FlankerTaskLab.osexp","/Users/Arianna/Desktop","no","sans","no","18","no","white","no","yes","768","legacy","33","33","/Users/Arianna/Desktop/AG-subject-3.csv","legacy","Lentiform Loewenfeld","3.3.3","0","s","NA","h","NA","NA","s","390","NA","39393","NA","NA","390","2","legacy","1024","2","48000","-16","experiment","SSSSS","3","odd","42898","NA","NA","101068","NA","3458","NA","NA","102154","3473","NA","NA","102270","102661","102141","102270","Flanker Task Lab 2.1","34","18956","34","yes","1024"
"100","100","551.8","551.8","#800080","legacy","legacy","legacy","0","incongruent","uniform","1","undefined","1","h","0","0","0","34","34","0","34","0","34","0","0","0","34","34","34","34","Sat Sep 26 11:01:02 2020","1500","The main experiment item","yes","FlankerTaskLab.osexp","/Users/Arianna/Desktop","no","sans","no","18","no","white","no","yes","768","legacy","34","34","/Users/Arianna/Desktop/AG-subject-3.csv","legacy","Lentiform Loewenfeld","3.3.3","0","h","NA","h","NA","NA","h","357","NA","39393","NA","NA","357","2","legacy","1024","2","48000","-16","experiment","SSHSS","3","odd","42898","NA","NA","102686","NA","3458","NA","NA","103771","3473","NA","NA","103887","104246","103758","103887","Flanker Task Lab 2.1","35","19313","35","yes","1024"
"100","100","550.25","550.25","#800080","legacy","legacy","legacy","0","incongruent","uniform","1","undefined","1","s","0","0","0","35","35","0","35","0","35","0","0","0","35","35","35","35","Sat Sep 26 11:01:02 2020","1500","The main experiment item","yes","FlankerTaskLab.osexp","/Users/Arianna/Desktop","no","sans","no","18","no","white","no","yes","768","legacy","35","35","/Users/Arianna/Desktop/AG-subject-3.csv","legacy","Lentiform Loewenfeld","3.3.3","0","s","NA","h","NA","NA","s","496","NA","39393","NA","NA","496","2","legacy","1024","2","48000","-16","experiment","HHSHH","3","odd","42898","NA","NA","104272","NA","3458","NA","NA","105360","3473","NA","NA","105475","105973","105346","105475","Flanker Task Lab 2.1","36","19809","36","yes","1024"
"100","100","548.5945945945946","548.5945945945946","#800080","legacy","legacy","legacy","0","incongruent","uniform","1","undefined","1","h","0","0","0","36","36","0","36","0","36","0","0","0","36","36","36","36","Sat Sep 26 11:01:02 2020","1500","The main experiment item","yes","FlankerTaskLab.osexp","/Users/Arianna/Desktop","no","sans","no","18","no","white","no","yes","768","legacy","36","36","/Users/Arianna/Desktop/AG-subject-3.csv","legacy","Lentiform Loewenfeld","3.3.3","0","h","NA","h","NA","NA","h","489","NA","39393","NA","NA","489","2","legacy","1024","2","48000","-16","experiment","SSHSS","3","odd","42898","NA","NA","105999","NA","3458","NA","NA","107083","3473","NA","NA","107198","107689","107070","107198","Flanker Task Lab 2.1","37","20298","37","yes","1024"
"100","100","546.3421052631579","546.3421052631579","#800080","legacy","legacy","legacy","0","congruent","uniform","1","undefined","1","s","0","0","0","37","37","0","37","0","37","0","0","0","37","37","37","37","Sat Sep 26 11:01:02 2020","1500","The main experiment item","yes","FlankerTaskLab.osexp","/Users/Arianna/Desktop","no","sans","no","18","no","white","no","yes","768","legacy","37","37","/Users/Arianna/Desktop/AG-subject-3.csv","legacy","Lentiform Loewenfeld","3.3.3","0","s","NA","h","NA","NA","s","463","NA","39393","NA","NA","463","2","legacy","1024","2","48000","-16","experiment","SSSSS","3","odd","42898","NA","NA","107716","NA","3458","NA","NA","108803","3473","NA","NA","108918","109382","108789","108918","Flanker Task Lab 2.1","38","20761","38","yes","1024"
"100","100","543.8717948717949","543.8717948717949","#800080","legacy","legacy","legacy","0","congruent","uniform","1","undefined","1","h","0","0","0","38","38","0","38","0","38","0","0","0","38","38","38","38","Sat Sep 26 11:01:02 2020","1500","The main experiment item","yes","FlankerTaskLab.osexp","/Users/Arianna/Desktop","no","sans","no","18","no","white","no","yes","768","legacy","38","38","/Users/Arianna/Desktop/AG-subject-3.csv","legacy","Lentiform Loewenfeld","3.3.3","0","h","NA","h","NA","NA","h","450","NA","39393","NA","NA","450","2","legacy","1024","2","48000","-16","experiment","HHHHH","3","odd","42898","NA","NA","109409","NA","3458","NA","NA","110495","3473","NA","NA","110611","111062","110482","110611","Flanker Task Lab 2.1","39","21211","39","yes","1024"
"100","100","546.2","546.2","#800080","legacy","legacy","legacy","0","incongruent","uniform","1","undefined","1","h","0","0","0","39","39","0","39","0","39","0","0","0","39","39","39","39","Sat Sep 26 11:01:02 2020","1500","The main experiment item","yes","FlankerTaskLab.osexp","/Users/Arianna/Desktop","no","sans","no","18","no","white","no","yes","768","legacy","39","39","/Users/Arianna/Desktop/AG-subject-3.csv","legacy","Lentiform Loewenfeld","3.3.3","0","h","NA","h","NA","NA","h","637","NA","39393","NA","NA","637","2","legacy","1024","2","48000","-16","experiment","SSHSS","3","odd","42898","NA","NA","111089","NA","3458","NA","NA","112177","3473","NA","NA","112293","112931","112164","112292","Flanker Task Lab 2.1","40","21848","40","yes","1024"
"100","100","545.9756097560976","545.9756097560976","#800080","legacy","legacy","legacy","0","incongruent","uniform","1","undefined","1","s","0","0","0","40","40","0","40","0","40","0","0","0","40","40","40","40","Sat Sep 26 11:01:02 2020","1500","The main experiment item","yes","FlankerTaskLab.osexp","/Users/Arianna/Desktop","no","sans","no","18","no","white","no","yes","768","legacy","40","40","/Users/Arianna/Desktop/AG-subject-3.csv","legacy","Lentiform Loewenfeld","3.3.3","0","s","NA","h","NA","NA","s","537","NA","39393","NA","NA","537","2","legacy","1024","2","48000","-16","experiment","HHSHH","3","odd","42898","NA","NA","112957","NA","3458","NA","NA","114040","3473","NA","NA","114156","114694","114028","114156","Flanker Task Lab 2.1","41","22385","41","yes","1024"
"100","100","547.1428571428571","547.1428571428571","#800080","legacy","legacy","legacy","0","incongruent","uniform","1","undefined","1","h","0","0","0","41","41","0","41","0","41","0","0","0","41","41","41","41","Sat Sep 26 11:01:02 2020","1500","The main experiment item","yes","FlankerTaskLab.osexp","/Users/Arianna/Desktop","no","sans","no","18","no","white","no","yes","768","legacy","41","41","/Users/Arianna/Desktop/AG-subject-3.csv","legacy","Lentiform Loewenfeld","3.3.3","0","h","NA","h","NA","NA","h","595","NA","39393","NA","NA","595","2","legacy","1024","2","48000","-16","experiment","SSHSS","3","odd","42898","NA","NA","114721","NA","3458","NA","NA","115807","3473","NA","NA","115922","116518","115793","115922","Flanker Task Lab 2.1","42","22980","42","yes","1024"
"100","100","547.5581395348837","547.5581395348837","#800080","legacy","legacy","legacy","0","incongruent","uniform","1","undefined","1","s","0","0","0","42","42","0","42","0","42","0","0","0","42","42","42","42","Sat Sep 26 11:01:02 2020","1500","The main experiment item","yes","FlankerTaskLab.osexp","/Users/Arianna/Desktop","no","sans","no","18","no","white","no","yes","768","legacy","42","42","/Users/Arianna/Desktop/AG-subject-3.csv","legacy","Lentiform Loewenfeld","3.3.3","0","s","NA","h","NA","NA","s","565","NA","39393","NA","NA","565","2","legacy","1024","2","48000","-16","experiment","HHSHH","3","odd","42898","NA","NA","116545","NA","3458","NA","NA","117634","3473","NA","NA","117751","118318","117620","117750","Flanker Task Lab 2.1","43","23545","43","yes","1024"
"100","100","545.4090909090909","545.4090909090909","#800080","legacy","legacy","legacy","0","incongruent","uniform","1","undefined","1","s","0","0","0","43","43","0","43","0","43","0","0","0","43","43","43","43","Sat Sep 26 11:01:02 2020","1500","The main experiment item","yes","FlankerTaskLab.osexp","/Users/Arianna/Desktop","no","sans","no","18","no","white","no","yes","768","legacy","43","43","/Users/Arianna/Desktop/AG-subject-3.csv","legacy","Lentiform Loewenfeld","3.3.3","0","s","NA","h","NA","NA","s","453","NA","39393","NA","NA","453","2","legacy","1024","2","48000","-16","experiment","HHSHH","3","odd","42898","NA","NA","118345","NA","3458","NA","NA","119432","3473","NA","NA","119548","120003","119418","119548","Flanker Task Lab 2.1","44","23998","44","yes","1024"
"100","100","543.4666666666667","543.4666666666667","#800080","legacy","legacy","legacy","0","incongruent","uniform","1","undefined","1","s","0","0","0","44","44","0","44","0","44","0","0","0","44","44","44","44","Sat Sep 26 11:01:02 2020","1500","The main experiment item","yes","FlankerTaskLab.osexp","/Users/Arianna/Desktop","no","sans","no","18","no","white","no","yes","768","legacy","44","44","/Users/Arianna/Desktop/AG-subject-3.csv","legacy","Lentiform Loewenfeld","3.3.3","0","s","NA","h","NA","NA","s","458","NA","39393","NA","NA","458","2","legacy","1024","2","48000","-16","experiment","HHSHH","3","odd","42898","NA","NA","120028","NA","3458","NA","NA","121112","3473","NA","NA","121229","121689","121100","121228","Flanker Task Lab 2.1","45","24456","45","yes","1024"
"100","100","540.9782608695652","540.9782608695652","#800080","legacy","legacy","legacy","0","congruent","uniform","1","undefined","1","h","0","0","0","45","45","0","45","0","45","0","0","0","45","45","45","45","Sat Sep 26 11:01:02 2020","1500","The main experiment item","yes","FlankerTaskLab.osexp","/Users/Arianna/Desktop","no","sans","no","18","no","white","no","yes","768","legacy","45","45","/Users/Arianna/Desktop/AG-subject-3.csv","legacy","Lentiform Loewenfeld","3.3.3","0","h","NA","h","NA","NA","h","429","NA","39393","NA","NA","429","2","legacy","1024","2","48000","-16","experiment","HHHHH","3","odd","42898","NA","NA","121715","NA","3458","NA","NA","122799","3473","NA","NA","122916","123346","122786","122915","Flanker Task Lab 2.1","46","24885","46","yes","1024"
"100","100","537.8510638297872","537.8510638297872","#800080","legacy","legacy","legacy","0","congruent","uniform","1","undefined","1","h","0","0","0","46","46","0","46","0","46","0","0","0","46","46","46","46","Sat Sep 26 11:01:02 2020","1500","The main experiment item","yes","FlankerTaskLab.osexp","/Users/Arianna/Desktop","no","sans","no","18","no","white","no","yes","768","legacy","46","46","/Users/Arianna/Desktop/AG-subject-3.csv","legacy","Lentiform Loewenfeld","3.3.3","0","h","NA","h","NA","NA","h","394","NA","39393","NA","NA","394","2","legacy","1024","2","48000","-16","experiment","HHHHH","3","odd","42898","NA","NA","123373","NA","3458","NA","NA","124457","3473","NA","NA","124574","124969","124444","124573","Flanker Task Lab 2.1","47","25279","47","yes","1024"
"100","100","537.9583333333334","537.9583333333334","#800080","legacy","legacy","legacy","0","incongruent","uniform","1","undefined","1","s","0","0","0","47","47","0","47","0","47","0","0","0","47","47","47","47","Sat Sep 26 11:01:02 2020","1500","The main experiment item","yes","FlankerTaskLab.osexp","/Users/Arianna/Desktop","no","sans","no","18","no","white","no","yes","768","legacy","47","47","/Users/Arianna/Desktop/AG-subject-3.csv","legacy","Lentiform Loewenfeld","3.3.3","0","s","NA","h","NA","NA","s","543","NA","39393","NA","NA","543","2","legacy","1024","2","48000","-16","experiment","HHSHH","3","odd","42898","NA","NA","124996","NA","3458","NA","NA","126080","3473","NA","NA","126195","126739","126067","126195","Flanker Task Lab 2.1","48","25822","48","yes","1024"
"100","100","537.4897959183673","537.4897959183673","#800080","legacy","legacy","legacy","0","incongruent","uniform","1","undefined","1","h","0","0","0","48","48","0","48","0","48","0","0","0","48","48","48","48","Sat Sep 26 11:01:02 2020","1500","The main experiment item","yes","FlankerTaskLab.osexp","/Users/Arianna/Desktop","no","sans","no","18","no","white","no","yes","768","legacy","48","48","/Users/Arianna/Desktop/AG-subject-3.csv","legacy","Lentiform Loewenfeld","3.3.3","0","h","NA","h","NA","NA","h","515","NA","39393","NA","NA","515","2","legacy","1024","2","48000","-16","experiment","SSHSS","3","odd","42898","NA","NA","126764","NA","3458","NA","NA","127849","3473","NA","NA","127966","128482","127836","127965","Flanker Task Lab 2.1","49","26337","49","yes","1024"
"100","100","537.28","537.28","#800080","legacy","legacy","legacy","0","incongruent","uniform","1","undefined","1","h","0","0","0","49","49","0","49","0","49","0","0","0","49","49","49","49","Sat Sep 26 11:01:02 2020","1500","The main experiment item","yes","FlankerTaskLab.osexp","/Users/Arianna/Desktop","no","sans","no","18","no","white","no","yes","768","legacy","49","49","/Users/Arianna/Desktop/AG-subject-3.csv","legacy","Lentiform Loewenfeld","3.3.3","0","h","NA","h","NA","NA","h","527","NA","39393","NA","NA","527","2","legacy","1024","2","48000","-16","experiment","SSHSS","3","odd","42898","NA","NA","128509","NA","3458","NA","NA","129598","3473","NA","NA","129714","130242","129584","129714","Flanker Task Lab 2.1","50","26864","50","yes","1024"
"100","100","535.3137254901961","535.3137254901961","#800080","legacy","legacy","legacy","0","congruent","uniform","1","undefined","1","s","0","0","0","50","50","0","50","0","50","0","0","0","50","50","50","50","Sat Sep 26 11:01:02 2020","1500","The main experiment item","yes","FlankerTaskLab.osexp","/Users/Arianna/Desktop","no","sans","no","18","no","white","no","yes","768","legacy","50","50","/Users/Arianna/Desktop/AG-subject-3.csv","legacy","Lentiform Loewenfeld","3.3.3","0","s","NA","h","NA","NA","s","437","NA","39393","NA","NA","437","2","legacy","1024","2","48000","-16","experiment","SSSSS","3","odd","42898","NA","NA","130268","NA","3458","NA","NA","131352","3473","NA","NA","131467","131905","131339","131467","Flanker Task Lab 2.1","51","27301","51","yes","1024"
"100","100","532.6346153846154","532.6346153846154","#800080","legacy","legacy","legacy","0","congruent","uniform","1","undefined","1","s","0","0","0","51","51","0","51","0","51","0","0","0","51","51","51","51","Sat Sep 26 11:01:02 2020","1500","The main experiment item","yes","FlankerTaskLab.osexp","/Users/Arianna/Desktop","no","sans","no","18","no","white","no","yes","768","legacy","51","51","/Users/Arianna/Desktop/AG-subject-3.csv","legacy","Lentiform Loewenfeld","3.3.3","0","s","NA","h","NA","NA","s","396","NA","39393","NA","NA","396","2","legacy","1024","2","48000","-16","experiment","SSSSS","3","odd","42898","NA","NA","131931","NA","3458","NA","NA","133014","3473","NA","NA","133131","133528","133001","133131","Flanker Task Lab 2.1","52","27697","52","yes","1024"
"100","100","532.6603773584906","532.6603773584906","#800080","legacy","legacy","legacy","0","incongruent","uniform","1","undefined","1","s","0","0","0","52","52","0","52","0","52","0","0","0","52","52","52","52","Sat Sep 26 11:01:02 2020","1500","The main experiment item","yes","FlankerTaskLab.osexp","/Users/Arianna/Desktop","no","sans","no","18","no","white","no","yes","768","legacy","52","52","/Users/Arianna/Desktop/AG-subject-3.csv","legacy","Lentiform Loewenfeld","3.3.3","0","s","NA","h","NA","NA","s","534","NA","39393","NA","NA","534","2","legacy","1024","2","48000","-16","experiment","HHSHH","3","odd","42898","NA","NA","133555","NA","3458","NA","NA","134643","3473","NA","NA","134760","135296","134630","134760","Flanker Task Lab 2.1","53","28231","53","yes","1024"
"100","100","532.9074074074074","532.9074074074074","#800080","legacy","legacy","legacy","0","incongruent","uniform","1","undefined","1","h","0","0","0","53","53","0","53","0","53","0","0","0","53","53","53","53","Sat Sep 26 11:01:02 2020","1500","The main experiment item","yes","FlankerTaskLab.osexp","/Users/Arianna/Desktop","no","sans","no","18","no","white","no","yes","768","legacy","53","53","/Users/Arianna/Desktop/AG-subject-3.csv","legacy","Lentiform Loewenfeld","3.3.3","0","h","NA","h","NA","NA","h","546","NA","39393","NA","NA","546","2","legacy","1024","2","48000","-16","experiment","SSHSS","3","odd","42898","NA","NA","135311","NA","3458","NA","NA","136395","3473","NA","NA","136511","137059","136382","136511","Flanker Task Lab 2.1","54","28777","54","yes","1024"
"100","100","533.0909090909091","533.0909090909091","#800080","legacy","legacy","legacy","0","congruent","uniform","1","undefined","1","s","0","0","0","54","54","0","54","0","54","0","0","0","54","54","54","54","Sat Sep 26 11:01:02 2020","1500","The main experiment item","yes","FlankerTaskLab.osexp","/Users/Arianna/Desktop","no","sans","no","18","no","white","no","yes","768","legacy","54","54","/Users/Arianna/Desktop/AG-subject-3.csv","legacy","Lentiform Loewenfeld","3.3.3","0","s","NA","h","NA","NA","s","543","NA","39393","NA","NA","543","2","legacy","1024","2","48000","-16","experiment","SSSSS","3","odd","42898","NA","NA","137085","NA","3458","NA","NA","138171","3473","NA","NA","138286","138831","138158","138286","Flanker Task Lab 2.1","55","29320","55","yes","1024"
"100","100","530.875","530.875","#800080","legacy","legacy","legacy","0","congruent","uniform","1","undefined","1","s","0","0","0","55","55","0","55","0","55","0","0","0","55","55","55","55","Sat Sep 26 11:01:02 2020","1500","The main experiment item","yes","FlankerTaskLab.osexp","/Users/Arianna/Desktop","no","sans","no","18","no","white","no","yes","768","legacy","55","55","/Users/Arianna/Desktop/AG-subject-3.csv","legacy","Lentiform Loewenfeld","3.3.3","0","s","NA","h","NA","NA","s","409","NA","39393","NA","NA","409","2","legacy","1024","2","48000","-16","experiment","SSSSS","3","odd","42898","NA","NA","138857","NA","3458","NA","NA","139942","3473","NA","NA","140058","140469","139928","140058","Flanker Task Lab 2.1","56","29729","56","yes","1024"
"100","100","530.8070175438596","530.8070175438596","#800080","legacy","legacy","legacy","0","incongruent","uniform","1","undefined","1","h","0","0","0","56","56","0","56","0","56","0","0","0","56","56","56","56","Sat Sep 26 11:01:02 2020","1500","The main experiment item","yes","FlankerTaskLab.osexp","/Users/Arianna/Desktop","no","sans","no","18","no","white","no","yes","768","legacy","56","56","/Users/Arianna/Desktop/AG-subject-3.csv","legacy","Lentiform Loewenfeld","3.3.3","0","h","NA","h","NA","NA","h","527","NA","39393","NA","NA","527","2","legacy","1024","2","48000","-16","experiment","SSHSS","3","odd","42898","NA","NA","140496","NA","3458","NA","NA","141584","3473","NA","NA","141701","142230","141570","141701","Flanker Task Lab 2.1","57","30256","57","yes","1024"
"100","100","528.9655172413793","528.9655172413793","#800080","legacy","legacy","legacy","0","congruent","uniform","1","undefined","1","s","0","0","0","57","57","0","57","0","57","0","0","0","57","57","57","57","Sat Sep 26 11:01:02 2020","1500","The main experiment item","yes","FlankerTaskLab.osexp","/Users/Arianna/Desktop","no","sans","no","18","no","white","no","yes","768","legacy","57","57","/Users/Arianna/Desktop/AG-subject-3.csv","legacy","Lentiform Loewenfeld","3.3.3","0","s","NA","h","NA","NA","s","424","NA","39393","NA","NA","424","2","legacy","1024","2","48000","-16","experiment","SSSSS","3","odd","42898","NA","NA","142257","NA","3458","NA","NA","143343","3473","NA","NA","143459","143885","143328","143458","Flanker Task Lab 2.1","58","30680","58","yes","1024"
"100","100","527.457627118644","527.457627118644","#800080","legacy","legacy","legacy","0","congruent","uniform","1","undefined","1","h","0","0","0","58","58","0","58","0","58","0","0","0","58","58","58","58","Sat Sep 26 11:01:02 2020","1500","The main experiment item","yes","FlankerTaskLab.osexp","/Users/Arianna/Desktop","no","sans","no","18","no","white","no","yes","768","legacy","58","58","/Users/Arianna/Desktop/AG-subject-3.csv","legacy","Lentiform Loewenfeld","3.3.3","0","h","NA","h","NA","NA","h","440","NA","39393","NA","NA","440","2","legacy","1024","2","48000","-16","experiment","HHHHH","3","odd","42898","NA","NA","143911","NA","3458","NA","NA","144996","3473","NA","NA","145112","145553","144982","145112","Flanker Task Lab 2.1","59","31120","59","yes","1024"
"100","100","526.6666666666666","526.6666666666666","#800080","legacy","legacy","legacy","0","congruent","uniform","1","undefined","1","h","0","0","0","59","59","0","59","0","59","0","0","0","59","59","59","59","Sat Sep 26 11:01:02 2020","1500","The main experiment item","yes","FlankerTaskLab.osexp","/Users/Arianna/Desktop","no","sans","no","18","no","white","no","yes","768","legacy","59","59","/Users/Arianna/Desktop/AG-subject-3.csv","legacy","Lentiform Loewenfeld","3.3.3","0","h","NA","h","NA","NA","h","480","NA","39393","NA","NA","480","2","legacy","1024","2","48000","-16","experiment","HHHHH","3","odd","42898","NA","NA","145580","NA","3458","NA","NA","146667","3473","NA","NA","146783","147265","146651","146783","Flanker Task Lab 2.1","60","31600","60","yes","1024"
"100","100","527.0327868852459","527.0327868852459","#800080","legacy","legacy","legacy","0","incongruent","uniform","1","undefined","1","s","0","0","0","60","60","0","60","0","60","0","0","0","60","60","60","60","Sat Sep 26 11:01:02 2020","1500","The main experiment item","yes","FlankerTaskLab.osexp","/Users/Arianna/Desktop","no","sans","no","18","no","white","no","yes","768","legacy","60","60","/Users/Arianna/Desktop/AG-subject-3.csv","legacy","Lentiform Loewenfeld","3.3.3","0","s","NA","h","NA","NA","s","549","NA","39393","NA","NA","549","2","legacy","1024","2","48000","-16","experiment","HHSHH","3","odd","42898","NA","NA","147292","NA","3458","NA","NA","148380","3473","NA","NA","148495","149045","148367","148495","Flanker Task Lab 2.1","61","32149","61","yes","1024"
"100","100","525.9032258064516","525.9032258064516","#800080","legacy","legacy","legacy","0","congruent","uniform","1","undefined","1","s","0","0","0","61","61","0","61","0","61","0","0","0","61","61","61","61","Sat Sep 26 11:01:02 2020","1500","The main experiment item","yes","FlankerTaskLab.osexp","/Users/Arianna/Desktop","no","sans","no","18","no","white","no","yes","768","legacy","61","61","/Users/Arianna/Desktop/AG-subject-3.csv","legacy","Lentiform Loewenfeld","3.3.3","0","s","NA","h","NA","NA","s","457","NA","39393","NA","NA","457","2","legacy","1024","2","48000","-16","experiment","SSSSS","3","odd","42898","NA","NA","149071","NA","3458","NA","NA","150157","3473","NA","NA","150273","150732","150143","150273","Flanker Task Lab 2.1","62","32606","62","yes","1024"
"100","100","527.047619047619","527.047619047619","#800080","legacy","legacy","legacy","0","incongruent","uniform","1","undefined","1","h","0","0","0","62","62","0","62","0","62","0","0","0","62","62","62","62","Sat Sep 26 11:01:02 2020","1500","The main experiment item","yes","FlankerTaskLab.osexp","/Users/Arianna/Desktop","no","sans","no","18","no","white","no","yes","768","legacy","62","62","/Users/Arianna/Desktop/AG-subject-3.csv","legacy","Lentiform Loewenfeld","3.3.3","0","h","NA","h","NA","NA","h","598","NA","39393","NA","NA","598","2","legacy","1024","2","48000","-16","experiment","SSHSS","3","odd","42898","NA","NA","150759","NA","3458","NA","NA","151844","3473","NA","NA","151960","152560","151830","151959","Flanker Task Lab 2.1","63","33204","63","yes","1024"
"100","100","525.125","525.125","#800080","legacy","legacy","legacy","0","congruent","uniform","1","undefined","1","s","0","0","0","63","63","0","63","0","63","0","0","0","63","63","63","63","Sat Sep 26 11:01:02 2020","1500","The main experiment item","yes","FlankerTaskLab.osexp","/Users/Arianna/Desktop","no","sans","no","18","no","white","no","yes","768","legacy","63","63","/Users/Arianna/Desktop/AG-subject-3.csv","legacy","Lentiform Loewenfeld","3.3.3","0","s","NA","h","NA","NA","s","404","NA","39393","NA","NA","404","2","legacy","1024","2","48000","-16","experiment","SSSSS","3","odd","42898","NA","NA","152587","NA","3458","NA","NA","153672","3473","NA","NA","153788","154194","153658","153788","Flanker Task Lab 2.1","64","33608","64","yes","1024"
"100","100","523.8","523.8","#800080","legacy","legacy","legacy","0","congruent","uniform","1","undefined","1","h","0","0","0","64","64","0","64","0","64","0","0","0","64","64","64","64","Sat Sep 26 11:01:02 2020","1500","The main experiment item","yes","FlankerTaskLab.osexp","/Users/Arianna/Desktop","no","sans","no","18","no","white","no","yes","768","legacy","64","64","/Users/Arianna/Desktop/AG-subject-3.csv","legacy","Lentiform Loewenfeld","3.3.3","0","h","NA","h","NA","NA","h","439","NA","39393","NA","NA","439","2","legacy","1024","2","48000","-16","experiment","HHHHH","3","odd","42898","NA","NA","154220","NA","3458","NA","NA","155303","3473","NA","NA","155419","155860","155290","155419","Flanker Task Lab 2.1","65","34047","65","yes","1024"
"100","100","522.2575757575758","522.2575757575758","#800080","legacy","legacy","legacy","0","congruent","uniform","1","undefined","1","h","0","0","0","65","65","0","65","0","65","0","0","0","65","65","65","65","Sat Sep 26 11:01:02 2020","1500","The main experiment item","yes","FlankerTaskLab.osexp","/Users/Arianna/Desktop","no","sans","no","18","no","white","no","yes","768","legacy","65","65","/Users/Arianna/Desktop/AG-subject-3.csv","legacy","Lentiform Loewenfeld","3.3.3","0","h","NA","h","NA","NA","h","422","NA","39393","NA","NA","422","2","legacy","1024","2","48000","-16","experiment","HHHHH","3","odd","42898","NA","NA","155887","NA","3458","NA","NA","156972","3473","NA","NA","157087","157511","156959","157087","Flanker Task Lab 2.1","66","34469","66","yes","1024"
"100","100","521.4776119402985","521.4776119402985","#800080","legacy","legacy","legacy","0","incongruent","uniform","1","undefined","1","s","0","0","0","66","66","0","66","0","66","0","0","0","66","66","66","66","Sat Sep 26 11:01:02 2020","1500","The main experiment item","yes","FlankerTaskLab.osexp","/Users/Arianna/Desktop","no","sans","no","18","no","white","no","yes","768","legacy","66","66","/Users/Arianna/Desktop/AG-subject-3.csv","legacy","Lentiform Loewenfeld","3.3.3","0","s","NA","h","NA","NA","s","470","NA","39393","NA","NA","470","2","legacy","1024","2","48000","-16","experiment","HHSHH","3","odd","42898","NA","NA","157538","NA","3458","NA","NA","158624","3473","NA","NA","158740","159211","158610","158740","Flanker Task Lab 2.1","67","34939","67","yes","1024"
"100","100","519.6764705882352","519.6764705882352","#800080","legacy","legacy","legacy","0","congruent","uniform","1","undefined","1","h","0","0","0","67","67","0","67","0","67","0","0","0","67","67","67","67","Sat Sep 26 11:01:02 2020","1500","The main experiment item","yes","FlankerTaskLab.osexp","/Users/Arianna/Desktop","no","sans","no","18","no","white","no","yes","768","legacy","67","67","/Users/Arianna/Desktop/AG-subject-3.csv","legacy","Lentiform Loewenfeld","3.3.3","0","h","NA","h","NA","NA","h","399","NA","39393","NA","NA","399","2","legacy","1024","2","48000","-16","experiment","HHHHH","3","odd","42898","NA","NA","159238","NA","3458","NA","NA","160324","3473","NA","NA","160440","160840","160310","160440","Flanker Task Lab 2.1","68","35338","68","yes","1024"
"100","100","519.6666666666666","519.6666666666666","#800080","legacy","legacy","legacy","0","incongruent","uniform","1","undefined","1","h","0","0","0","68","68","0","68","0","68","0","0","0","68","68","68","68","Sat Sep 26 11:01:02 2020","1500","The main experiment item","yes","FlankerTaskLab.osexp","/Users/Arianna/Desktop","no","sans","no","18","no","white","no","yes","768","legacy","68","68","/Users/Arianna/Desktop/AG-subject-3.csv","legacy","Lentiform Loewenfeld","3.3.3","0","h","NA","h","NA","NA","h","519","NA","39393","NA","NA","519","2","legacy","1024","2","48000","-16","experiment","SSHSS","3","odd","42898","NA","NA","160867","NA","3458","NA","NA","161952","3473","NA","NA","162067","162587","161939","162067","Flanker Task Lab 2.1","69","35857","69","yes","1024"
"100","100","520.7714285714286","520.7714285714286","#800080","legacy","legacy","legacy","0","incongruent","uniform","1","undefined","1","s","0","0","0","69","69","0","69","0","69","0","0","0","69","69","69","69","Sat Sep 26 11:01:02 2020","1500","The main experiment item","yes","FlankerTaskLab.osexp","/Users/Arianna/Desktop","no","sans","no","18","no","white","no","yes","768","legacy","69","69","/Users/Arianna/Desktop/AG-subject-3.csv","legacy","Lentiform Loewenfeld","3.3.3","0","s","NA","h","NA","NA","s","597","NA","39393","NA","NA","597","2","legacy","1024","2","48000","-16","experiment","HHSHH","3","odd","42898","NA","NA","162614","NA","3458","NA","NA","163702","3473","NA","NA","163817","164415","163688","163817","Flanker Task Lab 2.1","70","36454","70","yes","1024"
"100","100","520.8169014084507","520.8169014084507","#800080","legacy","legacy","legacy","0","incongruent","uniform","1","undefined","1","s","0","0","0","70","70","0","70","0","70","0","0","0","70","70","70","70","Sat Sep 26 11:01:02 2020","1500","The main experiment item","yes","FlankerTaskLab.osexp","/Users/Arianna/Desktop","no","sans","no","18","no","white","no","yes","768","legacy","70","70","/Users/Arianna/Desktop/AG-subject-3.csv","legacy","Lentiform Loewenfeld","3.3.3","0","s","NA","h","NA","NA","s","524","NA","39393","NA","NA","524","2","legacy","1024","2","48000","-16","experiment","HHSHH","3","odd","42898","NA","NA","164442","NA","3458","NA","NA","165526","3473","NA","NA","165641","166167","165513","165641","Flanker Task Lab 2.1","71","36978","71","yes","1024"
"100","100","519.4027777777778","519.4027777777778","#800080","legacy","legacy","legacy","0","congruent","uniform","1","undefined","1","s","0","0","0","71","71","0","71","0","71","0","0","0","71","71","71","71","Sat Sep 26 11:01:02 2020","1500","The main experiment item","yes","FlankerTaskLab.osexp","/Users/Arianna/Desktop","no","sans","no","18","no","white","no","yes","768","legacy","71","71","/Users/Arianna/Desktop/AG-subject-3.csv","legacy","Lentiform Loewenfeld","3.3.3","0","s","NA","h","NA","NA","s","419","NA","39393","NA","NA","419","2","legacy","1024","2","48000","-16","experiment","SSSSS","3","odd","42898","NA","NA","166194","NA","3458","NA","NA","167279","3473","NA","NA","167394","167815","167265","167394","Flanker Task Lab 2.1","72","37397","72","yes","1024"
"100","100","517.986301369863","517.986301369863","#800080","legacy","legacy","legacy","0","congruent","uniform","1","undefined","1","s","0","0","0","72","72","0","72","0","72","0","0","0","72","72","72","72","Sat Sep 26 11:01:02 2020","1500","The main experiment item","yes","FlankerTaskLab.osexp","/Users/Arianna/Desktop","no","sans","no","18","no","white","no","yes","768","legacy","72","72","/Users/Arianna/Desktop/AG-subject-3.csv","legacy","Lentiform Loewenfeld","3.3.3","0","s","NA","h","NA","NA","s","416","NA","39393","NA","NA","416","2","legacy","1024","2","48000","-16","experiment","SSSSS","3","odd","42898","NA","NA","167842","NA","3458","NA","NA","168930","3473","NA","NA","169045","169463","168917","169045","Flanker Task Lab 2.1","73","37813","73","yes","1024"
"100","100","517.972972972973","517.972972972973","#800080","legacy","legacy","legacy","0","incongruent","uniform","1","undefined","1","h","0","0","0","73","73","0","73","0","73","0","0","0","73","73","73","73","Sat Sep 26 11:01:02 2020","1500","The main experiment item","yes","FlankerTaskLab.osexp","/Users/Arianna/Desktop","no","sans","no","18","no","white","no","yes","768","legacy","73","73","/Users/Arianna/Desktop/AG-subject-3.csv","legacy","Lentiform Loewenfeld","3.3.3","0","h","NA","h","NA","NA","h","517","NA","39393","NA","NA","517","2","legacy","1024","2","48000","-16","experiment","SSHSS","3","odd","42898","NA","NA","169489","NA","3458","NA","NA","170577","3473","NA","NA","170693","171212","170562","170693","Flanker Task Lab 2.1","74","38330","74","yes","1024"
"100","100","522.2","522.2","#800080","legacy","legacy","legacy","0","incongruent","uniform","1","undefined","1","h","0","0","0","74","74","0","74","0","74","0","0","0","74","74","74","74","Sat Sep 26 11:01:02 2020","1500","The main experiment item","yes","FlankerTaskLab.osexp","/Users/Arianna/Desktop","no","sans","no","18","no","white","no","yes","768","legacy","74","74","/Users/Arianna/Desktop/AG-subject-3.csv","legacy","Lentiform Loewenfeld","3.3.3","0","h","NA","h","NA","NA","h","835","NA","39393","NA","NA","835","2","legacy","1024","2","48000","-16","experiment","SSHSS","3","odd","42898","NA","NA","171237","NA","3458","NA","NA","172322","3473","NA","NA","172437","173274","172309","172437","Flanker Task Lab 2.1","75","39165","75","yes","1024"
"100","100","521.328947368421","521.328947368421","#800080","legacy","legacy","legacy","0","incongruent","uniform","1","undefined","1","s","0","0","0","75","75","0","75","0","75","0","0","0","75","75","75","75","Sat Sep 26 11:01:02 2020","1500","The main experiment item","yes","FlankerTaskLab.osexp","/Users/Arianna/Desktop","no","sans","no","18","no","white","no","yes","768","legacy","75","75","/Users/Arianna/Desktop/AG-subject-3.csv","legacy","Lentiform Loewenfeld","3.3.3","0","s","NA","h","NA","NA","s","456","NA","39393","NA","NA","456","2","legacy","1024","2","48000","-16","experiment","HHSHH","3","odd","42898","NA","NA","173300","NA","3458","NA","NA","174389","3473","NA","NA","174504","174963","174376","174504","Flanker Task Lab 2.1","76","39621","76","yes","1024"
"100","100","521.7142857142857","521.7142857142857","#800080","legacy","legacy","legacy","0","incongruent","uniform","1","undefined","1","s","0","0","0","76","76","0","76","0","76","0","0","0","76","76","76","76","Sat Sep 26 11:01:02 2020","1500","The main experiment item","yes","FlankerTaskLab.osexp","/Users/Arianna/Desktop","no","sans","no","18","no","white","no","yes","768","legacy","76","76","/Users/Arianna/Desktop/AG-subject-3.csv","legacy","Lentiform Loewenfeld","3.3.3","0","s","NA","h","NA","NA","s","551","NA","39393","NA","NA","551","2","legacy","1024","2","48000","-16","experiment","HHSHH","3","odd","42898","NA","NA","174986","NA","3458","NA","NA","176073","3473","NA","NA","176188","176740","176059","176188","Flanker Task Lab 2.1","77","40172","77","yes","1024"
"100","100","520.6282051282051","520.6282051282051","#800080","legacy","legacy","legacy","0","congruent","uniform","1","undefined","1","h","0","0","0","77","77","0","77","0","77","0","0","0","77","77","77","77","Sat Sep 26 11:01:02 2020","1500","The main experiment item","yes","FlankerTaskLab.osexp","/Users/Arianna/Desktop","no","sans","no","18","no","white","no","yes","768","legacy","77","77","/Users/Arianna/Desktop/AG-subject-3.csv","legacy","Lentiform Loewenfeld","3.3.3","0","h","NA","h","NA","NA","h","437","NA","39393","NA","NA","437","2","legacy","1024","2","48000","-16","experiment","HHHHH","3","odd","42898","NA","NA","176762","NA","3458","NA","NA","177852","3473","NA","NA","177968","178406","177837","177968","Flanker Task Lab 2.1","78","40609","78","yes","1024"
"100","100","520.7974683544304","520.7974683544304","#800080","legacy","legacy","legacy","0","incongruent","uniform","1","undefined","1","h","0","0","0","78","78","0","78","0","78","0","0","0","78","78","78","78","Sat Sep 26 11:01:02 2020","1500","The main experiment item","yes","FlankerTaskLab.osexp","/Users/Arianna/Desktop","no","sans","no","18","no","white","no","yes","768","legacy","78","78","/Users/Arianna/Desktop/AG-subject-3.csv","legacy","Lentiform Loewenfeld","3.3.3","0","h","NA","h","NA","NA","h","534","NA","39393","NA","NA","534","2","legacy","1024","2","48000","-16","experiment","SSHSS","3","odd","42898","NA","NA","178433","NA","3458","NA","NA","179519","3473","NA","NA","179635","180171","179505","179635","Flanker Task Lab 2.1","79","41143","79","yes","1024"
"98.75","98.75","518.8375","518.8375","#800080","legacy","legacy","legacy","0","incongruent","uniform","0","undefined","0","h","0","0","0","79","79","0","79","0","79","0","0","0","79","79","79","79","Sat Sep 26 11:01:02 2020","1500","The main experiment item","yes","FlankerTaskLab.osexp","/Users/Arianna/Desktop","no","sans","no","18","no","white","no","yes","768","legacy","79","79","/Users/Arianna/Desktop/AG-subject-3.csv","legacy","Lentiform Loewenfeld","3.3.3","0","s","NA","h","NA","NA","s","364","NA","39393","NA","NA","364","2","legacy","1024","2","48000","-16","experiment","SSHSS","3","odd","42898","NA","NA","180197","NA","3458","NA","NA","181283","3473","NA","NA","181399","181765","181269","181398","Flanker Task Lab 2.1","79","41507","80","yes","1024"
"98.76543209876543","98.76543209876543","521.2716049382716","521.2716049382716","#800080","legacy","legacy","legacy","0","incongruent","uniform","1","undefined","1","s","0","0","0","80","80","0","80","0","80","0","0","0","80","80","80","80","Sat Sep 26 11:01:02 2020","600","The main experiment item","yes","FlankerTaskLab.osexp","/Users/Arianna/Desktop","no","sans","no","18","no","white","no","yes","768","legacy","0","79","/Users/Arianna/Desktop/AG-subject-3.csv","legacy","Lentiform Loewenfeld","3.3.3","0","s","NA","h","h","NA","s","716","NA","39393","56345","NA","716","2","legacy","1024","2","48000","-16","experiment","HHSHH","3","odd","42898","239704","NA","182305","181791","3458","NA","NA","239768","3473","183357","NA","239884","240601","239752","239884","Flanker Task Lab 2.1","80","42223","81","yes","1024"
"98.78048780487805","98.78048780487805","520.939024390244","520.939024390244","#800080","legacy","legacy","legacy","0","congruent","uniform","1","undefined","1","h","0","0","0","81","81","0","81","0","81","0","0","0","81","81","81","81","Sat Sep 26 11:01:02 2020","600","The main experiment item","yes","FlankerTaskLab.osexp","/Users/Arianna/Desktop","no","sans","no","18","no","white","no","yes","768","legacy","1","79","/Users/Arianna/Desktop/AG-subject-3.csv","legacy","Lentiform Loewenfeld","3.3.3","0","h","NA","h","h","NA","h","494","NA","39393","56345","NA","494","2","legacy","1024","2","48000","-16","experiment","HHHHH","3","odd","42898","239704","NA","241142","181791","3458","240628","NA","242229","3473","183357","NA","242344","242839","242214","242344","Flanker Task Lab 2.1","81","42717","82","yes","1024"
"98.79518072289157","98.79518072289157","521.9759036144578","521.9759036144578","#800080","legacy","legacy","legacy","0","incongruent","uniform","1","undefined","1","s","0","0","0","82","82","0","82","0","82","0","0","0","82","82","82","82","Sat Sep 26 11:01:02 2020","600","The main experiment item","yes","FlankerTaskLab.osexp","/Users/Arianna/Desktop","no","sans","no","18","no","white","no","yes","768","legacy","2","79","/Users/Arianna/Desktop/AG-subject-3.csv","legacy","Lentiform Loewenfeld","3.3.3","0","s","NA","h","h","NA","s","607","NA","39393","56345","NA","607","2","legacy","1024","2","48000","-16","experiment","HHSHH","3","odd","42898","239704","NA","242865","181791","3458","240628","NA","243951","3473","183357","NA","244066","244675","243937","244066","Flanker Task Lab 2.1","82","43324","83","yes","1024"
"98.80952380952381","98.80952380952381","521","521","#800080","legacy","legacy","legacy","0","congruent","uniform","1","undefined","1","h","0","0","0","83","83","0","83","0","83","0","0","0","83","83","83","83","Sat Sep 26 11:01:02 2020","600","The main experiment item","yes","FlankerTaskLab.osexp","/Users/Arianna/Desktop","no","sans","no","18","no","white","no","yes","768","legacy","3","79","/Users/Arianna/Desktop/AG-subject-3.csv","legacy","Lentiform Loewenfeld","3.3.3","0","h","NA","h","h","NA","h","440","NA","39393","56345","NA","440","2","legacy","1024","2","48000","-16","experiment","HHHHH","3","odd","42898","239704","NA","245215","181791","3458","244702","NA","246300","3473","183357","NA","246416","246858","246287","246416","Flanker Task Lab 2.1","83","43764","84","yes","1024"
"98.82352941176471","98.82352941176471","521.035294117647","521.035294117647","#800080","legacy","legacy","legacy","0","congruent","uniform","1","undefined","1","h","0","0","0","84","84","0","84","0","84","0","0","0","84","84","84","84","Sat Sep 26 11:01:02 2020","600","The main experiment item","yes","FlankerTaskLab.osexp","/Users/Arianna/Desktop","no","sans","no","18","no","white","no","yes","768","legacy","4","79","/Users/Arianna/Desktop/AG-subject-3.csv","legacy","Lentiform Loewenfeld","3.3.3","0","h","NA","h","h","NA","h","524","NA","39393","56345","NA","524","2","legacy","1024","2","48000","-16","experiment","HHHHH","3","odd","42898","239704","NA","246875","181791","3458","244702","NA","247961","3473","183357","NA","248076","248602","247946","248076","Flanker Task Lab 2.1","84","44288","85","yes","1024"
"98.83720930232558","98.83720930232558","519.7790697674419","519.7790697674419","#800080","legacy","legacy","legacy","0","congruent","uniform","1","undefined","1","h","0","0","0","85","85","0","85","0","85","0","0","0","85","85","85","85","Sat Sep 26 11:01:02 2020","600","The main experiment item","yes","FlankerTaskLab.osexp","/Users/Arianna/Desktop","no","sans","no","18","no","white","no","yes","768","legacy","5","79","/Users/Arianna/Desktop/AG-subject-3.csv","legacy","Lentiform Loewenfeld","3.3.3","0","h","NA","h","h","NA","h","413","NA","39393","56345","NA","413","2","legacy","1024","2","48000","-16","experiment","HHHHH","3","odd","42898","239704","NA","248616","181791","3458","244702","NA","249705","3473","183357","NA","249820","250235","249691","249820","Flanker Task Lab 2.1","85","44701","86","yes","1024"
"98.85057471264368","98.85057471264368","518.8275862068965","518.8275862068965","#800080","legacy","legacy","legacy","0","congruent","uniform","1","undefined","1","h","0","0","0","86","86","0","86","0","86","0","0","0","86","86","86","86","Sat Sep 26 11:01:02 2020","600","The main experiment item","yes","FlankerTaskLab.osexp","/Users/Arianna/Desktop","no","sans","no","18","no","white","no","yes","768","legacy","6","79","/Users/Arianna/Desktop/AG-subject-3.csv","legacy","Lentiform Loewenfeld","3.3.3","0","h","NA","h","h","NA","h","437","NA","39393","56345","NA","437","2","legacy","1024","2","48000","-16","experiment","HHHHH","3","odd","42898","239704","NA","250262","181791","3458","244702","NA","251349","3473","183357","NA","251464","251903","251336","251464","Flanker Task Lab 2.1","86","45138","87","yes","1024"
"98.86363636363636","98.86363636363636","519.0340909090909","519.0340909090909","#800080","legacy","legacy","legacy","0","incongruent","uniform","1","undefined","1","h","0","0","0","87","87","0","87","0","87","0","0","0","87","87","87","87","Sat Sep 26 11:01:02 2020","600","The main experiment item","yes","FlankerTaskLab.osexp","/Users/Arianna/Desktop","no","sans","no","18","no","white","no","yes","768","legacy","7","79","/Users/Arianna/Desktop/AG-subject-3.csv","legacy","Lentiform Loewenfeld","3.3.3","0","h","NA","h","h","NA","h","537","NA","39393","56345","NA","537","2","legacy","1024","2","48000","-16","experiment","SSHSS","3","odd","42898","239704","NA","251926","181791","3458","244702","NA","253013","3473","183357","NA","253128","253667","252999","253128","Flanker Task Lab 2.1","87","45675","88","yes","1024"
"98.87640449438203","98.87640449438203","518.056179775281","518.056179775281","#800080","legacy","legacy","legacy","0","incongruent","uniform","1","undefined","1","s","0","0","0","88","88","0","88","0","88","0","0","0","88","88","88","88","Sat Sep 26 11:01:02 2020","600","The main experiment item","yes","FlankerTaskLab.osexp","/Users/Arianna/Desktop","no","sans","no","18","no","white","no","yes","768","legacy","8","79","/Users/Arianna/Desktop/AG-subject-3.csv","legacy","Lentiform Loewenfeld","3.3.3","0","s","NA","h","h","NA","s","432","NA","39393","56345","NA","432","2","legacy","1024","2","48000","-16","experiment","HHSHH","3","odd","42898","239704","NA","253684","181791","3458","244702","NA","254771","3473","183357","NA","254887","255321","254758","254886","Flanker Task Lab 2.1","88","46107","89","yes","1024"
"98.88888888888889","98.88888888888889","518.4111111111112","518.4111111111112","#800080","legacy","legacy","legacy","0","congruent","uniform","1","undefined","1","h","0","0","0","89","89","0","89","0","89","0","0","0","89","89","89","89","Sat Sep 26 11:01:02 2020","600","The main experiment item","yes","FlankerTaskLab.osexp","/Users/Arianna/Desktop","no","sans","no","18","no","white","no","yes","768","legacy","9","79","/Users/Arianna/Desktop/AG-subject-3.csv","legacy","Lentiform Loewenfeld","3.3.3","0","h","NA","h","h","NA","h","550","NA","39393","56345","NA","550","2","legacy","1024","2","48000","-16","experiment","HHHHH","3","odd","42898","239704","NA","255338","181791","3458","244702","NA","256423","3473","183357","NA","256538","257089","256409","256538","Flanker Task Lab 2.1","89","46657","90","yes","1024"
"98.9010989010989","98.9010989010989","516.978021978022","516.978021978022","#800080","legacy","legacy","legacy","0","congruent","uniform","1","undefined","1","h","0","0","0","90","90","0","90","0","90","0","0","0","90","90","90","90","Sat Sep 26 11:01:02 2020","600","The main experiment item","yes","FlankerTaskLab.osexp","/Users/Arianna/Desktop","no","sans","no","18","no","white","no","yes","768","legacy","10","79","/Users/Arianna/Desktop/AG-subject-3.csv","legacy","Lentiform Loewenfeld","3.3.3","0","h","NA","h","h","NA","h","388","NA","39393","56345","NA","388","2","legacy","1024","2","48000","-16","experiment","HHHHH","3","odd","42898","239704","NA","257116","181791","3458","244702","NA","258203","3473","183357","NA","258318","258707","258190","258318","Flanker Task Lab 2.1","90","47045","91","yes","1024"
"98.91304347826087","98.91304347826087","515.8913043478261","515.8913043478261","#800080","legacy","legacy","legacy","0","incongruent","uniform","1","undefined","1","s","0","0","0","91","91","0","91","0","91","0","0","0","91","91","91","91","Sat Sep 26 11:01:02 2020","600","The main experiment item","yes","FlankerTaskLab.osexp","/Users/Arianna/Desktop","no","sans","no","18","no","white","no","yes","768","legacy","11","79","/Users/Arianna/Desktop/AG-subject-3.csv","legacy","Lentiform Loewenfeld","3.3.3","0","s","NA","h","h","NA","s","417","NA","39393","56345","NA","417","2","legacy","1024","2","48000","-16","experiment","HHSHH","3","odd","42898","239704","NA","258735","181791","3458","244702","NA","259821","3473","183357","NA","259936","260354","259807","259936","Flanker Task Lab 2.1","91","47462","92","yes","1024"
"98.9247311827957","98.9247311827957","514.3763440860215","514.3763440860215","#800080","legacy","legacy","legacy","0","congruent","uniform","1","undefined","1","s","0","0","0","92","92","0","92","0","92","0","0","0","92","92","92","92","Sat Sep 26 11:01:02 2020","600","The main experiment item","yes","FlankerTaskLab.osexp","/Users/Arianna/Desktop","no","sans","no","18","no","white","no","yes","768","legacy","12","79","/Users/Arianna/Desktop/AG-subject-3.csv","legacy","Lentiform Loewenfeld","3.3.3","0","s","NA","h","h","NA","s","375","NA","39393","56345","NA","375","2","legacy","1024","2","48000","-16","experiment","SSSSS","3","odd","42898","239704","NA","260381","181791","3458","244702","NA","261470","3473","183357","NA","261585","261961","261456","261585","Flanker Task Lab 2.1","92","47837","93","yes","1024"
"98.93617021276596","98.93617021276596","513.031914893617","513.031914893617","#800080","legacy","legacy","legacy","0","congruent","uniform","1","undefined","1","s","0","0","0","93","93","0","93","0","93","0","0","0","93","93","93","93","Sat Sep 26 11:01:02 2020","600","The main experiment item","yes","FlankerTaskLab.osexp","/Users/Arianna/Desktop","no","sans","no","18","no","white","no","yes","768","legacy","13","79","/Users/Arianna/Desktop/AG-subject-3.csv","legacy","Lentiform Loewenfeld","3.3.3","0","s","NA","h","h","NA","s","388","NA","39393","56345","NA","388","2","legacy","1024","2","48000","-16","experiment","SSSSS","3","odd","42898","239704","NA","261988","181791","3458","244702","NA","263073","3473","183357","NA","263189","263578","263060","263188","Flanker Task Lab 2.1","93","48225","94","yes","1024"
"98.94736842105263","98.94736842105263","511.62105263157895","511.62105263157895","#800080","legacy","legacy","legacy","0","congruent","uniform","1","undefined","1","s","0","0","0","94","94","0","94","0","94","0","0","0","94","94","94","94","Sat Sep 26 11:01:02 2020","600","The main experiment item","yes","FlankerTaskLab.osexp","/Users/Arianna/Desktop","no","sans","no","18","no","white","no","yes","768","legacy","14","79","/Users/Arianna/Desktop/AG-subject-3.csv","legacy","Lentiform Loewenfeld","3.3.3","0","s","NA","h","h","NA","s","379","NA","39393","56345","NA","379","2","legacy","1024","2","48000","-16","experiment","SSSSS","3","odd","42898","239704","NA","263605","181791","3458","244702","NA","264692","3473","183357","NA","264807","265187","264678","264807","Flanker Task Lab 2.1","94","48604","95","yes","1024"
"98.95833333333333","98.95833333333333","511.65625","511.65625","#800080","legacy","legacy","legacy","0","congruent","uniform","1","undefined","1","s","0","0","0","95","95","0","95","0","95","0","0","0","95","95","95","95","Sat Sep 26 11:01:02 2020","600","The main experiment item","yes","FlankerTaskLab.osexp","/Users/Arianna/Desktop","no","sans","no","18","no","white","no","yes","768","legacy","15","79","/Users/Arianna/Desktop/AG-subject-3.csv","legacy","Lentiform Loewenfeld","3.3.3","0","s","NA","h","h","NA","s","515","NA","39393","56345","NA","515","2","legacy","1024","2","48000","-16","experiment","SSSSS","3","odd","42898","239704","NA","265215","181791","3458","244702","NA","266299","3473","183357","NA","266416","266933","266286","266416","Flanker Task Lab 2.1","95","49119","96","yes","1024"
"98.96907216494846","98.96907216494846","513.9896907216495","513.9896907216495","#800080","legacy","legacy","legacy","0","incongruent","uniform","1","undefined","1","s","0","0","0","96","96","0","96","0","96","0","0","0","96","96","96","96","Sat Sep 26 11:01:02 2020","600","The main experiment item","yes","FlankerTaskLab.osexp","/Users/Arianna/Desktop","no","sans","no","18","no","white","no","yes","768","legacy","16","79","/Users/Arianna/Desktop/AG-subject-3.csv","legacy","Lentiform Loewenfeld","3.3.3","0","s","NA","h","h","NA","s","738","NA","39393","56345","NA","738","2","legacy","1024","2","48000","-16","experiment","HHSHH","3","odd","42898","239704","NA","266948","181791","3458","244702","NA","268032","3473","183357","NA","268147","268886","268019","268147","Flanker Task Lab 2.1","96","49857","97","yes","1024"
"98.9795918367347","98.9795918367347","514.0918367346939","514.0918367346939","#800080","legacy","legacy","legacy","0","incongruent","uniform","1","undefined","1","s","0","0","0","97","97","0","97","0","97","0","0","0","97","97","97","97","Sat Sep 26 11:01:02 2020","600","The main experiment item","yes","FlankerTaskLab.osexp","/Users/Arianna/Desktop","no","sans","no","18","no","white","no","yes","768","legacy","17","79","/Users/Arianna/Desktop/AG-subject-3.csv","legacy","Lentiform Loewenfeld","3.3.3","0","s","NA","h","h","NA","s","524","NA","39393","56345","NA","524","2","legacy","1024","2","48000","-16","experiment","HHSHH","3","odd","42898","239704","NA","269426","181791","3458","268912","NA","270512","3473","183357","NA","270627","271152","270498","270627","Flanker Task Lab 2.1","97","50381","98","yes","1024"
"98.98989898989899","98.98989898989899","513.6464646464647","513.6464646464647","#800080","legacy","legacy","legacy","0","incongruent","uniform","1","undefined","1","s","0","0","0","98","98","0","98","0","98","0","0","0","98","98","98","98","Sat Sep 26 11:01:02 2020","600","The main experiment item","yes","FlankerTaskLab.osexp","/Users/Arianna/Desktop","no","sans","no","18","no","white","no","yes","768","legacy","18","79","/Users/Arianna/Desktop/AG-subject-3.csv","legacy","Lentiform Loewenfeld","3.3.3","0","s","NA","h","h","NA","s","470","NA","39393","56345","NA","470","2","legacy","1024","2","48000","-16","experiment","HHSHH","3","odd","42898","239704","NA","271179","181791","3458","268912","NA","272265","3473","183357","NA","272378","272850","272252","272378","Flanker Task Lab 2.1","98","50851","99","yes","1024"
"99","99","513.47","513.47","#800080","legacy","legacy","legacy","0","incongruent","uniform","1","undefined","1","h","0","0","0","99","99","0","99","0","99","0","0","0","99","99","99","99","Sat Sep 26 11:01:02 2020","600","The main experiment item","yes","FlankerTaskLab.osexp","/Users/Arianna/Desktop","no","sans","no","18","no","white","no","yes","768","legacy","19","79","/Users/Arianna/Desktop/AG-subject-3.csv","legacy","Lentiform Loewenfeld","3.3.3","0","h","NA","h","h","NA","h","496","NA","39393","56345","NA","496","2","legacy","1024","2","48000","-16","experiment","SSHSS","3","odd","42898","239704","NA","272876","181791","3458","268912","NA","273963","3473","183357","NA","274077","274575","273949","274077","Flanker Task Lab 2.1","99","51347","100","yes","1024"
"99.00990099009901","99.00990099009901","513.1782178217821","513.1782178217821","#800080","legacy","legacy","legacy","0","incongruent","uniform","1","undefined","1","s","0","0","0","100","100","0","100","0","100","0","0","0","100","100","100","100","Sat Sep 26 11:01:02 2020","600","The main experiment item","yes","FlankerTaskLab.osexp","/Users/Arianna/Desktop","no","sans","no","18","no","white","no","yes","768","legacy","20","79","/Users/Arianna/Desktop/AG-subject-3.csv","legacy","Lentiform Loewenfeld","3.3.3","0","s","NA","h","h","NA","s","484","NA","39393","56345","NA","484","2","legacy","1024","2","48000","-16","experiment","HHSHH","3","odd","42898","239704","NA","274602","181791","3458","268912","NA","275689","3473","183357","NA","275806","276291","275675","275806","Flanker Task Lab 2.1","100","51831","101","yes","1024"
"98.03921568627452","98.03921568627452","511.8921568627451","511.8921568627451","#800080","legacy","legacy","legacy","0","incongruent","uniform","0","undefined","0","h","0","0","0","101","101","0","101","0","101","0","0","0","101","101","101","101","Sat Sep 26 11:01:02 2020","600","The main experiment item","yes","FlankerTaskLab.osexp","/Users/Arianna/Desktop","no","sans","no","18","no","white","no","yes","768","legacy","21","79","/Users/Arianna/Desktop/AG-subject-3.csv","legacy","Lentiform Loewenfeld","3.3.3","0","s","NA","h","h","NA","s","382","NA","39393","56345","NA","382","2","legacy","1024","2","48000","-16","experiment","SSHSS","3","odd","42898","239704","NA","276316","181791","3458","268912","NA","277400","3473","183357","NA","277516","277900","277387","277515","Flanker Task Lab 2.1","100","52213","102","yes","1024"
"98.05825242718447","98.05825242718447","511.7864077669903","511.7864077669903","#800080","legacy","legacy","legacy","0","incongruent","uniform","1","undefined","1","h","0","0","0","102","102","0","102","0","102","0","0","0","102","102","102","102","Sat Sep 26 11:01:02 2020","600","The main experiment item","yes","FlankerTaskLab.osexp","/Users/Arianna/Desktop","no","sans","no","18","no","white","no","yes","768","legacy","22","79","/Users/Arianna/Desktop/AG-subject-3.csv","legacy","Lentiform Loewenfeld","3.3.3","0","h","NA","h","h","NA","h","501","NA","39393","56345","NA","501","2","legacy","1024","2","48000","-16","experiment","SSHSS","3","odd","42898","239704","NA","278436","277922","3458","268912","NA","279522","3473","183357","NA","279638","280141","279509","279637","Flanker Task Lab 2.1","101","52714","103","yes","1024"
"98.07692307692308","98.07692307692308","510.75","510.75","#800080","legacy","legacy","legacy","0","congruent","uniform","1","undefined","1","h","0","0","0","103","103","0","103","0","103","0","0","0","103","103","103","103","Sat Sep 26 11:01:02 2020","600","The main experiment item","yes","FlankerTaskLab.osexp","/Users/Arianna/Desktop","no","sans","no","18","no","white","no","yes","768","legacy","23","79","/Users/Arianna/Desktop/AG-subject-3.csv","legacy","Lentiform Loewenfeld","3.3.3","0","h","NA","h","h","NA","h","404","NA","39393","56345","NA","404","2","legacy","1024","2","48000","-16","experiment","HHHHH","3","odd","42898","239704","NA","280168","277922","3458","268912","NA","281253","3473","183357","NA","281369","281775","281240","281369","Flanker Task Lab 2.1","102","53118","104","yes","1024"
"98.0952380952381","98.0952380952381","510.9238095238095","510.9238095238095","#800080","legacy","legacy","legacy","0","congruent","uniform","1","undefined","1","h","0","0","0","104","104","0","104","0","104","0","0","0","104","104","104","104","Sat Sep 26 11:01:02 2020","600","The main experiment item","yes","FlankerTaskLab.osexp","/Users/Arianna/Desktop","no","sans","no","18","no","white","no","yes","768","legacy","24","79","/Users/Arianna/Desktop/AG-subject-3.csv","legacy","Lentiform Loewenfeld","3.3.3","0","h","NA","h","h","NA","h","529","NA","39393","56345","NA","529","2","legacy","1024","2","48000","-16","experiment","HHHHH","3","odd","42898","239704","NA","281802","277922","3458","268912","NA","282887","3473","183357","NA","283001","283532","282874","283001","Flanker Task Lab 2.1","103","53647","105","yes","1024"
"97.16981132075472","97.16981132075472","510.60377358490564","510.60377358490564","#800080","legacy","legacy","legacy","0","incongruent","uniform","0","undefined","0","h","0","0","0","105","105","0","105","0","105","0","0","0","105","105","105","105","Sat Sep 26 11:01:02 2020","600","The main experiment item","yes","FlankerTaskLab.osexp","/Users/Arianna/Desktop","no","sans","no","18","no","white","no","yes","768","legacy","25","79","/Users/Arianna/Desktop/AG-subject-3.csv","legacy","Lentiform Loewenfeld","3.3.3","0","s","NA","h","h","NA","s","477","NA","39393","56345","NA","477","2","legacy","1024","2","48000","-16","experiment","SSHSS","3","odd","42898","239704","NA","283559","277922","3458","268912","NA","284649","3473","183357","NA","284765","285244","284635","284765","Flanker Task Lab 2.1","103","54124","106","yes","1024"
"97.19626168224299","97.19626168224299","510.1121495327103","510.1121495327103","#800080","legacy","legacy","legacy","0","incongruent","uniform","1","undefined","1","h","0","0","0","106","106","0","106","0","106","0","0","0","106","106","106","106","Sat Sep 26 11:01:02 2020","600","The main experiment item","yes","FlankerTaskLab.osexp","/Users/Arianna/Desktop","no","sans","no","18","no","white","no","yes","768","legacy","26","79","/Users/Arianna/Desktop/AG-subject-3.csv","legacy","Lentiform Loewenfeld","3.3.3","0","h","NA","h","h","NA","h","458","NA","39393","56345","NA","458","2","legacy","1024","2","48000","-16","experiment","SSHSS","3","odd","42898","239704","NA","285785","285271","3458","268912","NA","286870","3473","183357","NA","286985","287445","286857","286985","Flanker Task Lab 2.1","104","54582","107","yes","1024"
"97.22222222222223","97.22222222222223","509.94444444444446","509.94444444444446","#800080","legacy","legacy","legacy","0","incongruent","uniform","1","undefined","1","s","0","0","0","107","107","0","107","0","107","0","0","0","107","107","107","107","Sat Sep 26 11:01:02 2020","600","The main experiment item","yes","FlankerTaskLab.osexp","/Users/Arianna/Desktop","no","sans","no","18","no","white","no","yes","768","legacy","27","79","/Users/Arianna/Desktop/AG-subject-3.csv","legacy","Lentiform Loewenfeld","3.3.3","0","s","NA","h","h","NA","s","492","NA","39393","56345","NA","492","2","legacy","1024","2","48000","-16","experiment","HHSHH","3","odd","42898","239704","NA","287472","285271","3458","268912","NA","288558","3473","183357","NA","288674","289168","288545","288674","Flanker Task Lab 2.1","105","55074","108","yes","1024"
"97.24770642201835","97.24770642201835","509.92660550458714","509.92660550458714","#800080","legacy","legacy","legacy","0","incongruent","uniform","1","undefined","1","h","0","0","0","108","108","0","108","0","108","0","0","0","108","108","108","108","Sat Sep 26 11:01:02 2020","600","The main experiment item","yes","FlankerTaskLab.osexp","/Users/Arianna/Desktop","no","sans","no","18","no","white","no","yes","768","legacy","28","79","/Users/Arianna/Desktop/AG-subject-3.csv","legacy","Lentiform Loewenfeld","3.3.3","0","h","NA","h","h","NA","h","508","NA","39393","56345","NA","508","2","legacy","1024","2","48000","-16","experiment","SSHSS","3","odd","42898","239704","NA","289194","285271","3458","268912","NA","290280","3473","183357","NA","290395","290905","290267","290395","Flanker Task Lab 2.1","106","55582","109","yes","1024"
"97.27272727272727","97.27272727272727","510.3727272727273","510.3727272727273","#800080","legacy","legacy","legacy","0","incongruent","uniform","1","undefined","1","h","0","0","0","109","109","0","109","0","109","0","0","0","109","109","109","109","Sat Sep 26 11:01:02 2020","600","The main experiment item","yes","FlankerTaskLab.osexp","/Users/Arianna/Desktop","no","sans","no","18","no","white","no","yes","768","legacy","29","79","/Users/Arianna/Desktop/AG-subject-3.csv","legacy","Lentiform Loewenfeld","3.3.3","0","h","NA","h","h","NA","h","559","NA","39393","56345","NA","559","2","legacy","1024","2","48000","-16","experiment","SSHSS","3","odd","42898","239704","NA","290932","285271","3458","268912","NA","292020","3473","183357","NA","292136","292697","292007","292136","Flanker Task Lab 2.1","107","56141","110","yes","1024"
"97.29729729729729","97.29729729729729","510.1171171171171","510.1171171171171","#800080","legacy","legacy","legacy","0","congruent","uniform","1","undefined","1","h","0","0","0","110","110","0","110","0","110","0","0","0","110","110","110","110","Sat Sep 26 11:01:02 2020","600","The main experiment item","yes","FlankerTaskLab.osexp","/Users/Arianna/Desktop","no","sans","no","18","no","white","no","yes","768","legacy","30","79","/Users/Arianna/Desktop/AG-subject-3.csv","legacy","Lentiform Loewenfeld","3.3.3","0","h","NA","h","h","NA","h","482","NA","39393","56345","NA","482","2","legacy","1024","2","48000","-16","experiment","HHHHH","3","odd","42898","239704","NA","292723","285271","3458","268912","NA","293807","3473","183357","NA","293923","294407","293794","293923","Flanker Task Lab 2.1","108","56623","111","yes","1024"
"97.32142857142857","97.32142857142857","510.4732142857143","510.4732142857143","#800080","legacy","legacy","legacy","0","incongruent","uniform","1","undefined","1","h","0","0","0","111","111","0","111","0","111","0","0","0","111","111","111","111","Sat Sep 26 11:01:02 2020","600","The main experiment item","yes","FlankerTaskLab.osexp","/Users/Arianna/Desktop","no","sans","no","18","no","white","no","yes","768","legacy","31","79","/Users/Arianna/Desktop/AG-subject-3.csv","legacy","Lentiform Loewenfeld","3.3.3","0","h","NA","h","h","NA","h","550","NA","39393","56345","NA","550","2","legacy","1024","2","48000","-16","experiment","SSHSS","3","odd","42898","239704","NA","294434","285271","3458","268912","NA","295519","3473","183357","NA","295635","296187","295505","295635","Flanker Task Lab 2.1","109","57173","112","yes","1024"
"97.34513274336283","97.34513274336283","509.646017699115","509.646017699115","#800080","legacy","legacy","legacy","0","incongruent","uniform","1","undefined","1","h","0","0","0","112","112","0","112","0","112","0","0","0","112","112","112","112","Sat Sep 26 11:01:02 2020","600","The main experiment item","yes","FlankerTaskLab.osexp","/Users/Arianna/Desktop","no","sans","no","18","no","white","no","yes","768","legacy","32","79","/Users/Arianna/Desktop/AG-subject-3.csv","legacy","Lentiform Loewenfeld","3.3.3","0","h","NA","h","h","NA","h","417","NA","39393","56345","NA","417","2","legacy","1024","2","48000","-16","experiment","SSHSS","3","odd","42898","239704","NA","296213","285271","3458","268912","NA","297298","3473","183357","NA","297413","297832","297285","297413","Flanker Task Lab 2.1","110","57590","113","yes","1024"
"97.36842105263158","97.36842105263158","509.8070175438597","509.8070175438597","#800080","legacy","legacy","legacy","0","incongruent","uniform","1","undefined","1","s","0","0","0","113","113","0","113","0","113","0","0","0","113","113","113","113","Sat Sep 26 11:01:02 2020","600","The main experiment item","yes","FlankerTaskLab.osexp","/Users/Arianna/Desktop","no","sans","no","18","no","white","no","yes","768","legacy","33","79","/Users/Arianna/Desktop/AG-subject-3.csv","legacy","Lentiform Loewenfeld","3.3.3","0","s","NA","h","h","NA","s","528","NA","39393","56345","NA","528","2","legacy","1024","2","48000","-16","experiment","HHSHH","3","odd","42898","239704","NA","297847","285271","3458","268912","NA","298939","3473","183357","NA","299054","299584","298925","299054","Flanker Task Lab 2.1","111","58118","114","yes","1024"
"97.3913043478261","97.3913043478261","509.02608695652174","509.02608695652174","#800080","legacy","legacy","legacy","0","congruent","uniform","1","undefined","1","h","0","0","0","114","114","0","114","0","114","0","0","0","114","114","114","114","Sat Sep 26 11:01:02 2020","600","The main experiment item","yes","FlankerTaskLab.osexp","/Users/Arianna/Desktop","no","sans","no","18","no","white","no","yes","768","legacy","34","79","/Users/Arianna/Desktop/AG-subject-3.csv","legacy","Lentiform Loewenfeld","3.3.3","0","h","NA","h","h","NA","h","420","NA","39393","56345","NA","420","2","legacy","1024","2","48000","-16","experiment","HHHHH","3","odd","42898","239704","NA","299598","285271","3458","268912","NA","300687","3473","183357","NA","300803","301225","300674","300803","Flanker Task Lab 2.1","112","58538","115","yes","1024"
"97.41379310344827","97.41379310344827","509.1896551724138","509.1896551724138","#800080","legacy","legacy","legacy","0","incongruent","uniform","1","undefined","1","h","0","0","0","115","115","0","115","0","115","0","0","0","115","115","115","115","Sat Sep 26 11:01:02 2020","600","The main experiment item","yes","FlankerTaskLab.osexp","/Users/Arianna/Desktop","no","sans","no","18","no","white","no","yes","768","legacy","35","79","/Users/Arianna/Desktop/AG-subject-3.csv","legacy","Lentiform Loewenfeld","3.3.3","0","h","NA","h","h","NA","h","528","NA","39393","56345","NA","528","2","legacy","1024","2","48000","-16","experiment","SSHSS","3","odd","42898","239704","NA","301251","285271","3458","268912","NA","302336","3473","183357","NA","302451","302981","302322","302451","Flanker Task Lab 2.1","113","59066","116","yes","1024"
"97.43589743589743","97.43589743589743","508.4017094017094","508.4017094017094","#800080","legacy","legacy","legacy","0","congruent","uniform","1","undefined","1","s","0","0","0","116","116","0","116","0","116","0","0","0","116","116","116","116","Sat Sep 26 11:01:02 2020","600","The main experiment item","yes","FlankerTaskLab.osexp","/Users/Arianna/Desktop","no","sans","no","18","no","white","no","yes","768","legacy","36","79","/Users/Arianna/Desktop/AG-subject-3.csv","legacy","Lentiform Loewenfeld","3.3.3","0","s","NA","h","h","NA","s","417","NA","39393","56345","NA","417","2","legacy","1024","2","48000","-16","experiment","SSSSS","3","odd","42898","239704","NA","303007","285271","3458","268912","NA","304094","3473","183357","NA","304209","304628","304081","304209","Flanker Task Lab 2.1","114","59483","117","yes","1024"
"97.45762711864407","97.45762711864407","508.3474576271187","508.3474576271187","#800080","legacy","legacy","legacy","0","incongruent","uniform","1","undefined","1","s","0","0","0","117","117","0","117","0","117","0","0","0","117","117","117","117","Sat Sep 26 11:01:02 2020","600","The main experiment item","yes","FlankerTaskLab.osexp","/Users/Arianna/Desktop","no","sans","no","18","no","white","no","yes","768","legacy","37","79","/Users/Arianna/Desktop/AG-subject-3.csv","legacy","Lentiform Loewenfeld","3.3.3","0","s","NA","h","h","NA","s","502","NA","39393","56345","NA","502","2","legacy","1024","2","48000","-16","experiment","HHSHH","3","odd","42898","239704","NA","304653","285271","3458","268912","NA","305741","3473","183357","NA","305857","306361","305727","305857","Flanker Task Lab 2.1","115","59985","118","yes","1024"
"96.63865546218487","96.63865546218487","507.73949579831935","507.73949579831935","#800080","legacy","legacy","legacy","0","incongruent","uniform","0","undefined","0","h","0","0","0","118","118","0","118","0","118","0","0","0","118","118","118","118","Sat Sep 26 11:01:02 2020","600","The main experiment item","yes","FlankerTaskLab.osexp","/Users/Arianna/Desktop","no","sans","no","18","no","white","no","yes","768","legacy","38","79","/Users/Arianna/Desktop/AG-subject-3.csv","legacy","Lentiform Loewenfeld","3.3.3","0","s","NA","h","h","NA","s","436","NA","39393","56345","NA","436","2","legacy","1024","2","48000","-16","experiment","SSHSS","3","odd","42898","239704","NA","306384","285271","3458","268912","NA","307472","3473","183357","NA","307588","308026","307459","307588","Flanker Task Lab 2.1","115","60421","119","yes","1024"
"96.66666666666667","96.66666666666667","507.7916666666667","507.7916666666667","#800080","legacy","legacy","legacy","0","incongruent","uniform","1","undefined","1","s","0","0","0","119","119","0","119","0","119","0","0","0","119","119","119","119","Sat Sep 26 11:01:02 2020","600","The main experiment item","yes","FlankerTaskLab.osexp","/Users/Arianna/Desktop","no","sans","no","18","no","white","no","yes","768","legacy","39","79","/Users/Arianna/Desktop/AG-subject-3.csv","legacy","Lentiform Loewenfeld","3.3.3","0","s","NA","h","h","NA","s","514","NA","39393","56345","NA","514","2","legacy","1024","2","48000","-16","experiment","HHSHH","3","odd","42898","239704","NA","308565","308051","3458","268912","NA","309650","3473","183357","NA","309767","310283","309637","309766","Flanker Task Lab 2.1","116","60935","120","yes","1024"
"96.69421487603306","96.69421487603306","507.702479338843","507.702479338843","#800080","legacy","legacy","legacy","0","incongruent","uniform","1","undefined","1","s","0","0","0","120","120","0","120","0","120","0","0","0","120","120","120","120","Sat Sep 26 11:01:02 2020","600","The main experiment item","yes","FlankerTaskLab.osexp","/Users/Arianna/Desktop","no","sans","no","18","no","white","no","yes","768","legacy","40","79","/Users/Arianna/Desktop/AG-subject-3.csv","legacy","Lentiform Loewenfeld","3.3.3","0","s","NA","h","h","NA","s","497","NA","39393","56345","NA","497","2","legacy","1024","2","48000","-16","experiment","HHSHH","3","odd","42898","239704","NA","310298","308051","3458","268912","NA","311384","3473","183357","NA","311499","311998","311371","311499","Flanker Task Lab 2.1","117","61432","121","yes","1024"
"96.72131147540983","96.72131147540983","507.4672131147541","507.4672131147541","#800080","legacy","legacy","legacy","0","incongruent","uniform","1","undefined","1","s","0","0","0","121","121","0","121","0","121","0","0","0","121","121","121","121","Sat Sep 26 11:01:02 2020","600","The main experiment item","yes","FlankerTaskLab.osexp","/Users/Arianna/Desktop","no","sans","no","18","no","white","no","yes","768","legacy","41","79","/Users/Arianna/Desktop/AG-subject-3.csv","legacy","Lentiform Loewenfeld","3.3.3","0","s","NA","h","h","NA","s","479","NA","39393","56345","NA","479","2","legacy","1024","2","48000","-16","experiment","HHSHH","3","odd","42898","239704","NA","312023","308051","3458","268912","NA","313108","3473","183357","NA","313224","313705","313095","313224","Flanker Task Lab 2.1","118","61911","122","yes","1024"
"96.7479674796748","96.7479674796748","506.650406504065","506.650406504065","#800080","legacy","legacy","legacy","0","congruent","uniform","1","undefined","1","h","0","0","0","122","122","0","122","0","122","0","0","0","122","122","122","122","Sat Sep 26 11:01:02 2020","600","The main experiment item","yes","FlankerTaskLab.osexp","/Users/Arianna/Desktop","no","sans","no","18","no","white","no","yes","768","legacy","42","79","/Users/Arianna/Desktop/AG-subject-3.csv","legacy","Lentiform Loewenfeld","3.3.3","0","h","NA","h","h","NA","h","407","NA","39393","56345","NA","407","2","legacy","1024","2","48000","-16","experiment","HHHHH","3","odd","42898","239704","NA","313731","308051","3458","268912","NA","314816","3473","183357","NA","314932","315341","314803","314931","Flanker Task Lab 2.1","119","62318","123","yes","1024"
"96.7741935483871","96.7741935483871","506.5806451612903","506.5806451612903","#800080","legacy","legacy","legacy","0","incongruent","uniform","1","undefined","1","s","0","0","0","123","123","0","123","0","123","0","0","0","123","123","123","123","Sat Sep 26 11:01:02 2020","600","The main experiment item","yes","FlankerTaskLab.osexp","/Users/Arianna/Desktop","no","sans","no","18","no","white","no","yes","768","legacy","43","79","/Users/Arianna/Desktop/AG-subject-3.csv","legacy","Lentiform Loewenfeld","3.3.3","0","s","NA","h","h","NA","s","498","NA","39393","56345","NA","498","2","legacy","1024","2","48000","-16","experiment","HHSHH","3","odd","42898","239704","NA","315355","308051","3458","268912","NA","316440","3473","183357","NA","316555","317055","316426","316555","Flanker Task Lab 2.1","120","62816","124","yes","1024"
