"acc","accuracy","average_response_time","avg_rt","background","canvas_backend","clock_backend","color_backend","condition","correct","correct_instructions1","correct_keyboard_response","correct_response","count_Block1","count_Block2","count_Block3","count_ErrorFeedback","count_Fixation","count_ISI","count_Logger","count_Sequence","count_Stimulus","count_experiment","count_faster","count_instructions1","count_instructions2","count_instructions3","count_keyboard_response","count_new_sketchpad","datetime","deadline","description","disable_garbage_collection","experiment_file","experiment_path","font_bold","font_family","font_italic","font_size","font_underline","foreground","form_clicks","fullscreen","height","keyboard_backend","live_row","live_row_Block1","logfile","mouse_backend","opensesame_codename","opensesame_version","repeat_cycle","response","response_instructions1","response_instructions2","response_instructions3","response_keyboard_response","response_new_sketchpad","response_time","response_time_instructions1","response_time_instructions2","response_time_instructions3","response_time_keyboard_response","response_time_new_sketchpad","round_decimals","sampler_backend","sound_buf_size","sound_channels","sound_freq","sound_sample_size","start","stimulus","subject_nr","subject_parity","time_Block1","time_Block2","time_Block3","time_ErrorFeedback","time_Fixation","time_ISI","time_Logger","time_Sequence","time_Stimulus","time_experiment","time_faster","time_instructions1","time_instructions2","time_instructions3","time_keyboard_response","time_new_sketchpad","title","total_correct","total_response_time","total_responses","width"
"100","100","530","530","#000000","legacy","legacy","legacy","Congruent","1","undefined","1","s","0","0","0","0","0","0","0","0","0","0","0","0","0","0","0","0","Sun Sep 24 19:26:35 2023","1500","The main experiment item","False","Edward Banda Flanker Task.osexp","C:\Users\Edward Banda\Desktop\Avd Quant Methods 5316","False","mono","False","18","no","white","no","yes","768","legacy","0","0","C:/Users/Edward Banda/Desktop/EB-subject-3.csv","legacy","Melodramatic Milgram","4.0.5","0","s","s","NA","NA","s","NA","530.0","169423","NA","NA","530","NA","2","legacy","1024","2","48000","-16","experiment","SSSSS","1","odd","171286","NA","NA","NA","171342","NA","171974","171341","171443","1858","NA","1862","NA","NA","171444","NA","Flanker Task","1","530.0","1","1024"
"100","100","454","454","#000000","legacy","legacy","legacy","Congruent","1","undefined","1","s","0","0","0","1","1","1","1","1","1","0","1","0","0","0","1","0","Sun Sep 24 19:26:35 2023","1500","The main experiment item","False","Edward Banda Flanker Task.osexp","C:\Users\Edward Banda\Desktop\Avd Quant Methods 5316","False","mono","False","18","no","white","no","yes","768","legacy","1","1","C:/Users/Edward Banda/Desktop/EB-subject-3.csv","legacy","Melodramatic Milgram","4.0.5","0","s","s","NA","NA","s","NA","378.0","169423","NA","NA","378","NA","2","legacy","1024","2","48000","-16","experiment","SSSSS","1","odd","171286","NA","NA","NA","173038","171990","173517","173036","173139","1858","NA","1862","NA","NA","173139","NA","Flanker Task","2","908.0","2","1024"
"66","66","418","418","#000000","legacy","legacy","legacy","Incongruent","0","undefined","0","h","0","0","0","2","2","2","2","2","2","0","2","0","0","0","2","0","Sun Sep 24 19:26:35 2023","1500","The main experiment item","False","Edward Banda Flanker Task.osexp","C:\Users\Edward Banda\Desktop\Avd Quant Methods 5316","False","mono","False","18","no","white","no","yes","768","legacy","2","2","C:/Users/Edward Banda/Desktop/EB-subject-3.csv","legacy","Melodramatic Milgram","4.0.5","0","s","s","NA","NA","s","NA","348.0","169423","NA","NA","348","NA","2","legacy","1024","2","48000","-16","experiment","SSHSS","1","odd","171286","NA","NA","NA","174570","173529","175020","174568","174671","1858","NA","1862","NA","NA","174672","NA","Flanker Task","2","1256.0","3","1024"
"75","75","407","407","#000000","legacy","legacy","legacy","Congruent","1","undefined","1","h","0","0","0","3","3","3","3","3","3","0","3","0","0","0","3","0","Sun Sep 24 19:26:35 2023","1500","The main experiment item","False","Edward Banda Flanker Task.osexp","C:\Users\Edward Banda\Desktop\Avd Quant Methods 5316","False","mono","False","18","no","white","no","yes","768","legacy","3","3","C:/Users/Edward Banda/Desktop/EB-subject-3.csv","legacy","Melodramatic Milgram","4.0.5","0","h","s","NA","NA","h","NA","375.0","169423","NA","NA","375","NA","2","legacy","1024","2","48000","-16","experiment","HHHHH","1","odd","171286","NA","NA","175033","176570","175534","177048","176567","176671","1858","NA","1862","NA","NA","176672","NA","Flanker Task","3","1631.0","4","1024"
"80","80","403","403","#000000","legacy","legacy","legacy","Congruent","1","undefined","1","h","0","0","0","4","4","4","4","4","4","0","4","0","0","0","4","0","Sun Sep 24 19:26:35 2023","1500","The main experiment item","False","Edward Banda Flanker Task.osexp","C:\Users\Edward Banda\Desktop\Avd Quant Methods 5316","False","mono","False","18","no","white","no","yes","768","legacy","4","4","C:/Users/Edward Banda/Desktop/EB-subject-3.csv","legacy","Melodramatic Milgram","4.0.5","0","h","s","NA","NA","h","NA","386.0","169423","NA","NA","386","NA","2","legacy","1024","2","48000","-16","experiment","HHHHH","1","odd","171286","NA","NA","175033","178091","177060","178579","178088","178192","1858","NA","1862","NA","NA","178192","NA","Flanker Task","4","2017.0","5","1024"
"66","66","404","404","#000000","legacy","legacy","legacy","Incongruent","0","undefined","0","h","0","0","0","5","5","5","5","5","5","0","5","0","0","0","5","0","Sun Sep 24 19:26:35 2023","1500","The main experiment item","False","Edward Banda Flanker Task.osexp","C:\Users\Edward Banda\Desktop\Avd Quant Methods 5316","False","mono","False","18","no","white","no","yes","768","legacy","5","5","C:/Users/Edward Banda/Desktop/EB-subject-3.csv","legacy","Melodramatic Milgram","4.0.5","0","s","s","NA","NA","s","NA","409.0","169423","NA","NA","409","NA","2","legacy","1024","2","48000","-16","experiment","SSHSS","1","odd","171286","NA","NA","175033","179624","178591","180135","179623","179725","1858","NA","1862","NA","NA","179725","NA","Flanker Task","4","2426.0","6","1024"
"71","71","408","408","#000000","legacy","legacy","legacy","Congruent","1","undefined","1","s","0","0","0","6","6","6","6","6","6","0","6","0","0","0","6","0","Sun Sep 24 19:26:35 2023","1500","The main experiment item","False","Edward Banda Flanker Task.osexp","C:\Users\Edward Banda\Desktop\Avd Quant Methods 5316","False","mono","False","18","no","white","no","yes","768","legacy","6","6","C:/Users/Edward Banda/Desktop/EB-subject-3.csv","legacy","Melodramatic Milgram","4.0.5","0","s","s","NA","NA","s","NA","436.0","169423","NA","NA","436","NA","2","legacy","1024","2","48000","-16","experiment","SSSSS","1","odd","171286","NA","NA","180146","181679","180647","182216","181678","181780","1858","NA","1862","NA","NA","181780","NA","Flanker Task","5","2862.0","7","1024"
"75","75","401","401","#000000","legacy","legacy","legacy","Congruent","1","undefined","1","h","0","0","0","7","7","7","7","7","7","0","7","0","0","0","7","0","Sun Sep 24 19:26:35 2023","1500","The main experiment item","False","Edward Banda Flanker Task.osexp","C:\Users\Edward Banda\Desktop\Avd Quant Methods 5316","False","mono","False","18","no","white","no","yes","768","legacy","7","7","C:/Users/Edward Banda/Desktop/EB-subject-3.csv","legacy","Melodramatic Milgram","4.0.5","0","h","s","NA","NA","h","NA","351.0","169423","NA","NA","351","NA","2","legacy","1024","2","48000","-16","experiment","HHHHH","1","odd","171286","NA","NA","180146","183271","182229","183724","183269","183373","1858","NA","1862","NA","NA","183373","NA","Flanker Task","6","3213.0","8","1024"
"77","77","403","403","#000000","legacy","legacy","legacy","Congruent","1","undefined","1","s","0","0","0","8","8","8","8","8","8","0","8","0","0","0","8","0","Sun Sep 24 19:26:35 2023","1500","The main experiment item","False","Edward Banda Flanker Task.osexp","C:\Users\Edward Banda\Desktop\Avd Quant Methods 5316","False","mono","False","18","no","white","no","yes","768","legacy","8","8","C:/Users/Edward Banda/Desktop/EB-subject-3.csv","legacy","Melodramatic Milgram","4.0.5","0","s","s","NA","NA","s","NA","418.0","169423","NA","NA","418","NA","2","legacy","1024","2","48000","-16","experiment","SSSSS","1","odd","171286","NA","NA","180146","184778","183737","185297","184776","184879","1858","NA","1862","NA","NA","184879","NA","Flanker Task","7","3631.0","9","1024"
"80","80","399","399","#000000","legacy","legacy","legacy","Congruent","1","undefined","1","h","0","0","0","9","9","9","9","9","9","0","9","0","0","0","9","0","Sun Sep 24 19:26:35 2023","1500","The main experiment item","False","Edward Banda Flanker Task.osexp","C:\Users\Edward Banda\Desktop\Avd Quant Methods 5316","False","mono","False","18","no","white","no","yes","768","legacy","9","9","C:/Users/Edward Banda/Desktop/EB-subject-3.csv","legacy","Melodramatic Milgram","4.0.5","0","h","s","NA","NA","h","NA","367.0","169423","NA","NA","367","NA","2","legacy","1024","2","48000","-16","experiment","HHHHH","1","odd","171286","NA","NA","180146","186341","185309","186810","186339","186442","1858","NA","1862","NA","NA","186443","NA","Flanker Task","8","3998.0","10","1024"
"81","81","396","396","#000000","legacy","legacy","legacy","Incongruent","1","undefined","1","s","0","0","0","10","10","10","10","10","10","0","10","0","0","0","10","0","Sun Sep 24 19:26:35 2023","1500","The main experiment item","False","Edward Banda Flanker Task.osexp","C:\Users\Edward Banda\Desktop\Avd Quant Methods 5316","False","mono","False","18","no","white","no","yes","768","legacy","10","10","C:/Users/Edward Banda/Desktop/EB-subject-3.csv","legacy","Melodramatic Milgram","4.0.5","0","s","s","NA","NA","s","NA","360.0","169423","NA","NA","360","NA","2","legacy","1024","2","48000","-16","experiment","HHSHH","1","odd","171286","NA","NA","180146","187851","186822","188314","187850","187952","1858","NA","1862","NA","NA","187953","NA","Flanker Task","9","4358.0","11","1024"
"83","83","395","395","#000000","legacy","legacy","legacy","Incongruent","1","undefined","1","s","0","0","0","11","11","11","11","11","11","0","11","0","0","0","11","0","Sun Sep 24 19:26:35 2023","1500","The main experiment item","False","Edward Banda Flanker Task.osexp","C:\Users\Edward Banda\Desktop\Avd Quant Methods 5316","False","mono","False","18","no","white","no","yes","768","legacy","11","11","C:/Users/Edward Banda/Desktop/EB-subject-3.csv","legacy","Melodramatic Milgram","4.0.5","0","s","s","NA","NA","s","NA","389.0","169423","NA","NA","389","NA","2","legacy","1024","2","48000","-16","experiment","HHSHH","1","odd","171286","NA","NA","180146","189356","188326","189846","189354","189457","1858","NA","1862","NA","NA","189457","NA","Flanker Task","10","4747.0","12","1024"
"84","84","399","399","#000000","legacy","legacy","legacy","Incongruent","1","undefined","1","h","0","0","0","12","12","12","12","12","12","0","12","0","0","0","12","0","Sun Sep 24 19:26:35 2023","1500","The main experiment item","False","Edward Banda Flanker Task.osexp","C:\Users\Edward Banda\Desktop\Avd Quant Methods 5316","False","mono","False","18","no","white","no","yes","768","legacy","12","12","C:/Users/Edward Banda/Desktop/EB-subject-3.csv","legacy","Melodramatic Milgram","4.0.5","0","h","s","NA","NA","h","NA","448.0","169423","NA","NA","448","NA","2","legacy","1024","2","48000","-16","experiment","SSHSS","1","odd","171286","NA","NA","180146","190895","189858","191445","190893","190996","1858","NA","1862","NA","NA","190996","NA","Flanker Task","11","5195.0","13","1024"
"85","85","401","401","#000000","legacy","legacy","legacy","Congruent","1","undefined","1","h","0","0","0","13","13","13","13","13","13","0","13","0","0","0","13","0","Sun Sep 24 19:26:35 2023","1500","The main experiment item","False","Edward Banda Flanker Task.osexp","C:\Users\Edward Banda\Desktop\Avd Quant Methods 5316","False","mono","False","18","no","white","no","yes","768","legacy","13","13","C:/Users/Edward Banda/Desktop/EB-subject-3.csv","legacy","Melodramatic Milgram","4.0.5","0","h","s","NA","NA","h","NA","429.0","169423","NA","NA","429","NA","2","legacy","1024","2","48000","-16","experiment","HHHHH","1","odd","171286","NA","NA","180146","192492","191458","193023","192490","192593","1858","NA","1862","NA","NA","192593","NA","Flanker Task","12","5624.0","14","1024"
"86","86","402","402","#000000","legacy","legacy","legacy","Congruent","1","undefined","1","h","0","0","0","14","14","14","14","14","14","0","14","0","0","0","14","0","Sun Sep 24 19:26:35 2023","1500","The main experiment item","False","Edward Banda Flanker Task.osexp","C:\Users\Edward Banda\Desktop\Avd Quant Methods 5316","False","mono","False","18","no","white","no","yes","768","legacy","14","14","C:/Users/Edward Banda/Desktop/EB-subject-3.csv","legacy","Melodramatic Milgram","4.0.5","0","h","s","NA","NA","h","NA","415.0","169423","NA","NA","415","NA","2","legacy","1024","2","48000","-16","experiment","HHHHH","1","odd","171286","NA","NA","180146","194069","193035","194586","194067","194170","1858","NA","1862","NA","NA","194170","NA","Flanker Task","13","6039.0","15","1024"
"87","87","405","405","#000000","legacy","legacy","legacy","Incongruent","1","undefined","1","s","0","0","0","15","15","15","15","15","15","0","15","0","0","0","15","0","Sun Sep 24 19:26:35 2023","1500","The main experiment item","False","Edward Banda Flanker Task.osexp","C:\Users\Edward Banda\Desktop\Avd Quant Methods 5316","False","mono","False","18","no","white","no","yes","768","legacy","15","15","C:/Users/Edward Banda/Desktop/EB-subject-3.csv","legacy","Melodramatic Milgram","4.0.5","0","s","s","NA","NA","s","NA","453.0","169423","NA","NA","453","NA","2","legacy","1024","2","48000","-16","experiment","HHSHH","1","odd","171286","NA","NA","180146","195638","194599","196193","195636","195739","1858","NA","1862","NA","NA","195740","NA","Flanker Task","14","6492.0","16","1024"
"88","88","401","401","#000000","legacy","legacy","legacy","Incongruent","1","undefined","1","h","0","0","0","16","16","16","16","16","16","0","16","0","0","0","16","0","Sun Sep 24 19:26:35 2023","1500","The main experiment item","False","Edward Banda Flanker Task.osexp","C:\Users\Edward Banda\Desktop\Avd Quant Methods 5316","False","mono","False","18","no","white","no","yes","768","legacy","16","16","C:/Users/Edward Banda/Desktop/EB-subject-3.csv","legacy","Melodramatic Milgram","4.0.5","0","h","s","NA","NA","h","NA","339.0","169423","NA","NA","339","NA","2","legacy","1024","2","48000","-16","experiment","SSHSS","1","odd","171286","NA","NA","180146","197241","196205","197681","197239","197342","1858","NA","1862","NA","NA","197342","NA","Flanker Task","15","6831.0","17","1024"
"88","88","399","399","#000000","legacy","legacy","legacy","Congruent","1","undefined","1","s","0","0","0","17","17","17","17","17","17","0","17","0","0","0","17","0","Sun Sep 24 19:26:35 2023","1500","The main experiment item","False","Edward Banda Flanker Task.osexp","C:\Users\Edward Banda\Desktop\Avd Quant Methods 5316","False","mono","False","18","no","white","no","yes","768","legacy","17","17","C:/Users/Edward Banda/Desktop/EB-subject-3.csv","legacy","Melodramatic Milgram","4.0.5","0","s","s","NA","NA","s","NA","364.0","169423","NA","NA","364","NA","2","legacy","1024","2","48000","-16","experiment","SSSSS","1","odd","171286","NA","NA","180146","198734","197693","199199","198732","198835","1858","NA","1862","NA","NA","198835","NA","Flanker Task","16","7195.0","18","1024"
"89","89","401","401","#000000","legacy","legacy","legacy","Congruent","1","undefined","1","s","0","0","0","18","18","18","18","18","18","0","18","0","0","0","18","0","Sun Sep 24 19:26:35 2023","1500","The main experiment item","False","Edward Banda Flanker Task.osexp","C:\Users\Edward Banda\Desktop\Avd Quant Methods 5316","False","mono","False","18","no","white","no","yes","768","legacy","18","18","C:/Users/Edward Banda/Desktop/EB-subject-3.csv","legacy","Melodramatic Milgram","4.0.5","0","s","s","NA","NA","s","NA","439.0","169423","NA","NA","439","NA","2","legacy","1024","2","48000","-16","experiment","SSSSS","1","odd","171286","NA","NA","180146","200250","199211","200792","200249","200352","1858","NA","1862","NA","NA","200353","NA","Flanker Task","17","7634.0","19","1024"
"90","90","403","403","#000000","legacy","legacy","legacy","Incongruent","1","undefined","1","h","0","0","0","19","19","19","19","19","19","0","19","0","0","0","19","0","Sun Sep 24 19:26:35 2023","1500","The main experiment item","False","Edward Banda Flanker Task.osexp","C:\Users\Edward Banda\Desktop\Avd Quant Methods 5316","False","mono","False","18","no","white","no","yes","768","legacy","19","19","C:/Users/Edward Banda/Desktop/EB-subject-3.csv","legacy","Melodramatic Milgram","4.0.5","0","h","s","NA","NA","h","NA","432.0","169423","NA","NA","432","NA","2","legacy","1024","2","48000","-16","experiment","SSHSS","1","odd","171286","NA","NA","180146","201837","200805","202370","201835","201938","1858","NA","1862","NA","NA","201938","NA","Flanker Task","18","8066.0","20","1024"
"90","90","401","401","#000000","legacy","legacy","legacy","Incongruent","1","undefined","1","s","0","0","0","20","20","20","20","20","20","0","20","0","0","0","20","0","Sun Sep 24 19:26:35 2023","1500","The main experiment item","False","Edward Banda Flanker Task.osexp","C:\Users\Edward Banda\Desktop\Avd Quant Methods 5316","False","mono","False","18","no","white","no","yes","768","legacy","20","20","C:/Users/Edward Banda/Desktop/EB-subject-3.csv","legacy","Melodramatic Milgram","4.0.5","0","s","s","NA","NA","s","NA","375.0","169423","NA","NA","375","NA","2","legacy","1024","2","48000","-16","experiment","HHSHH","1","odd","171286","NA","NA","180146","203417","202382","203893","203416","203518","1858","NA","1862","NA","NA","203518","NA","Flanker Task","19","8441.0","21","1024"
"90","90","406","406","#000000","legacy","legacy","legacy","Incongruent","1","undefined","1","s","0","0","0","21","21","21","21","21","21","0","21","0","0","0","21","0","Sun Sep 24 19:26:35 2023","1500","The main experiment item","False","Edward Banda Flanker Task.osexp","C:\Users\Edward Banda\Desktop\Avd Quant Methods 5316","False","mono","False","18","no","white","no","yes","768","legacy","21","21","C:/Users/Edward Banda/Desktop/EB-subject-3.csv","legacy","Melodramatic Milgram","4.0.5","0","s","s","NA","NA","s","NA","496.0","169423","NA","NA","496","NA","2","legacy","1024","2","48000","-16","experiment","HHSHH","1","odd","171286","NA","NA","180146","204945","203905","205544","204943","205046","1858","NA","1862","NA","NA","205047","NA","Flanker Task","20","8937.0","22","1024"
"86","86","407","407","#000000","legacy","legacy","legacy","Incongruent","0","undefined","0","s","0","0","0","22","22","22","22","22","22","0","22","0","0","0","22","0","Sun Sep 24 19:26:35 2023","1500","The main experiment item","False","Edward Banda Flanker Task.osexp","C:\Users\Edward Banda\Desktop\Avd Quant Methods 5316","False","mono","False","18","no","white","no","yes","768","legacy","22","22","C:/Users/Edward Banda/Desktop/EB-subject-3.csv","legacy","Melodramatic Milgram","4.0.5","0","h","s","NA","NA","h","NA","424.0","169423","NA","NA","424","NA","2","legacy","1024","2","48000","-16","experiment","HHSHH","1","odd","171286","NA","NA","180146","206594","205556","207119","206591","206695","1858","NA","1862","NA","NA","206695","NA","Flanker Task","20","9361.0","23","1024"
"83","83","405","405","#000000","legacy","legacy","legacy","Incongruent","0","undefined","0","h","0","0","0","23","23","23","23","23","23","0","23","0","0","0","23","0","Sun Sep 24 19:26:35 2023","1500","The main experiment item","False","Edward Banda Flanker Task.osexp","C:\Users\Edward Banda\Desktop\Avd Quant Methods 5316","False","mono","False","18","no","white","no","yes","768","legacy","23","23","C:/Users/Edward Banda/Desktop/EB-subject-3.csv","legacy","Melodramatic Milgram","4.0.5","0","s","s","NA","NA","s","NA","382.0","169423","NA","NA","382","NA","2","legacy","1024","2","48000","-16","experiment","SSHSS","1","odd","171286","NA","NA","207132","208668","207633","209152","208667","208770","1858","NA","1862","NA","NA","208770","NA","Flanker Task","20","9743.0","24","1024"
"84","84","406","406","#000000","legacy","legacy","legacy","Congruent","1","undefined","1","s","0","0","0","24","24","24","24","24","24","0","24","0","0","0","24","0","Sun Sep 24 19:26:35 2023","1500","The main experiment item","False","Edward Banda Flanker Task.osexp","C:\Users\Edward Banda\Desktop\Avd Quant Methods 5316","False","mono","False","18","no","white","no","yes","768","legacy","24","24","C:/Users/Edward Banda/Desktop/EB-subject-3.csv","legacy","Melodramatic Milgram","4.0.5","0","s","s","NA","NA","s","NA","408.0","169423","NA","NA","408","NA","2","legacy","1024","2","48000","-16","experiment","SSSSS","1","odd","171286","NA","NA","209165","210700","209666","211210","210697","210801","1858","NA","1862","NA","NA","210801","NA","Flanker Task","21","10151.0","25","1024"
"84","84","407","407","#000000","legacy","legacy","legacy","Incongruent","1","undefined","1","s","0","0","0","25","25","25","25","25","25","0","25","0","0","0","25","0","Sun Sep 24 19:26:35 2023","1500","The main experiment item","False","Edward Banda Flanker Task.osexp","C:\Users\Edward Banda\Desktop\Avd Quant Methods 5316","False","mono","False","18","no","white","no","yes","768","legacy","25","25","C:/Users/Edward Banda/Desktop/EB-subject-3.csv","legacy","Melodramatic Milgram","4.0.5","0","s","s","NA","NA","s","NA","455.0","169423","NA","NA","455","NA","2","legacy","1024","2","48000","-16","experiment","HHSHH","1","odd","171286","NA","NA","209165","212255","211222","212812","212253","212356","1858","NA","1862","NA","NA","212357","NA","Flanker Task","22","10606.0","26","1024"
"85","85","410","410","#000000","legacy","legacy","legacy","Incongruent","1","undefined","1","h","0","0","0","26","26","26","26","26","26","0","26","0","0","0","26","0","Sun Sep 24 19:26:35 2023","1500","The main experiment item","False","Edward Banda Flanker Task.osexp","C:\Users\Edward Banda\Desktop\Avd Quant Methods 5316","False","mono","False","18","no","white","no","yes","768","legacy","26","26","C:/Users/Edward Banda/Desktop/EB-subject-3.csv","legacy","Melodramatic Milgram","4.0.5","0","h","s","NA","NA","h","NA","466.0","169423","NA","NA","466","NA","2","legacy","1024","2","48000","-16","experiment","SSHSS","1","odd","171286","NA","NA","209165","213868","212824","214436","213867","213969","1858","NA","1862","NA","NA","213969","NA","Flanker Task","23","11072.0","27","1024"
"85","85","406","406","#000000","legacy","legacy","legacy","Congruent","1","undefined","1","s","0","0","0","27","27","27","27","27","27","0","27","0","0","0","27","0","Sun Sep 24 19:26:35 2023","1500","The main experiment item","False","Edward Banda Flanker Task.osexp","C:\Users\Edward Banda\Desktop\Avd Quant Methods 5316","False","mono","False","18","no","white","no","yes","768","legacy","27","27","C:/Users/Edward Banda/Desktop/EB-subject-3.csv","legacy","Melodramatic Milgram","4.0.5","0","s","s","NA","NA","s","NA","303.0","169423","NA","NA","303","NA","2","legacy","1024","2","48000","-16","experiment","SSSSS","1","odd","171286","NA","NA","209165","215485","214448","215890","215483","215586","1858","NA","1862","NA","NA","215586","NA","Flanker Task","24","11375.0","28","1024"
"86","86","406","406","#000000","legacy","legacy","legacy","Congruent","1","undefined","1","h","0","0","0","28","28","28","28","28","28","0","28","0","0","0","28","0","Sun Sep 24 19:26:35 2023","1500","The main experiment item","False","Edward Banda Flanker Task.osexp","C:\Users\Edward Banda\Desktop\Avd Quant Methods 5316","False","mono","False","18","no","white","no","yes","768","legacy","28","28","C:/Users/Edward Banda/Desktop/EB-subject-3.csv","legacy","Melodramatic Milgram","4.0.5","0","h","s","NA","NA","h","NA","425.0","169423","NA","NA","425","NA","2","legacy","1024","2","48000","-16","experiment","HHHHH","1","odd","171286","NA","NA","209165","216940","215902","217467","216938","217041","1858","NA","1862","NA","NA","217041","NA","Flanker Task","25","11800.0","29","1024"
"86","86","404","404","#000000","legacy","legacy","legacy","Incongruent","1","undefined","1","h","0","0","0","29","29","29","29","29","29","0","29","0","0","0","29","0","Sun Sep 24 19:26:35 2023","1500","The main experiment item","False","Edward Banda Flanker Task.osexp","C:\Users\Edward Banda\Desktop\Avd Quant Methods 5316","False","mono","False","18","no","white","no","yes","768","legacy","29","29","C:/Users/Edward Banda/Desktop/EB-subject-3.csv","legacy","Melodramatic Milgram","4.0.5","0","h","s","NA","NA","h","NA","331.0","169423","NA","NA","331","NA","2","legacy","1024","2","48000","-16","experiment","SSHSS","1","odd","171286","NA","NA","209165","218517","217479","218950","218514","218618","1858","NA","1862","NA","NA","218618","NA","Flanker Task","26","12131.0","30","1024"
"87","87","407","407","#000000","legacy","legacy","legacy","Incongruent","1","undefined","1","h","0","0","0","30","30","30","30","30","30","0","30","0","0","0","30","0","Sun Sep 24 19:26:35 2023","1500","The main experiment item","False","Edward Banda Flanker Task.osexp","C:\Users\Edward Banda\Desktop\Avd Quant Methods 5316","False","mono","False","18","no","white","no","yes","768","legacy","30","30","C:/Users/Edward Banda/Desktop/EB-subject-3.csv","legacy","Melodramatic Milgram","4.0.5","0","h","s","NA","NA","h","NA","505.0","169423","NA","NA","505","NA","2","legacy","1024","2","48000","-16","experiment","SSHSS","1","odd","171286","NA","NA","209165","220005","218962","220613","220004","220106","1858","NA","1862","NA","NA","220107","NA","Flanker Task","27","12636.0","31","1024"
"87","87","406","406","#000000","legacy","legacy","legacy","Congruent","1","undefined","1","h","0","0","0","31","31","31","31","31","31","0","31","0","0","0","31","0","Sun Sep 24 19:26:35 2023","1500","The main experiment item","False","Edward Banda Flanker Task.osexp","C:\Users\Edward Banda\Desktop\Avd Quant Methods 5316","False","mono","False","18","no","white","no","yes","768","legacy","31","31","C:/Users/Edward Banda/Desktop/EB-subject-3.csv","legacy","Melodramatic Milgram","4.0.5","0","h","s","NA","NA","h","NA","385.0","169423","NA","NA","385","NA","2","legacy","1024","2","48000","-16","experiment","HHHHH","1","odd","171286","NA","NA","209165","221659","220616","222146","221657","221760","1858","NA","1862","NA","NA","221760","NA","Flanker Task","28","13021.0","32","1024"
"87","87","409","409","#000000","legacy","legacy","legacy","Incongruent","1","undefined","1","h","0","0","0","32","32","32","32","32","32","0","32","0","0","0","32","0","Sun Sep 24 19:26:35 2023","1500","The main experiment item","False","Edward Banda Flanker Task.osexp","C:\Users\Edward Banda\Desktop\Avd Quant Methods 5316","False","mono","False","18","no","white","no","yes","768","legacy","32","32","C:/Users/Edward Banda/Desktop/EB-subject-3.csv","legacy","Melodramatic Milgram","4.0.5","0","h","s","NA","NA","h","NA","501.0","169423","NA","NA","501","NA","2","legacy","1024","2","48000","-16","experiment","SSHSS","1","odd","171286","NA","NA","209165","223196","222158","223799","223194","223297","1858","NA","1862","NA","NA","223297","NA","Flanker Task","29","13522.0","33","1024"
"88","88","407","407","#000000","legacy","legacy","legacy","Congruent","1","undefined","1","s","0","0","0","33","33","33","33","33","33","0","33","0","0","0","33","0","Sun Sep 24 19:26:35 2023","1500","The main experiment item","False","Edward Banda Flanker Task.osexp","C:\Users\Edward Banda\Desktop\Avd Quant Methods 5316","False","mono","False","18","no","white","no","yes","768","legacy","33","33","C:/Users/Edward Banda/Desktop/EB-subject-3.csv","legacy","Melodramatic Milgram","4.0.5","0","s","s","NA","NA","s","NA","348.0","169423","NA","NA","348","NA","2","legacy","1024","2","48000","-16","experiment","SSSSS","1","odd","171286","NA","NA","209165","224842","223811","225292","224840","224943","1858","NA","1862","NA","NA","224943","NA","Flanker Task","30","13870.0","34","1024"
"88","88","407","407","#000000","legacy","legacy","legacy","Congruent","1","undefined","1","s","0","0","0","34","34","34","34","34","34","0","34","0","0","0","34","0","Sun Sep 24 19:26:35 2023","1500","The main experiment item","False","Edward Banda Flanker Task.osexp","C:\Users\Edward Banda\Desktop\Avd Quant Methods 5316","False","mono","False","18","no","white","no","yes","768","legacy","34","34","C:/Users/Edward Banda/Desktop/EB-subject-3.csv","legacy","Melodramatic Milgram","4.0.5","0","s","s","NA","NA","s","NA","389.0","169423","NA","NA","389","NA","2","legacy","1024","2","48000","-16","experiment","SSSSS","1","odd","171286","NA","NA","209165","226334","225304","226825","226332","226435","1858","NA","1862","NA","NA","226435","NA","Flanker Task","31","14259.0","35","1024"
"88","88","408","408","#000000","legacy","legacy","legacy","Incongruent","1","undefined","1","s","0","0","0","35","35","35","35","35","35","0","35","0","0","0","35","0","Sun Sep 24 19:26:35 2023","1500","The main experiment item","False","Edward Banda Flanker Task.osexp","C:\Users\Edward Banda\Desktop\Avd Quant Methods 5316","False","mono","False","18","no","white","no","yes","768","legacy","35","35","C:/Users/Edward Banda/Desktop/EB-subject-3.csv","legacy","Melodramatic Milgram","4.0.5","0","s","s","NA","NA","s","NA","442.0","169423","NA","NA","442","NA","2","legacy","1024","2","48000","-16","experiment","HHSHH","1","odd","171286","NA","NA","209165","227884","226837","228428","227883","227985","1858","NA","1862","NA","NA","227985","NA","Flanker Task","32","14701.0","36","1024"
"89","89","406","406","#000000","legacy","legacy","legacy","Congruent","1","undefined","1","s","0","0","0","36","36","36","36","36","36","0","36","0","0","0","36","0","Sun Sep 24 19:26:35 2023","1500","The main experiment item","False","Edward Banda Flanker Task.osexp","C:\Users\Edward Banda\Desktop\Avd Quant Methods 5316","False","mono","False","18","no","white","no","yes","768","legacy","36","36","C:/Users/Edward Banda/Desktop/EB-subject-3.csv","legacy","Melodramatic Milgram","4.0.5","0","s","s","NA","NA","s","NA","339.0","169423","NA","NA","339","NA","2","legacy","1024","2","48000","-16","experiment","SSSSS","1","odd","171286","NA","NA","209165","229475","228440","229916","229474","229576","1858","NA","1862","NA","NA","229576","NA","Flanker Task","33","15040.0","37","1024"
"89","89","405","405","#000000","legacy","legacy","legacy","Congruent","1","undefined","1","h","0","0","0","37","37","37","37","37","37","0","37","0","0","0","37","0","Sun Sep 24 19:26:35 2023","1500","The main experiment item","False","Edward Banda Flanker Task.osexp","C:\Users\Edward Banda\Desktop\Avd Quant Methods 5316","False","mono","False","18","no","white","no","yes","768","legacy","37","37","C:/Users/Edward Banda/Desktop/EB-subject-3.csv","legacy","Melodramatic Milgram","4.0.5","0","h","s","NA","NA","h","NA","379.0","169423","NA","NA","379","NA","2","legacy","1024","2","48000","-16","experiment","HHHHH","1","odd","171286","NA","NA","209165","230968","229929","231449","230965","231069","1858","NA","1862","NA","NA","231069","NA","Flanker Task","34","15419.0","38","1024"
"87","87","403","403","#000000","legacy","legacy","legacy","Congruent","0","undefined","0","s","0","0","0","38","38","38","38","38","38","0","38","0","0","0","38","0","Sun Sep 24 19:26:35 2023","1500","The main experiment item","False","Edward Banda Flanker Task.osexp","C:\Users\Edward Banda\Desktop\Avd Quant Methods 5316","False","mono","False","18","no","white","no","yes","768","legacy","38","38","C:/Users/Edward Banda/Desktop/EB-subject-3.csv","legacy","Melodramatic Milgram","4.0.5","0","h","s","NA","NA","h","NA","330.0","169423","NA","NA","330","NA","2","legacy","1024","2","48000","-16","experiment","SSSSS","1","odd","171286","NA","NA","209165","232490","231451","232922","232488","232592","1858","NA","1862","NA","NA","232592","NA","Flanker Task","34","15749.0","39","1024"
"87","87","403","403","#000000","legacy","legacy","legacy","Congruent","1","undefined","1","h","0","0","0","39","39","39","39","39","39","0","39","0","0","0","39","0","Sun Sep 24 19:26:35 2023","1500","The main experiment item","False","Edward Banda Flanker Task.osexp","C:\Users\Edward Banda\Desktop\Avd Quant Methods 5316","False","mono","False","18","no","white","no","yes","768","legacy","39","39","C:/Users/Edward Banda/Desktop/EB-subject-3.csv","legacy","Melodramatic Milgram","4.0.5","0","h","s","NA","NA","h","NA","399.0","169423","NA","NA","399","NA","2","legacy","1024","2","48000","-16","experiment","HHHHH","1","odd","171286","NA","NA","232935","234467","233436","234968","234465","234568","1858","NA","1862","NA","NA","234568","NA","Flanker Task","35","16148.0","40","1024"
"85","85","402","402","#000000","legacy","legacy","legacy","Incongruent","0","undefined","0","h","0","0","0","40","40","40","40","40","40","0","40","0","0","0","40","0","Sun Sep 24 19:26:35 2023","1500","The main experiment item","False","Edward Banda Flanker Task.osexp","C:\Users\Edward Banda\Desktop\Avd Quant Methods 5316","False","mono","False","18","no","white","no","yes","768","legacy","40","40","C:/Users/Edward Banda/Desktop/EB-subject-3.csv","legacy","Melodramatic Milgram","4.0.5","0","s","s","NA","NA","s","NA","354.0","169423","NA","NA","354","NA","2","legacy","1024","2","48000","-16","experiment","SSHSS","1","odd","171286","NA","NA","232935","236011","234981","236467","236010","236112","1858","NA","1862","NA","NA","236113","NA","Flanker Task","35","16502.0","41","1024"
"85","85","404","404","#000000","legacy","legacy","legacy","Incongruent","1","undefined","1","s","0","0","0","41","41","41","41","41","41","0","41","0","0","0","41","0","Sun Sep 24 19:26:35 2023","1500","The main experiment item","False","Edward Banda Flanker Task.osexp","C:\Users\Edward Banda\Desktop\Avd Quant Methods 5316","False","mono","False","18","no","white","no","yes","768","legacy","41","41","C:/Users/Edward Banda/Desktop/EB-subject-3.csv","legacy","Melodramatic Milgram","4.0.5","0","s","s","NA","NA","s","NA","475.0","169423","NA","NA","475","NA","2","legacy","1024","2","48000","-16","experiment","HHSHH","1","odd","171286","NA","NA","236480","238013","236981","238590","238010","238114","1858","NA","1862","NA","NA","238114","NA","Flanker Task","36","16977.0","42","1024"
"86","86","404","404","#000000","legacy","legacy","legacy","Congruent","1","undefined","1","s","0","0","0","42","42","42","42","42","42","0","42","0","0","0","42","0","Sun Sep 24 19:26:35 2023","1500","The main experiment item","False","Edward Banda Flanker Task.osexp","C:\Users\Edward Banda\Desktop\Avd Quant Methods 5316","False","mono","False","18","no","white","no","yes","768","legacy","42","42","C:/Users/Edward Banda/Desktop/EB-subject-3.csv","legacy","Melodramatic Milgram","4.0.5","0","s","s","NA","NA","s","NA","399.0","169423","NA","NA","399","NA","2","legacy","1024","2","48000","-16","experiment","SSSSS","1","odd","171286","NA","NA","236480","239630","238593","240133","239629","239733","1858","NA","1862","NA","NA","239733","NA","Flanker Task","37","17376.0","43","1024"
"86","86","403","403","#000000","legacy","legacy","legacy","Congruent","1","undefined","1","s","0","0","0","43","43","43","43","43","43","0","43","0","0","0","43","0","Sun Sep 24 19:26:35 2023","1500","The main experiment item","False","Edward Banda Flanker Task.osexp","C:\Users\Edward Banda\Desktop\Avd Quant Methods 5316","False","mono","False","18","no","white","no","yes","768","legacy","43","43","C:/Users/Edward Banda/Desktop/EB-subject-3.csv","legacy","Melodramatic Milgram","4.0.5","0","s","s","NA","NA","s","NA","379.0","169423","NA","NA","379","NA","2","legacy","1024","2","48000","-16","experiment","SSSSS","1","odd","171286","NA","NA","236480","241186","240146","241666","241185","241287","1858","NA","1862","NA","NA","241287","NA","Flanker Task","38","17755.0","44","1024"
"86","86","403","403","#000000","legacy","legacy","legacy","Congruent","1","undefined","1","s","0","0","0","44","44","44","44","44","44","0","44","0","0","0","44","0","Sun Sep 24 19:26:35 2023","1500","The main experiment item","False","Edward Banda Flanker Task.osexp","C:\Users\Edward Banda\Desktop\Avd Quant Methods 5316","False","mono","False","18","no","white","no","yes","768","legacy","44","44","C:/Users/Edward Banda/Desktop/EB-subject-3.csv","legacy","Melodramatic Milgram","4.0.5","0","s","s","NA","NA","s","NA","399.0","169423","NA","NA","399","NA","2","legacy","1024","2","48000","-16","experiment","SSSSS","1","odd","171286","NA","NA","236480","242722","241678","243224","242721","242824","1858","NA","1862","NA","NA","242824","NA","Flanker Task","39","18154.0","45","1024"
"86","86","402","402","#000000","legacy","legacy","legacy","Congruent","1","undefined","1","h","0","0","0","45","45","45","45","45","45","0","45","0","0","0","45","0","Sun Sep 24 19:26:35 2023","1500","The main experiment item","False","Edward Banda Flanker Task.osexp","C:\Users\Edward Banda\Desktop\Avd Quant Methods 5316","False","mono","False","18","no","white","no","yes","768","legacy","45","45","C:/Users/Edward Banda/Desktop/EB-subject-3.csv","legacy","Melodramatic Milgram","4.0.5","0","h","s","NA","NA","h","NA","359.0","169423","NA","NA","359","NA","2","legacy","1024","2","48000","-16","experiment","HHHHH","1","odd","171286","NA","NA","236480","244271","243237","244733","244270","244372","1858","NA","1862","NA","NA","244373","NA","Flanker Task","40","18513.0","46","1024"
"85","85","400","400","#000000","legacy","legacy","legacy","Congruent","0","undefined","0","h","0","0","0","46","46","46","46","46","46","0","46","0","0","0","46","0","Sun Sep 24 19:26:35 2023","1500","The main experiment item","False","Edward Banda Flanker Task.osexp","C:\Users\Edward Banda\Desktop\Avd Quant Methods 5316","False","mono","False","18","no","white","no","yes","768","legacy","46","46","C:/Users/Edward Banda/Desktop/EB-subject-3.csv","legacy","Melodramatic Milgram","4.0.5","0","s","s","NA","NA","s","NA","333.0","169423","NA","NA","333","NA","2","legacy","1024","2","48000","-16","experiment","HHHHH","1","odd","171286","NA","NA","236480","245776","244745","246211","245774","245877","1858","NA","1862","NA","NA","245877","NA","Flanker Task","40","18846.0","47","1024"
"85","85","401","401","#000000","legacy","legacy","legacy","Congruent","1","undefined","1","s","0","0","0","47","47","47","47","47","47","0","47","0","0","0","47","0","Sun Sep 24 19:26:35 2023","1500","The main experiment item","False","Edward Banda Flanker Task.osexp","C:\Users\Edward Banda\Desktop\Avd Quant Methods 5316","False","mono","False","18","no","white","no","yes","768","legacy","47","47","C:/Users/Edward Banda/Desktop/EB-subject-3.csv","legacy","Melodramatic Milgram","4.0.5","0","s","s","NA","NA","s","NA","425.0","169423","NA","NA","425","NA","2","legacy","1024","2","48000","-16","experiment","SSSSS","1","odd","171286","NA","NA","246223","247762","246724","248289","247760","247863","1858","NA","1862","NA","NA","247863","NA","Flanker Task","41","19271.0","48","1024"
"83","83","400","400","#000000","legacy","legacy","legacy","Incongruent","0","undefined","0","s","0","0","0","48","48","48","48","48","48","0","48","0","0","0","48","0","Sun Sep 24 19:26:35 2023","1500","The main experiment item","False","Edward Banda Flanker Task.osexp","C:\Users\Edward Banda\Desktop\Avd Quant Methods 5316","False","mono","False","18","no","white","no","yes","768","legacy","48","48","C:/Users/Edward Banda/Desktop/EB-subject-3.csv","legacy","Melodramatic Milgram","4.0.5","0","h","s","NA","NA","h","NA","344.0","169423","NA","NA","344","NA","2","legacy","1024","2","48000","-16","experiment","HHSHH","1","odd","171286","NA","NA","246223","249337","248301","249782","249335","249438","1858","NA","1862","NA","NA","249438","NA","Flanker Task","41","19615.0","49","1024"
"82","82","400","400","#000000","legacy","legacy","legacy","Congruent","0","undefined","0","h","0","0","0","49","49","49","49","49","49","0","49","0","0","0","49","0","Sun Sep 24 19:26:35 2023","1500","The main experiment item","False","Edward Banda Flanker Task.osexp","C:\Users\Edward Banda\Desktop\Avd Quant Methods 5316","False","mono","False","18","no","white","no","yes","768","legacy","49","49","C:/Users/Edward Banda/Desktop/EB-subject-3.csv","legacy","Melodramatic Milgram","4.0.5","0","s","s","NA","NA","s","NA","391.0","169423","NA","NA","391","NA","2","legacy","1024","2","48000","-16","experiment","HHHHH","1","odd","171286","NA","NA","249794","251335","250295","251829","251333","251436","1858","NA","1862","NA","NA","251437","NA","Flanker Task","41","20006.0","50","1024"
"82","82","402","402","#000000","legacy","legacy","legacy","Incongruent","1","undefined","1","s","0","0","0","50","50","50","50","50","50","0","50","0","0","0","50","0","Sun Sep 24 19:26:35 2023","1500","The main experiment item","False","Edward Banda Flanker Task.osexp","C:\Users\Edward Banda\Desktop\Avd Quant Methods 5316","False","mono","False","18","no","white","no","yes","768","legacy","50","50","C:/Users/Edward Banda/Desktop/EB-subject-3.csv","legacy","Melodramatic Milgram","4.0.5","0","s","s","NA","NA","s","NA","518.0","169423","NA","NA","518","NA","2","legacy","1024","2","48000","-16","experiment","HHSHH","1","odd","171286","NA","NA","251841","253379","252342","254001","253378","253481","1858","NA","1862","NA","NA","253482","NA","Flanker Task","42","20524.0","51","1024"
"82","82","403","403","#000000","legacy","legacy","legacy","Incongruent","1","undefined","1","s","0","0","0","51","51","51","51","51","51","0","51","0","0","0","51","0","Sun Sep 24 19:26:35 2023","1500","The main experiment item","False","Edward Banda Flanker Task.osexp","C:\Users\Edward Banda\Desktop\Avd Quant Methods 5316","False","mono","False","18","no","white","no","yes","768","legacy","51","51","C:/Users/Edward Banda/Desktop/EB-subject-3.csv","legacy","Melodramatic Milgram","4.0.5","0","s","s","NA","NA","s","NA","462.0","169423","NA","NA","462","NA","2","legacy","1024","2","48000","-16","experiment","HHSHH","1","odd","171286","NA","NA","251841","255045","254013","255609","255043","255146","1858","NA","1862","NA","NA","255146","NA","Flanker Task","43","20986.0","52","1024"
"81","81","403","403","#000000","legacy","legacy","legacy","Incongruent","0","undefined","0","s","0","0","0","52","52","52","52","52","52","0","52","0","0","0","52","0","Sun Sep 24 19:26:35 2023","1500","The main experiment item","False","Edward Banda Flanker Task.osexp","C:\Users\Edward Banda\Desktop\Avd Quant Methods 5316","False","mono","False","18","no","white","no","yes","768","legacy","52","52","C:/Users/Edward Banda/Desktop/EB-subject-3.csv","legacy","Melodramatic Milgram","4.0.5","0","h","s","NA","NA","h","NA","421.0","169423","NA","NA","421","NA","2","legacy","1024","2","48000","-16","experiment","HHSHH","1","odd","171286","NA","NA","251841","256659","255621","257182","256658","256761","1858","NA","1862","NA","NA","256761","NA","Flanker Task","43","21407.0","53","1024"
"81","81","403","403","#000000","legacy","legacy","legacy","Congruent","1","undefined","1","s","0","0","0","53","53","53","53","53","53","0","53","0","0","0","53","0","Sun Sep 24 19:26:35 2023","1500","The main experiment item","False","Edward Banda Flanker Task.osexp","C:\Users\Edward Banda\Desktop\Avd Quant Methods 5316","False","mono","False","18","no","white","no","yes","768","legacy","53","53","C:/Users/Edward Banda/Desktop/EB-subject-3.csv","legacy","Melodramatic Milgram","4.0.5","0","s","s","NA","NA","s","NA","399.0","169423","NA","NA","399","NA","2","legacy","1024","2","48000","-16","experiment","SSSSS","1","odd","171286","NA","NA","257195","258735","257696","259235","258734","258836","1858","NA","1862","NA","NA","258836","NA","Flanker Task","44","21806.0","54","1024"
"81","81","404","404","#000000","legacy","legacy","legacy","Incongruent","1","undefined","1","h","0","0","0","54","54","54","54","54","54","0","54","0","0","0","54","0","Sun Sep 24 19:26:35 2023","1500","The main experiment item","False","Edward Banda Flanker Task.osexp","C:\Users\Edward Banda\Desktop\Avd Quant Methods 5316","False","mono","False","18","no","white","no","yes","768","legacy","54","54","C:/Users/Edward Banda/Desktop/EB-subject-3.csv","legacy","Melodramatic Milgram","4.0.5","0","h","s","NA","NA","h","NA","424.0","169423","NA","NA","424","NA","2","legacy","1024","2","48000","-16","experiment","SSHSS","1","odd","171286","NA","NA","257195","260292","259247","260818","260290","260393","1858","NA","1862","NA","NA","260393","NA","Flanker Task","45","22230.0","55","1024"
"82","82","403","403","#000000","legacy","legacy","legacy","Incongruent","1","undefined","1","h","0","0","0","55","55","55","55","55","55","0","55","0","0","0","55","0","Sun Sep 24 19:26:35 2023","1500","The main experiment item","False","Edward Banda Flanker Task.osexp","C:\Users\Edward Banda\Desktop\Avd Quant Methods 5316","False","mono","False","18","no","white","no","yes","768","legacy","55","55","C:/Users/Edward Banda/Desktop/EB-subject-3.csv","legacy","Melodramatic Milgram","4.0.5","0","h","s","NA","NA","h","NA","384.0","169423","NA","NA","384","NA","2","legacy","1024","2","48000","-16","experiment","SSHSS","1","odd","171286","NA","NA","257195","261865","260830","262351","261863","261966","1858","NA","1862","NA","NA","261966","NA","Flanker Task","46","22614.0","56","1024"
"82","82","403","403","#000000","legacy","legacy","legacy","Congruent","1","undefined","1","h","0","0","0","56","56","56","56","56","56","0","56","0","0","0","56","0","Sun Sep 24 19:26:35 2023","1500","The main experiment item","False","Edward Banda Flanker Task.osexp","C:\Users\Edward Banda\Desktop\Avd Quant Methods 5316","False","mono","False","18","no","white","no","yes","768","legacy","56","56","C:/Users/Edward Banda/Desktop/EB-subject-3.csv","legacy","Melodramatic Milgram","4.0.5","0","h","s","NA","NA","h","NA","380.0","169423","NA","NA","380","NA","2","legacy","1024","2","48000","-16","experiment","HHHHH","1","odd","171286","NA","NA","257195","263397","262363","263879","263395","263498","1858","NA","1862","NA","NA","263498","NA","Flanker Task","47","22994.0","57","1024"
"81","81","404","404","#000000","legacy","legacy","legacy","Incongruent","0","undefined","0","s","0","0","0","57","57","57","57","57","57","0","57","0","0","0","57","0","Sun Sep 24 19:26:35 2023","1500","The main experiment item","False","Edward Banda Flanker Task.osexp","C:\Users\Edward Banda\Desktop\Avd Quant Methods 5316","False","mono","False","18","no","white","no","yes","768","legacy","57","57","C:/Users/Edward Banda/Desktop/EB-subject-3.csv","legacy","Melodramatic Milgram","4.0.5","0","h","s","NA","NA","h","NA","440.0","169423","NA","NA","440","NA","2","legacy","1024","2","48000","-16","experiment","HHSHH","1","odd","171286","NA","NA","257195","264928","263891","265469","264927","265029","1858","NA","1862","NA","NA","265029","NA","Flanker Task","47","23434.0","58","1024"
"81","81","404","404","#000000","legacy","legacy","legacy","Incongruent","1","undefined","1","h","0","0","0","58","58","58","58","58","58","0","58","0","0","0","58","0","Sun Sep 24 19:26:35 2023","1500","The main experiment item","False","Edward Banda Flanker Task.osexp","C:\Users\Edward Banda\Desktop\Avd Quant Methods 5316","False","mono","False","18","no","white","no","yes","768","legacy","58","58","C:/Users/Edward Banda/Desktop/EB-subject-3.csv","legacy","Melodramatic Milgram","4.0.5","0","h","s","NA","NA","h","NA","433.0","169423","NA","NA","433","NA","2","legacy","1024","2","48000","-16","experiment","SSHSS","1","odd","171286","NA","NA","265481","267015","265982","267550","267012","267116","1858","NA","1862","NA","NA","267116","NA","Flanker Task","48","23867.0","59","1024"
"80","80","404","404","#000000","legacy","legacy","legacy","Incongruent","0","undefined","0","s","0","0","0","59","59","59","59","59","59","0","59","0","0","0","59","0","Sun Sep 24 19:26:35 2023","1500","The main experiment item","False","Edward Banda Flanker Task.osexp","C:\Users\Edward Banda\Desktop\Avd Quant Methods 5316","False","mono","False","18","no","white","no","yes","768","legacy","59","59","C:/Users/Edward Banda/Desktop/EB-subject-3.csv","legacy","Melodramatic Milgram","4.0.5","0","h","s","NA","NA","h","NA","386.0","169423","NA","NA","386","NA","2","legacy","1024","2","48000","-16","experiment","HHSHH","1","odd","171286","NA","NA","265481","268599","267562","269087","268598","268701","1858","NA","1862","NA","NA","268701","NA","Flanker Task","48","24253.0","60","1024"
"80","80","404","404","#000000","legacy","legacy","legacy","Congruent","1","undefined","1","s","0","0","0","60","60","60","60","60","60","0","60","0","0","0","60","0","Sun Sep 24 19:26:35 2023","1500","The main experiment item","False","Edward Banda Flanker Task.osexp","C:\Users\Edward Banda\Desktop\Avd Quant Methods 5316","False","mono","False","18","no","white","no","yes","768","legacy","60","60","C:/Users/Edward Banda/Desktop/EB-subject-3.csv","legacy","Melodramatic Milgram","4.0.5","0","s","s","NA","NA","s","NA","414.0","169423","NA","NA","414","NA","2","legacy","1024","2","48000","-16","experiment","SSSSS","1","odd","171286","NA","NA","269099","270639","269600","271156","270637","270740","1858","NA","1862","NA","NA","270741","NA","Flanker Task","49","24667.0","61","1024"
"80","80","404","404","#000000","legacy","legacy","legacy","Incongruent","1","undefined","1","s","0","0","0","61","61","61","61","61","61","0","61","0","0","0","61","0","Sun Sep 24 19:26:35 2023","1500","The main experiment item","False","Edward Banda Flanker Task.osexp","C:\Users\Edward Banda\Desktop\Avd Quant Methods 5316","False","mono","False","18","no","white","no","yes","768","legacy","61","61","C:/Users/Edward Banda/Desktop/EB-subject-3.csv","legacy","Melodramatic Milgram","4.0.5","0","s","s","NA","NA","s","NA","440.0","169423","NA","NA","440","NA","2","legacy","1024","2","48000","-16","experiment","HHSHH","1","odd","171286","NA","NA","269099","272204","271170","272748","272203","272306","1858","NA","1862","NA","NA","272307","NA","Flanker Task","50","25107.0","62","1024"
"79","79","406","406","#000000","legacy","legacy","legacy","Incongruent","0","undefined","0","h","0","0","0","62","62","62","62","62","62","0","62","0","0","0","62","0","Sun Sep 24 19:26:35 2023","1500","The main experiment item","False","Edward Banda Flanker Task.osexp","C:\Users\Edward Banda\Desktop\Avd Quant Methods 5316","False","mono","False","18","no","white","no","yes","768","legacy","62","62","C:/Users/Edward Banda/Desktop/EB-subject-3.csv","legacy","Melodramatic Milgram","4.0.5","0","s","s","NA","NA","s","NA","476.0","169423","NA","NA","476","NA","2","legacy","1024","2","48000","-16","experiment","SSHSS","1","odd","171286","NA","NA","269099","273803","272761","274381","273802","273904","1858","NA","1862","NA","NA","273904","NA","Flanker Task","50","25583.0","63","1024"
"79","79","407","407","#000000","legacy","legacy","legacy","Congruent","1","undefined","1","h","0","0","0","63","63","63","63","63","63","0","63","0","0","0","63","0","Sun Sep 24 19:26:35 2023","1500","The main experiment item","False","Edward Banda Flanker Task.osexp","C:\Users\Edward Banda\Desktop\Avd Quant Methods 5316","False","mono","False","18","no","white","no","yes","768","legacy","63","63","C:/Users/Edward Banda/Desktop/EB-subject-3.csv","legacy","Melodramatic Milgram","4.0.5","0","h","s","NA","NA","h","NA","489.0","169423","NA","NA","489","NA","2","legacy","1024","2","48000","-16","experiment","HHHHH","1","odd","171286","NA","NA","274393","275928","274894","276518","275927","276029","1858","NA","1862","NA","NA","276029","NA","Flanker Task","51","26072.0","64","1024"
"80","80","408","408","#000000","legacy","legacy","legacy","Incongruent","1","undefined","1","h","0","0","0","64","64","64","64","64","64","0","64","0","0","0","64","0","Sun Sep 24 19:26:35 2023","1500","The main experiment item","False","Edward Banda Flanker Task.osexp","C:\Users\Edward Banda\Desktop\Avd Quant Methods 5316","False","mono","False","18","no","white","no","yes","768","legacy","64","64","C:/Users/Edward Banda/Desktop/EB-subject-3.csv","legacy","Melodramatic Milgram","4.0.5","0","h","s","NA","NA","h","NA","477.0","169423","NA","NA","477","NA","2","legacy","1024","2","48000","-16","experiment","SSHSS","1","odd","171286","NA","NA","274393","277562","276531","278141","277560","277663","1858","NA","1862","NA","NA","277663","NA","Flanker Task","52","26549.0","65","1024"
"80","80","412","412","#000000","legacy","legacy","legacy","Congruent","1","undefined","1","h","0","0","0","65","65","65","65","65","65","0","65","0","0","0","65","0","Sun Sep 24 19:26:35 2023","1500","The main experiment item","False","Edward Banda Flanker Task.osexp","C:\Users\Edward Banda\Desktop\Avd Quant Methods 5316","False","mono","False","18","no","white","no","yes","768","legacy","65","65","C:/Users/Edward Banda/Desktop/EB-subject-3.csv","legacy","Melodramatic Milgram","4.0.5","0","h","s","NA","NA","h","NA","680.0","169423","NA","NA","680","NA","2","legacy","1024","2","48000","-16","experiment","HHHHH","1","odd","171286","NA","NA","274393","279190","278153","279974","279187","279292","1858","NA","1862","NA","NA","279293","NA","Flanker Task","53","27229.0","66","1024"
"80","80","413","413","#000000","legacy","legacy","legacy","Congruent","1","undefined","1","h","0","0","0","66","66","66","66","66","66","0","66","0","0","0","66","0","Sun Sep 24 19:26:35 2023","1500","The main experiment item","False","Edward Banda Flanker Task.osexp","C:\Users\Edward Banda\Desktop\Avd Quant Methods 5316","False","mono","False","18","no","white","no","yes","768","legacy","66","66","C:/Users/Edward Banda/Desktop/EB-subject-3.csv","legacy","Melodramatic Milgram","4.0.5","0","h","s","NA","NA","h","NA","467.0","169423","NA","NA","467","NA","2","legacy","1024","2","48000","-16","experiment","HHHHH","1","odd","171286","NA","NA","274393","281018","279986","281587","281017","281119","1858","NA","1862","NA","NA","281119","NA","Flanker Task","54","27696.0","67","1024"
"80","80","413","413","#000000","legacy","legacy","legacy","Incongruent","1","undefined","1","s","0","0","0","67","67","67","67","67","67","0","67","0","0","0","67","0","Sun Sep 24 19:26:35 2023","1500","The main experiment item","False","Edward Banda Flanker Task.osexp","C:\Users\Edward Banda\Desktop\Avd Quant Methods 5316","False","mono","False","18","no","white","no","yes","768","legacy","67","67","C:/Users/Edward Banda/Desktop/EB-subject-3.csv","legacy","Melodramatic Milgram","4.0.5","0","s","s","NA","NA","s","NA","452.0","169423","NA","NA","452","NA","2","legacy","1024","2","48000","-16","experiment","HHSHH","1","odd","171286","NA","NA","274393","282635","281599","283190","282633","282736","1858","NA","1862","NA","NA","282737","NA","Flanker Task","55","28148.0","68","1024"
"81","81","414","414","#000000","legacy","legacy","legacy","Congruent","1","undefined","1","h","0","0","0","68","68","68","68","68","68","0","68","0","0","0","68","0","Sun Sep 24 19:26:35 2023","1500","The main experiment item","False","Edward Banda Flanker Task.osexp","C:\Users\Edward Banda\Desktop\Avd Quant Methods 5316","False","mono","False","18","no","white","no","yes","768","legacy","68","68","C:/Users/Edward Banda/Desktop/EB-subject-3.csv","legacy","Melodramatic Milgram","4.0.5","0","h","s","NA","NA","h","NA","420.0","169423","NA","NA","420","NA","2","legacy","1024","2","48000","-16","experiment","HHHHH","1","odd","171286","NA","NA","274393","284235","283203","284758","284234","284337","1858","NA","1862","NA","NA","284337","NA","Flanker Task","56","28568.0","69","1024"
"81","81","414","414","#000000","legacy","legacy","legacy","Incongruent","1","undefined","1","h","0","0","0","69","69","69","69","69","69","0","69","0","0","0","69","0","Sun Sep 24 19:26:35 2023","1500","The main experiment item","False","Edward Banda Flanker Task.osexp","C:\Users\Edward Banda\Desktop\Avd Quant Methods 5316","False","mono","False","18","no","white","no","yes","768","legacy","69","69","C:/Users/Edward Banda/Desktop/EB-subject-3.csv","legacy","Melodramatic Milgram","4.0.5","0","h","s","NA","NA","h","NA","455.0","169423","NA","NA","455","NA","2","legacy","1024","2","48000","-16","experiment","SSHSS","1","odd","171286","NA","NA","274393","285799","284760","286356","285797","285900","1858","NA","1862","NA","NA","285900","NA","Flanker Task","57","29023.0","70","1024"
"81","81","415","415","#000000","legacy","legacy","legacy","Incongruent","1","undefined","1","h","0","0","0","70","70","70","70","70","70","0","70","0","0","0","70","0","Sun Sep 24 19:26:35 2023","1500","The main experiment item","False","Edward Banda Flanker Task.osexp","C:\Users\Edward Banda\Desktop\Avd Quant Methods 5316","False","mono","False","18","no","white","no","yes","768","legacy","70","70","C:/Users/Edward Banda/Desktop/EB-subject-3.csv","legacy","Melodramatic Milgram","4.0.5","0","h","s","NA","NA","h","NA","467.0","169423","NA","NA","467","NA","2","legacy","1024","2","48000","-16","experiment","SSHSS","1","odd","171286","NA","NA","274393","287410","286368","287979","287407","287511","1858","NA","1862","NA","NA","287511","NA","Flanker Task","58","29490.0","71","1024"
"81","81","415","415","#000000","legacy","legacy","legacy","Congruent","1","undefined","1","h","0","0","0","71","71","71","71","71","71","0","71","0","0","0","71","0","Sun Sep 24 19:26:35 2023","1500","The main experiment item","False","Edward Banda Flanker Task.osexp","C:\Users\Edward Banda\Desktop\Avd Quant Methods 5316","False","mono","False","18","no","white","no","yes","768","legacy","71","71","C:/Users/Edward Banda/Desktop/EB-subject-3.csv","legacy","Melodramatic Milgram","4.0.5","0","h","s","NA","NA","h","NA","417.0","169423","NA","NA","417","NA","2","legacy","1024","2","48000","-16","experiment","HHHHH","1","odd","171286","NA","NA","274393","289039","287991","289557","289037","289140","1858","NA","1862","NA","NA","289140","NA","Flanker Task","59","29907.0","72","1024"
"82","82","415","415","#000000","legacy","legacy","legacy","Congruent","1","undefined","1","h","0","0","0","72","72","72","72","72","72","0","72","0","0","0","72","0","Sun Sep 24 19:26:35 2023","1500","The main experiment item","False","Edward Banda Flanker Task.osexp","C:\Users\Edward Banda\Desktop\Avd Quant Methods 5316","False","mono","False","18","no","white","no","yes","768","legacy","72","72","C:/Users/Edward Banda/Desktop/EB-subject-3.csv","legacy","Melodramatic Milgram","4.0.5","0","h","s","NA","NA","h","NA","408.0","169423","NA","NA","408","NA","2","legacy","1024","2","48000","-16","experiment","HHHHH","1","odd","171286","NA","NA","274393","290605","289570","291115","290602","290706","1858","NA","1862","NA","NA","290706","NA","Flanker Task","60","30315.0","73","1024"
"81","81","415","415","#000000","legacy","legacy","legacy","Incongruent","0","undefined","0","h","0","0","0","73","73","73","73","73","73","0","73","0","0","0","73","0","Sun Sep 24 19:26:35 2023","1500","The main experiment item","False","Edward Banda Flanker Task.osexp","C:\Users\Edward Banda\Desktop\Avd Quant Methods 5316","False","mono","False","18","no","white","no","yes","768","legacy","73","73","C:/Users/Edward Banda/Desktop/EB-subject-3.csv","legacy","Melodramatic Milgram","4.0.5","0","s","s","NA","NA","s","NA","442.0","169423","NA","NA","442","NA","2","legacy","1024","2","48000","-16","experiment","SSHSS","1","odd","171286","NA","NA","274393","292163","291127","292708","292162","292264","1858","NA","1862","NA","NA","292265","NA","Flanker Task","60","30757.0","74","1024"
"80","80","416","416","#000000","legacy","legacy","legacy","Incongruent","0","undefined","0","s","0","0","0","74","74","74","74","74","74","0","74","0","0","0","74","0","Sun Sep 24 19:26:35 2023","1500","The main experiment item","False","Edward Banda Flanker Task.osexp","C:\Users\Edward Banda\Desktop\Avd Quant Methods 5316","False","mono","False","18","no","white","no","yes","768","legacy","74","74","C:/Users/Edward Banda/Desktop/EB-subject-3.csv","legacy","Melodramatic Milgram","4.0.5","0","h","s","NA","NA","h","NA","502.0","169423","NA","NA","502","NA","2","legacy","1024","2","48000","-16","experiment","HHSHH","1","odd","171286","NA","NA","292720","294251","293221","294855","294250","294352","1858","NA","1862","NA","NA","294352","NA","Flanker Task","60","31259.0","75","1024"
"80","80","417","417","#000000","legacy","legacy","legacy","Incongruent","1","undefined","1","s","0","0","0","75","75","75","75","75","75","0","75","0","0","0","75","0","Sun Sep 24 19:26:35 2023","1500","The main experiment item","False","Edward Banda Flanker Task.osexp","C:\Users\Edward Banda\Desktop\Avd Quant Methods 5316","False","mono","False","18","no","white","no","yes","768","legacy","75","75","C:/Users/Edward Banda/Desktop/EB-subject-3.csv","legacy","Melodramatic Milgram","4.0.5","0","s","s","NA","NA","s","NA","498.0","169423","NA","NA","498","NA","2","legacy","1024","2","48000","-16","experiment","HHSHH","1","odd","171286","NA","NA","294867","296406","295368","297007","296404","296508","1858","NA","1862","NA","NA","296508","NA","Flanker Task","61","31757.0","76","1024"
"80","80","418","418","#000000","legacy","legacy","legacy","Incongruent","1","undefined","1","s","0","0","0","76","76","76","76","76","76","0","76","0","0","0","76","0","Sun Sep 24 19:26:35 2023","1500","The main experiment item","False","Edward Banda Flanker Task.osexp","C:\Users\Edward Banda\Desktop\Avd Quant Methods 5316","False","mono","False","18","no","white","no","yes","768","legacy","76","76","C:/Users/Edward Banda/Desktop/EB-subject-3.csv","legacy","Melodramatic Milgram","4.0.5","0","s","s","NA","NA","s","NA","458.0","169423","NA","NA","458","NA","2","legacy","1024","2","48000","-16","experiment","HHSHH","1","odd","171286","NA","NA","294867","298060","297020","298620","298059","298161","1858","NA","1862","NA","NA","298161","NA","Flanker Task","62","32215.0","77","1024"
"80","80","420","420","#000000","legacy","legacy","legacy","Incongruent","1","undefined","1","h","0","0","0","77","77","77","77","77","77","0","77","0","0","0","77","0","Sun Sep 24 19:26:35 2023","1500","The main experiment item","False","Edward Banda Flanker Task.osexp","C:\Users\Edward Banda\Desktop\Avd Quant Methods 5316","False","mono","False","18","no","white","no","yes","768","legacy","77","77","C:/Users/Edward Banda/Desktop/EB-subject-3.csv","legacy","Melodramatic Milgram","4.0.5","0","h","s","NA","NA","h","NA","622.0","169423","NA","NA","622","NA","2","legacy","1024","2","48000","-16","experiment","SSHSS","1","odd","171286","NA","NA","294867","299669","298633","300393","299666","299770","1858","NA","1862","NA","NA","299770","NA","Flanker Task","63","32837.0","78","1024"
"81","81","421","421","#000000","legacy","legacy","legacy","Congruent","1","undefined","1","s","0","0","0","78","78","78","78","78","78","0","78","0","0","0","78","0","Sun Sep 24 19:26:35 2023","1500","The main experiment item","False","Edward Banda Flanker Task.osexp","C:\Users\Edward Banda\Desktop\Avd Quant Methods 5316","False","mono","False","18","no","white","no","yes","768","legacy","78","78","C:/Users/Edward Banda/Desktop/EB-subject-3.csv","legacy","Melodramatic Milgram","4.0.5","0","s","s","NA","NA","s","NA","428.0","169423","NA","NA","428","NA","2","legacy","1024","2","48000","-16","experiment","SSSSS","1","odd","171286","NA","NA","294867","301446","300407","301977","301444","301548","1858","NA","1862","NA","NA","301548","NA","Flanker Task","64","33265.0","79","1024"
"81","81","421","421","#000000","legacy","legacy","legacy","Congruent","1","undefined","1","s","0","0","0","79","79","79","79","79","79","0","79","0","0","0","79","0","Sun Sep 24 19:26:35 2023","1500","The main experiment item","False","Edward Banda Flanker Task.osexp","C:\Users\Edward Banda\Desktop\Avd Quant Methods 5316","False","mono","False","18","no","white","no","yes","768","legacy","79","79","C:/Users/Edward Banda/Desktop/EB-subject-3.csv","legacy","Melodramatic Milgram","4.0.5","0","s","s","NA","NA","s","NA","417.0","169423","NA","NA","417","NA","2","legacy","1024","2","48000","-16","experiment","SSSSS","1","odd","171286","NA","NA","294867","303025","301989","303544","303023","303126","1858","NA","1862","NA","NA","303126","NA","Flanker Task","65","33682.0","80","1024"
"81","81","424","424","#000000","legacy","legacy","legacy","Incongruent","1","undefined","1","s","0","0","0","80","80","80","80","80","80","0","80","0","0","0","80","0","Sun Sep 24 19:26:35 2023","600","The main experiment item","False","Edward Banda Flanker Task.osexp","C:\Users\Edward Banda\Desktop\Avd Quant Methods 5316","False","mono","False","18","no","white","no","yes","768","legacy","0","79","C:/Users/Edward Banda/Desktop/EB-subject-3.csv","legacy","Melodramatic Milgram","4.0.5","0","s","s","return","NA","s","NA","717.0","169423","16938","NA","717","NA","2","legacy","1024","2","48000","-16","experiment","HHSHH","1","odd","171286","321499","NA","294867","321542","303557","322362","321540","321643","1858","NA","1862","304559","NA","321644","NA","Flanker Task","66","34399.0","81","1024"
"81","81","424","424","#000000","legacy","legacy","legacy","Congruent","1","undefined","1","h","0","0","0","81","81","81","81","81","81","0","81","0","0","0","81","0","Sun Sep 24 19:26:35 2023","600","The main experiment item","False","Edward Banda Flanker Task.osexp","C:\Users\Edward Banda\Desktop\Avd Quant Methods 5316","False","mono","False","18","no","white","no","yes","768","legacy","1","79","C:/Users/Edward Banda/Desktop/EB-subject-3.csv","legacy","Melodramatic Milgram","4.0.5","0","h","s","return","NA","h","NA","409.0","169423","16938","NA","409","NA","2","legacy","1024","2","48000","-16","experiment","HHHHH","1","odd","171286","321499","NA","294867","323913","322875","324424","323911","324014","1858","322374","1862","304559","NA","324014","NA","Flanker Task","67","34808.0","82","1024"
"80","80","424","424","#000000","legacy","legacy","legacy","Incongruent","0","undefined","0","h","0","0","0","82","82","82","82","82","82","0","82","0","0","0","82","0","Sun Sep 24 19:26:35 2023","600","The main experiment item","False","Edward Banda Flanker Task.osexp","C:\Users\Edward Banda\Desktop\Avd Quant Methods 5316","False","mono","False","18","no","white","no","yes","768","legacy","2","79","C:/Users/Edward Banda/Desktop/EB-subject-3.csv","legacy","Melodramatic Milgram","4.0.5","0","s","s","return","NA","s","NA","416.0","169423","16938","NA","416","NA","2","legacy","1024","2","48000","-16","experiment","SSHSS","1","odd","171286","321499","NA","294867","325474","324437","325992","325472","325575","1858","322374","1862","304559","NA","325576","NA","Flanker Task","67","35224.0","83","1024"
"80","80","424","424","#000000","legacy","legacy","legacy","Congruent","1","undefined","1","h","0","0","0","83","83","83","83","83","83","0","83","0","0","0","83","0","Sun Sep 24 19:26:35 2023","600","The main experiment item","False","Edward Banda Flanker Task.osexp","C:\Users\Edward Banda\Desktop\Avd Quant Methods 5316","False","mono","False","18","no","white","no","yes","768","legacy","3","79","C:/Users/Edward Banda/Desktop/EB-subject-3.csv","legacy","Melodramatic Milgram","4.0.5","0","h","s","return","NA","h","NA","411.0","169423","16938","NA","411","NA","2","legacy","1024","2","48000","-16","experiment","HHHHH","1","odd","171286","321499","NA","326005","327532","326506","328045","327530","327633","1858","322374","1862","304559","NA","327633","NA","Flanker Task","68","35635.0","84","1024"
"81","81","424","424","#000000","legacy","legacy","legacy","Congruent","1","undefined","1","s","0","0","0","84","84","84","84","84","84","0","84","0","0","0","84","0","Sun Sep 24 19:26:35 2023","600","The main experiment item","False","Edward Banda Flanker Task.osexp","C:\Users\Edward Banda\Desktop\Avd Quant Methods 5316","False","mono","False","18","no","white","no","yes","768","legacy","4","79","C:/Users/Edward Banda/Desktop/EB-subject-3.csv","legacy","Melodramatic Milgram","4.0.5","0","s","s","return","NA","s","NA","454.0","169423","16938","NA","454","NA","2","legacy","1024","2","48000","-16","experiment","SSSSS","1","odd","171286","321499","NA","326005","329091","328058","329647","329088","329192","1858","322374","1862","304559","NA","329193","NA","Flanker Task","69","36089.0","85","1024"
"80","80","424","424","#000000","legacy","legacy","legacy","Incongruent","0","undefined","0","s","0","0","0","85","85","85","85","85","85","0","85","0","0","0","85","0","Sun Sep 24 19:26:35 2023","600","The main experiment item","False","Edward Banda Flanker Task.osexp","C:\Users\Edward Banda\Desktop\Avd Quant Methods 5316","False","mono","False","18","no","white","no","yes","768","legacy","5","79","C:/Users/Edward Banda/Desktop/EB-subject-3.csv","legacy","Melodramatic Milgram","4.0.5","0","h","s","return","NA","h","NA","447.0","169423","16938","NA","447","NA","2","legacy","1024","2","48000","-16","experiment","HHSHH","1","odd","171286","321499","NA","326005","330691","329659","331241","330688","330793","1858","322374","1862","304559","NA","330793","NA","Flanker Task","69","36536.0","86","1024"
"80","80","424","424","#000000","legacy","legacy","legacy","Congruent","1","undefined","1","s","0","0","0","86","86","86","86","86","86","0","86","0","0","0","86","0","Sun Sep 24 19:26:35 2023","600","The main experiment item","False","Edward Banda Flanker Task.osexp","C:\Users\Edward Banda\Desktop\Avd Quant Methods 5316","False","mono","False","18","no","white","no","yes","768","legacy","6","79","C:/Users/Edward Banda/Desktop/EB-subject-3.csv","legacy","Melodramatic Milgram","4.0.5","0","s","s","return","NA","s","NA","358.0","169423","16938","NA","358","NA","2","legacy","1024","2","48000","-16","experiment","SSSSS","1","odd","171286","321499","NA","331253","332793","331754","333253","332791","332894","1858","322374","1862","304559","NA","332894","NA","Flanker Task","70","36894.0","87","1024"
"80","80","424","424","#000000","legacy","legacy","legacy","Congruent","1","undefined","1","h","0","0","0","87","87","87","87","87","87","0","87","0","0","0","87","0","Sun Sep 24 19:26:35 2023","600","The main experiment item","False","Edward Banda Flanker Task.osexp","C:\Users\Edward Banda\Desktop\Avd Quant Methods 5316","False","mono","False","18","no","white","no","yes","768","legacy","7","79","C:/Users/Edward Banda/Desktop/EB-subject-3.csv","legacy","Melodramatic Milgram","4.0.5","0","h","s","return","NA","h","NA","450.0","169423","16938","NA","450","NA","2","legacy","1024","2","48000","-16","experiment","HHHHH","1","odd","171286","321499","NA","331253","334309","333265","334861","334306","334410","1858","322374","1862","304559","NA","334410","NA","Flanker Task","71","37344.0","88","1024"
"80","80","424","424","#000000","legacy","legacy","legacy","Incongruent","1","undefined","1","s","0","0","0","88","88","88","88","88","88","0","88","0","0","0","88","0","Sun Sep 24 19:26:35 2023","600","The main experiment item","False","Edward Banda Flanker Task.osexp","C:\Users\Edward Banda\Desktop\Avd Quant Methods 5316","False","mono","False","18","no","white","no","yes","768","legacy","8","79","C:/Users/Edward Banda/Desktop/EB-subject-3.csv","legacy","Melodramatic Milgram","4.0.5","0","s","s","return","NA","s","NA","424.0","169423","16938","NA","424","NA","2","legacy","1024","2","48000","-16","experiment","HHSHH","1","odd","171286","321499","NA","331253","335909","334873","336435","335908","336010","1858","322374","1862","304559","NA","336010","NA","Flanker Task","72","37768.0","89","1024"
"81","81","424","424","#000000","legacy","legacy","legacy","Incongruent","1","undefined","1","s","0","0","0","89","89","89","89","89","89","0","89","0","0","0","89","0","Sun Sep 24 19:26:35 2023","600","The main experiment item","False","Edward Banda Flanker Task.osexp","C:\Users\Edward Banda\Desktop\Avd Quant Methods 5316","False","mono","False","18","no","white","no","yes","768","legacy","9","79","C:/Users/Edward Banda/Desktop/EB-subject-3.csv","legacy","Melodramatic Milgram","4.0.5","0","s","s","return","NA","s","NA","476.0","169423","16938","NA","476","NA","2","legacy","1024","2","48000","-16","experiment","HHSHH","1","odd","171286","321499","NA","331253","337484","336447","338062","337483","337585","1858","322374","1862","304559","NA","337585","NA","Flanker Task","73","38244.0","90","1024"
"81","81","424","424","#000000","legacy","legacy","legacy","Congruent","1","undefined","1","s","0","0","0","90","90","90","90","90","90","0","90","0","0","0","90","0","Sun Sep 24 19:26:35 2023","600","The main experiment item","False","Edward Banda Flanker Task.osexp","C:\Users\Edward Banda\Desktop\Avd Quant Methods 5316","False","mono","False","18","no","white","no","yes","768","legacy","10","79","C:/Users/Edward Banda/Desktop/EB-subject-3.csv","legacy","Melodramatic Milgram","4.0.5","0","s","s","return","NA","s","NA","406.0","169423","16938","NA","406","NA","2","legacy","1024","2","48000","-16","experiment","SSSSS","1","odd","171286","321499","NA","331253","339116","338075","339625","339114","339217","1858","322374","1862","304559","NA","339218","NA","Flanker Task","74","38650.0","91","1024"
"81","81","424","424","#000000","legacy","legacy","legacy","Congruent","1","undefined","1","s","0","0","0","91","91","91","91","91","91","0","91","0","0","0","91","0","Sun Sep 24 19:26:35 2023","600","The main experiment item","False","Edward Banda Flanker Task.osexp","C:\Users\Edward Banda\Desktop\Avd Quant Methods 5316","False","mono","False","18","no","white","no","yes","768","legacy","11","79","C:/Users/Edward Banda/Desktop/EB-subject-3.csv","legacy","Melodramatic Milgram","4.0.5","0","s","s","return","NA","s","NA","417.0","169423","16938","NA","417","NA","2","legacy","1024","2","48000","-16","experiment","SSSSS","1","odd","171286","321499","NA","331253","340679","339637","341198","340678","340780","1858","322374","1862","304559","NA","340780","NA","Flanker Task","75","39067.0","92","1024"
"81","81","424","424","#000000","legacy","legacy","legacy","Incongruent","1","undefined","1","h","0","0","0","92","92","92","92","92","92","0","92","0","0","0","92","0","Sun Sep 24 19:26:35 2023","600","The main experiment item","False","Edward Banda Flanker Task.osexp","C:\Users\Edward Banda\Desktop\Avd Quant Methods 5316","False","mono","False","18","no","white","no","yes","768","legacy","12","79","C:/Users/Edward Banda/Desktop/EB-subject-3.csv","legacy","Melodramatic Milgram","4.0.5","0","h","s","return","NA","h","NA","439.0","169423","16938","NA","439","NA","2","legacy","1024","2","48000","-16","experiment","SSHSS","1","odd","171286","321499","NA","331253","342235","341200","342776","342233","342336","1858","322374","1862","304559","NA","342336","NA","Flanker Task","76","39506.0","93","1024"
"81","81","425","425","#000000","legacy","legacy","legacy","Incongruent","1","undefined","1","h","0","0","0","93","93","93","93","93","93","0","93","0","0","0","93","0","Sun Sep 24 19:26:35 2023","600","The main experiment item","False","Edward Banda Flanker Task.osexp","C:\Users\Edward Banda\Desktop\Avd Quant Methods 5316","False","mono","False","18","no","white","no","yes","768","legacy","13","79","C:/Users/Edward Banda/Desktop/EB-subject-3.csv","legacy","Melodramatic Milgram","4.0.5","0","h","s","return","NA","h","NA","533.0","169423","16938","NA","533","NA","2","legacy","1024","2","48000","-16","experiment","SSHSS","1","odd","171286","321499","NA","331253","343819","342788","344454","343818","343920","1858","322374","1862","304559","NA","343920","NA","Flanker Task","77","40039.0","94","1024"
"82","82","427","427","#000000","legacy","legacy","legacy","Congruent","1","undefined","1","h","0","0","0","94","94","94","94","94","94","0","94","0","0","0","94","0","Sun Sep 24 19:26:35 2023","600","The main experiment item","False","Edward Banda Flanker Task.osexp","C:\Users\Edward Banda\Desktop\Avd Quant Methods 5316","False","mono","False","18","no","white","no","yes","768","legacy","14","79","C:/Users/Edward Banda/Desktop/EB-subject-3.csv","legacy","Melodramatic Milgram","4.0.5","0","h","s","return","NA","h","NA","573.0","169423","16938","NA","573","NA","2","legacy","1024","2","48000","-16","experiment","HHHHH","1","odd","171286","321499","NA","331253","345502","344466","346177","345500","345603","1858","322374","1862","304559","NA","345603","NA","Flanker Task","78","40612.0","95","1024"
"82","82","427","427","#000000","legacy","legacy","legacy","Congruent","1","undefined","1","s","0","0","0","95","95","95","95","95","95","0","95","0","0","0","95","0","Sun Sep 24 19:26:35 2023","600","The main experiment item","False","Edward Banda Flanker Task.osexp","C:\Users\Edward Banda\Desktop\Avd Quant Methods 5316","False","mono","False","18","no","white","no","yes","768","legacy","15","79","C:/Users/Edward Banda/Desktop/EB-subject-3.csv","legacy","Melodramatic Milgram","4.0.5","0","s","s","return","NA","s","NA","437.0","169423","16938","NA","437","NA","2","legacy","1024","2","48000","-16","experiment","SSSSS","1","odd","171286","321499","NA","331253","347221","346180","347760","347220","347322","1858","322374","1862","304559","NA","347322","NA","Flanker Task","79","41049.0","96","1024"
"82","82","429","429","#000000","legacy","legacy","legacy","Congruent","1","undefined","1","h","0","0","0","96","96","96","96","96","96","0","96","0","0","0","96","0","Sun Sep 24 19:26:35 2023","600","The main experiment item","False","Edward Banda Flanker Task.osexp","C:\Users\Edward Banda\Desktop\Avd Quant Methods 5316","False","mono","False","18","no","white","no","yes","768","legacy","16","79","C:/Users/Edward Banda/Desktop/EB-subject-3.csv","legacy","Melodramatic Milgram","4.0.5","0","h","s","return","NA","h","NA","605.0","169423","16938","NA","605","NA","2","legacy","1024","2","48000","-16","experiment","HHHHH","1","odd","171286","321499","NA","331253","348801","347762","349507","348799","348902","1858","322374","1862","304559","NA","348902","NA","Flanker Task","80","41654.0","97","1024"
"82","82","428","428","#000000","legacy","legacy","legacy","Incongruent","1","undefined","1","s","0","0","0","97","97","97","97","97","97","0","97","0","0","0","97","0","Sun Sep 24 19:26:35 2023","600","The main experiment item","False","Edward Banda Flanker Task.osexp","C:\Users\Edward Banda\Desktop\Avd Quant Methods 5316","False","mono","False","18","no","white","no","yes","768","legacy","17","79","C:/Users/Edward Banda/Desktop/EB-subject-3.csv","legacy","Melodramatic Milgram","4.0.5","0","s","s","return","NA","s","NA","371.0","169423","16938","NA","371","NA","2","legacy","1024","2","48000","-16","experiment","HHSHH","1","odd","171286","321499","NA","331253","351052","350021","351525","351049","351153","1858","349520","1862","304559","NA","351153","NA","Flanker Task","81","42025.0","98","1024"
"82","82","428","428","#000000","legacy","legacy","legacy","Congruent","1","undefined","1","s","0","0","0","98","98","98","98","98","98","0","98","0","0","0","98","0","Sun Sep 24 19:26:35 2023","600","The main experiment item","False","Edward Banda Flanker Task.osexp","C:\Users\Edward Banda\Desktop\Avd Quant Methods 5316","False","mono","False","18","no","white","no","yes","768","legacy","18","79","C:/Users/Edward Banda/Desktop/EB-subject-3.csv","legacy","Melodramatic Milgram","4.0.5","0","s","s","return","NA","s","NA","430.0","169423","16938","NA","430","NA","2","legacy","1024","2","48000","-16","experiment","SSSSS","1","odd","171286","321499","NA","331253","352577","351538","353109","352575","352678","1858","349520","1862","304559","NA","352678","NA","Flanker Task","82","42455.0","99","1024"
"83","83","428","428","#000000","legacy","legacy","legacy","Congruent","1","undefined","1","h","0","0","0","99","99","99","99","99","99","0","99","0","0","0","99","0","Sun Sep 24 19:26:35 2023","600","The main experiment item","False","Edward Banda Flanker Task.osexp","C:\Users\Edward Banda\Desktop\Avd Quant Methods 5316","False","mono","False","18","no","white","no","yes","768","legacy","19","79","C:/Users/Edward Banda/Desktop/EB-subject-3.csv","legacy","Melodramatic Milgram","4.0.5","0","h","s","return","NA","h","NA","391.0","169423","16938","NA","391","NA","2","legacy","1024","2","48000","-16","experiment","HHHHH","1","odd","171286","321499","NA","331253","354154","353122","354647","354152","354255","1858","349520","1862","304559","NA","354255","NA","Flanker Task","83","42846.0","100","1024"
"83","83","428","428","#000000","legacy","legacy","legacy","Congruent","1","undefined","1","h","0","0","0","100","100","100","100","100","100","0","100","0","0","0","100","0","Sun Sep 24 19:26:35 2023","600","The main experiment item","False","Edward Banda Flanker Task.osexp","C:\Users\Edward Banda\Desktop\Avd Quant Methods 5316","False","mono","False","18","no","white","no","yes","768","legacy","20","79","C:/Users/Edward Banda/Desktop/EB-subject-3.csv","legacy","Melodramatic Milgram","4.0.5","0","h","s","return","NA","h","NA","402.0","169423","16938","NA","402","NA","2","legacy","1024","2","48000","-16","experiment","HHHHH","1","odd","171286","321499","NA","331253","355685","354649","356189","355683","355786","1858","349520","1862","304559","NA","355786","NA","Flanker Task","84","43248.0","101","1024"
"83","83","427","427","#000000","legacy","legacy","legacy","Congruent","1","undefined","1","h","0","0","0","101","101","101","101","101","101","0","101","0","0","0","101","0","Sun Sep 24 19:26:35 2023","600","The main experiment item","False","Edward Banda Flanker Task.osexp","C:\Users\Edward Banda\Desktop\Avd Quant Methods 5316","False","mono","False","18","no","white","no","yes","768","legacy","21","79","C:/Users/Edward Banda/Desktop/EB-subject-3.csv","legacy","Melodramatic Milgram","4.0.5","0","h","s","return","NA","h","NA","398.0","169423","16938","NA","398","NA","2","legacy","1024","2","48000","-16","experiment","HHHHH","1","odd","171286","321499","NA","331253","357227","356191","357727","357225","357328","1858","349520","1862","304559","NA","357328","NA","Flanker Task","85","43646.0","102","1024"
"83","83","427","427","#000000","legacy","legacy","legacy","Congruent","1","undefined","1","s","0","0","0","102","102","102","102","102","102","0","102","0","0","0","102","0","Sun Sep 24 19:26:35 2023","600","The main experiment item","False","Edward Banda Flanker Task.osexp","C:\Users\Edward Banda\Desktop\Avd Quant Methods 5316","False","mono","False","18","no","white","no","yes","768","legacy","22","79","C:/Users/Edward Banda/Desktop/EB-subject-3.csv","legacy","Melodramatic Milgram","4.0.5","0","s","s","return","NA","s","NA","339.0","169423","16938","NA","339","NA","2","legacy","1024","2","48000","-16","experiment","SSSSS","1","odd","171286","321499","NA","331253","358770","357740","359211","358768","358871","1858","349520","1862","304559","NA","358871","NA","Flanker Task","86","43985.0","103","1024"
"83","83","426","426","#000000","legacy","legacy","legacy","Congruent","1","undefined","1","h","0","0","0","103","103","103","103","103","103","0","103","0","0","0","103","0","Sun Sep 24 19:26:35 2023","600","The main experiment item","False","Edward Banda Flanker Task.osexp","C:\Users\Edward Banda\Desktop\Avd Quant Methods 5316","False","mono","False","18","no","white","no","yes","768","legacy","23","79","C:/Users/Edward Banda/Desktop/EB-subject-3.csv","legacy","Melodramatic Milgram","4.0.5","0","h","s","return","NA","h","NA","382.0","169423","16938","NA","382","NA","2","legacy","1024","2","48000","-16","experiment","HHHHH","1","odd","171286","321499","NA","331253","360259","359223","360743","360258","360360","1858","349520","1862","304559","NA","360360","NA","Flanker Task","87","44367.0","104","1024"
"83","83","426","426","#000000","legacy","legacy","legacy","Incongruent","1","undefined","1","h","0","0","0","104","104","104","104","104","104","0","104","0","0","0","104","0","Sun Sep 24 19:26:35 2023","600","The main experiment item","False","Edward Banda Flanker Task.osexp","C:\Users\Edward Banda\Desktop\Avd Quant Methods 5316","False","mono","False","18","no","white","no","yes","768","legacy","24","79","C:/Users/Edward Banda/Desktop/EB-subject-3.csv","legacy","Melodramatic Milgram","4.0.5","0","h","s","return","NA","h","NA","367.0","169423","16938","NA","367","NA","2","legacy","1024","2","48000","-16","experiment","SSHSS","1","odd","171286","321499","NA","331253","361782","360755","362252","361781","361884","1858","349520","1862","304559","NA","361884","NA","Flanker Task","88","44734.0","105","1024"
"83","83","424","424","#000000","legacy","legacy","legacy","Congruent","0","undefined","0","h","0","0","0","105","105","105","105","105","105","0","105","0","0","0","105","0","Sun Sep 24 19:26:35 2023","600","The main experiment item","False","Edward Banda Flanker Task.osexp","C:\Users\Edward Banda\Desktop\Avd Quant Methods 5316","False","mono","False","18","no","white","no","yes","768","legacy","25","79","C:/Users/Edward Banda/Desktop/EB-subject-3.csv","legacy","Melodramatic Milgram","4.0.5","0","s","s","return","NA","s","NA","246.0","169423","16938","NA","246","NA","2","legacy","1024","2","48000","-16","experiment","HHHHH","1","odd","171286","321499","NA","331253","363306","362263","363655","363304","363407","1858","349520","1862","304559","NA","363408","NA","Flanker Task","88","44980.0","106","1024"
"83","83","424","424","#000000","legacy","legacy","legacy","Incongruent","1","undefined","1","s","0","0","0","106","106","106","106","106","106","0","106","0","0","0","106","0","Sun Sep 24 19:26:35 2023","600","The main experiment item","False","Edward Banda Flanker Task.osexp","C:\Users\Edward Banda\Desktop\Avd Quant Methods 5316","False","mono","False","18","no","white","no","yes","768","legacy","26","79","C:/Users/Edward Banda/Desktop/EB-subject-3.csv","legacy","Melodramatic Milgram","4.0.5","0","s","s","return","NA","s","NA","397.0","169423","16938","NA","397","NA","2","legacy","1024","2","48000","-16","experiment","HHSHH","1","odd","171286","321499","NA","363662","365199","364163","365698","365194","365300","1858","349520","1862","304559","NA","365300","NA","Flanker Task","89","45377.0","107","1024"
"83","83","423","423","#000000","legacy","legacy","legacy","Incongruent","1","undefined","1","s","0","0","0","107","107","107","107","107","107","0","107","0","0","0","107","0","Sun Sep 24 19:26:35 2023","600","The main experiment item","False","Edward Banda Flanker Task.osexp","C:\Users\Edward Banda\Desktop\Avd Quant Methods 5316","False","mono","False","18","no","white","no","yes","768","legacy","27","79","C:/Users/Edward Banda/Desktop/EB-subject-3.csv","legacy","Melodramatic Milgram","4.0.5","0","s","s","return","NA","s","NA","409.0","169423","16938","NA","409","NA","2","legacy","1024","2","48000","-16","experiment","HHSHH","1","odd","171286","321499","NA","363662","366739","365710","367251","366737","366840","1858","349520","1862","304559","NA","366841","NA","Flanker Task","90","45786.0","108","1024"
"83","83","423","423","#000000","legacy","legacy","legacy","Congruent","1","undefined","1","s","0","0","0","108","108","108","108","108","108","0","108","0","0","0","108","0","Sun Sep 24 19:26:35 2023","600","The main experiment item","False","Edward Banda Flanker Task.osexp","C:\Users\Edward Banda\Desktop\Avd Quant Methods 5316","False","mono","False","18","no","white","no","yes","768","legacy","28","79","C:/Users/Edward Banda/Desktop/EB-subject-3.csv","legacy","Melodramatic Milgram","4.0.5","0","s","s","return","NA","s","NA","328.0","169423","16938","NA","328","NA","2","legacy","1024","2","48000","-16","experiment","SSSSS","1","odd","171286","321499","NA","363662","368299","367263","368729","368298","368400","1858","349520","1862","304559","NA","368400","NA","Flanker Task","91","46114.0","109","1024"
"82","82","421","421","#000000","legacy","legacy","legacy","Congruent","0","undefined","0","s","0","0","0","109","109","109","109","109","109","0","109","0","0","0","109","0","Sun Sep 24 19:26:35 2023","600","The main experiment item","False","Edward Banda Flanker Task.osexp","C:\Users\Edward Banda\Desktop\Avd Quant Methods 5316","False","mono","False","18","no","white","no","yes","768","legacy","29","79","C:/Users/Edward Banda/Desktop/EB-subject-3.csv","legacy","Melodramatic Milgram","4.0.5","0","h","s","return","NA","h","NA","305.0","169423","16938","NA","305","NA","2","legacy","1024","2","48000","-16","experiment","SSSSS","1","odd","171286","321499","NA","363662","369775","368741","370181","369772","369876","1858","349520","1862","304559","NA","369876","NA","Flanker Task","91","46419.0","110","1024"
"81","81","420","420","#000000","legacy","legacy","legacy","Incongruent","0","undefined","0","h","0","0","0","110","110","110","110","110","110","0","110","0","0","0","110","0","Sun Sep 24 19:26:35 2023","600","The main experiment item","False","Edward Banda Flanker Task.osexp","C:\Users\Edward Banda\Desktop\Avd Quant Methods 5316","False","mono","False","18","no","white","no","yes","768","legacy","30","79","C:/Users/Edward Banda/Desktop/EB-subject-3.csv","legacy","Melodramatic Milgram","4.0.5","0","s","s","return","NA","s","NA","271.0","169423","16938","NA","271","NA","2","legacy","1024","2","48000","-16","experiment","SSHSS","1","odd","171286","321499","NA","370193","371726","370694","372099","371725","371827","1858","349520","1862","304559","NA","371827","NA","Flanker Task","91","46690.0","111","1024"
"82","82","420","420","#000000","legacy","legacy","legacy","Congruent","1","undefined","1","s","0","0","0","111","111","111","111","111","111","0","111","0","0","0","111","0","Sun Sep 24 19:26:35 2023","600","The main experiment item","False","Edward Banda Flanker Task.osexp","C:\Users\Edward Banda\Desktop\Avd Quant Methods 5316","False","mono","False","18","no","white","no","yes","768","legacy","31","79","C:/Users/Edward Banda/Desktop/EB-subject-3.csv","legacy","Melodramatic Milgram","4.0.5","0","s","s","return","NA","s","NA","425.0","169423","16938","NA","425","NA","2","legacy","1024","2","48000","-16","experiment","SSSSS","1","odd","171286","321499","NA","372112","373639","372613","374167","373637","373741","1858","349520","1862","304559","NA","373741","NA","Flanker Task","92","47115.0","112","1024"
"82","82","421","421","#000000","legacy","legacy","legacy","Incongruent","1","undefined","1","s","0","0","0","112","112","112","112","112","112","0","112","0","0","0","112","0","Sun Sep 24 19:26:35 2023","600","The main experiment item","False","Edward Banda Flanker Task.osexp","C:\Users\Edward Banda\Desktop\Avd Quant Methods 5316","False","mono","False","18","no","white","no","yes","768","legacy","32","79","C:/Users/Edward Banda/Desktop/EB-subject-3.csv","legacy","Melodramatic Milgram","4.0.5","0","s","s","return","NA","s","NA","477.0","169423","16938","NA","477","NA","2","legacy","1024","2","48000","-16","experiment","HHSHH","1","odd","171286","321499","NA","372112","375216","374179","375795","375214","375317","1858","349520","1862","304559","NA","375317","NA","Flanker Task","93","47592.0","113","1024"
"82","82","421","421","#000000","legacy","legacy","legacy","Congruent","1","undefined","1","h","0","0","0","113","113","113","113","113","113","0","113","0","0","0","113","0","Sun Sep 24 19:26:35 2023","600","The main experiment item","False","Edward Banda Flanker Task.osexp","C:\Users\Edward Banda\Desktop\Avd Quant Methods 5316","False","mono","False","18","no","white","no","yes","768","legacy","33","79","C:/Users/Edward Banda/Desktop/EB-subject-3.csv","legacy","Melodramatic Milgram","4.0.5","0","h","s","return","NA","h","NA","411.0","169423","16938","NA","411","NA","2","legacy","1024","2","48000","-16","experiment","HHHHH","1","odd","171286","321499","NA","372112","376845","375807","377358","376843","376946","1858","349520","1862","304559","NA","376946","NA","Flanker Task","94","48003.0","114","1024"
"82","82","421","421","#000000","legacy","legacy","legacy","Congruent","1","undefined","1","h","0","0","0","114","114","114","114","114","114","0","114","0","0","0","114","0","Sun Sep 24 19:26:35 2023","600","The main experiment item","False","Edward Banda Flanker Task.osexp","C:\Users\Edward Banda\Desktop\Avd Quant Methods 5316","False","mono","False","18","no","white","no","yes","768","legacy","34","79","C:/Users/Edward Banda/Desktop/EB-subject-3.csv","legacy","Melodramatic Milgram","4.0.5","0","h","s","return","NA","h","NA","412.0","169423","16938","NA","412","NA","2","legacy","1024","2","48000","-16","experiment","HHHHH","1","odd","171286","321499","NA","372112","378412","377370","378926","378410","378513","1858","349520","1862","304559","NA","378513","NA","Flanker Task","95","48415.0","115","1024"
"82","82","421","421","#000000","legacy","legacy","legacy","Congruent","1","undefined","1","h","0","0","0","115","115","115","115","115","115","0","115","0","0","0","115","0","Sun Sep 24 19:26:35 2023","600","The main experiment item","False","Edward Banda Flanker Task.osexp","C:\Users\Edward Banda\Desktop\Avd Quant Methods 5316","False","mono","False","18","no","white","no","yes","768","legacy","35","79","C:/Users/Edward Banda/Desktop/EB-subject-3.csv","legacy","Melodramatic Milgram","4.0.5","0","h","s","return","NA","h","NA","466.0","169423","16938","NA","466","NA","2","legacy","1024","2","48000","-16","experiment","HHHHH","1","odd","171286","321499","NA","372112","379976","378938","380544","379974","380077","1858","349520","1862","304559","NA","380077","NA","Flanker Task","96","48881.0","116","1024"
"82","82","422","422","#000000","legacy","legacy","legacy","Incongruent","1","undefined","1","h","0","0","0","116","116","116","116","116","116","0","116","0","0","0","116","0","Sun Sep 24 19:26:35 2023","600","The main experiment item","False","Edward Banda Flanker Task.osexp","C:\Users\Edward Banda\Desktop\Avd Quant Methods 5316","False","mono","False","18","no","white","no","yes","768","legacy","36","79","C:/Users/Edward Banda/Desktop/EB-subject-3.csv","legacy","Melodramatic Milgram","4.0.5","0","h","s","return","NA","h","NA","511.0","169423","16938","NA","511","NA","2","legacy","1024","2","48000","-16","experiment","SSHSS","1","odd","171286","321499","NA","372112","381598","380556","382212","381595","381699","1858","349520","1862","304559","NA","381700","NA","Flanker Task","97","49392.0","117","1024"
"83","83","421","421","#000000","legacy","legacy","legacy","Congruent","1","undefined","1","s","0","0","0","117","117","117","117","117","117","0","117","0","0","0","117","0","Sun Sep 24 19:26:35 2023","600","The main experiment item","False","Edward Banda Flanker Task.osexp","C:\Users\Edward Banda\Desktop\Avd Quant Methods 5316","False","mono","False","18","no","white","no","yes","768","legacy","37","79","C:/Users/Edward Banda/Desktop/EB-subject-3.csv","legacy","Melodramatic Milgram","4.0.5","0","s","s","return","NA","s","NA","384.0","169423","16938","NA","384","NA","2","legacy","1024","2","48000","-16","experiment","SSSSS","1","odd","171286","321499","NA","372112","383254","382225","383740","383253","383355","1858","349520","1862","304559","NA","383355","NA","Flanker Task","98","49776.0","118","1024"
"83","83","421","421","#000000","legacy","legacy","legacy","Congruent","1","undefined","1","s","0","0","0","118","118","118","118","118","118","0","118","0","0","0","118","0","Sun Sep 24 19:26:35 2023","600","The main experiment item","False","Edward Banda Flanker Task.osexp","C:\Users\Edward Banda\Desktop\Avd Quant Methods 5316","False","mono","False","18","no","white","no","yes","768","legacy","38","79","C:/Users/Edward Banda/Desktop/EB-subject-3.csv","legacy","Melodramatic Milgram","4.0.5","0","s","s","return","NA","s","NA","341.0","169423","16938","NA","341","NA","2","legacy","1024","2","48000","-16","experiment","SSSSS","1","odd","171286","321499","NA","372112","384789","383752","385233","384786","384890","1858","349520","1862","304559","NA","384891","NA","Flanker Task","99","50117.0","119","1024"
"83","83","421","421","#000000","legacy","legacy","legacy","Incongruent","1","undefined","1","h","0","0","0","119","119","119","119","119","119","0","119","0","0","0","119","0","Sun Sep 24 19:26:35 2023","600","The main experiment item","False","Edward Banda Flanker Task.osexp","C:\Users\Edward Banda\Desktop\Avd Quant Methods 5316","False","mono","False","18","no","white","no","yes","768","legacy","39","79","C:/Users/Edward Banda/Desktop/EB-subject-3.csv","legacy","Melodramatic Milgram","4.0.5","0","h","s","return","NA","h","NA","423.0","169423","16938","NA","423","NA","2","legacy","1024","2","48000","-16","experiment","SSHSS","1","odd","171286","321499","NA","372112","386280","385245","386807","386278","386382","1858","349520","1862","304559","NA","386382","NA","Flanker Task","100","50540.0","120","1024"
"83","83","420","420","#000000","legacy","legacy","legacy","Congruent","1","undefined","1","s","0","0","0","120","120","120","120","120","120","0","120","0","0","0","120","0","Sun Sep 24 19:26:35 2023","600","The main experiment item","False","Edward Banda Flanker Task.osexp","C:\Users\Edward Banda\Desktop\Avd Quant Methods 5316","False","mono","False","18","no","white","no","yes","768","legacy","40","79","C:/Users/Edward Banda/Desktop/EB-subject-3.csv","legacy","Melodramatic Milgram","4.0.5","0","s","s","return","NA","s","NA","364.0","169423","16938","NA","364","NA","2","legacy","1024","2","48000","-16","experiment","SSSSS","1","odd","171286","321499","NA","372112","387853","386819","388319","387851","387954","1858","349520","1862","304559","NA","387954","NA","Flanker Task","101","50904.0","121","1024"
"82","82","420","420","#000000","legacy","legacy","legacy","Incongruent","0","undefined","0","h","0","0","0","121","121","121","121","121","121","0","121","0","0","0","121","0","Sun Sep 24 19:26:35 2023","600","The main experiment item","False","Edward Banda Flanker Task.osexp","C:\Users\Edward Banda\Desktop\Avd Quant Methods 5316","False","mono","False","18","no","white","no","yes","768","legacy","41","79","C:/Users/Edward Banda/Desktop/EB-subject-3.csv","legacy","Melodramatic Milgram","4.0.5","0","s","s","return","NA","s","NA","359.0","169423","16938","NA","359","NA","2","legacy","1024","2","48000","-16","experiment","SSHSS","1","odd","171286","321499","NA","372112","389361","388331","389822","389360","389462","1858","349520","1862","304559","NA","389462","NA","Flanker Task","101","51263.0","122","1024"
"82","82","420","420","#000000","legacy","legacy","legacy","Incongruent","0","undefined","0","s","0","0","0","122","122","122","122","122","122","0","122","0","0","0","122","0","Sun Sep 24 19:26:35 2023","600","The main experiment item","False","Edward Banda Flanker Task.osexp","C:\Users\Edward Banda\Desktop\Avd Quant Methods 5316","False","mono","False","18","no","white","no","yes","768","legacy","42","79","C:/Users/Edward Banda/Desktop/EB-subject-3.csv","legacy","Melodramatic Milgram","4.0.5","0","h","s","return","NA","h","NA","484.0","169423","16938","NA","484","NA","2","legacy","1024","2","48000","-16","experiment","HHSHH","1","odd","171286","321499","NA","389835","391363","390336","391949","391361","391464","1858","349520","1862","304559","NA","391464","NA","Flanker Task","101","51747.0","123","1024"
