"acc","accuracy","average_response_time","avg_rt","background","canvas_backend","clock_backend","color_backend","compensation","condition","coordinates","correct","correct_instructions1","correct_keyboard_response","correct_response","count_ISI","count_block1","count_block2","count_block3","count_errorFeedback","count_experiment","count_faster","count_finish","count_fixation","count_instructions1","count_instructions2","count_instructions3","count_keyboard_response","count_logger","count_sequence","count_stimulus","count_welcome","datetime","deadline","description","disable_garbage_collection","experiment_file","experiment_path","font_bold","font_family","font_italic","font_size","font_underline","foreground","form_clicks","fullscreen","height","keyboard_backend","live_row","live_row_block1","logfile","mouse_backend","opensesame_codename","opensesame_version","repeat_cycle","response","response_finish","response_instructions1","response_instructions2","response_instructions3","response_keyboard_response","response_time","response_time_finish","response_time_instructions1","response_time_instructions2","response_time_instructions3","response_time_keyboard_response","response_time_welcome","response_welcome","round_decimals","sampler_backend","sound_buf_size","sound_channels","sound_freq","sound_sample_size","start","stimulus","subject_nr","subject_parity","time_ISI","time_block1","time_block2","time_block3","time_errorFeedback","time_experiment","time_faster","time_finish","time_fixation","time_instructions1","time_instructions2","time_instructions3","time_keyboard_response","time_logger","time_sequence","time_stimulus","time_welcome","title","total_correct","total_response_time","total_responses","uniform_coordinates","width"
"0","0","1500","1500","black","legacy","legacy","legacy","0","congruent","uniform","0","undefined","0","s","0","0","0","0","0","0","0","0","0","0","0","0","0","0","0","0","NA","09/25/21 16:37:15","1500","The main experiment item","yes","FlankerTask.osexp","C:\Users\katie\Documents\School\Quant Methods","no","mono","no","18","no","white","no","yes","768","legacy","0","0","C:/Users/katie/Documents/School/Quant Methods/KH-subject-3.csv","legacy","Lentiform Loewenfeld","3.3.9","0","None","NA","f","NA","NA","None","1500","NA","43229","NA","NA","1500","NA","NA","2","legacy","1024","2","48000","-16","experiment","SSSSS","3","odd","NA","47296","NA","NA","NA","4060","NA","NA","47368","4065","NA","NA","47469","48969","47366","47469","NA","Flanker Task","0","1500","1","yes","1024"
"0","0","1500","1500","black","legacy","legacy","legacy","0","incongruent","uniform","0","undefined","0","h","1","0","0","0","1","0","1","0","1","0","0","0","1","1","1","1","NA","09/25/21 16:37:15","1500","The main experiment item","yes","FlankerTask.osexp","C:\Users\katie\Documents\School\Quant Methods","no","mono","no","18","no","white","no","yes","768","legacy","1","1","C:/Users/katie/Documents/School/Quant Methods/KH-subject-3.csv","legacy","Lentiform Loewenfeld","3.3.9","0","None","NA","f","NA","NA","None","1500","NA","43229","NA","NA","1500","NA","NA","2","legacy","1024","2","48000","-16","experiment","SSHSS","3","odd","49479","47296","NA","NA","48977","4060","NA","NA","50536","4065","NA","NA","50637","52138","50534","50637","NA","Flanker Task","0","3000","2","yes","1024"
"33.3333333333","33.3333333333","1458.33333333","1458.33333333","black","legacy","legacy","legacy","0","congruent","uniform","1","undefined","1","s","2","0","0","0","2","0","2","0","2","0","0","0","2","2","2","2","NA","09/25/21 16:37:15","1500","The main experiment item","yes","FlankerTask.osexp","C:\Users\katie\Documents\School\Quant Methods","no","mono","no","18","no","white","no","yes","768","legacy","2","2","C:/Users/katie/Documents/School/Quant Methods/KH-subject-3.csv","legacy","Lentiform Loewenfeld","3.3.9","0","s","NA","f","NA","NA","s","1375","NA","43229","NA","NA","1375","NA","NA","2","legacy","1024","2","48000","-16","experiment","SSSSS","3","odd","52647","47296","NA","NA","52146","4060","NA","NA","53699","4065","NA","NA","53800","55175","53697","53800","NA","Flanker Task","1","4375","3","yes","1024"
"50","50","1206.25","1206.25","black","legacy","legacy","legacy","0","congruent","uniform","1","undefined","1","s","3","0","0","0","3","0","3","0","3","0","0","0","3","3","3","3","NA","09/25/21 16:37:15","1500","The main experiment item","yes","FlankerTask.osexp","C:\Users\katie\Documents\School\Quant Methods","no","mono","no","18","no","white","no","yes","768","legacy","3","3","C:/Users/katie/Documents/School/Quant Methods/KH-subject-3.csv","legacy","Lentiform Loewenfeld","3.3.9","0","s","NA","f","NA","NA","s","450","NA","43229","NA","NA","450","NA","NA","2","legacy","1024","2","48000","-16","experiment","SSSSS","3","odd","55178","47296","NA","NA","52146","4060","NA","NA","56234","4065","NA","NA","56335","56786","56232","56335","NA","Flanker Task","2","4825","4","yes","1024"
"60","60","1110","1110","black","legacy","legacy","legacy","0","congruent","uniform","1","undefined","1","h","4","0","0","0","4","0","4","0","4","0","0","0","4","4","4","4","NA","09/25/21 16:37:15","1500","The main experiment item","yes","FlankerTask.osexp","C:\Users\katie\Documents\School\Quant Methods","no","mono","no","18","no","white","no","yes","768","legacy","4","4","C:/Users/katie/Documents/School/Quant Methods/KH-subject-3.csv","legacy","Lentiform Loewenfeld","3.3.9","0","h","NA","f","NA","NA","h","725","NA","43229","NA","NA","725","NA","NA","2","legacy","1024","2","48000","-16","experiment","HHHHH","3","odd","56793","47296","NA","NA","52146","4060","NA","NA","57843","4065","NA","NA","57945","58679","57841","57945","NA","Flanker Task","3","5550","5","yes","1024"
"66.6666666667","66.6666666667","1001","1001","black","legacy","legacy","legacy","0","congruent","uniform","1","undefined","1","h","5","0","0","0","5","0","5","0","5","0","0","0","5","5","5","5","NA","09/25/21 16:37:15","1500","The main experiment item","yes","FlankerTask.osexp","C:\Users\katie\Documents\School\Quant Methods","no","mono","no","18","no","white","no","yes","768","legacy","5","5","C:/Users/katie/Documents/School/Quant Methods/KH-subject-3.csv","legacy","Lentiform Loewenfeld","3.3.9","0","h","NA","f","NA","NA","h","456","NA","43229","NA","NA","456","NA","NA","2","legacy","1024","2","48000","-16","experiment","HHHHH","3","odd","58684","47296","NA","NA","52146","4060","NA","NA","59736","4065","NA","NA","59837","60298","59734","59837","NA","Flanker Task","4","6006","6","yes","1024"
"71.4285714286","71.4285714286","976.714285714","976.714285714","black","legacy","legacy","legacy","0","incongruent","uniform","1","undefined","1","h","6","0","0","0","6","0","6","0","6","0","0","0","6","6","6","6","NA","09/25/21 16:37:15","1500","The main experiment item","yes","FlankerTask.osexp","C:\Users\katie\Documents\School\Quant Methods","no","mono","no","18","no","white","no","yes","768","legacy","6","6","C:/Users/katie/Documents/School/Quant Methods/KH-subject-3.csv","legacy","Lentiform Loewenfeld","3.3.9","0","h","NA","f","NA","NA","h","831","NA","43229","NA","NA","831","NA","NA","2","legacy","1024","2","48000","-16","experiment","SSHSS","3","odd","60304","47296","NA","NA","52146","4060","NA","NA","61389","4065","NA","NA","61492","62327","61386","61492","NA","Flanker Task","5","6837","7","yes","1024"
"75","75","940.125","940.125","black","legacy","legacy","legacy","0","congruent","uniform","1","undefined","1","h","7","0","0","0","7","0","7","0","7","0","0","0","7","7","7","7","NA","09/25/21 16:37:15","1500","The main experiment item","yes","FlankerTask.osexp","C:\Users\katie\Documents\School\Quant Methods","no","mono","no","18","no","white","no","yes","768","legacy","7","7","C:/Users/katie/Documents/School/Quant Methods/KH-subject-3.csv","legacy","Lentiform Loewenfeld","3.3.9","0","h","NA","f","NA","NA","h","684","NA","43229","NA","NA","684","NA","NA","2","legacy","1024","2","48000","-16","experiment","HHHHH","3","odd","62333","47296","NA","NA","52146","4060","NA","NA","63439","4065","NA","NA","63542","64227","63436","63542","NA","Flanker Task","6","7521","8","yes","1024"
"77.7777777778","77.7777777778","895.333333333","895.333333333","black","legacy","legacy","legacy","0","congruent","uniform","1","undefined","1","h","8","0","0","0","8","0","8","0","8","0","0","0","8","8","8","8","NA","09/25/21 16:37:15","1500","The main experiment item","yes","FlankerTask.osexp","C:\Users\katie\Documents\School\Quant Methods","no","mono","no","18","no","white","no","yes","768","legacy","8","8","C:/Users/katie/Documents/School/Quant Methods/KH-subject-3.csv","legacy","Lentiform Loewenfeld","3.3.9","0","h","NA","f","NA","NA","h","537","NA","43229","NA","NA","537","NA","NA","2","legacy","1024","2","48000","-16","experiment","HHHHH","3","odd","64238","47296","NA","NA","52146","4060","NA","NA","65301","4065","NA","NA","65402","65940","65299","65402","NA","Flanker Task","7","8058","9","yes","1024"
"80","80","881.1","881.1","black","legacy","legacy","legacy","0","incongruent","uniform","1","undefined","1","s","9","0","0","0","9","0","9","0","9","0","0","0","9","9","9","9","NA","09/25/21 16:37:15","1500","The main experiment item","yes","FlankerTask.osexp","C:\Users\katie\Documents\School\Quant Methods","no","mono","no","18","no","white","no","yes","768","legacy","9","9","C:/Users/katie/Documents/School/Quant Methods/KH-subject-3.csv","legacy","Lentiform Loewenfeld","3.3.9","0","s","NA","f","NA","NA","s","753","NA","43229","NA","NA","753","NA","NA","2","legacy","1024","2","48000","-16","experiment","HHSHH","3","odd","65947","47296","NA","NA","52146","4060","NA","NA","67022","4065","NA","NA","67126","67880","67020","67126","NA","Flanker Task","8","8811","10","yes","1024"
"81.8181818182","81.8181818182","857.909090909","857.909090909","black","legacy","legacy","legacy","0","congruent","uniform","1","undefined","1","h","10","0","0","0","10","0","10","0","10","0","0","0","10","10","10","10","NA","09/25/21 16:37:15","1500","The main experiment item","yes","FlankerTask.osexp","C:\Users\katie\Documents\School\Quant Methods","no","mono","no","18","no","white","no","yes","768","legacy","10","10","C:/Users/katie/Documents/School/Quant Methods/KH-subject-3.csv","legacy","Lentiform Loewenfeld","3.3.9","0","h","NA","f","NA","NA","h","626","NA","43229","NA","NA","626","NA","NA","2","legacy","1024","2","48000","-16","experiment","HHHHH","3","odd","67886","47296","NA","NA","52146","4060","NA","NA","68954","4065","NA","NA","69056","69683","68952","69056","NA","Flanker Task","9","9437","11","yes","1024"
"83.3333333333","83.3333333333","824.916666667","824.916666667","black","legacy","legacy","legacy","0","congruent","uniform","1","undefined","1","h","11","0","0","0","11","0","11","0","11","0","0","0","11","11","11","11","NA","09/25/21 16:37:15","1500","The main experiment item","yes","FlankerTask.osexp","C:\Users\katie\Documents\School\Quant Methods","no","mono","no","18","no","white","no","yes","768","legacy","11","11","C:/Users/katie/Documents/School/Quant Methods/KH-subject-3.csv","legacy","Lentiform Loewenfeld","3.3.9","0","h","NA","f","NA","NA","h","462","NA","43229","NA","NA","462","NA","NA","2","legacy","1024","2","48000","-16","experiment","HHHHH","3","odd","69687","47296","NA","NA","52146","4060","NA","NA","70761","4065","NA","NA","70867","71332","70758","70865","NA","Flanker Task","10","9899","12","yes","1024"
"84.6153846154","84.6153846154","810.230769231","810.230769231","black","legacy","legacy","legacy","0","incongruent","uniform","1","undefined","1","s","12","0","0","0","12","0","12","0","12","0","0","0","12","12","12","12","NA","09/25/21 16:37:15","1500","The main experiment item","yes","FlankerTask.osexp","C:\Users\katie\Documents\School\Quant Methods","no","mono","no","18","no","white","no","yes","768","legacy","12","12","C:/Users/katie/Documents/School/Quant Methods/KH-subject-3.csv","legacy","Lentiform Loewenfeld","3.3.9","0","s","NA","f","NA","NA","s","634","NA","43229","NA","NA","634","NA","NA","2","legacy","1024","2","48000","-16","experiment","HHSHH","3","odd","71337","47296","NA","NA","52146","4060","NA","NA","72431","4065","NA","NA","72534","73170","72429","72534","NA","Flanker Task","11","10533","13","yes","1024"
"85.7142857143","85.7142857143","801.571428571","801.571428571","black","legacy","legacy","legacy","0","incongruent","uniform","1","undefined","1","h","13","0","0","0","13","0","13","0","13","0","0","0","13","13","13","13","NA","09/25/21 16:37:15","1500","The main experiment item","yes","FlankerTask.osexp","C:\Users\katie\Documents\School\Quant Methods","no","mono","no","18","no","white","no","yes","768","legacy","13","13","C:/Users/katie/Documents/School/Quant Methods/KH-subject-3.csv","legacy","Lentiform Loewenfeld","3.3.9","0","h","NA","f","NA","NA","h","689","NA","43229","NA","NA","689","NA","NA","2","legacy","1024","2","48000","-16","experiment","SSHSS","3","odd","73177","47296","NA","NA","52146","4060","NA","NA","74263","4065","NA","NA","74367","75057","74260","74367","NA","Flanker Task","12","11222","14","yes","1024"
"86.6666666667","86.6666666667","792.2","792.2","black","legacy","legacy","legacy","0","incongruent","uniform","1","undefined","1","h","14","0","0","0","14","0","14","0","14","0","0","0","14","14","14","14","NA","09/25/21 16:37:15","1500","The main experiment item","yes","FlankerTask.osexp","C:\Users\katie\Documents\School\Quant Methods","no","mono","no","18","no","white","no","yes","768","legacy","14","14","C:/Users/katie/Documents/School/Quant Methods/KH-subject-3.csv","legacy","Lentiform Loewenfeld","3.3.9","0","h","NA","f","NA","NA","h","661","NA","43229","NA","NA","661","NA","NA","2","legacy","1024","2","48000","-16","experiment","SSHSS","3","odd","75063","47296","NA","NA","52146","4060","NA","NA","76145","4065","NA","NA","76248","76910","76142","76248","NA","Flanker Task","13","11883","15","yes","1024"
"87.5","87.5","784.8125","784.8125","black","legacy","legacy","legacy","0","incongruent","uniform","1","undefined","1","h","15","0","0","0","15","0","15","0","15","0","0","0","15","15","15","15","NA","09/25/21 16:37:15","1500","The main experiment item","yes","FlankerTask.osexp","C:\Users\katie\Documents\School\Quant Methods","no","mono","no","18","no","white","no","yes","768","legacy","15","15","C:/Users/katie/Documents/School/Quant Methods/KH-subject-3.csv","legacy","Lentiform Loewenfeld","3.3.9","0","h","NA","f","NA","NA","h","674","NA","43229","NA","NA","674","NA","NA","2","legacy","1024","2","48000","-16","experiment","SSHSS","3","odd","76916","47296","NA","NA","52146","4060","NA","NA","78011","4065","NA","NA","78115","78789","78009","78115","NA","Flanker Task","14","12557","16","yes","1024"
"88.2352941176","88.2352941176","782.705882353","782.705882353","black","legacy","legacy","legacy","0","congruent","uniform","1","undefined","1","s","16","0","0","0","16","0","16","0","16","0","0","0","16","16","16","16","NA","09/25/21 16:37:15","1500","The main experiment item","yes","FlankerTask.osexp","C:\Users\katie\Documents\School\Quant Methods","no","mono","no","18","no","white","no","yes","768","legacy","16","16","C:/Users/katie/Documents/School/Quant Methods/KH-subject-3.csv","legacy","Lentiform Loewenfeld","3.3.9","0","s","NA","f","NA","NA","s","749","NA","43229","NA","NA","749","NA","NA","2","legacy","1024","2","48000","-16","experiment","SSSSS","3","odd","78796","47296","NA","NA","52146","4060","NA","NA","79888","4065","NA","NA","79992","80742","79886","79992","NA","Flanker Task","15","13306","17","yes","1024"
"88.8888888889","88.8888888889","773.611111111","773.611111111","black","legacy","legacy","legacy","0","congruent","uniform","1","undefined","1","s","17","0","0","0","17","0","17","0","17","0","0","0","17","17","17","17","NA","09/25/21 16:37:15","1500","The main experiment item","yes","FlankerTask.osexp","C:\Users\katie\Documents\School\Quant Methods","no","mono","no","18","no","white","no","yes","768","legacy","17","17","C:/Users/katie/Documents/School/Quant Methods/KH-subject-3.csv","legacy","Lentiform Loewenfeld","3.3.9","0","s","NA","f","NA","NA","s","619","NA","43229","NA","NA","619","NA","NA","2","legacy","1024","2","48000","-16","experiment","SSSSS","3","odd","80749","47296","NA","NA","52146","4060","NA","NA","81836","4065","NA","NA","81940","82560","81833","81940","NA","Flanker Task","16","13925","18","yes","1024"
"89.4736842105","89.4736842105","781.894736842","781.894736842","black","legacy","legacy","legacy","0","incongruent","uniform","1","undefined","1","s","18","0","0","0","18","0","18","0","18","0","0","0","18","18","18","18","NA","09/25/21 16:37:15","1500","The main experiment item","yes","FlankerTask.osexp","C:\Users\katie\Documents\School\Quant Methods","no","mono","no","18","no","white","no","yes","768","legacy","18","18","C:/Users/katie/Documents/School/Quant Methods/KH-subject-3.csv","legacy","Lentiform Loewenfeld","3.3.9","0","s","NA","f","NA","NA","s","931","NA","43229","NA","NA","931","NA","NA","2","legacy","1024","2","48000","-16","experiment","HHSHH","3","odd","82565","47296","NA","NA","52146","4060","NA","NA","83637","4065","NA","NA","83739","84670","83634","83739","NA","Flanker Task","17","14856","19","yes","1024"
"90","90","772.2","772.2","black","legacy","legacy","legacy","0","congruent","uniform","1","undefined","1","h","19","0","0","0","19","0","19","0","19","0","0","0","19","19","19","19","NA","09/25/21 16:37:15","1500","The main experiment item","yes","FlankerTask.osexp","C:\Users\katie\Documents\School\Quant Methods","no","mono","no","18","no","white","no","yes","768","legacy","19","19","C:/Users/katie/Documents/School/Quant Methods/KH-subject-3.csv","legacy","Lentiform Loewenfeld","3.3.9","0","h","NA","f","NA","NA","h","588","NA","43229","NA","NA","588","NA","NA","2","legacy","1024","2","48000","-16","experiment","HHHHH","3","odd","84677","47296","NA","NA","52146","4060","NA","NA","85756","4065","NA","NA","85860","86449","85754","85860","NA","Flanker Task","18","15444","20","yes","1024"
"90.4761904762","90.4761904762","757.047619048","757.047619048","black","legacy","legacy","legacy","0","congruent","uniform","1","undefined","1","h","20","0","0","0","20","0","20","0","20","0","0","0","20","20","20","20","NA","09/25/21 16:37:15","1500","The main experiment item","yes","FlankerTask.osexp","C:\Users\katie\Documents\School\Quant Methods","no","mono","no","18","no","white","no","yes","768","legacy","20","20","C:/Users/katie/Documents/School/Quant Methods/KH-subject-3.csv","legacy","Lentiform Loewenfeld","3.3.9","0","h","NA","f","NA","NA","h","454","NA","43229","NA","NA","454","NA","NA","2","legacy","1024","2","48000","-16","experiment","HHHHH","3","odd","86453","47296","NA","NA","52146","4060","NA","NA","87528","4065","NA","NA","87632","88087","87526","87631","NA","Flanker Task","19","15898","21","yes","1024"
"90.9090909091","90.9090909091","743.045454545","743.045454545","black","legacy","legacy","legacy","0","congruent","uniform","1","undefined","1","h","21","0","0","0","21","0","21","0","21","0","0","0","21","21","21","21","NA","09/25/21 16:37:15","1500","The main experiment item","yes","FlankerTask.osexp","C:\Users\katie\Documents\School\Quant Methods","no","mono","no","18","no","white","no","yes","768","legacy","21","21","C:/Users/katie/Documents/School/Quant Methods/KH-subject-3.csv","legacy","Lentiform Loewenfeld","3.3.9","0","h","NA","f","NA","NA","h","449","NA","43229","NA","NA","449","NA","NA","2","legacy","1024","2","48000","-16","experiment","HHHHH","3","odd","88095","47296","NA","NA","52146","4060","NA","NA","89174","4065","NA","NA","89278","89731","89170","89278","NA","Flanker Task","20","16347","22","yes","1024"
"91.3043478261","91.3043478261","735.869565217","735.869565217","black","legacy","legacy","legacy","0","incongruent","uniform","1","undefined","1","h","22","0","0","0","22","0","22","0","22","0","0","0","22","22","22","22","NA","09/25/21 16:37:15","1500","The main experiment item","yes","FlankerTask.osexp","C:\Users\katie\Documents\School\Quant Methods","no","mono","no","18","no","white","no","yes","768","legacy","22","22","C:/Users/katie/Documents/School/Quant Methods/KH-subject-3.csv","legacy","Lentiform Loewenfeld","3.3.9","0","h","NA","f","NA","NA","h","578","NA","43229","NA","NA","578","NA","NA","2","legacy","1024","2","48000","-16","experiment","SSHSS","3","odd","89738","47296","NA","NA","52146","4060","NA","NA","90836","4065","NA","NA","90937","91516","90834","90937","NA","Flanker Task","21","16925","23","yes","1024"
"91.6666666667","91.6666666667","721.333333333","721.333333333","black","legacy","legacy","legacy","0","congruent","uniform","1","undefined","1","s","23","0","0","0","23","0","23","0","23","0","0","0","23","23","23","23","NA","09/25/21 16:37:15","1500","The main experiment item","yes","FlankerTask.osexp","C:\Users\katie\Documents\School\Quant Methods","no","mono","no","18","no","white","no","yes","768","legacy","23","23","C:/Users/katie/Documents/School/Quant Methods/KH-subject-3.csv","legacy","Lentiform Loewenfeld","3.3.9","0","s","NA","f","NA","NA","s","387","NA","43229","NA","NA","387","NA","NA","2","legacy","1024","2","48000","-16","experiment","SSSSS","3","odd","91522","47296","NA","NA","52146","4060","NA","NA","92610","4065","NA","NA","92711","93098","92607","92711","NA","Flanker Task","22","17312","24","yes","1024"
"88","88","707.04","707.04","black","legacy","legacy","legacy","0","incongruent","uniform","0","undefined","0","h","24","0","0","0","24","0","24","0","24","0","0","0","24","24","24","24","NA","09/25/21 16:37:15","1500","The main experiment item","yes","FlankerTask.osexp","C:\Users\katie\Documents\School\Quant Methods","no","mono","no","18","no","white","no","yes","768","legacy","24","24","C:/Users/katie/Documents/School/Quant Methods/KH-subject-3.csv","legacy","Lentiform Loewenfeld","3.3.9","0","s","NA","f","NA","NA","s","364","NA","43229","NA","NA","364","NA","NA","2","legacy","1024","2","48000","-16","experiment","SSHSS","3","odd","93103","47296","NA","NA","52146","4060","NA","NA","94215","4065","NA","NA","94320","94685","94211","94320","NA","Flanker Task","22","17676","25","yes","1024"
"88.4615384615","88.4615384615","708.192307692","708.192307692","black","legacy","legacy","legacy","0","incongruent","uniform","1","undefined","1","s","25","0","0","0","25","0","25","0","25","0","0","0","25","25","25","25","NA","09/25/21 16:37:15","1500","The main experiment item","yes","FlankerTask.osexp","C:\Users\katie\Documents\School\Quant Methods","no","mono","no","18","no","white","no","yes","768","legacy","25","25","C:/Users/katie/Documents/School/Quant Methods/KH-subject-3.csv","legacy","Lentiform Loewenfeld","3.3.9","0","s","NA","f","NA","NA","s","737","NA","43229","NA","NA","737","NA","NA","2","legacy","1024","2","48000","-16","experiment","HHSHH","3","odd","95194","47296","NA","NA","94690","4060","NA","NA","96266","4065","NA","NA","96369","97107","96264","96369","NA","Flanker Task","23","18413","26","yes","1024"
"88.8888888889","88.8888888889","704.666666667","704.666666667","black","legacy","legacy","legacy","0","congruent","uniform","1","undefined","1","s","26","0","0","0","26","0","26","0","26","0","0","0","26","26","26","26","NA","09/25/21 16:37:15","1500","The main experiment item","yes","FlankerTask.osexp","C:\Users\katie\Documents\School\Quant Methods","no","mono","no","18","no","white","no","yes","768","legacy","26","26","C:/Users/katie/Documents/School/Quant Methods/KH-subject-3.csv","legacy","Lentiform Loewenfeld","3.3.9","0","s","NA","f","NA","NA","s","613","NA","43229","NA","NA","613","NA","NA","2","legacy","1024","2","48000","-16","experiment","SSSSS","3","odd","97119","47296","NA","NA","94690","4060","NA","NA","98173","4065","NA","NA","98277","98890","98171","98277","NA","Flanker Task","24","19026","27","yes","1024"
"89.2857142857","89.2857142857","702.25","702.25","black","legacy","legacy","legacy","0","congruent","uniform","1","undefined","1","s","27","0","0","0","27","0","27","0","27","0","0","0","27","27","27","27","NA","09/25/21 16:37:15","1500","The main experiment item","yes","FlankerTask.osexp","C:\Users\katie\Documents\School\Quant Methods","no","mono","no","18","no","white","no","yes","768","legacy","27","27","C:/Users/katie/Documents/School/Quant Methods/KH-subject-3.csv","legacy","Lentiform Loewenfeld","3.3.9","0","s","NA","f","NA","NA","s","637","NA","43229","NA","NA","637","NA","NA","2","legacy","1024","2","48000","-16","experiment","SSSSS","3","odd","98903","47296","NA","NA","94690","4060","NA","NA","99972","4065","NA","NA","100076","100715","99969","100076","NA","Flanker Task","25","19663","28","yes","1024"
"89.6551724138","89.6551724138","702","702","black","legacy","legacy","legacy","0","incongruent","uniform","1","undefined","1","h","28","0","0","0","28","0","28","0","28","0","0","0","28","28","28","28","NA","09/25/21 16:37:15","1500","The main experiment item","yes","FlankerTask.osexp","C:\Users\katie\Documents\School\Quant Methods","no","mono","no","18","no","white","no","yes","768","legacy","28","28","C:/Users/katie/Documents/School/Quant Methods/KH-subject-3.csv","legacy","Lentiform Loewenfeld","3.3.9","0","h","NA","f","NA","NA","h","695","NA","43229","NA","NA","695","NA","NA","2","legacy","1024","2","48000","-16","experiment","SSHSS","3","odd","100728","47296","NA","NA","94690","4060","NA","NA","101818","4065","NA","NA","101921","102617","101816","101921","NA","Flanker Task","26","20358","29","yes","1024"
"90","90","702.4","702.4","black","legacy","legacy","legacy","0","incongruent","uniform","1","undefined","1","s","29","0","0","0","29","0","29","0","29","0","0","0","29","29","29","29","NA","09/25/21 16:37:15","1500","The main experiment item","yes","FlankerTask.osexp","C:\Users\katie\Documents\School\Quant Methods","no","mono","no","18","no","white","no","yes","768","legacy","29","29","C:/Users/katie/Documents/School/Quant Methods/KH-subject-3.csv","legacy","Lentiform Loewenfeld","3.3.9","0","s","NA","f","NA","NA","s","714","NA","43229","NA","NA","714","NA","NA","2","legacy","1024","2","48000","-16","experiment","HHSHH","3","odd","102631","47296","NA","NA","94690","4060","NA","NA","103713","4065","NA","NA","103817","104532","103710","103817","NA","Flanker Task","27","21072","30","yes","1024"
"90.3225806452","90.3225806452","700.161290323","700.161290323","black","legacy","legacy","legacy","0","incongruent","uniform","1","undefined","1","h","30","0","0","0","30","0","30","0","30","0","0","0","30","30","30","30","NA","09/25/21 16:37:15","1500","The main experiment item","yes","FlankerTask.osexp","C:\Users\katie\Documents\School\Quant Methods","no","mono","no","18","no","white","no","yes","768","legacy","30","30","C:/Users/katie/Documents/School/Quant Methods/KH-subject-3.csv","legacy","Lentiform Loewenfeld","3.3.9","0","h","NA","f","NA","NA","h","633","NA","43229","NA","NA","633","NA","NA","2","legacy","1024","2","48000","-16","experiment","SSHSS","3","odd","104538","47296","NA","NA","94690","4060","NA","NA","105621","4065","NA","NA","105725","106359","105620","105725","NA","Flanker Task","28","21705","31","yes","1024"
"90.625","90.625","697.8125","697.8125","black","legacy","legacy","legacy","0","incongruent","uniform","1","undefined","1","s","31","0","0","0","31","0","31","0","31","0","0","0","31","31","31","31","NA","09/25/21 16:37:15","1500","The main experiment item","yes","FlankerTask.osexp","C:\Users\katie\Documents\School\Quant Methods","no","mono","no","18","no","white","no","yes","768","legacy","31","31","C:/Users/katie/Documents/School/Quant Methods/KH-subject-3.csv","legacy","Lentiform Loewenfeld","3.3.9","0","s","NA","f","NA","NA","s","625","NA","43229","NA","NA","625","NA","NA","2","legacy","1024","2","48000","-16","experiment","HHSHH","3","odd","106364","47296","NA","NA","94690","4060","NA","NA","107439","4065","NA","NA","107542","108168","107437","107542","NA","Flanker Task","29","22330","32","yes","1024"
"90.9090909091","90.9090909091","692.242424242","692.242424242","black","legacy","legacy","legacy","0","congruent","uniform","1","undefined","1","s","32","0","0","0","32","0","32","0","32","0","0","0","32","32","32","32","NA","09/25/21 16:37:15","1500","The main experiment item","yes","FlankerTask.osexp","C:\Users\katie\Documents\School\Quant Methods","no","mono","no","18","no","white","no","yes","768","legacy","32","32","C:/Users/katie/Documents/School/Quant Methods/KH-subject-3.csv","legacy","Lentiform Loewenfeld","3.3.9","0","s","NA","f","NA","NA","s","514","NA","43229","NA","NA","514","NA","NA","2","legacy","1024","2","48000","-16","experiment","SSSSS","3","odd","108182","47296","NA","NA","94690","4060","NA","NA","109251","4065","NA","NA","109355","109872","109250","109355","NA","Flanker Task","30","22844","33","yes","1024"
"91.1764705882","91.1764705882","687.794117647","687.794117647","black","legacy","legacy","legacy","0","congruent","uniform","1","undefined","1","h","33","0","0","0","33","0","33","0","33","0","0","0","33","33","33","33","NA","09/25/21 16:37:15","1500","The main experiment item","yes","FlankerTask.osexp","C:\Users\katie\Documents\School\Quant Methods","no","mono","no","18","no","white","no","yes","768","legacy","33","33","C:/Users/katie/Documents/School/Quant Methods/KH-subject-3.csv","legacy","Lentiform Loewenfeld","3.3.9","0","h","NA","f","NA","NA","h","541","NA","43229","NA","NA","541","NA","NA","2","legacy","1024","2","48000","-16","experiment","HHHHH","3","odd","109887","47296","NA","NA","94690","4060","NA","NA","110968","4065","NA","NA","111072","111617","110965","111072","NA","Flanker Task","31","23385","34","yes","1024"
"91.4285714286","91.4285714286","682.6","682.6","black","legacy","legacy","legacy","0","congruent","uniform","1","undefined","1","s","34","0","0","0","34","0","34","0","34","0","0","0","34","34","34","34","NA","09/25/21 16:37:15","1500","The main experiment item","yes","FlankerTask.osexp","C:\Users\katie\Documents\School\Quant Methods","no","mono","no","18","no","white","no","yes","768","legacy","34","34","C:/Users/katie/Documents/School/Quant Methods/KH-subject-3.csv","legacy","Lentiform Loewenfeld","3.3.9","0","s","NA","f","NA","NA","s","506","NA","43229","NA","NA","506","NA","NA","2","legacy","1024","2","48000","-16","experiment","SSSSS","3","odd","111629","47296","NA","NA","94690","4060","NA","NA","112725","4065","NA","NA","112829","113336","112724","112829","NA","Flanker Task","32","23891","35","yes","1024"
"91.6666666667","91.6666666667","681","681","black","legacy","legacy","legacy","0","incongruent","uniform","1","undefined","1","h","35","0","0","0","35","0","35","0","35","0","0","0","35","35","35","35","NA","09/25/21 16:37:15","1500","The main experiment item","yes","FlankerTask.osexp","C:\Users\katie\Documents\School\Quant Methods","no","mono","no","18","no","white","no","yes","768","legacy","35","35","C:/Users/katie/Documents/School/Quant Methods/KH-subject-3.csv","legacy","Lentiform Loewenfeld","3.3.9","0","h","NA","f","NA","NA","h","625","NA","43229","NA","NA","625","NA","NA","2","legacy","1024","2","48000","-16","experiment","SSHSS","3","odd","113350","47296","NA","NA","94690","4060","NA","NA","114430","4065","NA","NA","114533","115161","114426","114533","NA","Flanker Task","33","24516","36","yes","1024"
"91.8918918919","91.8918918919","677.675675676","677.675675676","black","legacy","legacy","legacy","0","congruent","uniform","1","undefined","1","h","36","0","0","0","36","0","36","0","36","0","0","0","36","36","36","36","NA","09/25/21 16:37:15","1500","The main experiment item","yes","FlankerTask.osexp","C:\Users\katie\Documents\School\Quant Methods","no","mono","no","18","no","white","no","yes","768","legacy","36","36","C:/Users/katie/Documents/School/Quant Methods/KH-subject-3.csv","legacy","Lentiform Loewenfeld","3.3.9","0","h","NA","f","NA","NA","h","558","NA","43229","NA","NA","558","NA","NA","2","legacy","1024","2","48000","-16","experiment","HHHHH","3","odd","115174","47296","NA","NA","94690","4060","NA","NA","116253","4065","NA","NA","116357","116916","116248","116356","NA","Flanker Task","34","25074","37","yes","1024"
"92.1052631579","92.1052631579","673.578947368","673.578947368","black","legacy","legacy","legacy","0","incongruent","uniform","1","undefined","1","h","37","0","0","0","37","0","37","0","37","0","0","0","37","37","37","37","NA","09/25/21 16:37:15","1500","The main experiment item","yes","FlankerTask.osexp","C:\Users\katie\Documents\School\Quant Methods","no","mono","no","18","no","white","no","yes","768","legacy","37","37","C:/Users/katie/Documents/School/Quant Methods/KH-subject-3.csv","legacy","Lentiform Loewenfeld","3.3.9","0","h","NA","f","NA","NA","h","522","NA","43229","NA","NA","522","NA","NA","2","legacy","1024","2","48000","-16","experiment","SSHSS","3","odd","116922","47296","NA","NA","94690","4060","NA","NA","118033","4065","NA","NA","118138","118660","118028","118138","NA","Flanker Task","35","25596","38","yes","1024"
"92.3076923077","92.3076923077","669.025641026","669.025641026","black","legacy","legacy","legacy","0","congruent","uniform","1","undefined","1","h","38","0","0","0","38","0","38","0","38","0","0","0","38","38","38","38","NA","09/25/21 16:37:15","1500","The main experiment item","yes","FlankerTask.osexp","C:\Users\katie\Documents\School\Quant Methods","no","mono","no","18","no","white","no","yes","768","legacy","38","38","C:/Users/katie/Documents/School/Quant Methods/KH-subject-3.csv","legacy","Lentiform Loewenfeld","3.3.9","0","h","NA","f","NA","NA","h","496","NA","43229","NA","NA","496","NA","NA","2","legacy","1024","2","48000","-16","experiment","HHHHH","3","odd","118676","47296","NA","NA","94690","4060","NA","NA","119756","4065","NA","NA","119860","120357","119754","119859","NA","Flanker Task","36","26092","39","yes","1024"
"92.5","92.5","666.35","666.35","black","legacy","legacy","legacy","0","incongruent","uniform","1","undefined","1","h","39","0","0","0","39","0","39","0","39","0","0","0","39","39","39","39","NA","09/25/21 16:37:15","1500","The main experiment item","yes","FlankerTask.osexp","C:\Users\katie\Documents\School\Quant Methods","no","mono","no","18","no","white","no","yes","768","legacy","39","39","C:/Users/katie/Documents/School/Quant Methods/KH-subject-3.csv","legacy","Lentiform Loewenfeld","3.3.9","0","h","NA","f","NA","NA","h","562","NA","43229","NA","NA","562","NA","NA","2","legacy","1024","2","48000","-16","experiment","SSHSS","3","odd","120369","47296","NA","NA","94690","4060","NA","NA","121458","4065","NA","NA","121562","122125","121456","121562","NA","Flanker Task","37","26654","40","yes","1024"
"92.6829268293","92.6829268293","664.365853659","664.365853659","black","legacy","legacy","legacy","0","incongruent","uniform","1","undefined","1","s","40","0","0","0","40","0","40","0","40","0","0","0","40","40","40","40","NA","09/25/21 16:37:15","1500","The main experiment item","yes","FlankerTask.osexp","C:\Users\katie\Documents\School\Quant Methods","no","mono","no","18","no","white","no","yes","768","legacy","40","40","C:/Users/katie/Documents/School/Quant Methods/KH-subject-3.csv","legacy","Lentiform Loewenfeld","3.3.9","0","s","NA","f","NA","NA","s","585","NA","43229","NA","NA","585","NA","NA","2","legacy","1024","2","48000","-16","experiment","HHSHH","3","odd","122140","47296","NA","NA","94690","4060","NA","NA","123214","4065","NA","NA","123317","123903","123212","123317","NA","Flanker Task","38","27239","41","yes","1024"
"92.8571428571","92.8571428571","659.619047619","659.619047619","black","legacy","legacy","legacy","0","congruent","uniform","1","undefined","1","s","41","0","0","0","41","0","41","0","41","0","0","0","41","41","41","41","NA","09/25/21 16:37:15","1500","The main experiment item","yes","FlankerTask.osexp","C:\Users\katie\Documents\School\Quant Methods","no","mono","no","18","no","white","no","yes","768","legacy","41","41","C:/Users/katie/Documents/School/Quant Methods/KH-subject-3.csv","legacy","Lentiform Loewenfeld","3.3.9","0","s","NA","f","NA","NA","s","465","NA","43229","NA","NA","465","NA","NA","2","legacy","1024","2","48000","-16","experiment","SSSSS","3","odd","123907","47296","NA","NA","94690","4060","NA","NA","124990","4065","NA","NA","125094","125560","124988","125094","NA","Flanker Task","39","27704","42","yes","1024"
"93.023255814","93.023255814","656.372093023","656.372093023","black","legacy","legacy","legacy","0","congruent","uniform","1","undefined","1","h","42","0","0","0","42","0","42","0","42","0","0","0","42","42","42","42","NA","09/25/21 16:37:15","1500","The main experiment item","yes","FlankerTask.osexp","C:\Users\katie\Documents\School\Quant Methods","no","mono","no","18","no","white","no","yes","768","legacy","42","42","C:/Users/katie/Documents/School/Quant Methods/KH-subject-3.csv","legacy","Lentiform Loewenfeld","3.3.9","0","h","NA","f","NA","NA","h","520","NA","43229","NA","NA","520","NA","NA","2","legacy","1024","2","48000","-16","experiment","HHHHH","3","odd","125575","47296","NA","NA","94690","4060","NA","NA","126638","4065","NA","NA","126741","127262","126636","126740","NA","Flanker Task","40","28224","43","yes","1024"
"93.1818181818","93.1818181818","654.227272727","654.227272727","black","legacy","legacy","legacy","0","incongruent","uniform","1","undefined","1","h","43","0","0","0","43","0","43","0","43","0","0","0","43","43","43","43","NA","09/25/21 16:37:15","1500","The main experiment item","yes","FlankerTask.osexp","C:\Users\katie\Documents\School\Quant Methods","no","mono","no","18","no","white","no","yes","768","legacy","43","43","C:/Users/katie/Documents/School/Quant Methods/KH-subject-3.csv","legacy","Lentiform Loewenfeld","3.3.9","0","h","NA","f","NA","NA","h","562","NA","43229","NA","NA","562","NA","NA","2","legacy","1024","2","48000","-16","experiment","SSHSS","3","odd","127275","47296","NA","NA","94690","4060","NA","NA","128369","4065","NA","NA","128473","129036","128367","128472","NA","Flanker Task","41","28786","44","yes","1024"
"93.3333333333","93.3333333333","651.355555556","651.355555556","black","legacy","legacy","legacy","0","congruent","uniform","1","undefined","1","s","44","0","0","0","44","0","44","0","44","0","0","0","44","44","44","44","NA","09/25/21 16:37:15","1500","The main experiment item","yes","FlankerTask.osexp","C:\Users\katie\Documents\School\Quant Methods","no","mono","no","18","no","white","no","yes","768","legacy","44","44","C:/Users/katie/Documents/School/Quant Methods/KH-subject-3.csv","legacy","Lentiform Loewenfeld","3.3.9","0","s","NA","f","NA","NA","s","525","NA","43229","NA","NA","525","NA","NA","2","legacy","1024","2","48000","-16","experiment","SSSSS","3","odd","129048","47296","NA","NA","94690","4060","NA","NA","130134","4065","NA","NA","130238","130764","130132","130238","NA","Flanker Task","42","29311","45","yes","1024"
"93.4782608696","93.4782608696","647.760869565","647.760869565","black","legacy","legacy","legacy","0","congruent","uniform","1","undefined","1","h","45","0","0","0","45","0","45","0","45","0","0","0","45","45","45","45","NA","09/25/21 16:37:15","1500","The main experiment item","yes","FlankerTask.osexp","C:\Users\katie\Documents\School\Quant Methods","no","mono","no","18","no","white","no","yes","768","legacy","45","45","C:/Users/katie/Documents/School/Quant Methods/KH-subject-3.csv","legacy","Lentiform Loewenfeld","3.3.9","0","h","NA","f","NA","NA","h","486","NA","43229","NA","NA","486","NA","NA","2","legacy","1024","2","48000","-16","experiment","HHHHH","3","odd","130778","47296","NA","NA","94690","4060","NA","NA","131871","4065","NA","NA","131975","132461","131869","131975","NA","Flanker Task","43","29797","46","yes","1024"
"93.6170212766","93.6170212766","646.574468085","646.574468085","black","legacy","legacy","legacy","0","incongruent","uniform","1","undefined","1","s","46","0","0","0","46","0","46","0","46","0","0","0","46","46","46","46","NA","09/25/21 16:37:15","1500","The main experiment item","yes","FlankerTask.osexp","C:\Users\katie\Documents\School\Quant Methods","no","mono","no","18","no","white","no","yes","768","legacy","46","46","C:/Users/katie/Documents/School/Quant Methods/KH-subject-3.csv","legacy","Lentiform Loewenfeld","3.3.9","0","s","NA","f","NA","NA","s","592","NA","43229","NA","NA","592","NA","NA","2","legacy","1024","2","48000","-16","experiment","HHSHH","3","odd","132476","47296","NA","NA","94690","4060","NA","NA","133568","4065","NA","NA","133672","134265","133564","133671","NA","Flanker Task","44","30389","47","yes","1024"
"93.75","93.75","642.416666667","642.416666667","black","legacy","legacy","legacy","0","congruent","uniform","1","undefined","1","s","47","0","0","0","47","0","47","0","47","0","0","0","47","47","47","47","NA","09/25/21 16:37:15","1500","The main experiment item","yes","FlankerTask.osexp","C:\Users\katie\Documents\School\Quant Methods","no","mono","no","18","no","white","no","yes","768","legacy","47","47","C:/Users/katie/Documents/School/Quant Methods/KH-subject-3.csv","legacy","Lentiform Loewenfeld","3.3.9","0","s","NA","f","NA","NA","s","447","NA","43229","NA","NA","447","NA","NA","2","legacy","1024","2","48000","-16","experiment","SSSSS","3","odd","134278","47296","NA","NA","94690","4060","NA","NA","135356","4065","NA","NA","135460","135909","135355","135460","NA","Flanker Task","45","30836","48","yes","1024"
"93.8775510204","93.8775510204","638.918367347","638.918367347","black","legacy","legacy","legacy","0","incongruent","uniform","1","undefined","1","h","48","0","0","0","48","0","48","0","48","0","0","0","48","48","48","48","NA","09/25/21 16:37:15","1500","The main experiment item","yes","FlankerTask.osexp","C:\Users\katie\Documents\School\Quant Methods","no","mono","no","18","no","white","no","yes","768","legacy","48","48","C:/Users/katie/Documents/School/Quant Methods/KH-subject-3.csv","legacy","Lentiform Loewenfeld","3.3.9","0","h","NA","f","NA","NA","h","471","NA","43229","NA","NA","471","NA","NA","2","legacy","1024","2","48000","-16","experiment","SSHSS","3","odd","135922","47296","NA","NA","94690","4060","NA","NA","137003","4065","NA","NA","137107","137578","137001","137107","NA","Flanker Task","46","31307","49","yes","1024"
"94","94","638.26","638.26","black","legacy","legacy","legacy","0","incongruent","uniform","1","undefined","1","s","49","0","0","0","49","0","49","0","49","0","0","0","49","49","49","49","NA","09/25/21 16:37:15","1500","The main experiment item","yes","FlankerTask.osexp","C:\Users\katie\Documents\School\Quant Methods","no","mono","no","18","no","white","no","yes","768","legacy","49","49","C:/Users/katie/Documents/School/Quant Methods/KH-subject-3.csv","legacy","Lentiform Loewenfeld","3.3.9","0","s","NA","f","NA","NA","s","606","NA","43229","NA","NA","606","NA","NA","2","legacy","1024","2","48000","-16","experiment","HHSHH","3","odd","137590","47296","NA","NA","94690","4060","NA","NA","138677","4065","NA","NA","138781","139388","138675","138781","NA","Flanker Task","47","31913","50","yes","1024"
"94.1176470588","94.1176470588","637.431372549","637.431372549","black","legacy","legacy","legacy","0","incongruent","uniform","1","undefined","1","h","50","0","0","0","50","0","50","0","50","0","0","0","50","50","50","50","NA","09/25/21 16:37:15","1500","The main experiment item","yes","FlankerTask.osexp","C:\Users\katie\Documents\School\Quant Methods","no","mono","no","18","no","white","no","yes","768","legacy","50","50","C:/Users/katie/Documents/School/Quant Methods/KH-subject-3.csv","legacy","Lentiform Loewenfeld","3.3.9","0","h","NA","f","NA","NA","h","596","NA","43229","NA","NA","596","NA","NA","2","legacy","1024","2","48000","-16","experiment","SSHSS","3","odd","139392","47296","NA","NA","94690","4060","NA","NA","140469","4065","NA","NA","140573","141174","140467","140573","NA","Flanker Task","48","32509","51","yes","1024"
"94.2307692308","94.2307692308","634.711538462","634.711538462","black","legacy","legacy","legacy","0","congruent","uniform","1","undefined","1","s","51","0","0","0","51","0","51","0","51","0","0","0","51","51","51","51","NA","09/25/21 16:37:15","1500","The main experiment item","yes","FlankerTask.osexp","C:\Users\katie\Documents\School\Quant Methods","no","mono","no","18","no","white","no","yes","768","legacy","51","51","C:/Users/katie/Documents/School/Quant Methods/KH-subject-3.csv","legacy","Lentiform Loewenfeld","3.3.9","0","s","NA","f","NA","NA","s","496","NA","43229","NA","NA","496","NA","NA","2","legacy","1024","2","48000","-16","experiment","SSSSS","3","odd","141187","47296","NA","NA","94690","4060","NA","NA","142272","4065","NA","NA","142376","142873","142271","142376","NA","Flanker Task","49","33005","52","yes","1024"
"94.3396226415","94.3396226415","634.471698113","634.471698113","black","legacy","legacy","legacy","0","incongruent","uniform","1","undefined","1","s","52","0","0","0","52","0","52","0","52","0","0","0","52","52","52","52","NA","09/25/21 16:37:15","1500","The main experiment item","yes","FlankerTask.osexp","C:\Users\katie\Documents\School\Quant Methods","no","mono","no","18","no","white","no","yes","768","legacy","52","52","C:/Users/katie/Documents/School/Quant Methods/KH-subject-3.csv","legacy","Lentiform Loewenfeld","3.3.9","0","s","NA","f","NA","NA","s","622","NA","43229","NA","NA","622","NA","NA","2","legacy","1024","2","48000","-16","experiment","HHSHH","3","odd","142886","47296","NA","NA","94690","4060","NA","NA","143945","4065","NA","NA","144048","144670","143943","144048","NA","Flanker Task","50","33627","53","yes","1024"
"92.5925925926","92.5925925926","630.740740741","630.740740741","black","legacy","legacy","legacy","0","incongruent","uniform","0","undefined","0","h","53","0","0","0","53","0","53","0","53","0","0","0","53","53","53","53","NA","09/25/21 16:37:15","1500","The main experiment item","yes","FlankerTask.osexp","C:\Users\katie\Documents\School\Quant Methods","no","mono","no","18","no","white","no","yes","768","legacy","53","53","C:/Users/katie/Documents/School/Quant Methods/KH-subject-3.csv","legacy","Lentiform Loewenfeld","3.3.9","0","s","NA","f","NA","NA","s","433","NA","43229","NA","NA","433","NA","NA","2","legacy","1024","2","48000","-16","experiment","SSHSS","3","odd","144675","47296","NA","NA","94690","4060","NA","NA","145762","4065","NA","NA","145865","146299","145758","145865","NA","Flanker Task","50","34060","54","yes","1024"
"92.7272727273","92.7272727273","629.690909091","629.690909091","black","legacy","legacy","legacy","0","incongruent","uniform","1","undefined","1","h","54","0","0","0","54","0","54","0","54","0","0","0","54","54","54","54","NA","09/25/21 16:37:15","1500","The main experiment item","yes","FlankerTask.osexp","C:\Users\katie\Documents\School\Quant Methods","no","mono","no","18","no","white","no","yes","768","legacy","54","54","C:/Users/katie/Documents/School/Quant Methods/KH-subject-3.csv","legacy","Lentiform Loewenfeld","3.3.9","0","h","NA","f","NA","NA","h","573","NA","43229","NA","NA","573","NA","NA","2","legacy","1024","2","48000","-16","experiment","SSHSS","3","odd","146816","47296","NA","NA","146312","4060","NA","NA","147905","4065","NA","NA","148009","148583","147902","148008","NA","Flanker Task","51","34633","55","yes","1024"
"92.8571428571","92.8571428571","627.928571429","627.928571429","black","legacy","legacy","legacy","0","congruent","uniform","1","undefined","1","h","55","0","0","0","55","0","55","0","55","0","0","0","55","55","55","55","NA","09/25/21 16:37:15","1500","The main experiment item","yes","FlankerTask.osexp","C:\Users\katie\Documents\School\Quant Methods","no","mono","no","18","no","white","no","yes","768","legacy","55","55","C:/Users/katie/Documents/School/Quant Methods/KH-subject-3.csv","legacy","Lentiform Loewenfeld","3.3.9","0","h","NA","f","NA","NA","h","531","NA","43229","NA","NA","531","NA","NA","2","legacy","1024","2","48000","-16","experiment","HHHHH","3","odd","148587","47296","NA","NA","146312","4060","NA","NA","149661","4065","NA","NA","149764","150296","149658","149764","NA","Flanker Task","52","35164","56","yes","1024"
"92.9824561404","92.9824561404","626.526315789","626.526315789","black","legacy","legacy","legacy","0","incongruent","uniform","1","undefined","1","s","56","0","0","0","56","0","56","0","56","0","0","0","56","56","56","56","NA","09/25/21 16:37:15","1500","The main experiment item","yes","FlankerTask.osexp","C:\Users\katie\Documents\School\Quant Methods","no","mono","no","18","no","white","no","yes","768","legacy","56","56","C:/Users/katie/Documents/School/Quant Methods/KH-subject-3.csv","legacy","Lentiform Loewenfeld","3.3.9","0","s","NA","f","NA","NA","s","548","NA","43229","NA","NA","548","NA","NA","2","legacy","1024","2","48000","-16","experiment","HHSHH","3","odd","150299","47296","NA","NA","146312","4060","NA","NA","151396","4065","NA","NA","151500","152049","151395","151500","NA","Flanker Task","53","35712","57","yes","1024"
"93.1034482759","93.1034482759","625.655172414","625.655172414","black","legacy","legacy","legacy","0","incongruent","uniform","1","undefined","1","s","57","0","0","0","57","0","57","0","57","0","0","0","57","57","57","57","NA","09/25/21 16:37:15","1500","The main experiment item","yes","FlankerTask.osexp","C:\Users\katie\Documents\School\Quant Methods","no","mono","no","18","no","white","no","yes","768","legacy","57","57","C:/Users/katie/Documents/School/Quant Methods/KH-subject-3.csv","legacy","Lentiform Loewenfeld","3.3.9","0","s","NA","f","NA","NA","s","576","NA","43229","NA","NA","576","NA","NA","2","legacy","1024","2","48000","-16","experiment","HHSHH","3","odd","152053","47296","NA","NA","146312","4060","NA","NA","153117","4065","NA","NA","153220","153798","153114","153220","NA","Flanker Task","54","36288","58","yes","1024"
"93.2203389831","93.2203389831","624.457627119","624.457627119","black","legacy","legacy","legacy","0","incongruent","uniform","1","undefined","1","h","58","0","0","0","58","0","58","0","58","0","0","0","58","58","58","58","NA","09/25/21 16:37:15","1500","The main experiment item","yes","FlankerTask.osexp","C:\Users\katie\Documents\School\Quant Methods","no","mono","no","18","no","white","no","yes","768","legacy","58","58","C:/Users/katie/Documents/School/Quant Methods/KH-subject-3.csv","legacy","Lentiform Loewenfeld","3.3.9","0","h","NA","f","NA","NA","h","555","NA","43229","NA","NA","555","NA","NA","2","legacy","1024","2","48000","-16","experiment","SSHSS","3","odd","153811","47296","NA","NA","146312","4060","NA","NA","154865","4065","NA","NA","154968","155525","154862","154968","NA","Flanker Task","55","36843","59","yes","1024"
"93.3333333333","93.3333333333","622.233333333","622.233333333","black","legacy","legacy","legacy","0","congruent","uniform","1","undefined","1","h","59","0","0","0","59","0","59","0","59","0","0","0","59","59","59","59","NA","09/25/21 16:37:15","1500","The main experiment item","yes","FlankerTask.osexp","C:\Users\katie\Documents\School\Quant Methods","no","mono","no","18","no","white","no","yes","768","legacy","59","59","C:/Users/katie/Documents/School/Quant Methods/KH-subject-3.csv","legacy","Lentiform Loewenfeld","3.3.9","0","h","NA","f","NA","NA","h","491","NA","43229","NA","NA","491","NA","NA","2","legacy","1024","2","48000","-16","experiment","HHHHH","3","odd","155538","47296","NA","NA","146312","4060","NA","NA","156601","4065","NA","NA","156705","157197","156599","156705","NA","Flanker Task","56","37334","60","yes","1024"
"93.4426229508","93.4426229508","621.278688525","621.278688525","black","legacy","legacy","legacy","0","incongruent","uniform","1","undefined","1","s","60","0","0","0","60","0","60","0","60","0","0","0","60","60","60","60","NA","09/25/21 16:37:15","1500","The main experiment item","yes","FlankerTask.osexp","C:\Users\katie\Documents\School\Quant Methods","no","mono","no","18","no","white","no","yes","768","legacy","60","60","C:/Users/katie/Documents/School/Quant Methods/KH-subject-3.csv","legacy","Lentiform Loewenfeld","3.3.9","0","s","NA","f","NA","NA","s","564","NA","43229","NA","NA","564","NA","NA","2","legacy","1024","2","48000","-16","experiment","HHSHH","3","odd","157201","47296","NA","NA","146312","4060","NA","NA","158273","4065","NA","NA","158375","158940","158270","158375","NA","Flanker Task","57","37898","61","yes","1024"
"93.5483870968","93.5483870968","619.903225806","619.903225806","black","legacy","legacy","legacy","0","congruent","uniform","1","undefined","1","h","61","0","0","0","61","0","61","0","61","0","0","0","61","61","61","61","NA","09/25/21 16:37:15","1500","The main experiment item","yes","FlankerTask.osexp","C:\Users\katie\Documents\School\Quant Methods","no","mono","no","18","no","white","no","yes","768","legacy","61","61","C:/Users/katie/Documents/School/Quant Methods/KH-subject-3.csv","legacy","Lentiform Loewenfeld","3.3.9","0","h","NA","f","NA","NA","h","536","NA","43229","NA","NA","536","NA","NA","2","legacy","1024","2","48000","-16","experiment","HHHHH","3","odd","158946","47296","NA","NA","146312","4060","NA","NA","160007","4065","NA","NA","160110","160647","160006","160110","NA","Flanker Task","58","38434","62","yes","1024"
"93.6507936508","93.6507936508","618.857142857","618.857142857","black","legacy","legacy","legacy","0","incongruent","uniform","1","undefined","1","s","62","0","0","0","62","0","62","0","62","0","0","0","62","62","62","62","NA","09/25/21 16:37:15","1500","The main experiment item","yes","FlankerTask.osexp","C:\Users\katie\Documents\School\Quant Methods","no","mono","no","18","no","white","no","yes","768","legacy","62","62","C:/Users/katie/Documents/School/Quant Methods/KH-subject-3.csv","legacy","Lentiform Loewenfeld","3.3.9","0","s","NA","f","NA","NA","s","554","NA","43229","NA","NA","554","NA","NA","2","legacy","1024","2","48000","-16","experiment","HHSHH","3","odd","160652","47296","NA","NA","146312","4060","NA","NA","161715","4065","NA","NA","161816","162371","161713","161816","NA","Flanker Task","59","38988","63","yes","1024"
"93.75","93.75","617.59375","617.59375","black","legacy","legacy","legacy","0","congruent","uniform","1","undefined","1","h","63","0","0","0","63","0","63","0","63","0","0","0","63","63","63","63","NA","09/25/21 16:37:15","1500","The main experiment item","yes","FlankerTask.osexp","C:\Users\katie\Documents\School\Quant Methods","no","mono","no","18","no","white","no","yes","768","legacy","63","63","C:/Users/katie/Documents/School/Quant Methods/KH-subject-3.csv","legacy","Lentiform Loewenfeld","3.3.9","0","h","NA","f","NA","NA","h","538","NA","43229","NA","NA","538","NA","NA","2","legacy","1024","2","48000","-16","experiment","HHHHH","3","odd","162377","47296","NA","NA","146312","4060","NA","NA","163428","4065","NA","NA","163530","164068","163427","163529","NA","Flanker Task","60","39526","64","yes","1024"
"93.8461538462","93.8461538462","618.353846154","618.353846154","black","legacy","legacy","legacy","0","incongruent","uniform","1","undefined","1","s","64","0","0","0","64","0","64","0","64","0","0","0","64","64","64","64","NA","09/25/21 16:37:15","1500","The main experiment item","yes","FlankerTask.osexp","C:\Users\katie\Documents\School\Quant Methods","no","mono","no","18","no","white","no","yes","768","legacy","64","64","C:/Users/katie/Documents/School/Quant Methods/KH-subject-3.csv","legacy","Lentiform Loewenfeld","3.3.9","0","s","NA","f","NA","NA","s","667","NA","43229","NA","NA","667","NA","NA","2","legacy","1024","2","48000","-16","experiment","HHSHH","3","odd","164074","47296","NA","NA","146312","4060","NA","NA","165164","4065","NA","NA","165268","165936","165161","165268","NA","Flanker Task","61","40193","65","yes","1024"
"93.9393939394","93.9393939394","617.090909091","617.090909091","black","legacy","legacy","legacy","0","congruent","uniform","1","undefined","1","h","65","0","0","0","65","0","65","0","65","0","0","0","65","65","65","65","NA","09/25/21 16:37:15","1500","The main experiment item","yes","FlankerTask.osexp","C:\Users\katie\Documents\School\Quant Methods","no","mono","no","18","no","white","no","yes","768","legacy","65","65","C:/Users/katie/Documents/School/Quant Methods/KH-subject-3.csv","legacy","Lentiform Loewenfeld","3.3.9","0","h","NA","f","NA","NA","h","535","NA","43229","NA","NA","535","NA","NA","2","legacy","1024","2","48000","-16","experiment","HHHHH","3","odd","165943","47296","NA","NA","146312","4060","NA","NA","167035","4065","NA","NA","167138","167675","167034","167138","NA","Flanker Task","62","40728","66","yes","1024"
"94.0298507463","94.0298507463","615.850746269","615.850746269","black","legacy","legacy","legacy","0","incongruent","uniform","1","undefined","1","s","66","0","0","0","66","0","66","0","66","0","0","0","66","66","66","66","NA","09/25/21 16:37:15","1500","The main experiment item","yes","FlankerTask.osexp","C:\Users\katie\Documents\School\Quant Methods","no","mono","no","18","no","white","no","yes","768","legacy","66","66","C:/Users/katie/Documents/School/Quant Methods/KH-subject-3.csv","legacy","Lentiform Loewenfeld","3.3.9","0","s","NA","f","NA","NA","s","534","NA","43229","NA","NA","534","NA","NA","2","legacy","1024","2","48000","-16","experiment","HHSHH","3","odd","167680","47296","NA","NA","146312","4060","NA","NA","168740","4065","NA","NA","168842","169378","168738","168842","NA","Flanker Task","63","41262","67","yes","1024"
"94.1176470588","94.1176470588","615.102941176","615.102941176","black","legacy","legacy","legacy","0","incongruent","uniform","1","undefined","1","h","67","0","0","0","67","0","67","0","67","0","0","0","67","67","67","67","NA","09/25/21 16:37:15","1500","The main experiment item","yes","FlankerTask.osexp","C:\Users\katie\Documents\School\Quant Methods","no","mono","no","18","no","white","no","yes","768","legacy","67","67","C:/Users/katie/Documents/School/Quant Methods/KH-subject-3.csv","legacy","Lentiform Loewenfeld","3.3.9","0","h","NA","f","NA","NA","h","565","NA","43229","NA","NA","565","NA","NA","2","legacy","1024","2","48000","-16","experiment","SSHSS","3","odd","169383","47296","NA","NA","146312","4060","NA","NA","170464","4065","NA","NA","170568","171135","170462","170567","NA","Flanker Task","64","41827","68","yes","1024"
"94.2028985507","94.2028985507","615","615","black","legacy","legacy","legacy","0","congruent","uniform","1","undefined","1","h","68","0","0","0","68","0","68","0","68","0","0","0","68","68","68","68","NA","09/25/21 16:37:15","1500","The main experiment item","yes","FlankerTask.osexp","C:\Users\katie\Documents\School\Quant Methods","no","mono","no","18","no","white","no","yes","768","legacy","68","68","C:/Users/katie/Documents/School/Quant Methods/KH-subject-3.csv","legacy","Lentiform Loewenfeld","3.3.9","0","h","NA","f","NA","NA","h","608","NA","43229","NA","NA","608","NA","NA","2","legacy","1024","2","48000","-16","experiment","HHHHH","3","odd","171141","47296","NA","NA","146312","4060","NA","NA","172213","4065","NA","NA","172314","172922","172211","172314","NA","Flanker Task","65","42435","69","yes","1024"
"94.2857142857","94.2857142857","616.285714286","616.285714286","black","legacy","legacy","legacy","0","incongruent","uniform","1","undefined","1","h","69","0","0","0","69","0","69","0","69","0","0","0","69","69","69","69","NA","09/25/21 16:37:15","1500","The main experiment item","yes","FlankerTask.osexp","C:\Users\katie\Documents\School\Quant Methods","no","mono","no","18","no","white","no","yes","768","legacy","69","69","C:/Users/katie/Documents/School/Quant Methods/KH-subject-3.csv","legacy","Lentiform Loewenfeld","3.3.9","0","h","NA","f","NA","NA","h","705","NA","43229","NA","NA","705","NA","NA","2","legacy","1024","2","48000","-16","experiment","SSHSS","3","odd","172927","47296","NA","NA","146312","4060","NA","NA","174019","4065","NA","NA","174120","174826","174012","174120","NA","Flanker Task","66","43140","70","yes","1024"
"94.3661971831","94.3661971831","615.450704225","615.450704225","black","legacy","legacy","legacy","0","congruent","uniform","1","undefined","1","s","70","0","0","0","70","0","70","0","70","0","0","0","70","70","70","70","NA","09/25/21 16:37:15","1500","The main experiment item","yes","FlankerTask.osexp","C:\Users\katie\Documents\School\Quant Methods","no","mono","no","18","no","white","no","yes","768","legacy","70","70","C:/Users/katie/Documents/School/Quant Methods/KH-subject-3.csv","legacy","Lentiform Loewenfeld","3.3.9","0","s","NA","f","NA","NA","s","557","NA","43229","NA","NA","557","NA","NA","2","legacy","1024","2","48000","-16","experiment","SSSSS","3","odd","174831","47296","NA","NA","146312","4060","NA","NA","175899","4065","NA","NA","176001","176558","175897","176001","NA","Flanker Task","67","43697","71","yes","1024"
"94.4444444444","94.4444444444","615.152777778","615.152777778","black","legacy","legacy","legacy","0","congruent","uniform","1","undefined","1","s","71","0","0","0","71","0","71","0","71","0","0","0","71","71","71","71","NA","09/25/21 16:37:15","1500","The main experiment item","yes","FlankerTask.osexp","C:\Users\katie\Documents\School\Quant Methods","no","mono","no","18","no","white","no","yes","768","legacy","71","71","C:/Users/katie/Documents/School/Quant Methods/KH-subject-3.csv","legacy","Lentiform Loewenfeld","3.3.9","0","s","NA","f","NA","NA","s","594","NA","43229","NA","NA","594","NA","NA","2","legacy","1024","2","48000","-16","experiment","SSSSS","3","odd","176563","47296","NA","NA","146312","4060","NA","NA","177645","4065","NA","NA","177748","178343","177643","177748","NA","Flanker Task","68","44291","72","yes","1024"
"94.5205479452","94.5205479452","612.821917808","612.821917808","black","legacy","legacy","legacy","0","congruent","uniform","1","undefined","1","s","72","0","0","0","72","0","72","0","72","0","0","0","72","72","72","72","NA","09/25/21 16:37:15","1500","The main experiment item","yes","FlankerTask.osexp","C:\Users\katie\Documents\School\Quant Methods","no","mono","no","18","no","white","no","yes","768","legacy","72","72","C:/Users/katie/Documents/School/Quant Methods/KH-subject-3.csv","legacy","Lentiform Loewenfeld","3.3.9","0","s","NA","f","NA","NA","s","445","NA","43229","NA","NA","445","NA","NA","2","legacy","1024","2","48000","-16","experiment","SSSSS","3","odd","178348","47296","NA","NA","146312","4060","NA","NA","179430","4065","NA","NA","179534","179980","179429","179531","NA","Flanker Task","69","44736","73","yes","1024"
"94.5945945946","94.5945945946","612.905405405","612.905405405","black","legacy","legacy","legacy","0","incongruent","uniform","1","undefined","1","s","73","0","0","0","73","0","73","0","73","0","0","0","73","73","73","73","NA","09/25/21 16:37:15","1500","The main experiment item","yes","FlankerTask.osexp","C:\Users\katie\Documents\School\Quant Methods","no","mono","no","18","no","white","no","yes","768","legacy","73","73","C:/Users/katie/Documents/School/Quant Methods/KH-subject-3.csv","legacy","Lentiform Loewenfeld","3.3.9","0","s","NA","f","NA","NA","s","619","NA","43229","NA","NA","619","NA","NA","2","legacy","1024","2","48000","-16","experiment","HHSHH","3","odd","179984","47296","NA","NA","146312","4060","NA","NA","181049","4065","NA","NA","181152","181774","181047","181152","NA","Flanker Task","70","45355","74","yes","1024"
"94.6666666667","94.6666666667","611.733333333","611.733333333","black","legacy","legacy","legacy","0","incongruent","uniform","1","undefined","1","s","74","0","0","0","74","0","74","0","74","0","0","0","74","74","74","74","NA","09/25/21 16:37:15","1500","The main experiment item","yes","FlankerTask.osexp","C:\Users\katie\Documents\School\Quant Methods","no","mono","no","18","no","white","no","yes","768","legacy","74","74","C:/Users/katie/Documents/School/Quant Methods/KH-subject-3.csv","legacy","Lentiform Loewenfeld","3.3.9","0","s","NA","f","NA","NA","s","525","NA","43229","NA","NA","525","NA","NA","2","legacy","1024","2","48000","-16","experiment","HHSHH","3","odd","181779","47296","NA","NA","146312","4060","NA","NA","182848","4065","NA","NA","182949","183475","182846","182949","NA","Flanker Task","71","45880","75","yes","1024"
"94.7368421053","94.7368421053","610.973684211","610.973684211","black","legacy","legacy","legacy","0","incongruent","uniform","1","undefined","1","s","75","0","0","0","75","0","75","0","75","0","0","0","75","75","75","75","NA","09/25/21 16:37:15","1500","The main experiment item","yes","FlankerTask.osexp","C:\Users\katie\Documents\School\Quant Methods","no","mono","no","18","no","white","no","yes","768","legacy","75","75","C:/Users/katie/Documents/School/Quant Methods/KH-subject-3.csv","legacy","Lentiform Loewenfeld","3.3.9","0","s","NA","f","NA","NA","s","554","NA","43229","NA","NA","554","NA","NA","2","legacy","1024","2","48000","-16","experiment","HHSHH","3","odd","183480","47296","NA","NA","146312","4060","NA","NA","184550","4065","NA","NA","184652","185207","184548","184652","NA","Flanker Task","72","46434","76","yes","1024"
"94.8051948052","94.8051948052","610.545454545","610.545454545","black","legacy","legacy","legacy","0","incongruent","uniform","1","undefined","1","s","76","0","0","0","76","0","76","0","76","0","0","0","76","76","76","76","NA","09/25/21 16:37:15","1500","The main experiment item","yes","FlankerTask.osexp","C:\Users\katie\Documents\School\Quant Methods","no","mono","no","18","no","white","no","yes","768","legacy","76","76","C:/Users/katie/Documents/School/Quant Methods/KH-subject-3.csv","legacy","Lentiform Loewenfeld","3.3.9","0","s","NA","f","NA","NA","s","578","NA","43229","NA","NA","578","NA","NA","2","legacy","1024","2","48000","-16","experiment","HHSHH","3","odd","185211","47296","NA","NA","146312","4060","NA","NA","186279","4065","NA","NA","186382","186964","186277","186381","NA","Flanker Task","73","47012","77","yes","1024"
"94.8717948718","94.8717948718","611.487179487","611.487179487","black","legacy","legacy","legacy","0","congruent","uniform","1","undefined","1","s","77","0","0","0","77","0","77","0","77","0","0","0","77","77","77","77","NA","09/25/21 16:37:15","1500","The main experiment item","yes","FlankerTask.osexp","C:\Users\katie\Documents\School\Quant Methods","no","mono","no","18","no","white","no","yes","768","legacy","77","77","C:/Users/katie/Documents/School/Quant Methods/KH-subject-3.csv","legacy","Lentiform Loewenfeld","3.3.9","0","s","NA","f","NA","NA","s","684","NA","43229","NA","NA","684","NA","NA","2","legacy","1024","2","48000","-16","experiment","SSSSS","3","odd","186971","47296","NA","NA","146312","4060","NA","NA","188033","4065","NA","NA","188136","188820","188031","188135","NA","Flanker Task","74","47696","78","yes","1024"
"94.9367088608","94.9367088608","609.898734177","609.898734177","black","legacy","legacy","legacy","0","congruent","uniform","1","undefined","1","s","78","0","0","0","78","0","78","0","78","0","0","0","78","78","78","78","NA","09/25/21 16:37:15","1500","The main experiment item","yes","FlankerTask.osexp","C:\Users\katie\Documents\School\Quant Methods","no","mono","no","18","no","white","no","yes","768","legacy","78","78","C:/Users/katie/Documents/School/Quant Methods/KH-subject-3.csv","legacy","Lentiform Loewenfeld","3.3.9","0","s","NA","f","NA","NA","s","486","NA","43229","NA","NA","486","NA","NA","2","legacy","1024","2","48000","-16","experiment","SSSSS","3","odd","188834","47296","NA","NA","146312","4060","NA","NA","189911","4065","NA","NA","190015","190502","189910","190015","NA","Flanker Task","75","48182","79","yes","1024"
"95","95","608.025","608.025","black","legacy","legacy","legacy","0","congruent","uniform","1","undefined","1","s","79","0","0","0","79","0","79","0","79","0","0","0","79","79","79","79","NA","09/25/21 16:37:15","1500","The main experiment item","yes","FlankerTask.osexp","C:\Users\katie\Documents\School\Quant Methods","no","mono","no","18","no","white","no","yes","768","legacy","79","79","C:/Users/katie/Documents/School/Quant Methods/KH-subject-3.csv","legacy","Lentiform Loewenfeld","3.3.9","0","s","NA","f","NA","NA","s","460","NA","43229","NA","NA","460","NA","NA","2","legacy","1024","2","48000","-16","experiment","SSSSS","3","odd","190514","47296","NA","NA","146312","4060","NA","NA","191600","4065","NA","NA","191704","192166","191597","191703","NA","Flanker Task","76","48642","80","yes","1024"
"95.0617283951","95.0617283951","610.950617284","610.950617284","black","legacy","legacy","legacy","0","congruent","uniform","1","undefined","1","s","80","0","0","0","80","0","80","0","80","0","0","0","80","80","80","80","NA","09/25/21 16:37:15","600","The main experiment item","yes","FlankerTask.osexp","C:\Users\katie\Documents\School\Quant Methods","no","mono","no","18","no","white","no","yes","768","legacy","0","79","C:/Users/katie/Documents/School/Quant Methods/KH-subject-3.csv","legacy","Lentiform Loewenfeld","3.3.9","0","s","NA","f","h","NA","s","845","NA","43229","24419","NA","845","NA","NA","2","legacy","1024","2","48000","-16","experiment","SSSSS","3","odd","192172","47296","217618","NA","146312","4060","NA","NA","217680","4065","193198","NA","217782","218628","217678","217782","NA","Flanker Task","77","49487","81","yes","1024"
"95.1219512195","95.1219512195","614.256097561","614.256097561","black","legacy","legacy","legacy","0","incongruent","uniform","1","undefined","1","s","81","0","0","0","81","0","81","0","81","0","0","0","81","81","81","81","NA","09/25/21 16:37:15","600","The main experiment item","yes","FlankerTask.osexp","C:\Users\katie\Documents\School\Quant Methods","no","mono","no","18","no","white","no","yes","768","legacy","1","79","C:/Users/katie/Documents/School/Quant Methods/KH-subject-3.csv","legacy","Lentiform Loewenfeld","3.3.9","0","s","NA","f","h","NA","s","882","NA","43229","24419","NA","882","NA","NA","2","legacy","1024","2","48000","-16","experiment","HHSHH","3","odd","219143","47296","217618","NA","146312","4060","218640","NA","220234","4065","193198","NA","220337","221220","220231","220337","NA","Flanker Task","78","50369","82","yes","1024"
"95.1807228916","95.1807228916","612.385542169","612.385542169","black","legacy","legacy","legacy","0","congruent","uniform","1","undefined","1","s","82","0","0","0","82","0","82","0","82","0","0","0","82","82","82","82","NA","09/25/21 16:37:15","600","The main experiment item","yes","FlankerTask.osexp","C:\Users\katie\Documents\School\Quant Methods","no","mono","no","18","no","white","no","yes","768","legacy","2","79","C:/Users/katie/Documents/School/Quant Methods/KH-subject-3.csv","legacy","Lentiform Loewenfeld","3.3.9","0","s","NA","f","h","NA","s","459","NA","43229","24419","NA","459","NA","NA","2","legacy","1024","2","48000","-16","experiment","SSSSS","3","odd","221728","47296","217618","NA","146312","4060","221225","NA","222801","4065","193198","NA","222905","223365","222798","222905","NA","Flanker Task","79","50828","83","yes","1024"
"95.2380952381","95.2380952381","611.571428571","611.571428571","black","legacy","legacy","legacy","0","incongruent","uniform","1","undefined","1","s","83","0","0","0","83","0","83","0","83","0","0","0","83","83","83","83","NA","09/25/21 16:37:15","600","The main experiment item","yes","FlankerTask.osexp","C:\Users\katie\Documents\School\Quant Methods","no","mono","no","18","no","white","no","yes","768","legacy","3","79","C:/Users/katie/Documents/School/Quant Methods/KH-subject-3.csv","legacy","Lentiform Loewenfeld","3.3.9","0","s","NA","f","h","NA","s","544","NA","43229","24419","NA","544","NA","NA","2","legacy","1024","2","48000","-16","experiment","HHSHH","3","odd","223372","47296","217618","NA","146312","4060","221225","NA","224455","4065","193198","NA","224558","225103","224453","224558","NA","Flanker Task","80","51372","84","yes","1024"
"95.2941176471","95.2941176471","610.894117647","610.894117647","black","legacy","legacy","legacy","0","incongruent","uniform","1","undefined","1","s","84","0","0","0","84","0","84","0","84","0","0","0","84","84","84","84","NA","09/25/21 16:37:15","600","The main experiment item","yes","FlankerTask.osexp","C:\Users\katie\Documents\School\Quant Methods","no","mono","no","18","no","white","no","yes","768","legacy","4","79","C:/Users/katie/Documents/School/Quant Methods/KH-subject-3.csv","legacy","Lentiform Loewenfeld","3.3.9","0","s","NA","f","h","NA","s","554","NA","43229","24419","NA","554","NA","NA","2","legacy","1024","2","48000","-16","experiment","HHSHH","3","odd","225110","47296","217618","NA","146312","4060","221225","NA","226188","4065","193198","NA","226291","226845","226186","226291","NA","Flanker Task","81","51926","85","yes","1024"
"95.3488372093","95.3488372093","609.313953488","609.313953488","black","legacy","legacy","legacy","0","congruent","uniform","1","undefined","1","h","85","0","0","0","85","0","85","0","85","0","0","0","85","85","85","85","NA","09/25/21 16:37:15","600","The main experiment item","yes","FlankerTask.osexp","C:\Users\katie\Documents\School\Quant Methods","no","mono","no","18","no","white","no","yes","768","legacy","5","79","C:/Users/katie/Documents/School/Quant Methods/KH-subject-3.csv","legacy","Lentiform Loewenfeld","3.3.9","0","h","NA","f","h","NA","h","475","NA","43229","24419","NA","475","NA","NA","2","legacy","1024","2","48000","-16","experiment","HHHHH","3","odd","226851","47296","217618","NA","146312","4060","221225","NA","227919","4065","193198","NA","228023","228498","227917","228023","NA","Flanker Task","82","52401","86","yes","1024"
"95.4022988506","95.4022988506","608.103448276","608.103448276","black","legacy","legacy","legacy","0","incongruent","uniform","1","undefined","1","s","86","0","0","0","86","0","86","0","86","0","0","0","86","86","86","86","NA","09/25/21 16:37:15","600","The main experiment item","yes","FlankerTask.osexp","C:\Users\katie\Documents\School\Quant Methods","no","mono","no","18","no","white","no","yes","768","legacy","6","79","C:/Users/katie/Documents/School/Quant Methods/KH-subject-3.csv","legacy","Lentiform Loewenfeld","3.3.9","0","s","NA","f","h","NA","s","504","NA","43229","24419","NA","504","NA","NA","2","legacy","1024","2","48000","-16","experiment","HHSHH","3","odd","228505","47296","217618","NA","146312","4060","221225","NA","229607","4065","193198","NA","229711","230215","229605","229710","NA","Flanker Task","83","52905","87","yes","1024"
"95.4545454545","95.4545454545","607.465909091","607.465909091","black","legacy","legacy","legacy","0","congruent","uniform","1","undefined","1","h","87","0","0","0","87","0","87","0","87","0","0","0","87","87","87","87","NA","09/25/21 16:37:15","600","The main experiment item","yes","FlankerTask.osexp","C:\Users\katie\Documents\School\Quant Methods","no","mono","no","18","no","white","no","yes","768","legacy","7","79","C:/Users/katie/Documents/School/Quant Methods/KH-subject-3.csv","legacy","Lentiform Loewenfeld","3.3.9","0","h","NA","f","h","NA","h","552","NA","43229","24419","NA","552","NA","NA","2","legacy","1024","2","48000","-16","experiment","HHHHH","3","odd","230221","47296","217618","NA","146312","4060","221225","NA","231301","4065","193198","NA","231405","231960","231299","231404","NA","Flanker Task","84","53457","88","yes","1024"
"95.5056179775","95.5056179775","605.146067416","605.146067416","black","legacy","legacy","legacy","0","congruent","uniform","1","undefined","1","h","88","0","0","0","88","0","88","0","88","0","0","0","88","88","88","88","NA","09/25/21 16:37:15","600","The main experiment item","yes","FlankerTask.osexp","C:\Users\katie\Documents\School\Quant Methods","no","mono","no","18","no","white","no","yes","768","legacy","8","79","C:/Users/katie/Documents/School/Quant Methods/KH-subject-3.csv","legacy","Lentiform Loewenfeld","3.3.9","0","h","NA","f","h","NA","h","401","NA","43229","24419","NA","401","NA","NA","2","legacy","1024","2","48000","-16","experiment","HHHHH","3","odd","231967","47296","217618","NA","146312","4060","221225","NA","233036","4065","193198","NA","233139","233541","233034","233139","NA","Flanker Task","85","53858","89","yes","1024"
"95.5555555556","95.5555555556","604.033333333","604.033333333","black","legacy","legacy","legacy","0","congruent","uniform","1","undefined","1","s","89","0","0","0","89","0","89","0","89","0","0","0","89","89","89","89","NA","09/25/21 16:37:15","600","The main experiment item","yes","FlankerTask.osexp","C:\Users\katie\Documents\School\Quant Methods","no","mono","no","18","no","white","no","yes","768","legacy","9","79","C:/Users/katie/Documents/School/Quant Methods/KH-subject-3.csv","legacy","Lentiform Loewenfeld","3.3.9","0","s","NA","f","h","NA","s","505","NA","43229","24419","NA","505","NA","NA","2","legacy","1024","2","48000","-16","experiment","SSSSS","3","odd","233548","47296","217618","NA","146312","4060","221225","NA","234635","4065","193198","NA","234738","235245","234632","234738","NA","Flanker Task","86","54363","90","yes","1024"
"95.6043956044","95.6043956044","604.472527473","604.472527473","black","legacy","legacy","legacy","0","incongruent","uniform","1","undefined","1","s","90","0","0","0","90","0","90","0","90","0","0","0","90","90","90","90","NA","09/25/21 16:37:15","600","The main experiment item","yes","FlankerTask.osexp","C:\Users\katie\Documents\School\Quant Methods","no","mono","no","18","no","white","no","yes","768","legacy","10","79","C:/Users/katie/Documents/School/Quant Methods/KH-subject-3.csv","legacy","Lentiform Loewenfeld","3.3.9","0","s","NA","f","h","NA","s","644","NA","43229","24419","NA","644","NA","NA","2","legacy","1024","2","48000","-16","experiment","HHSHH","3","odd","235258","47296","217618","NA","146312","4060","221225","NA","236340","4065","193198","NA","236442","237087","236339","236442","NA","Flanker Task","87","55007","91","yes","1024"
"95.652173913","95.652173913","602.782608696","602.782608696","black","legacy","legacy","legacy","0","congruent","uniform","1","undefined","1","h","91","0","0","0","91","0","91","0","91","0","0","0","91","91","91","91","NA","09/25/21 16:37:15","600","The main experiment item","yes","FlankerTask.osexp","C:\Users\katie\Documents\School\Quant Methods","no","mono","no","18","no","white","no","yes","768","legacy","11","79","C:/Users/katie/Documents/School/Quant Methods/KH-subject-3.csv","legacy","Lentiform Loewenfeld","3.3.9","0","h","NA","f","h","NA","h","449","NA","43229","24419","NA","449","NA","NA","2","legacy","1024","2","48000","-16","experiment","HHHHH","3","odd","237606","47296","217618","NA","146312","4060","237101","NA","238684","4065","193198","NA","238787","239237","238681","238787","NA","Flanker Task","88","55456","92","yes","1024"
"95.6989247312","95.6989247312","601.623655914","601.623655914","black","legacy","legacy","legacy","0","congruent","uniform","1","undefined","1","s","92","0","0","0","92","0","92","0","92","0","0","0","92","92","92","92","NA","09/25/21 16:37:15","600","The main experiment item","yes","FlankerTask.osexp","C:\Users\katie\Documents\School\Quant Methods","no","mono","no","18","no","white","no","yes","768","legacy","12","79","C:/Users/katie/Documents/School/Quant Methods/KH-subject-3.csv","legacy","Lentiform Loewenfeld","3.3.9","0","s","NA","f","h","NA","s","495","NA","43229","24419","NA","495","NA","NA","2","legacy","1024","2","48000","-16","experiment","SSSSS","3","odd","239243","47296","217618","NA","146312","4060","237101","NA","240310","4065","193198","NA","240413","240909","240308","240413","NA","Flanker Task","89","55951","93","yes","1024"
"95.7446808511","95.7446808511","599.531914894","599.531914894","black","legacy","legacy","legacy","0","congruent","uniform","1","undefined","1","s","93","0","0","0","93","0","93","0","93","0","0","0","93","93","93","93","NA","09/25/21 16:37:15","600","The main experiment item","yes","FlankerTask.osexp","C:\Users\katie\Documents\School\Quant Methods","no","mono","no","18","no","white","no","yes","768","legacy","13","79","C:/Users/katie/Documents/School/Quant Methods/KH-subject-3.csv","legacy","Lentiform Loewenfeld","3.3.9","0","s","NA","f","h","NA","s","405","NA","43229","24419","NA","405","NA","NA","2","legacy","1024","2","48000","-16","experiment","SSSSS","3","odd","240916","47296","217618","NA","146312","4060","237101","NA","241992","4065","193198","NA","242096","242502","241989","242095","NA","Flanker Task","90","56356","94","yes","1024"
"95.7894736842","95.7894736842","599.315789474","599.315789474","black","legacy","legacy","legacy","0","incongruent","uniform","1","undefined","1","h","94","0","0","0","94","0","94","0","94","0","0","0","94","94","94","94","NA","09/25/21 16:37:15","600","The main experiment item","yes","FlankerTask.osexp","C:\Users\katie\Documents\School\Quant Methods","no","mono","no","18","no","white","no","yes","768","legacy","14","79","C:/Users/katie/Documents/School/Quant Methods/KH-subject-3.csv","legacy","Lentiform Loewenfeld","3.3.9","0","h","NA","f","h","NA","h","579","NA","43229","24419","NA","579","NA","NA","2","legacy","1024","2","48000","-16","experiment","SSHSS","3","odd","242508","47296","217618","NA","146312","4060","237101","NA","243586","4065","193198","NA","243689","244269","243584","243689","NA","Flanker Task","91","56935","95","yes","1024"
"95.8333333333","95.8333333333","598.916666667","598.916666667","black","legacy","legacy","legacy","0","incongruent","uniform","1","undefined","1","s","95","0","0","0","95","0","95","0","95","0","0","0","95","95","95","95","NA","09/25/21 16:37:15","600","The main experiment item","yes","FlankerTask.osexp","C:\Users\katie\Documents\School\Quant Methods","no","mono","no","18","no","white","no","yes","768","legacy","15","79","C:/Users/katie/Documents/School/Quant Methods/KH-subject-3.csv","legacy","Lentiform Loewenfeld","3.3.9","0","s","NA","f","h","NA","s","561","NA","43229","24419","NA","561","NA","NA","2","legacy","1024","2","48000","-16","experiment","HHSHH","3","odd","244275","47296","217618","NA","146312","4060","237101","NA","245367","4065","193198","NA","245470","246032","245366","245470","NA","Flanker Task","92","57496","96","yes","1024"
"95.8762886598","95.8762886598","597.865979381","597.865979381","black","legacy","legacy","legacy","0","congruent","uniform","1","undefined","1","h","96","0","0","0","96","0","96","0","96","0","0","0","96","96","96","96","NA","09/25/21 16:37:15","600","The main experiment item","yes","FlankerTask.osexp","C:\Users\katie\Documents\School\Quant Methods","no","mono","no","18","no","white","no","yes","768","legacy","16","79","C:/Users/katie/Documents/School/Quant Methods/KH-subject-3.csv","legacy","Lentiform Loewenfeld","3.3.9","0","h","NA","f","h","NA","h","497","NA","43229","24419","NA","497","NA","NA","2","legacy","1024","2","48000","-16","experiment","HHHHH","3","odd","246038","47296","217618","NA","146312","4060","237101","NA","247129","4065","193198","NA","247232","247730","247127","247232","NA","Flanker Task","93","57993","97","yes","1024"
"95.9183673469","95.9183673469","595.969387755","595.969387755","black","legacy","legacy","legacy","0","congruent","uniform","1","undefined","1","s","97","0","0","0","97","0","97","0","97","0","0","0","97","97","97","97","NA","09/25/21 16:37:15","600","The main experiment item","yes","FlankerTask.osexp","C:\Users\katie\Documents\School\Quant Methods","no","mono","no","18","no","white","no","yes","768","legacy","17","79","C:/Users/katie/Documents/School/Quant Methods/KH-subject-3.csv","legacy","Lentiform Loewenfeld","3.3.9","0","s","NA","f","h","NA","s","412","NA","43229","24419","NA","412","NA","NA","2","legacy","1024","2","48000","-16","experiment","SSSSS","3","odd","247734","47296","217618","NA","146312","4060","237101","NA","248806","4065","193198","NA","248909","249323","248803","248909","NA","Flanker Task","94","58405","98","yes","1024"
"95.9595959596","95.9595959596","595.878787879","595.878787879","black","legacy","legacy","legacy","0","incongruent","uniform","1","undefined","1","h","98","0","0","0","98","0","98","0","98","0","0","0","98","98","98","98","NA","09/25/21 16:37:15","600","The main experiment item","yes","FlankerTask.osexp","C:\Users\katie\Documents\School\Quant Methods","no","mono","no","18","no","white","no","yes","768","legacy","18","79","C:/Users/katie/Documents/School/Quant Methods/KH-subject-3.csv","legacy","Lentiform Loewenfeld","3.3.9","0","h","NA","f","h","NA","h","587","NA","43229","24419","NA","587","NA","NA","2","legacy","1024","2","48000","-16","experiment","SSHSS","3","odd","249326","47296","217618","NA","146312","4060","237101","NA","250415","4065","193198","NA","250518","251108","250412","250518","NA","Flanker Task","95","58992","99","yes","1024"
"96","96","594.95","594.95","black","legacy","legacy","legacy","0","congruent","uniform","1","undefined","1","h","99","0","0","0","99","0","99","0","99","0","0","0","99","99","99","99","NA","09/25/21 16:37:15","600","The main experiment item","yes","FlankerTask.osexp","C:\Users\katie\Documents\School\Quant Methods","no","mono","no","18","no","white","no","yes","768","legacy","19","79","C:/Users/katie/Documents/School/Quant Methods/KH-subject-3.csv","legacy","Lentiform Loewenfeld","3.3.9","0","h","NA","f","h","NA","h","503","NA","43229","24419","NA","503","NA","NA","2","legacy","1024","2","48000","-16","experiment","HHHHH","3","odd","251114","47296","217618","NA","146312","4060","237101","NA","252216","4065","193198","NA","252319","252823","252207","252318","NA","Flanker Task","96","59495","100","yes","1024"
"96.0396039604","96.0396039604","595.386138614","595.386138614","black","legacy","legacy","legacy","0","incongruent","uniform","1","undefined","1","h","100","0","0","0","100","0","100","0","100","0","0","0","100","100","100","100","NA","09/25/21 16:37:15","600","The main experiment item","yes","FlankerTask.osexp","C:\Users\katie\Documents\School\Quant Methods","no","mono","no","18","no","white","no","yes","768","legacy","20","79","C:/Users/katie/Documents/School/Quant Methods/KH-subject-3.csv","legacy","Lentiform Loewenfeld","3.3.9","0","h","NA","f","h","NA","h","639","NA","43229","24419","NA","639","NA","NA","2","legacy","1024","2","48000","-16","experiment","SSHSS","3","odd","252829","47296","217618","NA","146312","4060","237101","NA","253898","4065","193198","NA","254001","254641","253894","254001","NA","Flanker Task","97","60134","101","yes","1024"
"96.0784313725","96.0784313725","594.264705882","594.264705882","black","legacy","legacy","legacy","0","incongruent","uniform","1","undefined","1","h","101","0","0","0","101","0","101","0","101","0","0","0","101","101","101","101","NA","09/25/21 16:37:15","600","The main experiment item","yes","FlankerTask.osexp","C:\Users\katie\Documents\School\Quant Methods","no","mono","no","18","no","white","no","yes","768","legacy","21","79","C:/Users/katie/Documents/School/Quant Methods/KH-subject-3.csv","legacy","Lentiform Loewenfeld","3.3.9","0","h","NA","f","h","NA","h","481","NA","43229","24419","NA","481","NA","NA","2","legacy","1024","2","48000","-16","experiment","SSHSS","3","odd","255151","47296","217618","NA","146312","4060","254648","NA","256242","4065","193198","NA","256345","256827","256240","256345","NA","Flanker Task","98","60615","102","yes","1024"
"96.1165048544","96.1165048544","594.252427184","594.252427184","black","legacy","legacy","legacy","0","incongruent","uniform","1","undefined","1","s","102","0","0","0","102","0","102","0","102","0","0","0","102","102","102","102","NA","09/25/21 16:37:15","600","The main experiment item","yes","FlankerTask.osexp","C:\Users\katie\Documents\School\Quant Methods","no","mono","no","18","no","white","no","yes","768","legacy","22","79","C:/Users/katie/Documents/School/Quant Methods/KH-subject-3.csv","legacy","Lentiform Loewenfeld","3.3.9","0","s","NA","f","h","NA","s","593","NA","43229","24419","NA","593","NA","NA","2","legacy","1024","2","48000","-16","experiment","HHSHH","3","odd","256842","47296","217618","NA","146312","4060","254648","NA","257923","4065","193198","NA","258027","258622","257921","258027","NA","Flanker Task","99","61208","103","yes","1024"
"96.1538461538","96.1538461538","594.153846154","594.153846154","black","legacy","legacy","legacy","0","incongruent","uniform","1","undefined","1","h","103","0","0","0","103","0","103","0","103","0","0","0","103","103","103","103","NA","09/25/21 16:37:15","600","The main experiment item","yes","FlankerTask.osexp","C:\Users\katie\Documents\School\Quant Methods","no","mono","no","18","no","white","no","yes","768","legacy","23","79","C:/Users/katie/Documents/School/Quant Methods/KH-subject-3.csv","legacy","Lentiform Loewenfeld","3.3.9","0","h","NA","f","h","NA","h","584","NA","43229","24419","NA","584","NA","NA","2","legacy","1024","2","48000","-16","experiment","SSHSS","3","odd","258634","47296","217618","NA","146312","4060","254648","NA","259703","4065","193198","NA","259808","260393","259701","259808","NA","Flanker Task","100","61792","104","yes","1024"
"96.1904761905","96.1904761905","593.885714286","593.885714286","black","legacy","legacy","legacy","0","incongruent","uniform","1","undefined","1","s","104","0","0","0","104","0","104","0","104","0","0","0","104","104","104","104","NA","09/25/21 16:37:15","600","The main experiment item","yes","FlankerTask.osexp","C:\Users\katie\Documents\School\Quant Methods","no","mono","no","18","no","white","no","yes","768","legacy","24","79","C:/Users/katie/Documents/School/Quant Methods/KH-subject-3.csv","legacy","Lentiform Loewenfeld","3.3.9","0","s","NA","f","h","NA","s","566","NA","43229","24419","NA","566","NA","NA","2","legacy","1024","2","48000","-16","experiment","HHSHH","3","odd","260398","47296","217618","NA","146312","4060","254648","NA","261495","4065","193198","NA","261599","262166","261492","261599","NA","Flanker Task","101","62358","105","yes","1024"
"96.2264150943","96.2264150943","593.047169811","593.047169811","black","legacy","legacy","legacy","0","incongruent","uniform","1","undefined","1","s","105","0","0","0","105","0","105","0","105","0","0","0","105","105","105","105","NA","09/25/21 16:37:15","600","The main experiment item","yes","FlankerTask.osexp","C:\Users\katie\Documents\School\Quant Methods","no","mono","no","18","no","white","no","yes","768","legacy","25","79","C:/Users/katie/Documents/School/Quant Methods/KH-subject-3.csv","legacy","Lentiform Loewenfeld","3.3.9","0","s","NA","f","h","NA","s","505","NA","43229","24419","NA","505","NA","NA","2","legacy","1024","2","48000","-16","experiment","HHSHH","3","odd","262181","47296","217618","NA","146312","4060","254648","NA","263255","4065","193198","NA","263358","263864","263252","263358","NA","Flanker Task","102","62863","106","yes","1024"
"95.3271028037","95.3271028037","592.037383178","592.037383178","black","legacy","legacy","legacy","0","incongruent","uniform","0","undefined","0","h","106","0","0","0","106","0","106","0","106","0","0","0","106","106","106","106","NA","09/25/21 16:37:15","600","The main experiment item","yes","FlankerTask.osexp","C:\Users\katie\Documents\School\Quant Methods","no","mono","no","18","no","white","no","yes","768","legacy","26","79","C:/Users/katie/Documents/School/Quant Methods/KH-subject-3.csv","legacy","Lentiform Loewenfeld","3.3.9","0","s","NA","f","h","NA","s","485","NA","43229","24419","NA","485","NA","NA","2","legacy","1024","2","48000","-16","experiment","SSHSS","3","odd","263878","47296","217618","NA","146312","4060","254648","NA","264953","4065","193198","NA","265056","265545","264950","265056","NA","Flanker Task","102","63348","107","yes","1024"
"95.3703703704","95.3703703704","591.842592593","591.842592593","black","legacy","legacy","legacy","0","congruent","uniform","1","undefined","1","h","107","0","0","0","107","0","107","0","107","0","0","0","107","107","107","107","NA","09/25/21 16:37:15","600","The main experiment item","yes","FlankerTask.osexp","C:\Users\katie\Documents\School\Quant Methods","no","mono","no","18","no","white","no","yes","768","legacy","27","79","C:/Users/katie/Documents/School/Quant Methods/KH-subject-3.csv","legacy","Lentiform Loewenfeld","3.3.9","0","h","NA","f","h","NA","h","571","NA","43229","24419","NA","571","NA","NA","2","legacy","1024","2","48000","-16","experiment","HHHHH","3","odd","266062","47296","217618","NA","265559","4060","254648","NA","267136","4065","193198","NA","267240","267813","267133","267240","NA","Flanker Task","103","63919","108","yes","1024"
"95.4128440367","95.4128440367","591.339449541","591.339449541","black","legacy","legacy","legacy","0","congruent","uniform","1","undefined","1","h","108","0","0","0","108","0","108","0","108","0","0","0","108","108","108","108","NA","09/25/21 16:37:15","600","The main experiment item","yes","FlankerTask.osexp","C:\Users\katie\Documents\School\Quant Methods","no","mono","no","18","no","white","no","yes","768","legacy","28","79","C:/Users/katie/Documents/School/Quant Methods/KH-subject-3.csv","legacy","Lentiform Loewenfeld","3.3.9","0","h","NA","f","h","NA","h","537","NA","43229","24419","NA","537","NA","NA","2","legacy","1024","2","48000","-16","experiment","HHHHH","3","odd","267817","47296","217618","NA","265559","4060","254648","NA","268897","4065","193198","NA","269000","269538","268895","269000","NA","Flanker Task","104","64456","109","yes","1024"
"95.4545454545","95.4545454545","590.590909091","590.590909091","black","legacy","legacy","legacy","0","incongruent","uniform","1","undefined","1","s","109","0","0","0","109","0","109","0","109","0","0","0","109","109","109","109","NA","09/25/21 16:37:15","600","The main experiment item","yes","FlankerTask.osexp","C:\Users\katie\Documents\School\Quant Methods","no","mono","no","18","no","white","no","yes","768","legacy","29","79","C:/Users/katie/Documents/School/Quant Methods/KH-subject-3.csv","legacy","Lentiform Loewenfeld","3.3.9","0","s","NA","f","h","NA","s","509","NA","43229","24419","NA","509","NA","NA","2","legacy","1024","2","48000","-16","experiment","HHSHH","3","odd","269550","47296","217618","NA","265559","4060","254648","NA","270627","4065","193198","NA","270730","271241","270625","270730","NA","Flanker Task","105","64965","110","yes","1024"
"95.4954954955","95.4954954955","589.495495495","589.495495495","black","legacy","legacy","legacy","0","congruent","uniform","1","undefined","1","s","110","0","0","0","110","0","110","0","110","0","0","0","110","110","110","110","NA","09/25/21 16:37:15","600","The main experiment item","yes","FlankerTask.osexp","C:\Users\katie\Documents\School\Quant Methods","no","mono","no","18","no","white","no","yes","768","legacy","30","79","C:/Users/katie/Documents/School/Quant Methods/KH-subject-3.csv","legacy","Lentiform Loewenfeld","3.3.9","0","s","NA","f","h","NA","s","469","NA","43229","24419","NA","469","NA","NA","2","legacy","1024","2","48000","-16","experiment","SSSSS","3","odd","271245","47296","217618","NA","265559","4060","254648","NA","272314","4065","193198","NA","272417","272888","272311","272417","NA","Flanker Task","106","65434","111","yes","1024"
"95.5357142857","95.5357142857","587.973214286","587.973214286","black","legacy","legacy","legacy","0","congruent","uniform","1","undefined","1","s","111","0","0","0","111","0","111","0","111","0","0","0","111","111","111","111","NA","09/25/21 16:37:15","600","The main experiment item","yes","FlankerTask.osexp","C:\Users\katie\Documents\School\Quant Methods","no","mono","no","18","no","white","no","yes","768","legacy","31","79","C:/Users/katie/Documents/School/Quant Methods/KH-subject-3.csv","legacy","Lentiform Loewenfeld","3.3.9","0","s","NA","f","h","NA","s","419","NA","43229","24419","NA","419","NA","NA","2","legacy","1024","2","48000","-16","experiment","SSSSS","3","odd","272893","47296","217618","NA","265559","4060","254648","NA","273980","4065","193198","NA","274082","274503","273977","274082","NA","Flanker Task","107","65853","112","yes","1024"
"95.5752212389","95.5752212389","587.061946903","587.061946903","black","legacy","legacy","legacy","0","congruent","uniform","1","undefined","1","h","112","0","0","0","112","0","112","0","112","0","0","0","112","112","112","112","NA","09/25/21 16:37:15","600","The main experiment item","yes","FlankerTask.osexp","C:\Users\katie\Documents\School\Quant Methods","no","mono","no","18","no","white","no","yes","768","legacy","32","79","C:/Users/katie/Documents/School/Quant Methods/KH-subject-3.csv","legacy","Lentiform Loewenfeld","3.3.9","0","h","NA","f","h","NA","h","485","NA","43229","24419","NA","485","NA","NA","2","legacy","1024","2","48000","-16","experiment","HHHHH","3","odd","274508","47296","217618","NA","265559","4060","254648","NA","275590","4065","193198","NA","275692","276183","275584","275692","NA","Flanker Task","108","66338","113","yes","1024"
"95.6140350877","95.6140350877","585.929824561","585.929824561","black","legacy","legacy","legacy","0","congruent","uniform","1","undefined","1","s","113","0","0","0","113","0","113","0","113","0","0","0","113","113","113","113","NA","09/25/21 16:37:15","600","The main experiment item","yes","FlankerTask.osexp","C:\Users\katie\Documents\School\Quant Methods","no","mono","no","18","no","white","no","yes","768","legacy","33","79","C:/Users/katie/Documents/School/Quant Methods/KH-subject-3.csv","legacy","Lentiform Loewenfeld","3.3.9","0","s","NA","f","h","NA","s","458","NA","43229","24419","NA","458","NA","NA","2","legacy","1024","2","48000","-16","experiment","SSSSS","3","odd","276191","47296","217618","NA","265559","4060","254648","NA","277276","4065","193198","NA","277378","277838","277273","277378","NA","Flanker Task","109","66796","114","yes","1024"
"95.652173913","95.652173913","584.469565217","584.469565217","black","legacy","legacy","legacy","0","congruent","uniform","1","undefined","1","s","114","0","0","0","114","0","114","0","114","0","0","0","114","114","114","114","NA","09/25/21 16:37:15","600","The main experiment item","yes","FlankerTask.osexp","C:\Users\katie\Documents\School\Quant Methods","no","mono","no","18","no","white","no","yes","768","legacy","34","79","C:/Users/katie/Documents/School/Quant Methods/KH-subject-3.csv","legacy","Lentiform Loewenfeld","3.3.9","0","s","NA","f","h","NA","s","418","NA","43229","24419","NA","418","NA","NA","2","legacy","1024","2","48000","-16","experiment","SSSSS","3","odd","277846","47296","217618","NA","265559","4060","254648","NA","278904","4065","193198","NA","279006","279425","278902","279006","NA","Flanker Task","110","67214","115","yes","1024"
"95.6896551724","95.6896551724","583.793103448","583.793103448","black","legacy","legacy","legacy","0","incongruent","uniform","1","undefined","1","s","115","0","0","0","115","0","115","0","115","0","0","0","115","115","115","115","NA","09/25/21 16:37:15","600","The main experiment item","yes","FlankerTask.osexp","C:\Users\katie\Documents\School\Quant Methods","no","mono","no","18","no","white","no","yes","768","legacy","35","79","C:/Users/katie/Documents/School/Quant Methods/KH-subject-3.csv","legacy","Lentiform Loewenfeld","3.3.9","0","s","NA","f","h","NA","s","506","NA","43229","24419","NA","506","NA","NA","2","legacy","1024","2","48000","-16","experiment","HHSHH","3","odd","279430","47296","217618","NA","265559","4060","254648","NA","280504","4065","193198","NA","280606","281114","280502","280606","NA","Flanker Task","111","67720","116","yes","1024"
"95.7264957265","95.7264957265","582.47008547","582.47008547","black","legacy","legacy","legacy","0","congruent","uniform","1","undefined","1","s","116","0","0","0","116","0","116","0","116","0","0","0","116","116","116","116","NA","09/25/21 16:37:15","600","The main experiment item","yes","FlankerTask.osexp","C:\Users\katie\Documents\School\Quant Methods","no","mono","no","18","no","white","no","yes","768","legacy","36","79","C:/Users/katie/Documents/School/Quant Methods/KH-subject-3.csv","legacy","Lentiform Loewenfeld","3.3.9","0","s","NA","f","h","NA","s","429","NA","43229","24419","NA","429","NA","NA","2","legacy","1024","2","48000","-16","experiment","SSSSS","3","odd","281121","47296","217618","NA","265559","4060","254648","NA","282195","4065","193198","NA","282298","282728","282192","282298","NA","Flanker Task","112","68149","117","yes","1024"
