"acc","accuracy","average_response_time","avg_rt","background","canvas_backend","clock_backend","color_backend","compensation","condition","coordinates","correct","correct_instructions1","correct_keyboard_response","correct_response","count_Block1","count_Block2","count_Block3","count_ISI","count_errorFeedback","count_experiment","count_faster","count_finish","count_fixation","count_instruction2","count_instruction3","count_instructions1","count_keyboard_response","count_logger","count_sequence","count_stimulus","datetime","deadline","description","disable_garbage_collection","experiment_file","experiment_path","font_bold","font_family","font_italic","font_size","font_underline","foreground","form_clicks","fullscreen","height","keyboard_backend","live_row","live_row_Block1","logfile","mouse_backend","opensesame_codename","opensesame_version","repeat_cycle","response","response_finish","response_instruction2","response_instruction3","response_instructions1","response_keyboard_response","response_time","response_time_finish","response_time_instruction2","response_time_instruction3","response_time_instructions1","response_time_keyboard_response","round_decimals","sampler_backend","sound_buf_size","sound_channels","sound_freq","sound_sample_size","start","stimulus","subject_nr","subject_parity","time_Block1","time_Block2","time_Block3","time_ISI","time_errorFeedback","time_experiment","time_faster","time_finish","time_fixation","time_instruction2","time_instruction3","time_instructions1","time_keyboard_response","time_logger","time_sequence","time_stimulus","title","total_correct","total_response_time","total_responses","uniform_coordinates","width"
"100","100","886","886","black","legacy","legacy","legacy","0","congruent","uniform","1","undefined","1","h","0","0","0","0","0","0","0","0","0","0","0","0","0","0","0","0","Thu Sep 22 12:49:13 2022","1500","The main experiment item","yes","Flanker_Task_by_Katherine_Hays.osexp","/Users/katherinehays/Desktop/PSYC 5316 - R and OpenSesame","no","mono","no","18","no","white","no","no","768","legacy","0","0","/Users/katherinehays/Desktop/PSYC 5316 - R and OpenSesame/subject-3.csv","legacy","Lentiform Loewenfeld","3.3.12","0","h","NA","NA","NA","s","h","886","NA","NA","NA","65587","886","2","legacy","1024","2","48000","-16","experiment","HHHHH","3","odd","66808","NA","NA","NA","NA","1084","NA","NA","66841","NA","NA","1209","66947","67833","66836","66947","Flanker Task (by Katherine Hays)","1","886","1","yes","1024"
"100","100","686","686","black","legacy","legacy","legacy","0","congruent","uniform","1","undefined","1","s","0","0","0","1","1","0","1","0","1","0","0","0","1","1","1","1","Thu Sep 22 12:49:13 2022","1500","The main experiment item","yes","Flanker_Task_by_Katherine_Hays.osexp","/Users/katherinehays/Desktop/PSYC 5316 - R and OpenSesame","no","mono","no","18","no","white","no","no","768","legacy","1","1","/Users/katherinehays/Desktop/PSYC 5316 - R and OpenSesame/subject-3.csv","legacy","Lentiform Loewenfeld","3.3.12","0","s","NA","NA","NA","s","s","486","NA","NA","NA","65587","486","2","legacy","1024","2","48000","-16","experiment","SSSSS","3","odd","66808","NA","NA","67838","NA","1084","NA","NA","68901","NA","NA","1209","69005","69491","68883","69005","Flanker Task (by Katherine Hays)","2","1372","2","yes","1024"
"100","100","631.3333333333334","631.3333333333334","black","legacy","legacy","legacy","0","congruent","uniform","1","undefined","1","h","0","0","0","2","2","0","2","0","2","0","0","0","2","2","2","2","Thu Sep 22 12:49:13 2022","1500","The main experiment item","yes","Flanker_Task_by_Katherine_Hays.osexp","/Users/katherinehays/Desktop/PSYC 5316 - R and OpenSesame","no","mono","no","18","no","white","no","no","768","legacy","2","2","/Users/katherinehays/Desktop/PSYC 5316 - R and OpenSesame/subject-3.csv","legacy","Lentiform Loewenfeld","3.3.12","0","h","NA","NA","NA","s","h","522","NA","NA","NA","65587","522","2","legacy","1024","2","48000","-16","experiment","HHHHH","3","odd","66808","NA","NA","69496","NA","1084","NA","NA","70543","NA","NA","1209","70647","71169","70538","70647","Flanker Task (by Katherine Hays)","3","1894","3","yes","1024"
"100","100","613.75","613.75","black","legacy","legacy","legacy","0","congruent","uniform","1","undefined","1","h","0","0","0","3","3","0","3","0","3","0","0","0","3","3","3","3","Thu Sep 22 12:49:13 2022","1500","The main experiment item","yes","Flanker_Task_by_Katherine_Hays.osexp","/Users/katherinehays/Desktop/PSYC 5316 - R and OpenSesame","no","mono","no","18","no","white","no","no","768","legacy","3","3","/Users/katherinehays/Desktop/PSYC 5316 - R and OpenSesame/subject-3.csv","legacy","Lentiform Loewenfeld","3.3.12","0","h","NA","NA","NA","s","h","561","NA","NA","NA","65587","561","2","legacy","1024","2","48000","-16","experiment","HHHHH","3","odd","66808","NA","NA","71174","NA","1084","NA","NA","72216","NA","NA","1209","72320","72881","72211","72320","Flanker Task (by Katherine Hays)","4","2455","4","yes","1024"
"100","100","581.2","581.2","black","legacy","legacy","legacy","0","congruent","uniform","1","undefined","1","s","0","0","0","4","4","0","4","0","4","0","0","0","4","4","4","4","Thu Sep 22 12:49:13 2022","1500","The main experiment item","yes","Flanker_Task_by_Katherine_Hays.osexp","/Users/katherinehays/Desktop/PSYC 5316 - R and OpenSesame","no","mono","no","18","no","white","no","no","768","legacy","4","4","/Users/katherinehays/Desktop/PSYC 5316 - R and OpenSesame/subject-3.csv","legacy","Lentiform Loewenfeld","3.3.12","0","s","NA","NA","NA","s","s","451","NA","NA","NA","65587","451","2","legacy","1024","2","48000","-16","experiment","SSSSS","3","odd","66808","NA","NA","72885","NA","1084","NA","NA","73927","NA","NA","1209","74031","74483","73922","74031","Flanker Task (by Katherine Hays)","5","2906","5","yes","1024"
"83.33333333333333","83.33333333333333","543.5","543.5","black","legacy","legacy","legacy","0","incongruent","uniform","0","undefined","0","s","0","0","0","5","5","0","5","0","5","0","0","0","5","5","5","5","Thu Sep 22 12:49:13 2022","1500","The main experiment item","yes","Flanker_Task_by_Katherine_Hays.osexp","/Users/katherinehays/Desktop/PSYC 5316 - R and OpenSesame","no","mono","no","18","no","white","no","no","768","legacy","5","5","/Users/katherinehays/Desktop/PSYC 5316 - R and OpenSesame/subject-3.csv","legacy","Lentiform Loewenfeld","3.3.12","0","h","NA","NA","NA","s","h","355","NA","NA","NA","65587","355","2","legacy","1024","2","48000","-16","experiment","HHSHH","3","odd","66808","NA","NA","74488","NA","1084","NA","NA","75531","NA","NA","1209","75634","75990","75525","75634","Flanker Task (by Katherine Hays)","5","3261","6","yes","1024"
"71.42857142857143","71.42857142857143","555.4285714285714","555.4285714285714","black","legacy","legacy","legacy","0","incongruent","uniform","0","undefined","0","h","0","0","0","6","6","0","6","0","6","0","0","0","6","6","6","6","Thu Sep 22 12:49:13 2022","1500","The main experiment item","yes","Flanker_Task_by_Katherine_Hays.osexp","/Users/katherinehays/Desktop/PSYC 5316 - R and OpenSesame","no","mono","no","18","no","white","no","no","768","legacy","6","6","/Users/katherinehays/Desktop/PSYC 5316 - R and OpenSesame/subject-3.csv","legacy","Lentiform Loewenfeld","3.3.12","0","s","NA","NA","NA","s","s","627","NA","NA","NA","65587","627","2","legacy","1024","2","48000","-16","experiment","SSHSS","3","odd","66808","NA","NA","76499","75994","1084","NA","NA","77545","NA","NA","1209","77648","78275","77540","77648","Flanker Task (by Katherine Hays)","5","3888","7","yes","1024"
"75","75","555.875","555.875","black","legacy","legacy","legacy","0","congruent","uniform","1","undefined","1","h","0","0","0","7","7","0","7","0","7","0","0","0","7","7","7","7","Thu Sep 22 12:49:13 2022","1500","The main experiment item","yes","Flanker_Task_by_Katherine_Hays.osexp","/Users/katherinehays/Desktop/PSYC 5316 - R and OpenSesame","no","mono","no","18","no","white","no","no","768","legacy","7","7","/Users/katherinehays/Desktop/PSYC 5316 - R and OpenSesame/subject-3.csv","legacy","Lentiform Loewenfeld","3.3.12","0","h","NA","NA","NA","s","h","559","NA","NA","NA","65587","559","2","legacy","1024","2","48000","-16","experiment","HHHHH","3","odd","66808","NA","NA","78784","78280","1084","NA","NA","79823","NA","NA","1209","79927","80487","79819","79926","Flanker Task (by Katherine Hays)","6","4447","8","yes","1024"
"77.77777777777777","77.77777777777777","557.6666666666666","557.6666666666666","black","legacy","legacy","legacy","0","congruent","uniform","1","undefined","1","s","0","0","0","8","8","0","8","0","8","0","0","0","8","8","8","8","Thu Sep 22 12:49:13 2022","1500","The main experiment item","yes","Flanker_Task_by_Katherine_Hays.osexp","/Users/katherinehays/Desktop/PSYC 5316 - R and OpenSesame","no","mono","no","18","no","white","no","no","768","legacy","8","8","/Users/katherinehays/Desktop/PSYC 5316 - R and OpenSesame/subject-3.csv","legacy","Lentiform Loewenfeld","3.3.12","0","s","NA","NA","NA","s","s","572","NA","NA","NA","65587","572","2","legacy","1024","2","48000","-16","experiment","SSSSS","3","odd","66808","NA","NA","80492","78280","1084","NA","NA","81533","NA","NA","1209","81636","82209","81528","81636","Flanker Task (by Katherine Hays)","7","5019","9","yes","1024"
"80","80","565.4","565.4","black","legacy","legacy","legacy","0","congruent","uniform","1","undefined","1","s","0","0","0","9","9","0","9","0","9","0","0","0","9","9","9","9","Thu Sep 22 12:49:13 2022","1500","The main experiment item","yes","Flanker_Task_by_Katherine_Hays.osexp","/Users/katherinehays/Desktop/PSYC 5316 - R and OpenSesame","no","mono","no","18","no","white","no","no","768","legacy","9","9","/Users/katherinehays/Desktop/PSYC 5316 - R and OpenSesame/subject-3.csv","legacy","Lentiform Loewenfeld","3.3.12","0","s","NA","NA","NA","s","s","635","NA","NA","NA","65587","635","2","legacy","1024","2","48000","-16","experiment","SSSSS","3","odd","66808","NA","NA","82213","78280","1084","NA","NA","83254","NA","NA","1209","83358","83993","83249","83358","Flanker Task (by Katherine Hays)","8","5654","10","yes","1024"
"81.81818181818181","81.81818181818181","551.4545454545455","551.4545454545455","black","legacy","legacy","legacy","0","congruent","uniform","1","undefined","1","s","0","0","0","10","10","0","10","0","10","0","0","0","10","10","10","10","Thu Sep 22 12:49:13 2022","1500","The main experiment item","yes","Flanker_Task_by_Katherine_Hays.osexp","/Users/katherinehays/Desktop/PSYC 5316 - R and OpenSesame","no","mono","no","18","no","white","no","no","768","legacy","10","10","/Users/katherinehays/Desktop/PSYC 5316 - R and OpenSesame/subject-3.csv","legacy","Lentiform Loewenfeld","3.3.12","0","s","NA","NA","NA","s","s","412","NA","NA","NA","65587","412","2","legacy","1024","2","48000","-16","experiment","SSSSS","3","odd","66808","NA","NA","83997","78280","1084","NA","NA","85038","NA","NA","1209","85142","85555","85034","85142","Flanker Task (by Katherine Hays)","9","6066","11","yes","1024"
"75","75","576.0833333333334","576.0833333333334","black","legacy","legacy","legacy","0","incongruent","uniform","0","undefined","0","h","0","0","0","11","11","0","11","0","11","0","0","0","11","11","11","11","Thu Sep 22 12:49:13 2022","1500","The main experiment item","yes","Flanker_Task_by_Katherine_Hays.osexp","/Users/katherinehays/Desktop/PSYC 5316 - R and OpenSesame","no","mono","no","18","no","white","no","no","768","legacy","11","11","/Users/katherinehays/Desktop/PSYC 5316 - R and OpenSesame/subject-3.csv","legacy","Lentiform Loewenfeld","3.3.12","0","s","NA","NA","NA","s","s","847","NA","NA","NA","65587","847","2","legacy","1024","2","48000","-16","experiment","SSHSS","3","odd","66808","NA","NA","85559","78280","1084","NA","NA","86602","NA","NA","1209","86706","87554","86597","86705","Flanker Task (by Katherine Hays)","9","6913","12","yes","1024"
"76.92307692307692","76.92307692307692","584.2307692307693","584.2307692307693","black","legacy","legacy","legacy","0","congruent","uniform","1","undefined","1","s","0","0","0","12","12","0","12","0","12","0","0","0","12","12","12","12","Thu Sep 22 12:49:13 2022","1500","The main experiment item","yes","Flanker_Task_by_Katherine_Hays.osexp","/Users/katherinehays/Desktop/PSYC 5316 - R and OpenSesame","no","mono","no","18","no","white","no","no","768","legacy","12","12","/Users/katherinehays/Desktop/PSYC 5316 - R and OpenSesame/subject-3.csv","legacy","Lentiform Loewenfeld","3.3.12","0","s","NA","NA","NA","s","s","682","NA","NA","NA","65587","682","2","legacy","1024","2","48000","-16","experiment","SSSSS","3","odd","66808","NA","NA","88063","87558","1084","NA","NA","89104","NA","NA","1209","89207","89889","89100","89207","Flanker Task (by Katherine Hays)","10","7595","13","yes","1024"
"78.57142857142857","78.57142857142857","577.0714285714286","577.0714285714286","black","legacy","legacy","legacy","0","congruent","uniform","1","undefined","1","h","0","0","0","13","13","0","13","0","13","0","0","0","13","13","13","13","Thu Sep 22 12:49:13 2022","1500","The main experiment item","yes","Flanker_Task_by_Katherine_Hays.osexp","/Users/katherinehays/Desktop/PSYC 5316 - R and OpenSesame","no","mono","no","18","no","white","no","no","768","legacy","13","13","/Users/katherinehays/Desktop/PSYC 5316 - R and OpenSesame/subject-3.csv","legacy","Lentiform Loewenfeld","3.3.12","0","h","NA","NA","NA","s","h","484","NA","NA","NA","65587","484","2","legacy","1024","2","48000","-16","experiment","HHHHH","3","odd","66808","NA","NA","89898","87558","1084","NA","NA","90948","NA","NA","1209","91052","91536","90944","91052","Flanker Task (by Katherine Hays)","11","8079","14","yes","1024"
"80","80","576.9333333333333","576.9333333333333","black","legacy","legacy","legacy","0","congruent","uniform","1","undefined","1","s","0","0","0","14","14","0","14","0","14","0","0","0","14","14","14","14","Thu Sep 22 12:49:13 2022","1500","The main experiment item","yes","Flanker_Task_by_Katherine_Hays.osexp","/Users/katherinehays/Desktop/PSYC 5316 - R and OpenSesame","no","mono","no","18","no","white","no","no","768","legacy","14","14","/Users/katherinehays/Desktop/PSYC 5316 - R and OpenSesame/subject-3.csv","legacy","Lentiform Loewenfeld","3.3.12","0","s","NA","NA","NA","s","s","575","NA","NA","NA","65587","575","2","legacy","1024","2","48000","-16","experiment","SSSSS","3","odd","66808","NA","NA","91540","87558","1084","NA","NA","92582","NA","NA","1209","92686","93262","92578","92686","Flanker Task (by Katherine Hays)","12","8654","15","yes","1024"
"81.25","81.25","571.125","571.125","black","legacy","legacy","legacy","0","congruent","uniform","1","undefined","1","h","0","0","0","15","15","0","15","0","15","0","0","0","15","15","15","15","Thu Sep 22 12:49:13 2022","1500","The main experiment item","yes","Flanker_Task_by_Katherine_Hays.osexp","/Users/katherinehays/Desktop/PSYC 5316 - R and OpenSesame","no","mono","no","18","no","white","no","no","768","legacy","15","15","/Users/katherinehays/Desktop/PSYC 5316 - R and OpenSesame/subject-3.csv","legacy","Lentiform Loewenfeld","3.3.12","0","h","NA","NA","NA","s","h","484","NA","NA","NA","65587","484","2","legacy","1024","2","48000","-16","experiment","HHHHH","3","odd","66808","NA","NA","93266","87558","1084","NA","NA","94305","NA","NA","1209","94409","94894","94301","94409","Flanker Task (by Katherine Hays)","13","9138","16","yes","1024"
"76.47058823529412","76.47058823529412","561.8235294117648","561.8235294117648","black","legacy","legacy","legacy","0","incongruent","uniform","0","undefined","0","s","0","0","0","16","16","0","16","0","16","0","0","0","16","16","16","16","Thu Sep 22 12:49:13 2022","1500","The main experiment item","yes","Flanker_Task_by_Katherine_Hays.osexp","/Users/katherinehays/Desktop/PSYC 5316 - R and OpenSesame","no","mono","no","18","no","white","no","no","768","legacy","16","16","/Users/katherinehays/Desktop/PSYC 5316 - R and OpenSesame/subject-3.csv","legacy","Lentiform Loewenfeld","3.3.12","0","h","NA","NA","NA","s","h","413","NA","NA","NA","65587","413","2","legacy","1024","2","48000","-16","experiment","HHSHH","3","odd","66808","NA","NA","94898","87558","1084","NA","NA","95943","NA","NA","1209","96047","96461","95939","96046","Flanker Task (by Katherine Hays)","13","9551","17","yes","1024"
"77.77777777777777","77.77777777777777","578.4444444444445","578.4444444444445","black","legacy","legacy","legacy","0","incongruent","uniform","1","undefined","1","s","0","0","0","17","17","0","17","0","17","0","0","0","17","17","17","17","Thu Sep 22 12:49:13 2022","1500","The main experiment item","yes","Flanker_Task_by_Katherine_Hays.osexp","/Users/katherinehays/Desktop/PSYC 5316 - R and OpenSesame","no","mono","no","18","no","white","no","no","768","legacy","17","17","/Users/katherinehays/Desktop/PSYC 5316 - R and OpenSesame/subject-3.csv","legacy","Lentiform Loewenfeld","3.3.12","0","s","NA","NA","NA","s","s","861","NA","NA","NA","65587","861","2","legacy","1024","2","48000","-16","experiment","HHSHH","3","odd","66808","NA","NA","96969","96465","1084","NA","NA","98007","NA","NA","1209","98111","98973","98004","98111","Flanker Task (by Katherine Hays)","14","10412","18","yes","1024"
"78.94736842105263","78.94736842105263","585.8421052631579","585.8421052631579","black","legacy","legacy","legacy","0","congruent","uniform","1","undefined","1","h","0","0","0","18","18","0","18","0","18","0","0","0","18","18","18","18","Thu Sep 22 12:49:13 2022","1500","The main experiment item","yes","Flanker_Task_by_Katherine_Hays.osexp","/Users/katherinehays/Desktop/PSYC 5316 - R and OpenSesame","no","mono","no","18","no","white","no","no","768","legacy","18","18","/Users/katherinehays/Desktop/PSYC 5316 - R and OpenSesame/subject-3.csv","legacy","Lentiform Loewenfeld","3.3.12","0","h","NA","NA","NA","s","h","719","NA","NA","NA","65587","719","2","legacy","1024","2","48000","-16","experiment","HHHHH","3","odd","66808","NA","NA","98977","96465","1084","NA","NA","100018","NA","NA","1209","100122","100841","100014","100122","Flanker Task (by Katherine Hays)","15","11131","19","yes","1024"
"75","75","588.95","588.95","black","legacy","legacy","legacy","0","incongruent","uniform","0","undefined","0","h","0","0","0","19","19","0","19","0","19","0","0","0","19","19","19","19","Thu Sep 22 12:49:13 2022","1500","The main experiment item","yes","Flanker_Task_by_Katherine_Hays.osexp","/Users/katherinehays/Desktop/PSYC 5316 - R and OpenSesame","no","mono","no","18","no","white","no","no","768","legacy","19","19","/Users/katherinehays/Desktop/PSYC 5316 - R and OpenSesame/subject-3.csv","legacy","Lentiform Loewenfeld","3.3.12","0","s","NA","NA","NA","s","s","648","NA","NA","NA","65587","648","2","legacy","1024","2","48000","-16","experiment","SSHSS","3","odd","66808","NA","NA","100845","96465","1084","NA","NA","101885","NA","NA","1209","101990","102639","101881","101989","Flanker Task (by Katherine Hays)","15","11779","20","yes","1024"
"76.19047619047619","76.19047619047619","585","585","black","legacy","legacy","legacy","0","congruent","uniform","1","undefined","1","h","0","0","0","20","20","0","20","0","20","0","0","0","20","20","20","20","Thu Sep 22 12:49:13 2022","1500","The main experiment item","yes","Flanker_Task_by_Katherine_Hays.osexp","/Users/katherinehays/Desktop/PSYC 5316 - R and OpenSesame","no","mono","no","18","no","white","no","no","768","legacy","20","20","/Users/katherinehays/Desktop/PSYC 5316 - R and OpenSesame/subject-3.csv","legacy","Lentiform Loewenfeld","3.3.12","0","h","NA","NA","NA","s","h","506","NA","NA","NA","65587","506","2","legacy","1024","2","48000","-16","experiment","HHHHH","3","odd","66808","NA","NA","103148","102643","1084","NA","NA","104188","NA","NA","1209","104292","104799","104183","104292","Flanker Task (by Katherine Hays)","16","12285","21","yes","1024"
"72.72727272727273","72.72727272727273","575.5454545454545","575.5454545454545","black","legacy","legacy","legacy","0","congruent","uniform","0","undefined","0","s","0","0","0","21","21","0","21","0","21","0","0","0","21","21","21","21","Thu Sep 22 12:49:13 2022","1500","The main experiment item","yes","Flanker_Task_by_Katherine_Hays.osexp","/Users/katherinehays/Desktop/PSYC 5316 - R and OpenSesame","no","mono","no","18","no","white","no","no","768","legacy","21","21","/Users/katherinehays/Desktop/PSYC 5316 - R and OpenSesame/subject-3.csv","legacy","Lentiform Loewenfeld","3.3.12","0","h","NA","NA","NA","s","h","377","NA","NA","NA","65587","377","2","legacy","1024","2","48000","-16","experiment","SSSSS","3","odd","66808","NA","NA","104803","102643","1084","NA","NA","105839","NA","NA","1209","105943","106321","105835","105943","Flanker Task (by Katherine Hays)","16","12662","22","yes","1024"
"69.56521739130434","69.56521739130434","586.3913043478261","586.3913043478261","black","legacy","legacy","legacy","0","incongruent","uniform","0","undefined","0","s","0","0","0","22","22","0","22","0","22","0","0","0","22","22","22","22","Thu Sep 22 12:49:13 2022","1500","The main experiment item","yes","Flanker_Task_by_Katherine_Hays.osexp","/Users/katherinehays/Desktop/PSYC 5316 - R and OpenSesame","no","mono","no","18","no","white","no","no","768","legacy","22","22","/Users/katherinehays/Desktop/PSYC 5316 - R and OpenSesame/subject-3.csv","legacy","Lentiform Loewenfeld","3.3.12","0","h","NA","NA","NA","s","h","825","NA","NA","NA","65587","825","2","legacy","1024","2","48000","-16","experiment","HHSHH","3","odd","66808","NA","NA","106829","106325","1084","NA","NA","107868","NA","NA","1209","107972","108797","107864","107972","Flanker Task (by Katherine Hays)","16","13487","23","yes","1024"
"70.83333333333333","70.83333333333333","587.2916666666666","587.2916666666666","black","legacy","legacy","legacy","0","congruent","uniform","1","undefined","1","h","0","0","0","23","23","0","23","0","23","0","0","0","23","23","23","23","Thu Sep 22 12:49:13 2022","1500","The main experiment item","yes","Flanker_Task_by_Katherine_Hays.osexp","/Users/katherinehays/Desktop/PSYC 5316 - R and OpenSesame","no","mono","no","18","no","white","no","no","768","legacy","23","23","/Users/katherinehays/Desktop/PSYC 5316 - R and OpenSesame/subject-3.csv","legacy","Lentiform Loewenfeld","3.3.12","0","h","NA","NA","NA","s","h","608","NA","NA","NA","65587","608","2","legacy","1024","2","48000","-16","experiment","HHHHH","3","odd","66808","NA","NA","109306","108801","1084","NA","NA","110343","NA","NA","1209","110448","111057","110340","110447","Flanker Task (by Katherine Hays)","17","14095","24","yes","1024"
"72","72","580.4","580.4","black","legacy","legacy","legacy","0","congruent","uniform","1","undefined","1","s","0","0","0","24","24","0","24","0","24","0","0","0","24","24","24","24","Thu Sep 22 12:49:13 2022","1500","The main experiment item","yes","Flanker_Task_by_Katherine_Hays.osexp","/Users/katherinehays/Desktop/PSYC 5316 - R and OpenSesame","no","mono","no","18","no","white","no","no","768","legacy","24","24","/Users/katherinehays/Desktop/PSYC 5316 - R and OpenSesame/subject-3.csv","legacy","Lentiform Loewenfeld","3.3.12","0","s","NA","NA","NA","s","s","415","NA","NA","NA","65587","415","2","legacy","1024","2","48000","-16","experiment","SSSSS","3","odd","66808","NA","NA","111061","108801","1084","NA","NA","112102","NA","NA","1209","112211","112626","112098","112211","Flanker Task (by Katherine Hays)","18","14510","25","yes","1024"
"73.07692307692308","73.07692307692308","576.4615384615385","576.4615384615385","black","legacy","legacy","legacy","0","congruent","uniform","1","undefined","1","s","0","0","0","25","25","0","25","0","25","0","0","0","25","25","25","25","Thu Sep 22 12:49:13 2022","1500","The main experiment item","yes","Flanker_Task_by_Katherine_Hays.osexp","/Users/katherinehays/Desktop/PSYC 5316 - R and OpenSesame","no","mono","no","18","no","white","no","no","768","legacy","25","25","/Users/katherinehays/Desktop/PSYC 5316 - R and OpenSesame/subject-3.csv","legacy","Lentiform Loewenfeld","3.3.12","0","s","NA","NA","NA","s","s","478","NA","NA","NA","65587","478","2","legacy","1024","2","48000","-16","experiment","SSSSS","3","odd","66808","NA","NA","112630","108801","1084","NA","NA","113668","NA","NA","1209","113772","114251","113664","113772","Flanker Task (by Katherine Hays)","19","14988","26","yes","1024"
"70.37037037037037","70.37037037037037","579.1111111111111","579.1111111111111","black","legacy","legacy","legacy","0","incongruent","uniform","0","undefined","0","h","0","0","0","26","26","0","26","0","26","0","0","0","26","26","26","26","Thu Sep 22 12:49:13 2022","1500","The main experiment item","yes","Flanker_Task_by_Katherine_Hays.osexp","/Users/katherinehays/Desktop/PSYC 5316 - R and OpenSesame","no","mono","no","18","no","white","no","no","768","legacy","26","26","/Users/katherinehays/Desktop/PSYC 5316 - R and OpenSesame/subject-3.csv","legacy","Lentiform Loewenfeld","3.3.12","0","s","NA","NA","NA","s","s","648","NA","NA","NA","65587","648","2","legacy","1024","2","48000","-16","experiment","SSHSS","3","odd","66808","NA","NA","114255","108801","1084","NA","NA","115295","NA","NA","1209","115398","116047","115290","115398","Flanker Task (by Katherine Hays)","19","15636","27","yes","1024"
"71.42857142857143","71.42857142857143","574.1428571428571","574.1428571428571","black","legacy","legacy","legacy","0","congruent","uniform","1","undefined","1","h","0","0","0","27","27","0","27","0","27","0","0","0","27","27","27","27","Thu Sep 22 12:49:13 2022","1500","The main experiment item","yes","Flanker_Task_by_Katherine_Hays.osexp","/Users/katherinehays/Desktop/PSYC 5316 - R and OpenSesame","no","mono","no","18","no","white","no","no","768","legacy","27","27","/Users/katherinehays/Desktop/PSYC 5316 - R and OpenSesame/subject-3.csv","legacy","Lentiform Loewenfeld","3.3.12","0","h","NA","NA","NA","s","h","440","NA","NA","NA","65587","440","2","legacy","1024","2","48000","-16","experiment","HHHHH","3","odd","66808","NA","NA","116557","116052","1084","NA","NA","117600","NA","NA","1209","117704","118144","117595","117704","Flanker Task (by Katherine Hays)","20","16076","28","yes","1024"
"72.41379310344827","72.41379310344827","570.551724137931","570.551724137931","black","legacy","legacy","legacy","0","congruent","uniform","1","undefined","1","h","0","0","0","28","28","0","28","0","28","0","0","0","28","28","28","28","Thu Sep 22 12:49:13 2022","1500","The main experiment item","yes","Flanker_Task_by_Katherine_Hays.osexp","/Users/katherinehays/Desktop/PSYC 5316 - R and OpenSesame","no","mono","no","18","no","white","no","no","768","legacy","28","28","/Users/katherinehays/Desktop/PSYC 5316 - R and OpenSesame/subject-3.csv","legacy","Lentiform Loewenfeld","3.3.12","0","h","NA","NA","NA","s","h","470","NA","NA","NA","65587","470","2","legacy","1024","2","48000","-16","experiment","HHHHH","3","odd","66808","NA","NA","118148","116052","1084","NA","NA","119184","NA","NA","1209","119289","119759","119180","119289","Flanker Task (by Katherine Hays)","21","16546","29","yes","1024"
"73.33333333333333","73.33333333333333","568.9333333333333","568.9333333333333","black","legacy","legacy","legacy","0","congruent","uniform","1","undefined","1","s","0","0","0","29","29","0","29","0","29","0","0","0","29","29","29","29","Thu Sep 22 12:49:13 2022","1500","The main experiment item","yes","Flanker_Task_by_Katherine_Hays.osexp","/Users/katherinehays/Desktop/PSYC 5316 - R and OpenSesame","no","mono","no","18","no","white","no","no","768","legacy","29","29","/Users/katherinehays/Desktop/PSYC 5316 - R and OpenSesame/subject-3.csv","legacy","Lentiform Loewenfeld","3.3.12","0","s","NA","NA","NA","s","s","522","NA","NA","NA","65587","522","2","legacy","1024","2","48000","-16","experiment","SSSSS","3","odd","66808","NA","NA","119763","116052","1084","NA","NA","120806","NA","NA","1209","120909","121432","120801","120909","Flanker Task (by Katherine Hays)","22","17068","30","yes","1024"
"74.19354838709677","74.19354838709677","565.8064516129032","565.8064516129032","black","legacy","legacy","legacy","0","congruent","uniform","1","undefined","1","h","0","0","0","30","30","0","30","0","30","0","0","0","30","30","30","30","Thu Sep 22 12:49:13 2022","1500","The main experiment item","yes","Flanker_Task_by_Katherine_Hays.osexp","/Users/katherinehays/Desktop/PSYC 5316 - R and OpenSesame","no","mono","no","18","no","white","no","no","768","legacy","30","30","/Users/katherinehays/Desktop/PSYC 5316 - R and OpenSesame/subject-3.csv","legacy","Lentiform Loewenfeld","3.3.12","0","h","NA","NA","NA","s","h","472","NA","NA","NA","65587","472","2","legacy","1024","2","48000","-16","experiment","HHHHH","3","odd","66808","NA","NA","121436","116052","1084","NA","NA","122474","NA","NA","1209","122578","123051","122470","122578","Flanker Task (by Katherine Hays)","23","17540","31","yes","1024"
"75","75","564.1875","564.1875","black","legacy","legacy","legacy","0","congruent","uniform","1","undefined","1","h","0","0","0","31","31","0","31","0","31","0","0","0","31","31","31","31","Thu Sep 22 12:49:13 2022","1500","The main experiment item","yes","Flanker_Task_by_Katherine_Hays.osexp","/Users/katherinehays/Desktop/PSYC 5316 - R and OpenSesame","no","mono","no","18","no","white","no","no","768","legacy","31","31","/Users/katherinehays/Desktop/PSYC 5316 - R and OpenSesame/subject-3.csv","legacy","Lentiform Loewenfeld","3.3.12","0","h","NA","NA","NA","s","h","514","NA","NA","NA","65587","514","2","legacy","1024","2","48000","-16","experiment","HHHHH","3","odd","66808","NA","NA","123055","116052","1084","NA","NA","124097","NA","NA","1209","124200","124715","124092","124200","Flanker Task (by Katherine Hays)","24","18054","32","yes","1024"
"75.75757575757575","75.75757575757575","558.8181818181819","558.8181818181819","black","legacy","legacy","legacy","0","congruent","uniform","1","undefined","1","h","0","0","0","32","32","0","32","0","32","0","0","0","32","32","32","32","Thu Sep 22 12:49:13 2022","1500","The main experiment item","yes","Flanker_Task_by_Katherine_Hays.osexp","/Users/katherinehays/Desktop/PSYC 5316 - R and OpenSesame","no","mono","no","18","no","white","no","no","768","legacy","32","32","/Users/katherinehays/Desktop/PSYC 5316 - R and OpenSesame/subject-3.csv","legacy","Lentiform Loewenfeld","3.3.12","0","h","NA","NA","NA","s","h","387","NA","NA","NA","65587","387","2","legacy","1024","2","48000","-16","experiment","HHHHH","3","odd","66808","NA","NA","124719","116052","1084","NA","NA","125758","NA","NA","1209","125862","126250","125754","125862","Flanker Task (by Katherine Hays)","25","18441","33","yes","1024"
"73.52941176470588","73.52941176470588","557.5588235294117","557.5588235294117","black","legacy","legacy","legacy","0","incongruent","uniform","0","undefined","0","h","0","0","0","33","33","0","33","0","33","0","0","0","33","33","33","33","Thu Sep 22 12:49:13 2022","1500","The main experiment item","yes","Flanker_Task_by_Katherine_Hays.osexp","/Users/katherinehays/Desktop/PSYC 5316 - R and OpenSesame","no","mono","no","18","no","white","no","no","768","legacy","33","33","/Users/katherinehays/Desktop/PSYC 5316 - R and OpenSesame/subject-3.csv","legacy","Lentiform Loewenfeld","3.3.12","0","s","NA","NA","NA","s","s","516","NA","NA","NA","65587","516","2","legacy","1024","2","48000","-16","experiment","SSHSS","3","odd","66808","NA","NA","126254","116052","1084","NA","NA","127295","NA","NA","1209","127400","127917","127290","127399","Flanker Task (by Katherine Hays)","25","18957","34","yes","1024"
"74.28571428571429","74.28571428571429","561.3142857142857","561.3142857142857","black","legacy","legacy","legacy","0","incongruent","uniform","1","undefined","1","s","0","0","0","34","34","0","34","0","34","0","0","0","34","34","34","34","Thu Sep 22 12:49:13 2022","1500","The main experiment item","yes","Flanker_Task_by_Katherine_Hays.osexp","/Users/katherinehays/Desktop/PSYC 5316 - R and OpenSesame","no","mono","no","18","no","white","no","no","768","legacy","34","34","/Users/katherinehays/Desktop/PSYC 5316 - R and OpenSesame/subject-3.csv","legacy","Lentiform Loewenfeld","3.3.12","0","s","NA","NA","NA","s","s","689","NA","NA","NA","65587","689","2","legacy","1024","2","48000","-16","experiment","HHSHH","3","odd","66808","NA","NA","128425","127921","1084","NA","NA","129471","NA","NA","1209","129576","130265","129463","129576","Flanker Task (by Katherine Hays)","26","19646","35","yes","1024"
"75","75","562.3888888888889","562.3888888888889","black","legacy","legacy","legacy","0","incongruent","uniform","1","undefined","1","s","0","0","0","35","35","0","35","0","35","0","0","0","35","35","35","35","Thu Sep 22 12:49:13 2022","1500","The main experiment item","yes","Flanker_Task_by_Katherine_Hays.osexp","/Users/katherinehays/Desktop/PSYC 5316 - R and OpenSesame","no","mono","no","18","no","white","no","no","768","legacy","35","35","/Users/katherinehays/Desktop/PSYC 5316 - R and OpenSesame/subject-3.csv","legacy","Lentiform Loewenfeld","3.3.12","0","s","NA","NA","NA","s","s","600","NA","NA","NA","65587","600","2","legacy","1024","2","48000","-16","experiment","HHSHH","3","odd","66808","NA","NA","130270","127921","1084","NA","NA","131311","NA","NA","1209","131415","132016","131306","131415","Flanker Task (by Katherine Hays)","27","20246","36","yes","1024"
"72.97297297297297","72.97297297297297","563.1081081081081","563.1081081081081","black","legacy","legacy","legacy","0","incongruent","uniform","0","undefined","0","s","0","0","0","36","36","0","36","0","36","0","0","0","36","36","36","36","Thu Sep 22 12:49:13 2022","1500","The main experiment item","yes","Flanker_Task_by_Katherine_Hays.osexp","/Users/katherinehays/Desktop/PSYC 5316 - R and OpenSesame","no","mono","no","18","no","white","no","no","768","legacy","36","36","/Users/katherinehays/Desktop/PSYC 5316 - R and OpenSesame/subject-3.csv","legacy","Lentiform Loewenfeld","3.3.12","0","h","NA","NA","NA","s","h","589","NA","NA","NA","65587","589","2","legacy","1024","2","48000","-16","experiment","HHSHH","3","odd","66808","NA","NA","132020","127921","1084","NA","NA","133060","NA","NA","1209","133164","133754","133055","133164","Flanker Task (by Katherine Hays)","27","20835","37","yes","1024"
"71.05263157894737","71.05263157894737","560.3421052631579","560.3421052631579","black","legacy","legacy","legacy","0","incongruent","uniform","0","undefined","0","h","0","0","0","37","37","0","37","0","37","0","0","0","37","37","37","37","Thu Sep 22 12:49:13 2022","1500","The main experiment item","yes","Flanker_Task_by_Katherine_Hays.osexp","/Users/katherinehays/Desktop/PSYC 5316 - R and OpenSesame","no","mono","no","18","no","white","no","no","768","legacy","37","37","/Users/katherinehays/Desktop/PSYC 5316 - R and OpenSesame/subject-3.csv","legacy","Lentiform Loewenfeld","3.3.12","0","s","NA","NA","NA","s","s","458","NA","NA","NA","65587","458","2","legacy","1024","2","48000","-16","experiment","SSHSS","3","odd","66808","NA","NA","134261","133758","1084","NA","NA","135297","NA","NA","1209","135402","135860","135293","135402","Flanker Task (by Katherine Hays)","27","21293","38","yes","1024"
"69.23076923076923","69.23076923076923","559.5384615384615","559.5384615384615","black","legacy","legacy","legacy","0","incongruent","uniform","0","undefined","0","h","0","0","0","38","38","0","38","0","38","0","0","0","38","38","38","38","Thu Sep 22 12:49:13 2022","1500","The main experiment item","yes","Flanker_Task_by_Katherine_Hays.osexp","/Users/katherinehays/Desktop/PSYC 5316 - R and OpenSesame","no","mono","no","18","no","white","no","no","768","legacy","38","38","/Users/katherinehays/Desktop/PSYC 5316 - R and OpenSesame/subject-3.csv","legacy","Lentiform Loewenfeld","3.3.12","0","s","NA","NA","NA","s","s","529","NA","NA","NA","65587","529","2","legacy","1024","2","48000","-16","experiment","SSHSS","3","odd","66808","NA","NA","136370","135864","1084","NA","NA","137410","NA","NA","1209","137513","138043","137406","137513","Flanker Task (by Katherine Hays)","27","21822","39","yes","1024"
"67.5","67.5","558.65","558.65","black","legacy","legacy","legacy","0","incongruent","uniform","0","undefined","0","h","0","0","0","39","39","0","39","0","39","0","0","0","39","39","39","39","Thu Sep 22 12:49:13 2022","1500","The main experiment item","yes","Flanker_Task_by_Katherine_Hays.osexp","/Users/katherinehays/Desktop/PSYC 5316 - R and OpenSesame","no","mono","no","18","no","white","no","no","768","legacy","39","39","/Users/katherinehays/Desktop/PSYC 5316 - R and OpenSesame/subject-3.csv","legacy","Lentiform Loewenfeld","3.3.12","0","s","NA","NA","NA","s","s","524","NA","NA","NA","65587","524","2","legacy","1024","2","48000","-16","experiment","SSHSS","3","odd","66808","NA","NA","138551","138047","1084","NA","NA","139589","NA","NA","1209","139693","140217","139584","139693","Flanker Task (by Katherine Hays)","27","22346","40","yes","1024"
"65.85365853658537","65.85365853658537","556.560975609756","556.560975609756","black","legacy","legacy","legacy","0","incongruent","uniform","0","undefined","0","s","0","0","0","40","40","0","40","0","40","0","0","0","40","40","40","40","Thu Sep 22 12:49:13 2022","1500","The main experiment item","yes","Flanker_Task_by_Katherine_Hays.osexp","/Users/katherinehays/Desktop/PSYC 5316 - R and OpenSesame","no","mono","no","18","no","white","no","no","768","legacy","40","40","/Users/katherinehays/Desktop/PSYC 5316 - R and OpenSesame/subject-3.csv","legacy","Lentiform Loewenfeld","3.3.12","0","h","NA","NA","NA","s","h","473","NA","NA","NA","65587","473","2","legacy","1024","2","48000","-16","experiment","HHSHH","3","odd","66808","NA","NA","140726","140221","1084","NA","NA","141765","NA","NA","1209","141871","142344","141761","141871","Flanker Task (by Katherine Hays)","27","22819","41","yes","1024"
"66.66666666666667","66.66666666666667","557.3095238095239","557.3095238095239","black","legacy","legacy","legacy","0","congruent","uniform","1","undefined","1","h","0","0","0","41","41","0","41","0","41","0","0","0","41","41","41","41","Thu Sep 22 12:49:13 2022","1500","The main experiment item","yes","Flanker_Task_by_Katherine_Hays.osexp","/Users/katherinehays/Desktop/PSYC 5316 - R and OpenSesame","no","mono","no","18","no","white","no","no","768","legacy","41","41","/Users/katherinehays/Desktop/PSYC 5316 - R and OpenSesame/subject-3.csv","legacy","Lentiform Loewenfeld","3.3.12","0","h","NA","NA","NA","s","h","588","NA","NA","NA","65587","588","2","legacy","1024","2","48000","-16","experiment","HHHHH","3","odd","66808","NA","NA","142853","142349","1084","NA","NA","143893","NA","NA","1209","143997","144586","143888","143997","Flanker Task (by Katherine Hays)","28","23407","42","yes","1024"
"67.44186046511628","67.44186046511628","553.9302325581396","553.9302325581396","black","legacy","legacy","legacy","0","congruent","uniform","1","undefined","1","h","0","0","0","42","42","0","42","0","42","0","0","0","42","42","42","42","Thu Sep 22 12:49:13 2022","1500","The main experiment item","yes","Flanker_Task_by_Katherine_Hays.osexp","/Users/katherinehays/Desktop/PSYC 5316 - R and OpenSesame","no","mono","no","18","no","white","no","no","768","legacy","42","42","/Users/katherinehays/Desktop/PSYC 5316 - R and OpenSesame/subject-3.csv","legacy","Lentiform Loewenfeld","3.3.12","0","h","NA","NA","NA","s","h","412","NA","NA","NA","65587","412","2","legacy","1024","2","48000","-16","experiment","HHHHH","3","odd","66808","NA","NA","144590","142349","1084","NA","NA","145626","NA","NA","1209","145730","146143","145621","145730","Flanker Task (by Katherine Hays)","29","23819","43","yes","1024"
"65.9090909090909","65.9090909090909","553.1136363636364","553.1136363636364","black","legacy","legacy","legacy","0","incongruent","uniform","0","undefined","0","h","0","0","0","43","43","0","43","0","43","0","0","0","43","43","43","43","Thu Sep 22 12:49:13 2022","1500","The main experiment item","yes","Flanker_Task_by_Katherine_Hays.osexp","/Users/katherinehays/Desktop/PSYC 5316 - R and OpenSesame","no","mono","no","18","no","white","no","no","768","legacy","43","43","/Users/katherinehays/Desktop/PSYC 5316 - R and OpenSesame/subject-3.csv","legacy","Lentiform Loewenfeld","3.3.12","0","s","NA","NA","NA","s","s","518","NA","NA","NA","65587","518","2","legacy","1024","2","48000","-16","experiment","SSHSS","3","odd","66808","NA","NA","146147","142349","1084","NA","NA","147188","NA","NA","1209","147292","147810","147184","147292","Flanker Task (by Katherine Hays)","29","24337","44","yes","1024"
"66.66666666666667","66.66666666666667","553.0666666666667","553.0666666666667","black","legacy","legacy","legacy","0","congruent","uniform","1","undefined","1","s","0","0","0","44","44","0","44","0","44","0","0","0","44","44","44","44","Thu Sep 22 12:49:13 2022","1500","The main experiment item","yes","Flanker_Task_by_Katherine_Hays.osexp","/Users/katherinehays/Desktop/PSYC 5316 - R and OpenSesame","no","mono","no","18","no","white","no","no","768","legacy","44","44","/Users/katherinehays/Desktop/PSYC 5316 - R and OpenSesame/subject-3.csv","legacy","Lentiform Loewenfeld","3.3.12","0","s","NA","NA","NA","s","s","551","NA","NA","NA","65587","551","2","legacy","1024","2","48000","-16","experiment","SSSSS","3","odd","66808","NA","NA","148319","147815","1084","NA","NA","149357","NA","NA","1209","149462","150014","149353","149461","Flanker Task (by Katherine Hays)","30","24888","45","yes","1024"
"67.3913043478261","67.3913043478261","552.4565217391304","552.4565217391304","black","legacy","legacy","legacy","0","congruent","uniform","1","undefined","1","h","0","0","0","45","45","0","45","0","45","0","0","0","45","45","45","45","Thu Sep 22 12:49:13 2022","1500","The main experiment item","yes","Flanker_Task_by_Katherine_Hays.osexp","/Users/katherinehays/Desktop/PSYC 5316 - R and OpenSesame","no","mono","no","18","no","white","no","no","768","legacy","45","45","/Users/katherinehays/Desktop/PSYC 5316 - R and OpenSesame/subject-3.csv","legacy","Lentiform Loewenfeld","3.3.12","0","h","NA","NA","NA","s","h","525","NA","NA","NA","65587","525","2","legacy","1024","2","48000","-16","experiment","HHHHH","3","odd","66808","NA","NA","150018","147815","1084","NA","NA","151060","NA","NA","1209","151163","151689","151056","151163","Flanker Task (by Katherine Hays)","31","25413","46","yes","1024"
"68.08510638297872","68.08510638297872","554.1063829787234","554.1063829787234","black","legacy","legacy","legacy","0","incongruent","uniform","1","undefined","1","s","0","0","0","46","46","0","46","0","46","0","0","0","46","46","46","46","Thu Sep 22 12:49:13 2022","1500","The main experiment item","yes","Flanker_Task_by_Katherine_Hays.osexp","/Users/katherinehays/Desktop/PSYC 5316 - R and OpenSesame","no","mono","no","18","no","white","no","no","768","legacy","46","46","/Users/katherinehays/Desktop/PSYC 5316 - R and OpenSesame/subject-3.csv","legacy","Lentiform Loewenfeld","3.3.12","0","s","NA","NA","NA","s","s","630","NA","NA","NA","65587","630","2","legacy","1024","2","48000","-16","experiment","HHSHH","3","odd","66808","NA","NA","151693","147815","1084","NA","NA","152734","NA","NA","1209","152838","153469","152729","152838","Flanker Task (by Katherine Hays)","32","26043","47","yes","1024"
"68.75","68.75","553.7291666666666","553.7291666666666","black","legacy","legacy","legacy","0","incongruent","uniform","1","undefined","1","h","0","0","0","47","47","0","47","0","47","0","0","0","47","47","47","47","Thu Sep 22 12:49:13 2022","1500","The main experiment item","yes","Flanker_Task_by_Katherine_Hays.osexp","/Users/katherinehays/Desktop/PSYC 5316 - R and OpenSesame","no","mono","no","18","no","white","no","no","768","legacy","47","47","/Users/katherinehays/Desktop/PSYC 5316 - R and OpenSesame/subject-3.csv","legacy","Lentiform Loewenfeld","3.3.12","0","h","NA","NA","NA","s","h","536","NA","NA","NA","65587","536","2","legacy","1024","2","48000","-16","experiment","SSHSS","3","odd","66808","NA","NA","153473","147815","1084","NA","NA","154514","NA","NA","1209","154618","155155","154509","154618","Flanker Task (by Katherine Hays)","33","26579","48","yes","1024"
"69.38775510204081","69.38775510204081","556.795918367347","556.795918367347","black","legacy","legacy","legacy","0","congruent","uniform","1","undefined","1","s","0","0","0","48","48","0","48","0","48","0","0","0","48","48","48","48","Thu Sep 22 12:49:13 2022","1500","The main experiment item","yes","Flanker_Task_by_Katherine_Hays.osexp","/Users/katherinehays/Desktop/PSYC 5316 - R and OpenSesame","no","mono","no","18","no","white","no","no","768","legacy","48","48","/Users/katherinehays/Desktop/PSYC 5316 - R and OpenSesame/subject-3.csv","legacy","Lentiform Loewenfeld","3.3.12","0","s","NA","NA","NA","s","s","704","NA","NA","NA","65587","704","2","legacy","1024","2","48000","-16","experiment","SSSSS","3","odd","66808","NA","NA","155159","147815","1084","NA","NA","156194","NA","NA","1209","156298","157003","156190","156298","Flanker Task (by Katherine Hays)","34","27283","49","yes","1024"
"70","70","556.18","556.18","black","legacy","legacy","legacy","0","congruent","uniform","1","undefined","1","s","0","0","0","49","49","0","49","0","49","0","0","0","49","49","49","49","Thu Sep 22 12:49:13 2022","1500","The main experiment item","yes","Flanker_Task_by_Katherine_Hays.osexp","/Users/katherinehays/Desktop/PSYC 5316 - R and OpenSesame","no","mono","no","18","no","white","no","no","768","legacy","49","49","/Users/katherinehays/Desktop/PSYC 5316 - R and OpenSesame/subject-3.csv","legacy","Lentiform Loewenfeld","3.3.12","0","s","NA","NA","NA","s","s","526","NA","NA","NA","65587","526","2","legacy","1024","2","48000","-16","experiment","SSSSS","3","odd","66808","NA","NA","157007","147815","1084","NA","NA","158048","NA","NA","1209","158151","158678","158044","158151","Flanker Task (by Katherine Hays)","35","27809","50","yes","1024"
"70.58823529411765","70.58823529411765","559.4705882352941","559.4705882352941","black","legacy","legacy","legacy","0","incongruent","uniform","1","undefined","1","s","0","0","0","50","50","0","50","0","50","0","0","0","50","50","50","50","Thu Sep 22 12:49:13 2022","1500","The main experiment item","yes","Flanker_Task_by_Katherine_Hays.osexp","/Users/katherinehays/Desktop/PSYC 5316 - R and OpenSesame","no","mono","no","18","no","white","no","no","768","legacy","50","50","/Users/katherinehays/Desktop/PSYC 5316 - R and OpenSesame/subject-3.csv","legacy","Lentiform Loewenfeld","3.3.12","0","s","NA","NA","NA","s","s","724","NA","NA","NA","65587","724","2","legacy","1024","2","48000","-16","experiment","HHSHH","3","odd","66808","NA","NA","158682","147815","1084","NA","NA","159720","NA","NA","1209","159824","160548","159715","159824","Flanker Task (by Katherine Hays)","36","28533","51","yes","1024"
"69.23076923076923","69.23076923076923","558.7692307692307","558.7692307692307","black","legacy","legacy","legacy","0","incongruent","uniform","0","undefined","0","h","0","0","0","51","51","0","51","0","51","0","0","0","51","51","51","51","Thu Sep 22 12:49:13 2022","1500","The main experiment item","yes","Flanker_Task_by_Katherine_Hays.osexp","/Users/katherinehays/Desktop/PSYC 5316 - R and OpenSesame","no","mono","no","18","no","white","no","no","768","legacy","51","51","/Users/katherinehays/Desktop/PSYC 5316 - R and OpenSesame/subject-3.csv","legacy","Lentiform Loewenfeld","3.3.12","0","s","NA","NA","NA","s","s","523","NA","NA","NA","65587","523","2","legacy","1024","2","48000","-16","experiment","SSHSS","3","odd","66808","NA","NA","160553","147815","1084","NA","NA","161595","NA","NA","1209","161698","162221","161590","161698","Flanker Task (by Katherine Hays)","36","29056","52","yes","1024"
"67.9245283018868","67.9245283018868","558","558","black","legacy","legacy","legacy","0","incongruent","uniform","0","undefined","0","h","0","0","0","52","52","0","52","0","52","0","0","0","52","52","52","52","Thu Sep 22 12:49:13 2022","1500","The main experiment item","yes","Flanker_Task_by_Katherine_Hays.osexp","/Users/katherinehays/Desktop/PSYC 5316 - R and OpenSesame","no","mono","no","18","no","white","no","no","768","legacy","52","52","/Users/katherinehays/Desktop/PSYC 5316 - R and OpenSesame/subject-3.csv","legacy","Lentiform Loewenfeld","3.3.12","0","s","NA","NA","NA","s","s","518","NA","NA","NA","65587","518","2","legacy","1024","2","48000","-16","experiment","SSHSS","3","odd","66808","NA","NA","162729","162225","1084","NA","NA","163769","NA","NA","1209","163873","164392","163765","163873","Flanker Task (by Katherine Hays)","36","29574","53","yes","1024"
"68.51851851851852","68.51851851851852","560.2592592592592","560.2592592592592","black","legacy","legacy","legacy","0","incongruent","uniform","1","undefined","1","h","0","0","0","53","53","0","53","0","53","0","0","0","53","53","53","53","Thu Sep 22 12:49:13 2022","1500","The main experiment item","yes","Flanker_Task_by_Katherine_Hays.osexp","/Users/katherinehays/Desktop/PSYC 5316 - R and OpenSesame","no","mono","no","18","no","white","no","no","768","legacy","53","53","/Users/katherinehays/Desktop/PSYC 5316 - R and OpenSesame/subject-3.csv","legacy","Lentiform Loewenfeld","3.3.12","0","h","NA","NA","NA","s","h","680","NA","NA","NA","65587","680","2","legacy","1024","2","48000","-16","experiment","SSHSS","3","odd","66808","NA","NA","164901","164396","1084","NA","NA","165943","NA","NA","1209","166047","166728","165939","166047","Flanker Task (by Katherine Hays)","37","30254","54","yes","1024"
"69.0909090909091","69.0909090909091","561.7454545454545","561.7454545454545","black","legacy","legacy","legacy","0","congruent","uniform","1","undefined","1","s","0","0","0","54","54","0","54","0","54","0","0","0","54","54","54","54","Thu Sep 22 12:49:13 2022","1500","The main experiment item","yes","Flanker_Task_by_Katherine_Hays.osexp","/Users/katherinehays/Desktop/PSYC 5316 - R and OpenSesame","no","mono","no","18","no","white","no","no","768","legacy","54","54","/Users/katherinehays/Desktop/PSYC 5316 - R and OpenSesame/subject-3.csv","legacy","Lentiform Loewenfeld","3.3.12","0","s","NA","NA","NA","s","s","642","NA","NA","NA","65587","642","2","legacy","1024","2","48000","-16","experiment","SSSSS","3","odd","66808","NA","NA","166732","164396","1084","NA","NA","167767","NA","NA","1209","167873","168516","167763","167873","Flanker Task (by Katherine Hays)","38","30896","55","yes","1024"
"69.64285714285714","69.64285714285714","562.875","562.875","black","legacy","legacy","legacy","0","incongruent","uniform","1","undefined","1","h","0","0","0","55","55","0","55","0","55","0","0","0","55","55","55","55","Thu Sep 22 12:49:13 2022","1500","The main experiment item","yes","Flanker_Task_by_Katherine_Hays.osexp","/Users/katherinehays/Desktop/PSYC 5316 - R and OpenSesame","no","mono","no","18","no","white","no","no","768","legacy","55","55","/Users/katherinehays/Desktop/PSYC 5316 - R and OpenSesame/subject-3.csv","legacy","Lentiform Loewenfeld","3.3.12","0","h","NA","NA","NA","s","h","625","NA","NA","NA","65587","625","2","legacy","1024","2","48000","-16","experiment","SSHSS","3","odd","66808","NA","NA","168520","164396","1084","NA","NA","169558","NA","NA","1209","169665","170290","169553","169665","Flanker Task (by Katherine Hays)","39","31521","56","yes","1024"
"70.17543859649123","70.17543859649123","563","563","black","legacy","legacy","legacy","0","congruent","uniform","1","undefined","1","h","0","0","0","56","56","0","56","0","56","0","0","0","56","56","56","56","Thu Sep 22 12:49:13 2022","1500","The main experiment item","yes","Flanker_Task_by_Katherine_Hays.osexp","/Users/katherinehays/Desktop/PSYC 5316 - R and OpenSesame","no","mono","no","18","no","white","no","no","768","legacy","56","56","/Users/katherinehays/Desktop/PSYC 5316 - R and OpenSesame/subject-3.csv","legacy","Lentiform Loewenfeld","3.3.12","0","h","NA","NA","NA","s","h","570","NA","NA","NA","65587","570","2","legacy","1024","2","48000","-16","experiment","HHHHH","3","odd","66808","NA","NA","170294","164396","1084","NA","NA","171334","NA","NA","1209","171438","172009","171329","171438","Flanker Task (by Katherine Hays)","40","32091","57","yes","1024"
"70.6896551724138","70.6896551724138","566.0862068965517","566.0862068965517","black","legacy","legacy","legacy","0","congruent","uniform","1","undefined","1","s","0","0","0","57","57","0","57","0","57","0","0","0","57","57","57","57","Thu Sep 22 12:49:13 2022","1500","The main experiment item","yes","Flanker_Task_by_Katherine_Hays.osexp","/Users/katherinehays/Desktop/PSYC 5316 - R and OpenSesame","no","mono","no","18","no","white","no","no","768","legacy","57","57","/Users/katherinehays/Desktop/PSYC 5316 - R and OpenSesame/subject-3.csv","legacy","Lentiform Loewenfeld","3.3.12","0","s","NA","NA","NA","s","s","742","NA","NA","NA","65587","742","2","legacy","1024","2","48000","-16","experiment","SSSSS","3","odd","66808","NA","NA","172013","164396","1084","NA","NA","173049","NA","NA","1209","173153","173896","173045","173153","Flanker Task (by Katherine Hays)","41","32833","58","yes","1024"
"69.49152542372882","69.49152542372882","568.457627118644","568.457627118644","black","legacy","legacy","legacy","0","incongruent","uniform","0","undefined","0","s","0","0","0","58","58","0","58","0","58","0","0","0","58","58","58","58","Thu Sep 22 12:49:13 2022","1500","The main experiment item","yes","Flanker_Task_by_Katherine_Hays.osexp","/Users/katherinehays/Desktop/PSYC 5316 - R and OpenSesame","no","mono","no","18","no","white","no","no","768","legacy","58","58","/Users/katherinehays/Desktop/PSYC 5316 - R and OpenSesame/subject-3.csv","legacy","Lentiform Loewenfeld","3.3.12","0","h","NA","NA","NA","s","h","706","NA","NA","NA","65587","706","2","legacy","1024","2","48000","-16","experiment","HHSHH","3","odd","66808","NA","NA","173900","164396","1084","NA","NA","174942","NA","NA","1209","175045","175752","174938","175045","Flanker Task (by Katherine Hays)","41","33539","59","yes","1024"
"70","70","570.0166666666667","570.0166666666667","black","legacy","legacy","legacy","0","congruent","uniform","1","undefined","1","s","0","0","0","59","59","0","59","0","59","0","0","0","59","59","59","59","Thu Sep 22 12:49:13 2022","1500","The main experiment item","yes","Flanker_Task_by_Katherine_Hays.osexp","/Users/katherinehays/Desktop/PSYC 5316 - R and OpenSesame","no","mono","no","18","no","white","no","no","768","legacy","59","59","/Users/katherinehays/Desktop/PSYC 5316 - R and OpenSesame/subject-3.csv","legacy","Lentiform Loewenfeld","3.3.12","0","s","NA","NA","NA","s","s","662","NA","NA","NA","65587","662","2","legacy","1024","2","48000","-16","experiment","SSSSS","3","odd","66808","NA","NA","176261","175756","1084","NA","NA","177297","NA","NA","1209","177401","178063","177293","177401","Flanker Task (by Katherine Hays)","42","34201","60","yes","1024"
"70.49180327868852","70.49180327868852","570.7213114754098","570.7213114754098","black","legacy","legacy","legacy","0","incongruent","uniform","1","undefined","1","s","0","0","0","60","60","0","60","0","60","0","0","0","60","60","60","60","Thu Sep 22 12:49:13 2022","1500","The main experiment item","yes","Flanker_Task_by_Katherine_Hays.osexp","/Users/katherinehays/Desktop/PSYC 5316 - R and OpenSesame","no","mono","no","18","no","white","no","no","768","legacy","60","60","/Users/katherinehays/Desktop/PSYC 5316 - R and OpenSesame/subject-3.csv","legacy","Lentiform Loewenfeld","3.3.12","0","s","NA","NA","NA","s","s","613","NA","NA","NA","65587","613","2","legacy","1024","2","48000","-16","experiment","HHSHH","3","odd","66808","NA","NA","178067","175756","1084","NA","NA","179103","NA","NA","1209","179216","179830","179099","179216","Flanker Task (by Katherine Hays)","43","34814","61","yes","1024"
"70.96774193548387","70.96774193548387","571.2741935483871","571.2741935483871","black","legacy","legacy","legacy","0","incongruent","uniform","1","undefined","1","s","0","0","0","61","61","0","61","0","61","0","0","0","61","61","61","61","Thu Sep 22 12:49:13 2022","1500","The main experiment item","yes","Flanker_Task_by_Katherine_Hays.osexp","/Users/katherinehays/Desktop/PSYC 5316 - R and OpenSesame","no","mono","no","18","no","white","no","no","768","legacy","61","61","/Users/katherinehays/Desktop/PSYC 5316 - R and OpenSesame/subject-3.csv","legacy","Lentiform Loewenfeld","3.3.12","0","s","NA","NA","NA","s","s","605","NA","NA","NA","65587","605","2","legacy","1024","2","48000","-16","experiment","HHSHH","3","odd","66808","NA","NA","179833","175756","1084","NA","NA","180871","NA","NA","1209","180975","181581","180866","180975","Flanker Task (by Katherine Hays)","44","35419","62","yes","1024"
"69.84126984126983","69.84126984126983","574.3809523809524","574.3809523809524","black","legacy","legacy","legacy","0","incongruent","uniform","0","undefined","0","s","0","0","0","62","62","0","62","0","62","0","0","0","62","62","62","62","Thu Sep 22 12:49:13 2022","1500","The main experiment item","yes","Flanker_Task_by_Katherine_Hays.osexp","/Users/katherinehays/Desktop/PSYC 5316 - R and OpenSesame","no","mono","no","18","no","white","no","no","768","legacy","62","62","/Users/katherinehays/Desktop/PSYC 5316 - R and OpenSesame/subject-3.csv","legacy","Lentiform Loewenfeld","3.3.12","0","h","NA","NA","NA","s","h","767","NA","NA","NA","65587","767","2","legacy","1024","2","48000","-16","experiment","HHSHH","3","odd","66808","NA","NA","181585","175756","1084","NA","NA","182622","NA","NA","1209","182728","183496","182618","182727","Flanker Task (by Katherine Hays)","44","36186","63","yes","1024"
"70.3125","70.3125","573.0625","573.0625","black","legacy","legacy","legacy","0","congruent","uniform","1","undefined","1","s","0","0","0","63","63","0","63","0","63","0","0","0","63","63","63","63","Thu Sep 22 12:49:13 2022","1500","The main experiment item","yes","Flanker_Task_by_Katherine_Hays.osexp","/Users/katherinehays/Desktop/PSYC 5316 - R and OpenSesame","no","mono","no","18","no","white","no","no","768","legacy","63","63","/Users/katherinehays/Desktop/PSYC 5316 - R and OpenSesame/subject-3.csv","legacy","Lentiform Loewenfeld","3.3.12","0","s","NA","NA","NA","s","s","490","NA","NA","NA","65587","490","2","legacy","1024","2","48000","-16","experiment","SSSSS","3","odd","66808","NA","NA","184005","183500","1084","NA","NA","185048","NA","NA","1209","185152","185642","185044","185152","Flanker Task (by Katherine Hays)","45","36676","64","yes","1024"
"69.23076923076923","69.23076923076923","574.0461538461539","574.0461538461539","black","legacy","legacy","legacy","0","incongruent","uniform","0","undefined","0","h","0","0","0","64","64","0","64","0","64","0","0","0","64","64","64","64","Thu Sep 22 12:49:13 2022","1500","The main experiment item","yes","Flanker_Task_by_Katherine_Hays.osexp","/Users/katherinehays/Desktop/PSYC 5316 - R and OpenSesame","no","mono","no","18","no","white","no","no","768","legacy","64","64","/Users/katherinehays/Desktop/PSYC 5316 - R and OpenSesame/subject-3.csv","legacy","Lentiform Loewenfeld","3.3.12","0","s","NA","NA","NA","s","s","637","NA","NA","NA","65587","637","2","legacy","1024","2","48000","-16","experiment","SSHSS","3","odd","66808","NA","NA","185646","183500","1084","NA","NA","186688","NA","NA","1209","186792","187430","186683","186792","Flanker Task (by Katherine Hays)","45","37313","65","yes","1024"
"69.6969696969697","69.6969696969697","573.969696969697","573.969696969697","black","legacy","legacy","legacy","0","incongruent","uniform","1","undefined","1","h","0","0","0","65","65","0","65","0","65","0","0","0","65","65","65","65","Thu Sep 22 12:49:13 2022","1500","The main experiment item","yes","Flanker_Task_by_Katherine_Hays.osexp","/Users/katherinehays/Desktop/PSYC 5316 - R and OpenSesame","no","mono","no","18","no","white","no","no","768","legacy","65","65","/Users/katherinehays/Desktop/PSYC 5316 - R and OpenSesame/subject-3.csv","legacy","Lentiform Loewenfeld","3.3.12","0","h","NA","NA","NA","s","h","569","NA","NA","NA","65587","569","2","legacy","1024","2","48000","-16","experiment","SSHSS","3","odd","66808","NA","NA","187938","187434","1084","NA","NA","188978","NA","NA","1209","189083","189652","188974","189083","Flanker Task (by Katherine Hays)","46","37882","66","yes","1024"
"68.65671641791045","68.65671641791045","572.955223880597","572.955223880597","black","legacy","legacy","legacy","0","incongruent","uniform","0","undefined","0","s","0","0","0","66","66","0","66","0","66","0","0","0","66","66","66","66","Thu Sep 22 12:49:13 2022","1500","The main experiment item","yes","Flanker_Task_by_Katherine_Hays.osexp","/Users/katherinehays/Desktop/PSYC 5316 - R and OpenSesame","no","mono","no","18","no","white","no","no","768","legacy","66","66","/Users/katherinehays/Desktop/PSYC 5316 - R and OpenSesame/subject-3.csv","legacy","Lentiform Loewenfeld","3.3.12","0","h","NA","NA","NA","s","h","506","NA","NA","NA","65587","506","2","legacy","1024","2","48000","-16","experiment","HHSHH","3","odd","66808","NA","NA","189657","187434","1084","NA","NA","190697","NA","NA","1209","190801","191308","190692","190801","Flanker Task (by Katherine Hays)","46","38388","67","yes","1024"
"69.11764705882354","69.11764705882354","572.1029411764706","572.1029411764706","black","legacy","legacy","legacy","0","congruent","uniform","1","undefined","1","s","0","0","0","67","67","0","67","0","67","0","0","0","67","67","67","67","Thu Sep 22 12:49:13 2022","1500","The main experiment item","yes","Flanker_Task_by_Katherine_Hays.osexp","/Users/katherinehays/Desktop/PSYC 5316 - R and OpenSesame","no","mono","no","18","no","white","no","no","768","legacy","67","67","/Users/katherinehays/Desktop/PSYC 5316 - R and OpenSesame/subject-3.csv","legacy","Lentiform Loewenfeld","3.3.12","0","s","NA","NA","NA","s","s","515","NA","NA","NA","65587","515","2","legacy","1024","2","48000","-16","experiment","SSSSS","3","odd","66808","NA","NA","191817","191312","1084","NA","NA","192858","NA","NA","1209","192962","193478","192854","192962","Flanker Task (by Katherine Hays)","47","38903","68","yes","1024"
"69.56521739130434","69.56521739130434","572.9855072463768","572.9855072463768","black","legacy","legacy","legacy","0","congruent","uniform","1","undefined","1","h","0","0","0","68","68","0","68","0","68","0","0","0","68","68","68","68","Thu Sep 22 12:49:13 2022","1500","The main experiment item","yes","Flanker_Task_by_Katherine_Hays.osexp","/Users/katherinehays/Desktop/PSYC 5316 - R and OpenSesame","no","mono","no","18","no","white","no","no","768","legacy","68","68","/Users/katherinehays/Desktop/PSYC 5316 - R and OpenSesame/subject-3.csv","legacy","Lentiform Loewenfeld","3.3.12","0","h","NA","NA","NA","s","h","633","NA","NA","NA","65587","633","2","legacy","1024","2","48000","-16","experiment","HHHHH","3","odd","66808","NA","NA","193482","191312","1084","NA","NA","194520","NA","NA","1209","194624","195258","194515","194624","Flanker Task (by Katherine Hays)","48","39536","69","yes","1024"
"68.57142857142857","68.57142857142857","573.4285714285714","573.4285714285714","black","legacy","legacy","legacy","0","incongruent","uniform","0","undefined","0","h","0","0","0","69","69","0","69","0","69","0","0","0","69","69","69","69","Thu Sep 22 12:49:13 2022","1500","The main experiment item","yes","Flanker_Task_by_Katherine_Hays.osexp","/Users/katherinehays/Desktop/PSYC 5316 - R and OpenSesame","no","mono","no","18","no","white","no","no","768","legacy","69","69","/Users/katherinehays/Desktop/PSYC 5316 - R and OpenSesame/subject-3.csv","legacy","Lentiform Loewenfeld","3.3.12","0","s","NA","NA","NA","s","s","604","NA","NA","NA","65587","604","2","legacy","1024","2","48000","-16","experiment","SSHSS","3","odd","66808","NA","NA","195262","191312","1084","NA","NA","196308","NA","NA","1209","196411","197016","196303","196411","Flanker Task (by Katherine Hays)","48","40140","70","yes","1024"
"69.01408450704226","69.01408450704226","573.2112676056338","573.2112676056338","black","legacy","legacy","legacy","0","incongruent","uniform","1","undefined","1","h","0","0","0","70","70","0","70","0","70","0","0","0","70","70","70","70","Thu Sep 22 12:49:13 2022","1500","The main experiment item","yes","Flanker_Task_by_Katherine_Hays.osexp","/Users/katherinehays/Desktop/PSYC 5316 - R and OpenSesame","no","mono","no","18","no","white","no","no","768","legacy","70","70","/Users/katherinehays/Desktop/PSYC 5316 - R and OpenSesame/subject-3.csv","legacy","Lentiform Loewenfeld","3.3.12","0","h","NA","NA","NA","s","h","558","NA","NA","NA","65587","558","2","legacy","1024","2","48000","-16","experiment","SSHSS","3","odd","66808","NA","NA","197525","197021","1084","NA","NA","198571","NA","NA","1209","198674","199233","198566","198674","Flanker Task (by Katherine Hays)","49","40698","71","yes","1024"
"68.05555555555556","68.05555555555556","575.3194444444445","575.3194444444445","black","legacy","legacy","legacy","0","incongruent","uniform","0","undefined","0","s","0","0","0","71","71","0","71","0","71","0","0","0","71","71","71","71","Thu Sep 22 12:49:13 2022","1500","The main experiment item","yes","Flanker_Task_by_Katherine_Hays.osexp","/Users/katherinehays/Desktop/PSYC 5316 - R and OpenSesame","no","mono","no","18","no","white","no","no","768","legacy","71","71","/Users/katherinehays/Desktop/PSYC 5316 - R and OpenSesame/subject-3.csv","legacy","Lentiform Loewenfeld","3.3.12","0","h","NA","NA","NA","s","h","725","NA","NA","NA","65587","725","2","legacy","1024","2","48000","-16","experiment","HHSHH","3","odd","66808","NA","NA","199237","197021","1084","NA","NA","200278","NA","NA","1209","200382","201108","200273","200382","Flanker Task (by Katherine Hays)","49","41423","72","yes","1024"
"67.12328767123287","67.12328767123287","575.1369863013699","575.1369863013699","black","legacy","legacy","legacy","0","incongruent","uniform","0","undefined","0","s","0","0","0","72","72","0","72","0","72","0","0","0","72","72","72","72","Thu Sep 22 12:49:13 2022","1500","The main experiment item","yes","Flanker_Task_by_Katherine_Hays.osexp","/Users/katherinehays/Desktop/PSYC 5316 - R and OpenSesame","no","mono","no","18","no","white","no","no","768","legacy","72","72","/Users/katherinehays/Desktop/PSYC 5316 - R and OpenSesame/subject-3.csv","legacy","Lentiform Loewenfeld","3.3.12","0","h","NA","NA","NA","s","h","562","NA","NA","NA","65587","562","2","legacy","1024","2","48000","-16","experiment","HHSHH","3","odd","66808","NA","NA","201616","201112","1084","NA","NA","202656","NA","NA","1209","202760","203323","202651","202760","Flanker Task (by Katherine Hays)","49","41985","73","yes","1024"
"66.21621621621621","66.21621621621621","574.8783783783783","574.8783783783783","black","legacy","legacy","legacy","0","incongruent","uniform","0","undefined","0","s","0","0","0","73","73","0","73","0","73","0","0","0","73","73","73","73","Thu Sep 22 12:49:13 2022","1500","The main experiment item","yes","Flanker_Task_by_Katherine_Hays.osexp","/Users/katherinehays/Desktop/PSYC 5316 - R and OpenSesame","no","mono","no","18","no","white","no","no","768","legacy","73","73","/Users/katherinehays/Desktop/PSYC 5316 - R and OpenSesame/subject-3.csv","legacy","Lentiform Loewenfeld","3.3.12","0","h","NA","NA","NA","s","h","556","NA","NA","NA","65587","556","2","legacy","1024","2","48000","-16","experiment","HHSHH","3","odd","66808","NA","NA","203832","203327","1084","NA","NA","204874","NA","NA","1209","204977","205534","204870","204977","Flanker Task (by Katherine Hays)","49","42541","74","yes","1024"
"66.66666666666667","66.66666666666667","576.0133333333333","576.0133333333333","black","legacy","legacy","legacy","0","congruent","uniform","1","undefined","1","s","0","0","0","74","74","0","74","0","74","0","0","0","74","74","74","74","Thu Sep 22 12:49:13 2022","1500","The main experiment item","yes","Flanker_Task_by_Katherine_Hays.osexp","/Users/katherinehays/Desktop/PSYC 5316 - R and OpenSesame","no","mono","no","18","no","white","no","no","768","legacy","74","74","/Users/katherinehays/Desktop/PSYC 5316 - R and OpenSesame/subject-3.csv","legacy","Lentiform Loewenfeld","3.3.12","0","s","NA","NA","NA","s","s","660","NA","NA","NA","65587","660","2","legacy","1024","2","48000","-16","experiment","SSSSS","3","odd","66808","NA","NA","206043","205538","1084","NA","NA","207084","NA","NA","1209","207188","207849","207080","207188","Flanker Task (by Katherine Hays)","50","43201","75","yes","1024"
"67.10526315789474","67.10526315789474","574.5263157894736","574.5263157894736","black","legacy","legacy","legacy","0","congruent","uniform","1","undefined","1","h","0","0","0","75","75","0","75","0","75","0","0","0","75","75","75","75","Thu Sep 22 12:49:13 2022","1500","The main experiment item","yes","Flanker_Task_by_Katherine_Hays.osexp","/Users/katherinehays/Desktop/PSYC 5316 - R and OpenSesame","no","mono","no","18","no","white","no","no","768","legacy","75","75","/Users/katherinehays/Desktop/PSYC 5316 - R and OpenSesame/subject-3.csv","legacy","Lentiform Loewenfeld","3.3.12","0","h","NA","NA","NA","s","h","463","NA","NA","NA","65587","463","2","legacy","1024","2","48000","-16","experiment","HHHHH","3","odd","66808","NA","NA","207853","205538","1084","NA","NA","208895","NA","NA","1209","208998","209462","208890","208998","Flanker Task (by Katherine Hays)","51","43664","76","yes","1024"
"67.53246753246754","67.53246753246754","575.1428571428571","575.1428571428571","black","legacy","legacy","legacy","0","incongruent","uniform","1","undefined","1","s","0","0","0","76","76","0","76","0","76","0","0","0","76","76","76","76","Thu Sep 22 12:49:13 2022","1500","The main experiment item","yes","Flanker_Task_by_Katherine_Hays.osexp","/Users/katherinehays/Desktop/PSYC 5316 - R and OpenSesame","no","mono","no","18","no","white","no","no","768","legacy","76","76","/Users/katherinehays/Desktop/PSYC 5316 - R and OpenSesame/subject-3.csv","legacy","Lentiform Loewenfeld","3.3.12","0","s","NA","NA","NA","s","s","622","NA","NA","NA","65587","622","2","legacy","1024","2","48000","-16","experiment","HHSHH","3","odd","66808","NA","NA","209466","205538","1084","NA","NA","210507","NA","NA","1209","210612","211235","210503","210612","Flanker Task (by Katherine Hays)","52","44286","77","yes","1024"
"66.66666666666667","66.66666666666667","572.8333333333334","572.8333333333334","black","legacy","legacy","legacy","0","incongruent","uniform","0","undefined","0","s","0","0","0","77","77","0","77","0","77","0","0","0","77","77","77","77","Thu Sep 22 12:49:13 2022","1500","The main experiment item","yes","Flanker_Task_by_Katherine_Hays.osexp","/Users/katherinehays/Desktop/PSYC 5316 - R and OpenSesame","no","mono","no","18","no","white","no","no","768","legacy","77","77","/Users/katherinehays/Desktop/PSYC 5316 - R and OpenSesame/subject-3.csv","legacy","Lentiform Loewenfeld","3.3.12","0","h","NA","NA","NA","s","h","395","NA","NA","NA","65587","395","2","legacy","1024","2","48000","-16","experiment","HHSHH","3","odd","66808","NA","NA","211239","205538","1084","NA","NA","212278","NA","NA","1209","212382","212778","212274","212382","Flanker Task (by Katherine Hays)","52","44681","78","yes","1024"
"67.0886075949367","67.0886075949367","573.9873417721519","573.9873417721519","black","legacy","legacy","legacy","0","incongruent","uniform","1","undefined","1","h","0","0","0","78","78","0","78","0","78","0","0","0","78","78","78","78","Thu Sep 22 12:49:13 2022","1500","The main experiment item","yes","Flanker_Task_by_Katherine_Hays.osexp","/Users/katherinehays/Desktop/PSYC 5316 - R and OpenSesame","no","mono","no","18","no","white","no","no","768","legacy","78","78","/Users/katherinehays/Desktop/PSYC 5316 - R and OpenSesame/subject-3.csv","legacy","Lentiform Loewenfeld","3.3.12","0","h","NA","NA","NA","s","h","664","NA","NA","NA","65587","664","2","legacy","1024","2","48000","-16","experiment","SSHSS","3","odd","66808","NA","NA","213285","212782","1084","NA","NA","214321","NA","NA","1209","214425","215090","214317","214425","Flanker Task (by Katherine Hays)","53","45345","79","yes","1024"
"67.5","67.5","575.625","575.625","black","legacy","legacy","legacy","0","incongruent","uniform","1","undefined","1","h","0","0","0","79","79","0","79","0","79","0","0","0","79","79","79","79","Thu Sep 22 12:49:13 2022","1500","The main experiment item","yes","Flanker_Task_by_Katherine_Hays.osexp","/Users/katherinehays/Desktop/PSYC 5316 - R and OpenSesame","no","mono","no","18","no","white","no","no","768","legacy","79","79","/Users/katherinehays/Desktop/PSYC 5316 - R and OpenSesame/subject-3.csv","legacy","Lentiform Loewenfeld","3.3.12","0","h","NA","NA","NA","s","h","705","NA","NA","NA","65587","705","2","legacy","1024","2","48000","-16","experiment","SSHSS","3","odd","66808","NA","NA","215094","212782","1084","NA","NA","216134","NA","NA","1209","216239","216944","216130","216239","Flanker Task (by Katherine Hays)","54","46050","80","yes","1024"
"67.90123456790124","67.90123456790124","583.4444444444445","583.4444444444445","black","legacy","legacy","legacy","0","incongruent","uniform","1","undefined","1","s","0","0","0","80","80","0","80","0","80","0","0","0","80","80","80","80","Thu Sep 22 12:49:13 2022","600","The main experiment item","yes","Flanker_Task_by_Katherine_Hays.osexp","/Users/katherinehays/Desktop/PSYC 5316 - R and OpenSesame","no","mono","no","18","no","white","no","no","768","legacy","0","79","/Users/katherinehays/Desktop/PSYC 5316 - R and OpenSesame/subject-3.csv","legacy","Lentiform Loewenfeld","3.3.12","0","s","NA","h","NA","s","s","1209","NA","7992","NA","65587","1209","2","legacy","1024","2","48000","-16","experiment","HHSHH","3","odd","66808","225965","NA","216949","212782","1084","NA","NA","225986","217972","NA","1209","226090","227301","225982","226090","Flanker Task (by Katherine Hays)","55","47259","81","yes","1024"
"68.29268292682927","68.29268292682927","581.5975609756098","581.5975609756098","black","legacy","legacy","legacy","0","incongruent","uniform","1","undefined","1","h","0","0","0","81","81","0","81","0","81","0","0","0","81","81","81","81","Thu Sep 22 12:49:13 2022","600","The main experiment item","yes","Flanker_Task_by_Katherine_Hays.osexp","/Users/katherinehays/Desktop/PSYC 5316 - R and OpenSesame","no","mono","no","18","no","white","no","no","768","legacy","1","79","/Users/katherinehays/Desktop/PSYC 5316 - R and OpenSesame/subject-3.csv","legacy","Lentiform Loewenfeld","3.3.12","0","h","NA","h","NA","s","h","432","NA","7992","NA","65587","432","2","legacy","1024","2","48000","-16","experiment","SSHSS","3","odd","66808","225965","NA","227810","212782","1084","227306","NA","228850","217972","NA","1209","228954","229387","228846","228954","Flanker Task (by Katherine Hays)","56","47691","82","yes","1024"
"68.67469879518072","68.67469879518072","579.7710843373494","579.7710843373494","black","legacy","legacy","legacy","0","incongruent","uniform","1","undefined","1","h","0","0","0","82","82","0","82","0","82","0","0","0","82","82","82","82","Thu Sep 22 12:49:13 2022","600","The main experiment item","yes","Flanker_Task_by_Katherine_Hays.osexp","/Users/katherinehays/Desktop/PSYC 5316 - R and OpenSesame","no","mono","no","18","no","white","no","no","768","legacy","2","79","/Users/katherinehays/Desktop/PSYC 5316 - R and OpenSesame/subject-3.csv","legacy","Lentiform Loewenfeld","3.3.12","0","h","NA","h","NA","s","h","430","NA","7992","NA","65587","430","2","legacy","1024","2","48000","-16","experiment","SSHSS","3","odd","66808","225965","NA","229391","212782","1084","227306","NA","230427","217972","NA","1209","230533","230964","230423","230533","Flanker Task (by Katherine Hays)","57","48121","83","yes","1024"
"69.04761904761905","69.04761904761905","580.0952380952381","580.0952380952381","black","legacy","legacy","legacy","0","congruent","uniform","1","undefined","1","h","0","0","0","83","83","0","83","0","83","0","0","0","83","83","83","83","Thu Sep 22 12:49:13 2022","600","The main experiment item","yes","Flanker_Task_by_Katherine_Hays.osexp","/Users/katherinehays/Desktop/PSYC 5316 - R and OpenSesame","no","mono","no","18","no","white","no","no","768","legacy","3","79","/Users/katherinehays/Desktop/PSYC 5316 - R and OpenSesame/subject-3.csv","legacy","Lentiform Loewenfeld","3.3.12","0","h","NA","h","NA","s","h","607","NA","7992","NA","65587","607","2","legacy","1024","2","48000","-16","experiment","HHHHH","3","odd","66808","225965","NA","230968","212782","1084","227306","NA","232008","217972","NA","1209","232112","232720","232004","232112","Flanker Task (by Katherine Hays)","58","48728","84","yes","1024"
"68.23529411764706","68.23529411764706","579.5529411764705","579.5529411764705","black","legacy","legacy","legacy","0","incongruent","uniform","0","undefined","0","s","0","0","0","84","84","0","84","0","84","0","0","0","84","84","84","84","Thu Sep 22 12:49:13 2022","600","The main experiment item","yes","Flanker_Task_by_Katherine_Hays.osexp","/Users/katherinehays/Desktop/PSYC 5316 - R and OpenSesame","no","mono","no","18","no","white","no","no","768","legacy","4","79","/Users/katherinehays/Desktop/PSYC 5316 - R and OpenSesame/subject-3.csv","legacy","Lentiform Loewenfeld","3.3.12","0","h","NA","h","NA","s","h","534","NA","7992","NA","65587","534","2","legacy","1024","2","48000","-16","experiment","HHSHH","3","odd","66808","225965","NA","233229","212782","1084","232724","NA","234270","217972","NA","1209","234374","234908","234265","234374","Flanker Task (by Katherine Hays)","58","49262","85","yes","1024"
"68.6046511627907","68.6046511627907","577.5581395348837","577.5581395348837","black","legacy","legacy","legacy","0","congruent","uniform","1","undefined","1","s","0","0","0","85","85","0","85","0","85","0","0","0","85","85","85","85","Thu Sep 22 12:49:13 2022","600","The main experiment item","yes","Flanker_Task_by_Katherine_Hays.osexp","/Users/katherinehays/Desktop/PSYC 5316 - R and OpenSesame","no","mono","no","18","no","white","no","no","768","legacy","5","79","/Users/katherinehays/Desktop/PSYC 5316 - R and OpenSesame/subject-3.csv","legacy","Lentiform Loewenfeld","3.3.12","0","s","NA","h","NA","s","s","408","NA","7992","NA","65587","408","2","legacy","1024","2","48000","-16","experiment","SSSSS","3","odd","66808","225965","NA","235416","234913","1084","232724","NA","236452","217972","NA","1209","236558","236967","236449","236558","Flanker Task (by Katherine Hays)","59","49670","86","yes","1024"
"67.816091954023","67.816091954023","575.2413793103449","575.2413793103449","black","legacy","legacy","legacy","0","incongruent","uniform","0","undefined","0","s","0","0","0","86","86","0","86","0","86","0","0","0","86","86","86","86","Thu Sep 22 12:49:13 2022","600","The main experiment item","yes","Flanker_Task_by_Katherine_Hays.osexp","/Users/katherinehays/Desktop/PSYC 5316 - R and OpenSesame","no","mono","no","18","no","white","no","no","768","legacy","6","79","/Users/katherinehays/Desktop/PSYC 5316 - R and OpenSesame/subject-3.csv","legacy","Lentiform Loewenfeld","3.3.12","0","h","NA","h","NA","s","h","376","NA","7992","NA","65587","376","2","legacy","1024","2","48000","-16","experiment","HHSHH","3","odd","66808","225965","NA","236971","234913","1084","232724","NA","238011","217972","NA","1209","238117","238494","238006","238117","Flanker Task (by Katherine Hays)","59","50046","87","yes","1024"
"67.04545454545455","67.04545454545455","575.4886363636364","575.4886363636364","black","legacy","legacy","legacy","0","incongruent","uniform","0","undefined","0","h","0","0","0","87","87","0","87","0","87","0","0","0","87","87","87","87","Thu Sep 22 12:49:13 2022","600","The main experiment item","yes","Flanker_Task_by_Katherine_Hays.osexp","/Users/katherinehays/Desktop/PSYC 5316 - R and OpenSesame","no","mono","no","18","no","white","no","no","768","legacy","7","79","/Users/katherinehays/Desktop/PSYC 5316 - R and OpenSesame/subject-3.csv","legacy","Lentiform Loewenfeld","3.3.12","0","s","NA","h","NA","s","s","597","NA","7992","NA","65587","597","2","legacy","1024","2","48000","-16","experiment","SSHSS","3","odd","66808","225965","NA","239002","238497","1084","232724","NA","240040","217972","NA","1209","240144","240741","240036","240144","Flanker Task (by Katherine Hays)","59","50643","88","yes","1024"
"67.41573033707866","67.41573033707866","573.8876404494382","573.8876404494382","black","legacy","legacy","legacy","0","congruent","uniform","1","undefined","1","h","0","0","0","88","88","0","88","0","88","0","0","0","88","88","88","88","Thu Sep 22 12:49:13 2022","600","The main experiment item","yes","Flanker_Task_by_Katherine_Hays.osexp","/Users/katherinehays/Desktop/PSYC 5316 - R and OpenSesame","no","mono","no","18","no","white","no","no","768","legacy","8","79","/Users/katherinehays/Desktop/PSYC 5316 - R and OpenSesame/subject-3.csv","legacy","Lentiform Loewenfeld","3.3.12","0","h","NA","h","NA","s","h","433","NA","7992","NA","65587","433","2","legacy","1024","2","48000","-16","experiment","HHHHH","3","odd","66808","225965","NA","241249","240745","1084","232724","NA","242285","217972","NA","1209","242389","242823","242281","242389","Flanker Task (by Katherine Hays)","60","51076","89","yes","1024"
"67.77777777777777","67.77777777777777","572.7","572.7","black","legacy","legacy","legacy","0","congruent","uniform","1","undefined","1","h","0","0","0","89","89","0","89","0","89","0","0","0","89","89","89","89","Thu Sep 22 12:49:13 2022","600","The main experiment item","yes","Flanker_Task_by_Katherine_Hays.osexp","/Users/katherinehays/Desktop/PSYC 5316 - R and OpenSesame","no","mono","no","18","no","white","no","no","768","legacy","9","79","/Users/katherinehays/Desktop/PSYC 5316 - R and OpenSesame/subject-3.csv","legacy","Lentiform Loewenfeld","3.3.12","0","h","NA","h","NA","s","h","467","NA","7992","NA","65587","467","2","legacy","1024","2","48000","-16","experiment","HHHHH","3","odd","66808","225965","NA","242827","240745","1084","232724","NA","243869","217972","NA","1209","243972","244440","243865","243972","Flanker Task (by Katherine Hays)","61","51543","90","yes","1024"
"68.13186813186813","68.13186813186813","571.1208791208791","571.1208791208791","black","legacy","legacy","legacy","0","congruent","uniform","1","undefined","1","h","0","0","0","90","90","0","90","0","90","0","0","0","90","90","90","90","Thu Sep 22 12:49:13 2022","600","The main experiment item","yes","Flanker_Task_by_Katherine_Hays.osexp","/Users/katherinehays/Desktop/PSYC 5316 - R and OpenSesame","no","mono","no","18","no","white","no","no","768","legacy","10","79","/Users/katherinehays/Desktop/PSYC 5316 - R and OpenSesame/subject-3.csv","legacy","Lentiform Loewenfeld","3.3.12","0","h","NA","h","NA","s","h","429","NA","7992","NA","65587","429","2","legacy","1024","2","48000","-16","experiment","HHHHH","3","odd","66808","225965","NA","244444","240745","1084","232724","NA","245485","217972","NA","1209","245589","246019","245481","245589","Flanker Task (by Katherine Hays)","62","51972","91","yes","1024"
"68.47826086956522","68.47826086956522","569.6195652173913","569.6195652173913","black","legacy","legacy","legacy","0","congruent","uniform","1","undefined","1","s","0","0","0","91","91","0","91","0","91","0","0","0","91","91","91","91","Thu Sep 22 12:49:13 2022","600","The main experiment item","yes","Flanker_Task_by_Katherine_Hays.osexp","/Users/katherinehays/Desktop/PSYC 5316 - R and OpenSesame","no","mono","no","18","no","white","no","no","768","legacy","11","79","/Users/katherinehays/Desktop/PSYC 5316 - R and OpenSesame/subject-3.csv","legacy","Lentiform Loewenfeld","3.3.12","0","s","NA","h","NA","s","s","433","NA","7992","NA","65587","433","2","legacy","1024","2","48000","-16","experiment","SSSSS","3","odd","66808","225965","NA","246023","240745","1084","232724","NA","247064","217972","NA","1209","247168","247601","247059","247168","Flanker Task (by Katherine Hays)","63","52405","92","yes","1024"
"67.74193548387096","67.74193548387096","569.9032258064516","569.9032258064516","black","legacy","legacy","legacy","0","incongruent","uniform","0","undefined","0","h","0","0","0","92","92","0","92","0","92","0","0","0","92","92","92","92","Thu Sep 22 12:49:13 2022","600","The main experiment item","yes","Flanker_Task_by_Katherine_Hays.osexp","/Users/katherinehays/Desktop/PSYC 5316 - R and OpenSesame","no","mono","no","18","no","white","no","no","768","legacy","12","79","/Users/katherinehays/Desktop/PSYC 5316 - R and OpenSesame/subject-3.csv","legacy","Lentiform Loewenfeld","3.3.12","0","s","NA","h","NA","s","s","596","NA","7992","NA","65587","596","2","legacy","1024","2","48000","-16","experiment","SSHSS","3","odd","66808","225965","NA","247606","240745","1084","232724","NA","248646","217972","NA","1209","248749","249345","248642","248749","Flanker Task (by Katherine Hays)","63","53001","93","yes","1024"
"68.08510638297872","68.08510638297872","568.3404255319149","568.3404255319149","black","legacy","legacy","legacy","0","congruent","uniform","1","undefined","1","s","0","0","0","93","93","0","93","0","93","0","0","0","93","93","93","93","Thu Sep 22 12:49:13 2022","600","The main experiment item","yes","Flanker_Task_by_Katherine_Hays.osexp","/Users/katherinehays/Desktop/PSYC 5316 - R and OpenSesame","no","mono","no","18","no","white","no","no","768","legacy","13","79","/Users/katherinehays/Desktop/PSYC 5316 - R and OpenSesame/subject-3.csv","legacy","Lentiform Loewenfeld","3.3.12","0","s","NA","h","NA","s","s","423","NA","7992","NA","65587","423","2","legacy","1024","2","48000","-16","experiment","SSSSS","3","odd","66808","225965","NA","249854","249349","1084","232724","NA","250897","217972","NA","1209","251001","251425","250893","251001","Flanker Task (by Katherine Hays)","64","53424","94","yes","1024"
"68.42105263157895","68.42105263157895","566.8842105263158","566.8842105263158","black","legacy","legacy","legacy","0","congruent","uniform","1","undefined","1","s","0","0","0","94","94","0","94","0","94","0","0","0","94","94","94","94","Thu Sep 22 12:49:13 2022","600","The main experiment item","yes","Flanker_Task_by_Katherine_Hays.osexp","/Users/katherinehays/Desktop/PSYC 5316 - R and OpenSesame","no","mono","no","18","no","white","no","no","768","legacy","14","79","/Users/katherinehays/Desktop/PSYC 5316 - R and OpenSesame/subject-3.csv","legacy","Lentiform Loewenfeld","3.3.12","0","s","NA","h","NA","s","s","430","NA","7992","NA","65587","430","2","legacy","1024","2","48000","-16","experiment","SSSSS","3","odd","66808","225965","NA","251429","249349","1084","232724","NA","252468","217972","NA","1209","252572","253003","252464","252572","Flanker Task (by Katherine Hays)","65","53854","95","yes","1024"
"68.75","68.75","565.03125","565.03125","black","legacy","legacy","legacy","0","congruent","uniform","1","undefined","1","s","0","0","0","95","95","0","95","0","95","0","0","0","95","95","95","95","Thu Sep 22 12:49:13 2022","600","The main experiment item","yes","Flanker_Task_by_Katherine_Hays.osexp","/Users/katherinehays/Desktop/PSYC 5316 - R and OpenSesame","no","mono","no","18","no","white","no","no","768","legacy","15","79","/Users/katherinehays/Desktop/PSYC 5316 - R and OpenSesame/subject-3.csv","legacy","Lentiform Loewenfeld","3.3.12","0","s","NA","h","NA","s","s","389","NA","7992","NA","65587","389","2","legacy","1024","2","48000","-16","experiment","SSSSS","3","odd","66808","225965","NA","253007","249349","1084","232724","NA","254047","217972","NA","1209","254151","254541","254044","254151","Flanker Task (by Katherine Hays)","66","54243","96","yes","1024"
"69.0721649484536","69.0721649484536","565.639175257732","565.639175257732","black","legacy","legacy","legacy","0","incongruent","uniform","1","undefined","1","s","0","0","0","96","96","0","96","0","96","0","0","0","96","96","96","96","Thu Sep 22 12:49:13 2022","600","The main experiment item","yes","Flanker_Task_by_Katherine_Hays.osexp","/Users/katherinehays/Desktop/PSYC 5316 - R and OpenSesame","no","mono","no","18","no","white","no","no","768","legacy","16","79","/Users/katherinehays/Desktop/PSYC 5316 - R and OpenSesame/subject-3.csv","legacy","Lentiform Loewenfeld","3.3.12","0","s","NA","h","NA","s","s","624","NA","7992","NA","65587","624","2","legacy","1024","2","48000","-16","experiment","HHSHH","3","odd","66808","225965","NA","254545","249349","1084","232724","NA","255581","217972","NA","1209","255686","256311","255578","255686","Flanker Task (by Katherine Hays)","67","54867","97","yes","1024"
"69.38775510204081","69.38775510204081","564.5408163265306","564.5408163265306","black","legacy","legacy","legacy","0","congruent","uniform","1","undefined","1","h","0","0","0","97","97","0","97","0","97","0","0","0","97","97","97","97","Thu Sep 22 12:49:13 2022","600","The main experiment item","yes","Flanker_Task_by_Katherine_Hays.osexp","/Users/katherinehays/Desktop/PSYC 5316 - R and OpenSesame","no","mono","no","18","no","white","no","no","768","legacy","17","79","/Users/katherinehays/Desktop/PSYC 5316 - R and OpenSesame/subject-3.csv","legacy","Lentiform Loewenfeld","3.3.12","0","h","NA","h","NA","s","h","458","NA","7992","NA","65587","458","2","legacy","1024","2","48000","-16","experiment","HHHHH","3","odd","66808","225965","NA","256818","249349","1084","256315","NA","257854","217972","NA","1209","257958","258417","257850","257958","Flanker Task (by Katherine Hays)","68","55325","98","yes","1024"
"69.6969696969697","69.6969696969697","562.8686868686868","562.8686868686868","black","legacy","legacy","legacy","0","congruent","uniform","1","undefined","1","h","0","0","0","98","98","0","98","0","98","0","0","0","98","98","98","98","Thu Sep 22 12:49:13 2022","600","The main experiment item","yes","Flanker_Task_by_Katherine_Hays.osexp","/Users/katherinehays/Desktop/PSYC 5316 - R and OpenSesame","no","mono","no","18","no","white","no","no","768","legacy","18","79","/Users/katherinehays/Desktop/PSYC 5316 - R and OpenSesame/subject-3.csv","legacy","Lentiform Loewenfeld","3.3.12","0","h","NA","h","NA","s","h","399","NA","7992","NA","65587","399","2","legacy","1024","2","48000","-16","experiment","HHHHH","3","odd","66808","225965","NA","258421","249349","1084","256315","NA","259462","217972","NA","1209","259566","259966","259457","259566","Flanker Task (by Katherine Hays)","69","55724","99","yes","1024"
"70","70","561.34","561.34","black","legacy","legacy","legacy","0","congruent","uniform","1","undefined","1","h","0","0","0","99","99","0","99","0","99","0","0","0","99","99","99","99","Thu Sep 22 12:49:13 2022","600","The main experiment item","yes","Flanker_Task_by_Katherine_Hays.osexp","/Users/katherinehays/Desktop/PSYC 5316 - R and OpenSesame","no","mono","no","18","no","white","no","no","768","legacy","19","79","/Users/katherinehays/Desktop/PSYC 5316 - R and OpenSesame/subject-3.csv","legacy","Lentiform Loewenfeld","3.3.12","0","h","NA","h","NA","s","h","410","NA","7992","NA","65587","410","2","legacy","1024","2","48000","-16","experiment","HHHHH","3","odd","66808","225965","NA","259970","249349","1084","256315","NA","261012","217972","NA","1209","261115","261526","261007","261115","Flanker Task (by Katherine Hays)","70","56134","100","yes","1024"
"70.29702970297029","70.29702970297029","560.2277227722773","560.2277227722773","black","legacy","legacy","legacy","0","congruent","uniform","1","undefined","1","s","0","0","0","100","100","0","100","0","100","0","0","0","100","100","100","100","Thu Sep 22 12:49:13 2022","600","The main experiment item","yes","Flanker_Task_by_Katherine_Hays.osexp","/Users/katherinehays/Desktop/PSYC 5316 - R and OpenSesame","no","mono","no","18","no","white","no","no","768","legacy","20","79","/Users/katherinehays/Desktop/PSYC 5316 - R and OpenSesame/subject-3.csv","legacy","Lentiform Loewenfeld","3.3.12","0","s","NA","h","NA","s","s","449","NA","7992","NA","65587","449","2","legacy","1024","2","48000","-16","experiment","SSSSS","3","odd","66808","225965","NA","261530","249349","1084","256315","NA","262575","217972","NA","1209","262679","263129","262571","262679","Flanker Task (by Katherine Hays)","71","56583","101","yes","1024"
"69.6078431372549","69.6078431372549","559.5784313725491","559.5784313725491","black","legacy","legacy","legacy","0","incongruent","uniform","0","undefined","0","h","0","0","0","101","101","0","101","0","101","0","0","0","101","101","101","101","Thu Sep 22 12:49:13 2022","600","The main experiment item","yes","Flanker_Task_by_Katherine_Hays.osexp","/Users/katherinehays/Desktop/PSYC 5316 - R and OpenSesame","no","mono","no","18","no","white","no","no","768","legacy","21","79","/Users/katherinehays/Desktop/PSYC 5316 - R and OpenSesame/subject-3.csv","legacy","Lentiform Loewenfeld","3.3.12","0","s","NA","h","NA","s","s","494","NA","7992","NA","65587","494","2","legacy","1024","2","48000","-16","experiment","SSHSS","3","odd","66808","225965","NA","263133","249349","1084","256315","NA","264171","217972","NA","1209","264275","264770","264167","264275","Flanker Task (by Katherine Hays)","71","57077","102","yes","1024"
"68.93203883495146","68.93203883495146","558.1262135922331","558.1262135922331","black","legacy","legacy","legacy","0","incongruent","uniform","0","undefined","0","h","0","0","0","102","102","0","102","0","102","0","0","0","102","102","102","102","Thu Sep 22 12:49:13 2022","600","The main experiment item","yes","Flanker_Task_by_Katherine_Hays.osexp","/Users/katherinehays/Desktop/PSYC 5316 - R and OpenSesame","no","mono","no","18","no","white","no","no","768","legacy","22","79","/Users/katherinehays/Desktop/PSYC 5316 - R and OpenSesame/subject-3.csv","legacy","Lentiform Loewenfeld","3.3.12","0","s","NA","h","NA","s","s","410","NA","7992","NA","65587","410","2","legacy","1024","2","48000","-16","experiment","SSHSS","3","odd","66808","225965","NA","265278","264774","1084","256315","NA","266321","217972","NA","1209","266424","266834","266317","266424","Flanker Task (by Katherine Hays)","71","57487","103","yes","1024"
"69.23076923076923","69.23076923076923","557.2115384615385","557.2115384615385","black","legacy","legacy","legacy","0","congruent","uniform","1","undefined","1","s","0","0","0","103","103","0","103","0","103","0","0","0","103","103","103","103","Thu Sep 22 12:49:13 2022","600","The main experiment item","yes","Flanker_Task_by_Katherine_Hays.osexp","/Users/katherinehays/Desktop/PSYC 5316 - R and OpenSesame","no","mono","no","18","no","white","no","no","768","legacy","23","79","/Users/katherinehays/Desktop/PSYC 5316 - R and OpenSesame/subject-3.csv","legacy","Lentiform Loewenfeld","3.3.12","0","s","NA","h","NA","s","s","463","NA","7992","NA","65587","463","2","legacy","1024","2","48000","-16","experiment","SSSSS","3","odd","66808","225965","NA","267344","266839","1084","256315","NA","268385","217972","NA","1209","268489","268952","268381","268489","Flanker Task (by Katherine Hays)","72","57950","104","yes","1024"
"69.52380952380952","69.52380952380952","556.1238095238095","556.1238095238095","black","legacy","legacy","legacy","0","congruent","uniform","1","undefined","1","s","0","0","0","104","104","0","104","0","104","0","0","0","104","104","104","104","Thu Sep 22 12:49:13 2022","600","The main experiment item","yes","Flanker_Task_by_Katherine_Hays.osexp","/Users/katherinehays/Desktop/PSYC 5316 - R and OpenSesame","no","mono","no","18","no","white","no","no","768","legacy","24","79","/Users/katherinehays/Desktop/PSYC 5316 - R and OpenSesame/subject-3.csv","legacy","Lentiform Loewenfeld","3.3.12","0","s","NA","h","NA","s","s","443","NA","7992","NA","65587","443","2","legacy","1024","2","48000","-16","experiment","SSSSS","3","odd","66808","225965","NA","268956","266839","1084","256315","NA","269996","217972","NA","1209","270101","270544","269992","270100","Flanker Task (by Katherine Hays)","73","58393","105","yes","1024"
"69.81132075471699","69.81132075471699","554.5471698113207","554.5471698113207","black","legacy","legacy","legacy","0","congruent","uniform","1","undefined","1","s","0","0","0","105","105","0","105","0","105","0","0","0","105","105","105","105","Thu Sep 22 12:49:13 2022","600","The main experiment item","yes","Flanker_Task_by_Katherine_Hays.osexp","/Users/katherinehays/Desktop/PSYC 5316 - R and OpenSesame","no","mono","no","18","no","white","no","no","768","legacy","25","79","/Users/katherinehays/Desktop/PSYC 5316 - R and OpenSesame/subject-3.csv","legacy","Lentiform Loewenfeld","3.3.12","0","s","NA","h","NA","s","s","389","NA","7992","NA","65587","389","2","legacy","1024","2","48000","-16","experiment","SSSSS","3","odd","66808","225965","NA","270549","266839","1084","256315","NA","271591","217972","NA","1209","271697","272087","271587","271696","Flanker Task (by Katherine Hays)","74","58782","106","yes","1024"
"70.09345794392523","70.09345794392523","552.8317757009346","552.8317757009346","black","legacy","legacy","legacy","0","congruent","uniform","1","undefined","1","s","0","0","0","106","106","0","106","0","106","0","0","0","106","106","106","106","Thu Sep 22 12:49:13 2022","600","The main experiment item","yes","Flanker_Task_by_Katherine_Hays.osexp","/Users/katherinehays/Desktop/PSYC 5316 - R and OpenSesame","no","mono","no","18","no","white","no","no","768","legacy","26","79","/Users/katherinehays/Desktop/PSYC 5316 - R and OpenSesame/subject-3.csv","legacy","Lentiform Loewenfeld","3.3.12","0","s","NA","h","NA","s","s","371","NA","7992","NA","65587","371","2","legacy","1024","2","48000","-16","experiment","SSSSS","3","odd","66808","225965","NA","272091","266839","1084","256315","NA","273133","217972","NA","1209","273237","273609","273129","273237","Flanker Task (by Katherine Hays)","75","59153","107","yes","1024"
"70.37037037037037","70.37037037037037","552.175925925926","552.175925925926","black","legacy","legacy","legacy","0","congruent","uniform","1","undefined","1","s","0","0","0","107","107","0","107","0","107","0","0","0","107","107","107","107","Thu Sep 22 12:49:13 2022","600","The main experiment item","yes","Flanker_Task_by_Katherine_Hays.osexp","/Users/katherinehays/Desktop/PSYC 5316 - R and OpenSesame","no","mono","no","18","no","white","no","no","768","legacy","27","79","/Users/katherinehays/Desktop/PSYC 5316 - R and OpenSesame/subject-3.csv","legacy","Lentiform Loewenfeld","3.3.12","0","s","NA","h","NA","s","s","482","NA","7992","NA","65587","482","2","legacy","1024","2","48000","-16","experiment","SSSSS","3","odd","66808","225965","NA","273613","266839","1084","256315","NA","274653","217972","NA","1209","274757","275239","274649","274757","Flanker Task (by Katherine Hays)","76","59635","108","yes","1024"
"70.64220183486239","70.64220183486239","550.5045871559633","550.5045871559633","black","legacy","legacy","legacy","0","congruent","uniform","1","undefined","1","s","0","0","0","108","108","0","108","0","108","0","0","0","108","108","108","108","Thu Sep 22 12:49:13 2022","600","The main experiment item","yes","Flanker_Task_by_Katherine_Hays.osexp","/Users/katherinehays/Desktop/PSYC 5316 - R and OpenSesame","no","mono","no","18","no","white","no","no","768","legacy","28","79","/Users/katherinehays/Desktop/PSYC 5316 - R and OpenSesame/subject-3.csv","legacy","Lentiform Loewenfeld","3.3.12","0","s","NA","h","NA","s","s","370","NA","7992","NA","65587","370","2","legacy","1024","2","48000","-16","experiment","SSSSS","3","odd","66808","225965","NA","275244","266839","1084","256315","NA","276285","217972","NA","1209","276389","276765","276280","276389","Flanker Task (by Katherine Hays)","77","60005","109","yes","1024"
