"acc","accuracy","average_response_time","avg_rt","background","canvas_backend","clock_backend","color_backend","compensation","condition","coordinates","correct","correct_instructions1","correct_keyboard_response","correct_response","count_Block1","count_Block2","count_Block3","count_ISI","count_errorfeedback","count_experiment","count_faster","count_finish","count_fixation","count_instructions1","count_instructions2","count_instructions3","count_keyboard_response","count_logger","count_sequence","count_stimulus","datetime","deadline","description","disable_garbage_collection","experiment_file","experiment_path","font_bold","font_family","font_italic","font_size","font_underline","foreground","form_clicks","fullscreen","height","keyboard_backend","live_row","live_row_Block1","logfile","mouse_backend","opensesame_codename","opensesame_version","repeat_cycle","response","response_finish","response_instructions1","response_instructions2","response_instructions3","response_keyboard_response","response_time","response_time_finish","response_time_instructions1","response_time_instructions2","response_time_instructions3","response_time_keyboard_response","round_decimals","sampler_backend","sound_buf_size","sound_channels","sound_freq","sound_sample_size","start","stimulus","subject_nr","subject_parity","time_Block1","time_Block2","time_Block3","time_ISI","time_errorfeedback","time_experiment","time_faster","time_finish","time_fixation","time_instructions1","time_instructions2","time_instructions3","time_keyboard_response","time_logger","time_sequence","time_stimulus","title","total_correct","total_response_time","total_responses","uniform_coordinates","width"
"100","100","819","819","black","legacy","legacy","legacy","0","inconguent","uniform","1","undefined","1","s","0","0","0","0","0","0","0","0","0","0","0","0","0","0","0","0","Mon Sep 19 20:22:22 2022","1500","The main experiment item","yes","FlankerTask.osexp","C:/Users/lil_p/OneDrive/Documents/School/Advanced Quantitative Analysis/Lab 2.1","no","mono","no","18","no","white","no","yes","768","legacy","0","0","C:/Users/lil_p/OneDrive/Documents/School/Advanced Quantitative Analysis/Lab 2.1/WP-subject-3.csv","legacy","Lentiform Loewenfeld","3.3.12","0","s","NA","h","NA","NA","s","819","NA","62499","NA","NA","819","2","legacy","1024","2","48000","-16","experiment","HHSHH","3","odd","66464","NA","NA","NA","NA","3937","NA","NA","66621","3963","NA","NA","66724","67544","66617","66724","Flanker Task","1","819","1","yes","1024"
"100","100","744","744","black","legacy","legacy","legacy","0","inconguent","uniform","1","undefined","1","s","0","0","0","1","1","0","1","0","1","0","0","0","1","1","1","1","Mon Sep 19 20:22:22 2022","1500","The main experiment item","yes","FlankerTask.osexp","C:/Users/lil_p/OneDrive/Documents/School/Advanced Quantitative Analysis/Lab 2.1","no","mono","no","18","no","white","no","yes","768","legacy","1","1","C:/Users/lil_p/OneDrive/Documents/School/Advanced Quantitative Analysis/Lab 2.1/WP-subject-3.csv","legacy","Lentiform Loewenfeld","3.3.12","0","s","NA","h","NA","NA","s","669","NA","62499","NA","NA","669","2","legacy","1024","2","48000","-16","experiment","HHSHH","3","odd","66464","NA","NA","67558","NA","3937","NA","NA","68703","3963","NA","NA","68805","69475","68699","68805","Flanker Task","2","1488","2","yes","1024"
"100","100","683.6666666666666","683.6666666666666","black","legacy","legacy","legacy","0","congruent","uniform","1","undefined","1","h","0","0","0","2","2","0","2","0","2","0","0","0","2","2","2","2","Mon Sep 19 20:22:22 2022","1500","The main experiment item","yes","FlankerTask.osexp","C:/Users/lil_p/OneDrive/Documents/School/Advanced Quantitative Analysis/Lab 2.1","no","mono","no","18","no","white","no","yes","768","legacy","2","2","C:/Users/lil_p/OneDrive/Documents/School/Advanced Quantitative Analysis/Lab 2.1/WP-subject-3.csv","legacy","Lentiform Loewenfeld","3.3.12","0","h","NA","h","NA","NA","h","563","NA","62499","NA","NA","563","2","legacy","1024","2","48000","-16","experiment","HHHHH","3","odd","66464","NA","NA","69482","NA","3937","NA","NA","70630","3963","NA","NA","70733","71297","70625","70733","Flanker Task","3","2051","3","yes","1024"
"100","100","631.5","631.5","black","legacy","legacy","legacy","0","congruent","uniform","1","undefined","1","s","0","0","0","3","3","0","3","0","3","0","0","0","3","3","3","3","Mon Sep 19 20:22:22 2022","1500","The main experiment item","yes","FlankerTask.osexp","C:/Users/lil_p/OneDrive/Documents/School/Advanced Quantitative Analysis/Lab 2.1","no","mono","no","18","no","white","no","yes","768","legacy","3","3","C:/Users/lil_p/OneDrive/Documents/School/Advanced Quantitative Analysis/Lab 2.1/WP-subject-3.csv","legacy","Lentiform Loewenfeld","3.3.12","0","s","NA","h","NA","NA","s","475","NA","62499","NA","NA","475","2","legacy","1024","2","48000","-16","experiment","SSSSS","3","odd","66464","NA","NA","71304","NA","3937","NA","NA","72448","3963","NA","NA","72551","73027","72443","72551","Flanker Task","4","2526","4","yes","1024"
"100","100","623.6","623.6","black","legacy","legacy","legacy","0","inconguent","uniform","1","undefined","1","s","0","0","0","4","4","0","4","0","4","0","0","0","4","4","4","4","Mon Sep 19 20:22:22 2022","1500","The main experiment item","yes","FlankerTask.osexp","C:/Users/lil_p/OneDrive/Documents/School/Advanced Quantitative Analysis/Lab 2.1","no","mono","no","18","no","white","no","yes","768","legacy","4","4","C:/Users/lil_p/OneDrive/Documents/School/Advanced Quantitative Analysis/Lab 2.1/WP-subject-3.csv","legacy","Lentiform Loewenfeld","3.3.12","0","s","NA","h","NA","NA","s","592","NA","62499","NA","NA","592","2","legacy","1024","2","48000","-16","experiment","HHSHH","3","odd","66464","NA","NA","73034","NA","3937","NA","NA","74195","3963","NA","NA","74298","74891","74191","74298","Flanker Task","5","3118","5","yes","1024"
"100","100","616","616","black","legacy","legacy","legacy","0","congruent","uniform","1","undefined","1","s","0","0","0","5","5","0","5","0","5","0","0","0","5","5","5","5","Mon Sep 19 20:22:22 2022","1500","The main experiment item","yes","FlankerTask.osexp","C:/Users/lil_p/OneDrive/Documents/School/Advanced Quantitative Analysis/Lab 2.1","no","mono","no","18","no","white","no","yes","768","legacy","5","5","C:/Users/lil_p/OneDrive/Documents/School/Advanced Quantitative Analysis/Lab 2.1/WP-subject-3.csv","legacy","Lentiform Loewenfeld","3.3.12","0","s","NA","h","NA","NA","s","578","NA","62499","NA","NA","578","2","legacy","1024","2","48000","-16","experiment","SSSSS","3","odd","66464","NA","NA","74899","NA","3937","NA","NA","76041","3963","NA","NA","76144","76723","76037","76144","Flanker Task","6","3696","6","yes","1024"
"100","100","612.8571428571429","612.8571428571429","black","legacy","legacy","legacy","0","congruent","uniform","1","undefined","1","s","0","0","0","6","6","0","6","0","6","0","0","0","6","6","6","6","Mon Sep 19 20:22:22 2022","1500","The main experiment item","yes","FlankerTask.osexp","C:/Users/lil_p/OneDrive/Documents/School/Advanced Quantitative Analysis/Lab 2.1","no","mono","no","18","no","white","no","yes","768","legacy","6","6","C:/Users/lil_p/OneDrive/Documents/School/Advanced Quantitative Analysis/Lab 2.1/WP-subject-3.csv","legacy","Lentiform Loewenfeld","3.3.12","0","s","NA","h","NA","NA","s","594","NA","62499","NA","NA","594","2","legacy","1024","2","48000","-16","experiment","SSSSS","3","odd","66464","NA","NA","76730","NA","3937","NA","NA","77880","3963","NA","NA","77983","78578","77876","77983","Flanker Task","7","4290","7","yes","1024"
"100","100","604.875","604.875","black","legacy","legacy","legacy","0","congruent","uniform","1","undefined","1","h","0","0","0","7","7","0","7","0","7","0","0","0","7","7","7","7","Mon Sep 19 20:22:22 2022","1500","The main experiment item","yes","FlankerTask.osexp","C:/Users/lil_p/OneDrive/Documents/School/Advanced Quantitative Analysis/Lab 2.1","no","mono","no","18","no","white","no","yes","768","legacy","7","7","C:/Users/lil_p/OneDrive/Documents/School/Advanced Quantitative Analysis/Lab 2.1/WP-subject-3.csv","legacy","Lentiform Loewenfeld","3.3.12","0","h","NA","h","NA","NA","h","549","NA","62499","NA","NA","549","2","legacy","1024","2","48000","-16","experiment","HHHHH","3","odd","66464","NA","NA","78586","NA","3937","NA","NA","79735","3963","NA","NA","79838","80388","79730","79838","Flanker Task","8","4839","8","yes","1024"
"100","100","618.7777777777778","618.7777777777778","black","legacy","legacy","legacy","0","incongruent","uniform","1","undefined","1","h","0","0","0","8","8","0","8","0","8","0","0","0","8","8","8","8","Mon Sep 19 20:22:22 2022","1500","The main experiment item","yes","FlankerTask.osexp","C:/Users/lil_p/OneDrive/Documents/School/Advanced Quantitative Analysis/Lab 2.1","no","mono","no","18","no","white","no","yes","768","legacy","8","8","C:/Users/lil_p/OneDrive/Documents/School/Advanced Quantitative Analysis/Lab 2.1/WP-subject-3.csv","legacy","Lentiform Loewenfeld","3.3.12","0","h","NA","h","NA","NA","h","730","NA","62499","NA","NA","730","2","legacy","1024","2","48000","-16","experiment","SSHSS","3","odd","66464","NA","NA","80396","NA","3937","NA","NA","81537","3963","NA","NA","81640","82371","81533","81639","Flanker Task","9","5569","9","yes","1024"
"100","100","615.9","615.9","black","legacy","legacy","legacy","0","congruent","uniform","1","undefined","1","h","0","0","0","9","9","0","9","0","9","0","0","0","9","9","9","9","Mon Sep 19 20:22:22 2022","1500","The main experiment item","yes","FlankerTask.osexp","C:/Users/lil_p/OneDrive/Documents/School/Advanced Quantitative Analysis/Lab 2.1","no","mono","no","18","no","white","no","yes","768","legacy","9","9","C:/Users/lil_p/OneDrive/Documents/School/Advanced Quantitative Analysis/Lab 2.1/WP-subject-3.csv","legacy","Lentiform Loewenfeld","3.3.12","0","h","NA","h","NA","NA","h","590","NA","62499","NA","NA","590","2","legacy","1024","2","48000","-16","experiment","HHHHH","3","odd","66464","NA","NA","82380","NA","3937","NA","NA","83523","3963","NA","NA","83626","84217","83519","83626","Flanker Task","10","6159","10","yes","1024"
"100","100","612.2727272727273","612.2727272727273","black","legacy","legacy","legacy","0","congruent","uniform","1","undefined","1","s","0","0","0","10","10","0","10","0","10","0","0","0","10","10","10","10","Mon Sep 19 20:22:22 2022","1500","The main experiment item","yes","FlankerTask.osexp","C:/Users/lil_p/OneDrive/Documents/School/Advanced Quantitative Analysis/Lab 2.1","no","mono","no","18","no","white","no","yes","768","legacy","10","10","C:/Users/lil_p/OneDrive/Documents/School/Advanced Quantitative Analysis/Lab 2.1/WP-subject-3.csv","legacy","Lentiform Loewenfeld","3.3.12","0","s","NA","h","NA","NA","s","576","NA","62499","NA","NA","576","2","legacy","1024","2","48000","-16","experiment","SSSSS","3","odd","66464","NA","NA","84225","NA","3937","NA","NA","85369","3963","NA","NA","85472","86050","85364","85472","Flanker Task","11","6735","11","yes","1024"
"100","100","617.1666666666666","617.1666666666666","black","legacy","legacy","legacy","0","incongruent","uniform","1","undefined","1","h","0","0","0","11","11","0","11","0","11","0","0","0","11","11","11","11","Mon Sep 19 20:22:22 2022","1500","The main experiment item","yes","FlankerTask.osexp","C:/Users/lil_p/OneDrive/Documents/School/Advanced Quantitative Analysis/Lab 2.1","no","mono","no","18","no","white","no","yes","768","legacy","11","11","C:/Users/lil_p/OneDrive/Documents/School/Advanced Quantitative Analysis/Lab 2.1/WP-subject-3.csv","legacy","Lentiform Loewenfeld","3.3.12","0","h","NA","h","NA","NA","h","671","NA","62499","NA","NA","671","2","legacy","1024","2","48000","-16","experiment","SSHSS","3","odd","66464","NA","NA","86059","NA","3937","NA","NA","87205","3963","NA","NA","87308","87980","87200","87308","Flanker Task","12","7406","12","yes","1024"
"100","100","609.3846153846154","609.3846153846154","black","legacy","legacy","legacy","0","congruent","uniform","1","undefined","1","s","0","0","0","12","12","0","12","0","12","0","0","0","12","12","12","12","Mon Sep 19 20:22:22 2022","1500","The main experiment item","yes","FlankerTask.osexp","C:/Users/lil_p/OneDrive/Documents/School/Advanced Quantitative Analysis/Lab 2.1","no","mono","no","18","no","white","no","yes","768","legacy","12","12","C:/Users/lil_p/OneDrive/Documents/School/Advanced Quantitative Analysis/Lab 2.1/WP-subject-3.csv","legacy","Lentiform Loewenfeld","3.3.12","0","s","NA","h","NA","NA","s","516","NA","62499","NA","NA","516","2","legacy","1024","2","48000","-16","experiment","SSSSS","3","odd","66464","NA","NA","87989","NA","3937","NA","NA","89143","3963","NA","NA","89246","89763","89139","89246","Flanker Task","13","7922","13","yes","1024"
"100","100","604.9285714285714","604.9285714285714","black","legacy","legacy","legacy","0","congruent","uniform","1","undefined","1","h","0","0","0","13","13","0","13","0","13","0","0","0","13","13","13","13","Mon Sep 19 20:22:22 2022","1500","The main experiment item","yes","FlankerTask.osexp","C:/Users/lil_p/OneDrive/Documents/School/Advanced Quantitative Analysis/Lab 2.1","no","mono","no","18","no","white","no","yes","768","legacy","13","13","C:/Users/lil_p/OneDrive/Documents/School/Advanced Quantitative Analysis/Lab 2.1/WP-subject-3.csv","legacy","Lentiform Loewenfeld","3.3.12","0","h","NA","h","NA","NA","h","547","NA","62499","NA","NA","547","2","legacy","1024","2","48000","-16","experiment","HHHHH","3","odd","66464","NA","NA","89772","NA","3937","NA","NA","90917","3963","NA","NA","91020","91568","90913","91020","Flanker Task","14","8469","14","yes","1024"
"100","100","599.7333333333333","599.7333333333333","black","legacy","legacy","legacy","0","congruent","uniform","1","undefined","1","s","0","0","0","14","14","0","14","0","14","0","0","0","14","14","14","14","Mon Sep 19 20:22:22 2022","1500","The main experiment item","yes","FlankerTask.osexp","C:/Users/lil_p/OneDrive/Documents/School/Advanced Quantitative Analysis/Lab 2.1","no","mono","no","18","no","white","no","yes","768","legacy","14","14","C:/Users/lil_p/OneDrive/Documents/School/Advanced Quantitative Analysis/Lab 2.1/WP-subject-3.csv","legacy","Lentiform Loewenfeld","3.3.12","0","s","NA","h","NA","NA","s","527","NA","62499","NA","NA","527","2","legacy","1024","2","48000","-16","experiment","SSSSS","3","odd","66464","NA","NA","91577","NA","3937","NA","NA","92742","3963","NA","NA","92845","93373","92737","92845","Flanker Task","15","8996","15","yes","1024"
"100","100","598.5625","598.5625","black","legacy","legacy","legacy","0","inconguent","uniform","1","undefined","1","s","0","0","0","15","15","0","15","0","15","0","0","0","15","15","15","15","Mon Sep 19 20:22:22 2022","1500","The main experiment item","yes","FlankerTask.osexp","C:/Users/lil_p/OneDrive/Documents/School/Advanced Quantitative Analysis/Lab 2.1","no","mono","no","18","no","white","no","yes","768","legacy","15","15","C:/Users/lil_p/OneDrive/Documents/School/Advanced Quantitative Analysis/Lab 2.1/WP-subject-3.csv","legacy","Lentiform Loewenfeld","3.3.12","0","s","NA","h","NA","NA","s","581","NA","62499","NA","NA","581","2","legacy","1024","2","48000","-16","experiment","HHSHH","3","odd","66464","NA","NA","93381","NA","3937","NA","NA","94528","3963","NA","NA","94631","95213","94523","94631","Flanker Task","16","9577","16","yes","1024"
"100","100","592","592","black","legacy","legacy","legacy","0","congruent","uniform","1","undefined","1","h","0","0","0","16","16","0","16","0","16","0","0","0","16","16","16","16","Mon Sep 19 20:22:22 2022","1500","The main experiment item","yes","FlankerTask.osexp","C:/Users/lil_p/OneDrive/Documents/School/Advanced Quantitative Analysis/Lab 2.1","no","mono","no","18","no","white","no","yes","768","legacy","16","16","C:/Users/lil_p/OneDrive/Documents/School/Advanced Quantitative Analysis/Lab 2.1/WP-subject-3.csv","legacy","Lentiform Loewenfeld","3.3.12","0","h","NA","h","NA","NA","h","487","NA","62499","NA","NA","487","2","legacy","1024","2","48000","-16","experiment","HHHHH","3","odd","66464","NA","NA","95220","NA","3937","NA","NA","96367","3963","NA","NA","96469","96957","96363","96469","Flanker Task","17","10064","17","yes","1024"
"100","100","587.0555555555555","587.0555555555555","black","legacy","legacy","legacy","0","congruent","uniform","1","undefined","1","s","0","0","0","17","17","0","17","0","17","0","0","0","17","17","17","17","Mon Sep 19 20:22:22 2022","1500","The main experiment item","yes","FlankerTask.osexp","C:/Users/lil_p/OneDrive/Documents/School/Advanced Quantitative Analysis/Lab 2.1","no","mono","no","18","no","white","no","yes","768","legacy","17","17","C:/Users/lil_p/OneDrive/Documents/School/Advanced Quantitative Analysis/Lab 2.1/WP-subject-3.csv","legacy","Lentiform Loewenfeld","3.3.12","0","s","NA","h","NA","NA","s","503","NA","62499","NA","NA","503","2","legacy","1024","2","48000","-16","experiment","SSSSS","3","odd","66464","NA","NA","96965","NA","3937","NA","NA","98111","3963","NA","NA","98214","98718","98107","98214","Flanker Task","18","10567","18","yes","1024"
"100","100","582.421052631579","582.421052631579","black","legacy","legacy","legacy","0","incongruent","uniform","1","undefined","1","h","0","0","0","18","18","0","18","0","18","0","0","0","18","18","18","18","Mon Sep 19 20:22:22 2022","1500","The main experiment item","yes","FlankerTask.osexp","C:/Users/lil_p/OneDrive/Documents/School/Advanced Quantitative Analysis/Lab 2.1","no","mono","no","18","no","white","no","yes","768","legacy","18","18","C:/Users/lil_p/OneDrive/Documents/School/Advanced Quantitative Analysis/Lab 2.1/WP-subject-3.csv","legacy","Lentiform Loewenfeld","3.3.12","0","h","NA","h","NA","NA","h","499","NA","62499","NA","NA","499","2","legacy","1024","2","48000","-16","experiment","SSHSS","3","odd","66464","NA","NA","98727","NA","3937","NA","NA","99871","3963","NA","NA","99974","100474","99866","99974","Flanker Task","19","11066","19","yes","1024"
"100","100","583.35","583.35","black","legacy","legacy","legacy","0","congruent","uniform","1","undefined","1","h","0","0","0","19","19","0","19","0","19","0","0","0","19","19","19","19","Mon Sep 19 20:22:22 2022","1500","The main experiment item","yes","FlankerTask.osexp","C:/Users/lil_p/OneDrive/Documents/School/Advanced Quantitative Analysis/Lab 2.1","no","mono","no","18","no","white","no","yes","768","legacy","19","19","C:/Users/lil_p/OneDrive/Documents/School/Advanced Quantitative Analysis/Lab 2.1/WP-subject-3.csv","legacy","Lentiform Loewenfeld","3.3.12","0","h","NA","h","NA","NA","h","601","NA","62499","NA","NA","601","2","legacy","1024","2","48000","-16","experiment","HHHHH","3","odd","66464","NA","NA","100483","NA","3937","NA","NA","101645","3963","NA","NA","101748","102350","101640","101748","Flanker Task","20","11667","20","yes","1024"
"100","100","585.8095238095239","585.8095238095239","black","legacy","legacy","legacy","0","incongruent","uniform","1","undefined","1","h","0","0","0","20","20","0","20","0","20","0","0","0","20","20","20","20","Mon Sep 19 20:22:22 2022","1500","The main experiment item","yes","FlankerTask.osexp","C:/Users/lil_p/OneDrive/Documents/School/Advanced Quantitative Analysis/Lab 2.1","no","mono","no","18","no","white","no","yes","768","legacy","20","20","C:/Users/lil_p/OneDrive/Documents/School/Advanced Quantitative Analysis/Lab 2.1/WP-subject-3.csv","legacy","Lentiform Loewenfeld","3.3.12","0","h","NA","h","NA","NA","h","635","NA","62499","NA","NA","635","2","legacy","1024","2","48000","-16","experiment","SSHSS","3","odd","66464","NA","NA","102359","NA","3937","NA","NA","103510","3963","NA","NA","103613","104250","103505","103613","Flanker Task","21","12302","21","yes","1024"
"100","100","581.8636363636364","581.8636363636364","black","legacy","legacy","legacy","0","congruent","uniform","1","undefined","1","h","0","0","0","21","21","0","21","0","21","0","0","0","21","21","21","21","Mon Sep 19 20:22:22 2022","1500","The main experiment item","yes","FlankerTask.osexp","C:/Users/lil_p/OneDrive/Documents/School/Advanced Quantitative Analysis/Lab 2.1","no","mono","no","18","no","white","no","yes","768","legacy","21","21","C:/Users/lil_p/OneDrive/Documents/School/Advanced Quantitative Analysis/Lab 2.1/WP-subject-3.csv","legacy","Lentiform Loewenfeld","3.3.12","0","h","NA","h","NA","NA","h","499","NA","62499","NA","NA","499","2","legacy","1024","2","48000","-16","experiment","HHHHH","3","odd","66464","NA","NA","104257","NA","3937","NA","NA","105432","3963","NA","NA","105534","106035","105428","105534","Flanker Task","22","12801","22","yes","1024"
"100","100","583.6086956521739","583.6086956521739","black","legacy","legacy","legacy","0","incongruent","uniform","1","undefined","1","h","0","0","0","22","22","0","22","0","22","0","0","0","22","22","22","22","Mon Sep 19 20:22:22 2022","1500","The main experiment item","yes","FlankerTask.osexp","C:/Users/lil_p/OneDrive/Documents/School/Advanced Quantitative Analysis/Lab 2.1","no","mono","no","18","no","white","no","yes","768","legacy","22","22","C:/Users/lil_p/OneDrive/Documents/School/Advanced Quantitative Analysis/Lab 2.1/WP-subject-3.csv","legacy","Lentiform Loewenfeld","3.3.12","0","h","NA","h","NA","NA","h","622","NA","62499","NA","NA","622","2","legacy","1024","2","48000","-16","experiment","SSHSS","3","odd","66464","NA","NA","106042","NA","3937","NA","NA","107185","3963","NA","NA","107288","107911","107181","107288","Flanker Task","23","13423","23","yes","1024"
"100","100","590.875","590.875","black","legacy","legacy","legacy","0","inconguent","uniform","1","undefined","1","s","0","0","0","23","23","0","23","0","23","0","0","0","23","23","23","23","Mon Sep 19 20:22:22 2022","1500","The main experiment item","yes","FlankerTask.osexp","C:/Users/lil_p/OneDrive/Documents/School/Advanced Quantitative Analysis/Lab 2.1","no","mono","no","18","no","white","no","yes","768","legacy","23","23","C:/Users/lil_p/OneDrive/Documents/School/Advanced Quantitative Analysis/Lab 2.1/WP-subject-3.csv","legacy","Lentiform Loewenfeld","3.3.12","0","s","NA","h","NA","NA","s","758","NA","62499","NA","NA","758","2","legacy","1024","2","48000","-16","experiment","HHSHH","3","odd","66464","NA","NA","107920","NA","3937","NA","NA","109073","3963","NA","NA","109176","109935","109069","109176","Flanker Task","24","14181","24","yes","1024"
"100","100","593.36","593.36","black","legacy","legacy","legacy","0","congruent","uniform","1","undefined","1","h","0","0","0","24","24","0","24","0","24","0","0","0","24","24","24","24","Mon Sep 19 20:22:22 2022","1500","The main experiment item","yes","FlankerTask.osexp","C:/Users/lil_p/OneDrive/Documents/School/Advanced Quantitative Analysis/Lab 2.1","no","mono","no","18","no","white","no","yes","768","legacy","24","24","C:/Users/lil_p/OneDrive/Documents/School/Advanced Quantitative Analysis/Lab 2.1/WP-subject-3.csv","legacy","Lentiform Loewenfeld","3.3.12","0","h","NA","h","NA","NA","h","653","NA","62499","NA","NA","653","2","legacy","1024","2","48000","-16","experiment","HHHHH","3","odd","66464","NA","NA","109943","NA","3937","NA","NA","111086","3963","NA","NA","111189","111844","111082","111189","Flanker Task","25","14834","25","yes","1024"
"100","100","595.8076923076923","595.8076923076923","black","legacy","legacy","legacy","0","inconguent","uniform","1","undefined","1","s","0","0","0","25","25","0","25","0","25","0","0","0","25","25","25","25","Mon Sep 19 20:22:22 2022","1500","The main experiment item","yes","FlankerTask.osexp","C:/Users/lil_p/OneDrive/Documents/School/Advanced Quantitative Analysis/Lab 2.1","no","mono","no","18","no","white","no","yes","768","legacy","25","25","C:/Users/lil_p/OneDrive/Documents/School/Advanced Quantitative Analysis/Lab 2.1/WP-subject-3.csv","legacy","Lentiform Loewenfeld","3.3.12","0","s","NA","h","NA","NA","s","657","NA","62499","NA","NA","657","2","legacy","1024","2","48000","-16","experiment","HHSHH","3","odd","66464","NA","NA","111852","NA","3937","NA","NA","113001","3963","NA","NA","113104","113763","112996","113104","Flanker Task","26","15491","26","yes","1024"
"100","100","599.5555555555555","599.5555555555555","black","legacy","legacy","legacy","0","inconguent","uniform","1","undefined","1","s","0","0","0","26","26","0","26","0","26","0","0","0","26","26","26","26","Mon Sep 19 20:22:22 2022","1500","The main experiment item","yes","FlankerTask.osexp","C:/Users/lil_p/OneDrive/Documents/School/Advanced Quantitative Analysis/Lab 2.1","no","mono","no","18","no","white","no","yes","768","legacy","26","26","C:/Users/lil_p/OneDrive/Documents/School/Advanced Quantitative Analysis/Lab 2.1/WP-subject-3.csv","legacy","Lentiform Loewenfeld","3.3.12","0","s","NA","h","NA","NA","s","697","NA","62499","NA","NA","697","2","legacy","1024","2","48000","-16","experiment","HHSHH","3","odd","66464","NA","NA","113770","NA","3937","NA","NA","114916","3963","NA","NA","115020","115719","114912","115020","Flanker Task","27","16188","27","yes","1024"
"100","100","596.2142857142857","596.2142857142857","black","legacy","legacy","legacy","0","inconguent","uniform","1","undefined","1","s","0","0","0","27","27","0","27","0","27","0","0","0","27","27","27","27","Mon Sep 19 20:22:22 2022","1500","The main experiment item","yes","FlankerTask.osexp","C:/Users/lil_p/OneDrive/Documents/School/Advanced Quantitative Analysis/Lab 2.1","no","mono","no","18","no","white","no","yes","768","legacy","27","27","C:/Users/lil_p/OneDrive/Documents/School/Advanced Quantitative Analysis/Lab 2.1/WP-subject-3.csv","legacy","Lentiform Loewenfeld","3.3.12","0","s","NA","h","NA","NA","s","506","NA","62499","NA","NA","506","2","legacy","1024","2","48000","-16","experiment","HHSHH","3","odd","66464","NA","NA","115727","NA","3937","NA","NA","116871","3963","NA","NA","116975","117482","116867","116975","Flanker Task","28","16694","28","yes","1024"
"100","100","596.7931034482758","596.7931034482758","black","legacy","legacy","legacy","0","congruent","uniform","1","undefined","1","h","0","0","0","28","28","0","28","0","28","0","0","0","28","28","28","28","Mon Sep 19 20:22:22 2022","1500","The main experiment item","yes","FlankerTask.osexp","C:/Users/lil_p/OneDrive/Documents/School/Advanced Quantitative Analysis/Lab 2.1","no","mono","no","18","no","white","no","yes","768","legacy","28","28","C:/Users/lil_p/OneDrive/Documents/School/Advanced Quantitative Analysis/Lab 2.1/WP-subject-3.csv","legacy","Lentiform Loewenfeld","3.3.12","0","h","NA","h","NA","NA","h","613","NA","62499","NA","NA","613","2","legacy","1024","2","48000","-16","experiment","HHHHH","3","odd","66464","NA","NA","117490","NA","3937","NA","NA","118643","3963","NA","NA","118747","119362","118639","118747","Flanker Task","29","17307","29","yes","1024"
"100","100","620.8","620.8","black","legacy","legacy","legacy","0","inconguent","uniform","1","undefined","1","s","0","0","0","29","29","0","29","0","29","0","0","0","29","29","29","29","Mon Sep 19 20:22:22 2022","1500","The main experiment item","yes","FlankerTask.osexp","C:/Users/lil_p/OneDrive/Documents/School/Advanced Quantitative Analysis/Lab 2.1","no","mono","no","18","no","white","no","yes","768","legacy","29","29","C:/Users/lil_p/OneDrive/Documents/School/Advanced Quantitative Analysis/Lab 2.1/WP-subject-3.csv","legacy","Lentiform Loewenfeld","3.3.12","0","s","NA","h","NA","NA","s","1317","NA","62499","NA","NA","1317","2","legacy","1024","2","48000","-16","experiment","HHSHH","3","odd","66464","NA","NA","119370","NA","3937","NA","NA","120517","3963","NA","NA","120620","121939","120512","120620","Flanker Task","30","18624","30","yes","1024"
"100","100","629.516129032258","629.516129032258","black","legacy","legacy","legacy","0","incongruent","uniform","1","undefined","1","h","0","0","0","30","30","0","30","0","30","0","0","0","30","30","30","30","Mon Sep 19 20:22:22 2022","1500","The main experiment item","yes","FlankerTask.osexp","C:/Users/lil_p/OneDrive/Documents/School/Advanced Quantitative Analysis/Lab 2.1","no","mono","no","18","no","white","no","yes","768","legacy","30","30","C:/Users/lil_p/OneDrive/Documents/School/Advanced Quantitative Analysis/Lab 2.1/WP-subject-3.csv","legacy","Lentiform Loewenfeld","3.3.12","0","h","NA","h","NA","NA","h","891","NA","62499","NA","NA","891","2","legacy","1024","2","48000","-16","experiment","SSHSS","3","odd","66464","NA","NA","121947","NA","3937","NA","NA","123090","3963","NA","NA","123193","124086","123085","123193","Flanker Task","31","19515","31","yes","1024"
"100","100","630.1875","630.1875","black","legacy","legacy","legacy","0","inconguent","uniform","1","undefined","1","s","0","0","0","31","31","0","31","0","31","0","0","0","31","31","31","31","Mon Sep 19 20:22:22 2022","1500","The main experiment item","yes","FlankerTask.osexp","C:/Users/lil_p/OneDrive/Documents/School/Advanced Quantitative Analysis/Lab 2.1","no","mono","no","18","no","white","no","yes","768","legacy","31","31","C:/Users/lil_p/OneDrive/Documents/School/Advanced Quantitative Analysis/Lab 2.1/WP-subject-3.csv","legacy","Lentiform Loewenfeld","3.3.12","0","s","NA","h","NA","NA","s","651","NA","62499","NA","NA","651","2","legacy","1024","2","48000","-16","experiment","HHSHH","3","odd","66464","NA","NA","124093","NA","3937","NA","NA","125237","3963","NA","NA","125341","125994","125234","125341","Flanker Task","32","20166","32","yes","1024"
"100","100","630.2727272727273","630.2727272727273","black","legacy","legacy","legacy","0","incongruent","uniform","1","undefined","1","h","0","0","0","32","32","0","32","0","32","0","0","0","32","32","32","32","Mon Sep 19 20:22:22 2022","1500","The main experiment item","yes","FlankerTask.osexp","C:/Users/lil_p/OneDrive/Documents/School/Advanced Quantitative Analysis/Lab 2.1","no","mono","no","18","no","white","no","yes","768","legacy","32","32","C:/Users/lil_p/OneDrive/Documents/School/Advanced Quantitative Analysis/Lab 2.1/WP-subject-3.csv","legacy","Lentiform Loewenfeld","3.3.12","0","h","NA","h","NA","NA","h","633","NA","62499","NA","NA","633","2","legacy","1024","2","48000","-16","experiment","SSHSS","3","odd","66464","NA","NA","126000","NA","3937","NA","NA","127147","3963","NA","NA","127250","127884","127143","127250","Flanker Task","33","20799","33","yes","1024"
"100","100","628.2058823529412","628.2058823529412","black","legacy","legacy","legacy","0","incongruent","uniform","1","undefined","1","h","0","0","0","33","33","0","33","0","33","0","0","0","33","33","33","33","Mon Sep 19 20:22:22 2022","1500","The main experiment item","yes","FlankerTask.osexp","C:/Users/lil_p/OneDrive/Documents/School/Advanced Quantitative Analysis/Lab 2.1","no","mono","no","18","no","white","no","yes","768","legacy","33","33","C:/Users/lil_p/OneDrive/Documents/School/Advanced Quantitative Analysis/Lab 2.1/WP-subject-3.csv","legacy","Lentiform Loewenfeld","3.3.12","0","h","NA","h","NA","NA","h","560","NA","62499","NA","NA","560","2","legacy","1024","2","48000","-16","experiment","SSHSS","3","odd","66464","NA","NA","127892","NA","3937","NA","NA","129036","3963","NA","NA","129139","129701","129031","129139","Flanker Task","34","21359","34","yes","1024"
"100","100","626.5714285714286","626.5714285714286","black","legacy","legacy","legacy","0","inconguent","uniform","1","undefined","1","s","0","0","0","34","34","0","34","0","34","0","0","0","34","34","34","34","Mon Sep 19 20:22:22 2022","1500","The main experiment item","yes","FlankerTask.osexp","C:/Users/lil_p/OneDrive/Documents/School/Advanced Quantitative Analysis/Lab 2.1","no","mono","no","18","no","white","no","yes","768","legacy","34","34","C:/Users/lil_p/OneDrive/Documents/School/Advanced Quantitative Analysis/Lab 2.1/WP-subject-3.csv","legacy","Lentiform Loewenfeld","3.3.12","0","s","NA","h","NA","NA","s","571","NA","62499","NA","NA","571","2","legacy","1024","2","48000","-16","experiment","HHSHH","3","odd","66464","NA","NA","129709","NA","3937","NA","NA","130853","3963","NA","NA","130956","131529","130849","130956","Flanker Task","35","21930","35","yes","1024"
"100","100","625.5277777777778","625.5277777777778","black","legacy","legacy","legacy","0","incongruent","uniform","1","undefined","1","h","0","0","0","35","35","0","35","0","35","0","0","0","35","35","35","35","Mon Sep 19 20:22:22 2022","1500","The main experiment item","yes","FlankerTask.osexp","C:/Users/lil_p/OneDrive/Documents/School/Advanced Quantitative Analysis/Lab 2.1","no","mono","no","18","no","white","no","yes","768","legacy","35","35","C:/Users/lil_p/OneDrive/Documents/School/Advanced Quantitative Analysis/Lab 2.1/WP-subject-3.csv","legacy","Lentiform Loewenfeld","3.3.12","0","h","NA","h","NA","NA","h","589","NA","62499","NA","NA","589","2","legacy","1024","2","48000","-16","experiment","SSHSS","3","odd","66464","NA","NA","131536","NA","3937","NA","NA","132680","3963","NA","NA","132783","133374","132676","132783","Flanker Task","36","22519","36","yes","1024"
"100","100","623.027027027027","623.027027027027","black","legacy","legacy","legacy","0","congruent","uniform","1","undefined","1","h","0","0","0","36","36","0","36","0","36","0","0","0","36","36","36","36","Mon Sep 19 20:22:22 2022","1500","The main experiment item","yes","FlankerTask.osexp","C:/Users/lil_p/OneDrive/Documents/School/Advanced Quantitative Analysis/Lab 2.1","no","mono","no","18","no","white","no","yes","768","legacy","36","36","C:/Users/lil_p/OneDrive/Documents/School/Advanced Quantitative Analysis/Lab 2.1/WP-subject-3.csv","legacy","Lentiform Loewenfeld","3.3.12","0","h","NA","h","NA","NA","h","533","NA","62499","NA","NA","533","2","legacy","1024","2","48000","-16","experiment","HHHHH","3","odd","66464","NA","NA","133382","NA","3937","NA","NA","134542","3963","NA","NA","134645","135179","134537","134645","Flanker Task","37","23052","37","yes","1024"
"100","100","620.921052631579","620.921052631579","black","legacy","legacy","legacy","0","congruent","uniform","1","undefined","1","h","0","0","0","37","37","0","37","0","37","0","0","0","37","37","37","37","Mon Sep 19 20:22:22 2022","1500","The main experiment item","yes","FlankerTask.osexp","C:/Users/lil_p/OneDrive/Documents/School/Advanced Quantitative Analysis/Lab 2.1","no","mono","no","18","no","white","no","yes","768","legacy","37","37","C:/Users/lil_p/OneDrive/Documents/School/Advanced Quantitative Analysis/Lab 2.1/WP-subject-3.csv","legacy","Lentiform Loewenfeld","3.3.12","0","h","NA","h","NA","NA","h","543","NA","62499","NA","NA","543","2","legacy","1024","2","48000","-16","experiment","HHHHH","3","odd","66464","NA","NA","135186","NA","3937","NA","NA","136331","3963","NA","NA","136434","136979","136327","136434","Flanker Task","38","23595","38","yes","1024"
"100","100","615.8205128205128","615.8205128205128","black","legacy","legacy","legacy","0","incongruent","uniform","1","undefined","1","h","0","0","0","38","38","0","38","0","38","0","0","0","38","38","38","38","Mon Sep 19 20:22:22 2022","1500","The main experiment item","yes","FlankerTask.osexp","C:/Users/lil_p/OneDrive/Documents/School/Advanced Quantitative Analysis/Lab 2.1","no","mono","no","18","no","white","no","yes","768","legacy","38","38","C:/Users/lil_p/OneDrive/Documents/School/Advanced Quantitative Analysis/Lab 2.1/WP-subject-3.csv","legacy","Lentiform Loewenfeld","3.3.12","0","h","NA","h","NA","NA","h","422","NA","62499","NA","NA","422","2","legacy","1024","2","48000","-16","experiment","SSHSS","3","odd","66464","NA","NA","136986","NA","3937","NA","NA","138133","3963","NA","NA","138236","138659","138129","138236","Flanker Task","39","24017","39","yes","1024"
"100","100","614.95","614.95","black","legacy","legacy","legacy","0","congruent","uniform","1","undefined","1","s","0","0","0","39","39","0","39","0","39","0","0","0","39","39","39","39","Mon Sep 19 20:22:22 2022","1500","The main experiment item","yes","FlankerTask.osexp","C:/Users/lil_p/OneDrive/Documents/School/Advanced Quantitative Analysis/Lab 2.1","no","mono","no","18","no","white","no","yes","768","legacy","39","39","C:/Users/lil_p/OneDrive/Documents/School/Advanced Quantitative Analysis/Lab 2.1/WP-subject-3.csv","legacy","Lentiform Loewenfeld","3.3.12","0","s","NA","h","NA","NA","s","581","NA","62499","NA","NA","581","2","legacy","1024","2","48000","-16","experiment","SSSSS","3","odd","66464","NA","NA","138666","NA","3937","NA","NA","139813","3963","NA","NA","139916","140498","139808","139916","Flanker Task","40","24598","40","yes","1024"
"100","100","609.7317073170732","609.7317073170732","black","legacy","legacy","legacy","0","congruent","uniform","1","undefined","1","h","0","0","0","40","40","0","40","0","40","0","0","0","40","40","40","40","Mon Sep 19 20:22:22 2022","1500","The main experiment item","yes","FlankerTask.osexp","C:/Users/lil_p/OneDrive/Documents/School/Advanced Quantitative Analysis/Lab 2.1","no","mono","no","18","no","white","no","yes","768","legacy","40","40","C:/Users/lil_p/OneDrive/Documents/School/Advanced Quantitative Analysis/Lab 2.1/WP-subject-3.csv","legacy","Lentiform Loewenfeld","3.3.12","0","h","NA","h","NA","NA","h","401","NA","62499","NA","NA","401","2","legacy","1024","2","48000","-16","experiment","HHHHH","3","odd","66464","NA","NA","140506","NA","3937","NA","NA","141650","3963","NA","NA","141753","142156","141645","141753","Flanker Task","41","24999","41","yes","1024"
"100","100","606.047619047619","606.047619047619","black","legacy","legacy","legacy","0","incongruent","uniform","1","undefined","1","h","0","0","0","41","41","0","41","0","41","0","0","0","41","41","41","41","Mon Sep 19 20:22:22 2022","1500","The main experiment item","yes","FlankerTask.osexp","C:/Users/lil_p/OneDrive/Documents/School/Advanced Quantitative Analysis/Lab 2.1","no","mono","no","18","no","white","no","yes","768","legacy","41","41","C:/Users/lil_p/OneDrive/Documents/School/Advanced Quantitative Analysis/Lab 2.1/WP-subject-3.csv","legacy","Lentiform Loewenfeld","3.3.12","0","h","NA","h","NA","NA","h","455","NA","62499","NA","NA","455","2","legacy","1024","2","48000","-16","experiment","SSHSS","3","odd","66464","NA","NA","142162","NA","3937","NA","NA","143304","3963","NA","NA","143407","143864","143301","143407","Flanker Task","42","25454","42","yes","1024"
"100","100","601.7674418604652","601.7674418604652","black","legacy","legacy","legacy","0","congruent","uniform","1","undefined","1","h","0","0","0","42","42","0","42","0","42","0","0","0","42","42","42","42","Mon Sep 19 20:22:22 2022","1500","The main experiment item","yes","FlankerTask.osexp","C:/Users/lil_p/OneDrive/Documents/School/Advanced Quantitative Analysis/Lab 2.1","no","mono","no","18","no","white","no","yes","768","legacy","42","42","C:/Users/lil_p/OneDrive/Documents/School/Advanced Quantitative Analysis/Lab 2.1/WP-subject-3.csv","legacy","Lentiform Loewenfeld","3.3.12","0","h","NA","h","NA","NA","h","422","NA","62499","NA","NA","422","2","legacy","1024","2","48000","-16","experiment","HHHHH","3","odd","66464","NA","NA","143872","NA","3937","NA","NA","145045","3963","NA","NA","145148","145572","145041","145148","Flanker Task","43","25876","43","yes","1024"
"100","100","597.4772727272727","597.4772727272727","black","legacy","legacy","legacy","0","incongruent","uniform","1","undefined","1","h","0","0","0","43","43","0","43","0","43","0","0","0","43","43","43","43","Mon Sep 19 20:22:22 2022","1500","The main experiment item","yes","FlankerTask.osexp","C:/Users/lil_p/OneDrive/Documents/School/Advanced Quantitative Analysis/Lab 2.1","no","mono","no","18","no","white","no","yes","768","legacy","43","43","C:/Users/lil_p/OneDrive/Documents/School/Advanced Quantitative Analysis/Lab 2.1/WP-subject-3.csv","legacy","Lentiform Loewenfeld","3.3.12","0","h","NA","h","NA","NA","h","413","NA","62499","NA","NA","413","2","legacy","1024","2","48000","-16","experiment","SSHSS","3","odd","66464","NA","NA","145581","NA","3937","NA","NA","146724","3963","NA","NA","146826","147241","146719","146826","Flanker Task","44","26289","44","yes","1024"
"100","100","596.0888888888888","596.0888888888888","black","legacy","legacy","legacy","0","congruent","uniform","1","undefined","1","s","0","0","0","44","44","0","44","0","44","0","0","0","44","44","44","44","Mon Sep 19 20:22:22 2022","1500","The main experiment item","yes","FlankerTask.osexp","C:/Users/lil_p/OneDrive/Documents/School/Advanced Quantitative Analysis/Lab 2.1","no","mono","no","18","no","white","no","yes","768","legacy","44","44","C:/Users/lil_p/OneDrive/Documents/School/Advanced Quantitative Analysis/Lab 2.1/WP-subject-3.csv","legacy","Lentiform Loewenfeld","3.3.12","0","s","NA","h","NA","NA","s","535","NA","62499","NA","NA","535","2","legacy","1024","2","48000","-16","experiment","SSSSS","3","odd","66464","NA","NA","147249","NA","3937","NA","NA","148396","3963","NA","NA","148499","149036","148391","148499","Flanker Task","45","26824","45","yes","1024"
"100","100","597.6304347826087","597.6304347826087","black","legacy","legacy","legacy","0","inconguent","uniform","1","undefined","1","s","0","0","0","45","45","0","45","0","45","0","0","0","45","45","45","45","Mon Sep 19 20:22:22 2022","1500","The main experiment item","yes","FlankerTask.osexp","C:/Users/lil_p/OneDrive/Documents/School/Advanced Quantitative Analysis/Lab 2.1","no","mono","no","18","no","white","no","yes","768","legacy","45","45","C:/Users/lil_p/OneDrive/Documents/School/Advanced Quantitative Analysis/Lab 2.1/WP-subject-3.csv","legacy","Lentiform Loewenfeld","3.3.12","0","s","NA","h","NA","NA","s","667","NA","62499","NA","NA","667","2","legacy","1024","2","48000","-16","experiment","HHSHH","3","odd","66464","NA","NA","149042","NA","3937","NA","NA","150186","3963","NA","NA","150289","150957","150181","150289","Flanker Task","46","27491","46","yes","1024"
"100","100","596.3191489361702","596.3191489361702","black","legacy","legacy","legacy","0","incongruent","uniform","1","undefined","1","h","0","0","0","46","46","0","46","0","46","0","0","0","46","46","46","46","Mon Sep 19 20:22:22 2022","1500","The main experiment item","yes","FlankerTask.osexp","C:/Users/lil_p/OneDrive/Documents/School/Advanced Quantitative Analysis/Lab 2.1","no","mono","no","18","no","white","no","yes","768","legacy","46","46","C:/Users/lil_p/OneDrive/Documents/School/Advanced Quantitative Analysis/Lab 2.1/WP-subject-3.csv","legacy","Lentiform Loewenfeld","3.3.12","0","h","NA","h","NA","NA","h","536","NA","62499","NA","NA","536","2","legacy","1024","2","48000","-16","experiment","SSHSS","3","odd","66464","NA","NA","150965","NA","3937","NA","NA","152109","3963","NA","NA","152212","152749","152104","152212","Flanker Task","47","28027","47","yes","1024"
"100","100","593.0625","593.0625","black","legacy","legacy","legacy","0","congruent","uniform","1","undefined","1","h","0","0","0","47","47","0","47","0","47","0","0","0","47","47","47","47","Mon Sep 19 20:22:22 2022","1500","The main experiment item","yes","FlankerTask.osexp","C:/Users/lil_p/OneDrive/Documents/School/Advanced Quantitative Analysis/Lab 2.1","no","mono","no","18","no","white","no","yes","768","legacy","47","47","C:/Users/lil_p/OneDrive/Documents/School/Advanced Quantitative Analysis/Lab 2.1/WP-subject-3.csv","legacy","Lentiform Loewenfeld","3.3.12","0","h","NA","h","NA","NA","h","440","NA","62499","NA","NA","440","2","legacy","1024","2","48000","-16","experiment","HHHHH","3","odd","66464","NA","NA","152757","NA","3937","NA","NA","153899","3963","NA","NA","154002","154443","153894","154002","Flanker Task","48","28467","48","yes","1024"
"100","100","590.9387755102041","590.9387755102041","black","legacy","legacy","legacy","0","congruent","uniform","1","undefined","1","h","0","0","0","48","48","0","48","0","48","0","0","0","48","48","48","48","Mon Sep 19 20:22:22 2022","1500","The main experiment item","yes","FlankerTask.osexp","C:/Users/lil_p/OneDrive/Documents/School/Advanced Quantitative Analysis/Lab 2.1","no","mono","no","18","no","white","no","yes","768","legacy","48","48","C:/Users/lil_p/OneDrive/Documents/School/Advanced Quantitative Analysis/Lab 2.1/WP-subject-3.csv","legacy","Lentiform Loewenfeld","3.3.12","0","h","NA","h","NA","NA","h","489","NA","62499","NA","NA","489","2","legacy","1024","2","48000","-16","experiment","HHHHH","3","odd","66464","NA","NA","154450","NA","3937","NA","NA","155596","3963","NA","NA","155699","156190","155591","155699","Flanker Task","49","28956","49","yes","1024"
"100","100","588.46","588.46","black","legacy","legacy","legacy","0","congruent","uniform","1","undefined","1","s","0","0","0","49","49","0","49","0","49","0","0","0","49","49","49","49","Mon Sep 19 20:22:22 2022","1500","The main experiment item","yes","FlankerTask.osexp","C:/Users/lil_p/OneDrive/Documents/School/Advanced Quantitative Analysis/Lab 2.1","no","mono","no","18","no","white","no","yes","768","legacy","49","49","C:/Users/lil_p/OneDrive/Documents/School/Advanced Quantitative Analysis/Lab 2.1/WP-subject-3.csv","legacy","Lentiform Loewenfeld","3.3.12","0","s","NA","h","NA","NA","s","467","NA","62499","NA","NA","467","2","legacy","1024","2","48000","-16","experiment","SSSSS","3","odd","66464","NA","NA","156199","NA","3937","NA","NA","157350","3963","NA","NA","157454","157923","157346","157454","Flanker Task","50","29423","50","yes","1024"
"100","100","585.0588235294117","585.0588235294117","black","legacy","legacy","legacy","0","congruent","uniform","1","undefined","1","h","0","0","0","50","50","0","50","0","50","0","0","0","50","50","50","50","Mon Sep 19 20:22:22 2022","1500","The main experiment item","yes","FlankerTask.osexp","C:/Users/lil_p/OneDrive/Documents/School/Advanced Quantitative Analysis/Lab 2.1","no","mono","no","18","no","white","no","yes","768","legacy","50","50","C:/Users/lil_p/OneDrive/Documents/School/Advanced Quantitative Analysis/Lab 2.1/WP-subject-3.csv","legacy","Lentiform Loewenfeld","3.3.12","0","h","NA","h","NA","NA","h","415","NA","62499","NA","NA","415","2","legacy","1024","2","48000","-16","experiment","HHHHH","3","odd","66464","NA","NA","157931","NA","3937","NA","NA","159075","3963","NA","NA","159178","159594","159072","159178","Flanker Task","51","29838","51","yes","1024"
"100","100","585.4615384615385","585.4615384615385","black","legacy","legacy","legacy","0","congruent","uniform","1","undefined","1","s","0","0","0","51","51","0","51","0","51","0","0","0","51","51","51","51","Mon Sep 19 20:22:22 2022","1500","The main experiment item","yes","FlankerTask.osexp","C:/Users/lil_p/OneDrive/Documents/School/Advanced Quantitative Analysis/Lab 2.1","no","mono","no","18","no","white","no","yes","768","legacy","51","51","C:/Users/lil_p/OneDrive/Documents/School/Advanced Quantitative Analysis/Lab 2.1/WP-subject-3.csv","legacy","Lentiform Loewenfeld","3.3.12","0","s","NA","h","NA","NA","s","606","NA","62499","NA","NA","606","2","legacy","1024","2","48000","-16","experiment","SSSSS","3","odd","66464","NA","NA","159602","NA","3937","NA","NA","160745","3963","NA","NA","160848","161456","160740","160848","Flanker Task","52","30444","52","yes","1024"
"100","100","581.1132075471698","581.1132075471698","black","legacy","legacy","legacy","0","congruent","uniform","1","undefined","1","h","0","0","0","52","52","0","52","0","52","0","0","0","52","52","52","52","Mon Sep 19 20:22:22 2022","1500","The main experiment item","yes","FlankerTask.osexp","C:/Users/lil_p/OneDrive/Documents/School/Advanced Quantitative Analysis/Lab 2.1","no","mono","no","18","no","white","no","yes","768","legacy","52","52","C:/Users/lil_p/OneDrive/Documents/School/Advanced Quantitative Analysis/Lab 2.1/WP-subject-3.csv","legacy","Lentiform Loewenfeld","3.3.12","0","h","NA","h","NA","NA","h","355","NA","62499","NA","NA","355","2","legacy","1024","2","48000","-16","experiment","HHHHH","3","odd","66464","NA","NA","161465","NA","3937","NA","NA","162613","3963","NA","NA","162716","163073","162608","162716","Flanker Task","53","30799","53","yes","1024"
"100","100","581.4074074074074","581.4074074074074","black","legacy","legacy","legacy","0","congruent","uniform","1","undefined","1","h","0","0","0","53","53","0","53","0","53","0","0","0","53","53","53","53","Mon Sep 19 20:22:22 2022","1500","The main experiment item","yes","FlankerTask.osexp","C:/Users/lil_p/OneDrive/Documents/School/Advanced Quantitative Analysis/Lab 2.1","no","mono","no","18","no","white","no","yes","768","legacy","53","53","C:/Users/lil_p/OneDrive/Documents/School/Advanced Quantitative Analysis/Lab 2.1/WP-subject-3.csv","legacy","Lentiform Loewenfeld","3.3.12","0","h","NA","h","NA","NA","h","597","NA","62499","NA","NA","597","2","legacy","1024","2","48000","-16","experiment","HHHHH","3","odd","66464","NA","NA","163082","NA","3937","NA","NA","164231","3963","NA","NA","164335","164934","164227","164335","Flanker Task","54","31396","54","yes","1024"
"100","100","580.290909090909","580.290909090909","black","legacy","legacy","legacy","0","inconguent","uniform","1","undefined","1","s","0","0","0","54","54","0","54","0","54","0","0","0","54","54","54","54","Mon Sep 19 20:22:22 2022","1500","The main experiment item","yes","FlankerTask.osexp","C:/Users/lil_p/OneDrive/Documents/School/Advanced Quantitative Analysis/Lab 2.1","no","mono","no","18","no","white","no","yes","768","legacy","54","54","C:/Users/lil_p/OneDrive/Documents/School/Advanced Quantitative Analysis/Lab 2.1/WP-subject-3.csv","legacy","Lentiform Loewenfeld","3.3.12","0","s","NA","h","NA","NA","s","520","NA","62499","NA","NA","520","2","legacy","1024","2","48000","-16","experiment","HHSHH","3","odd","66464","NA","NA","164943","NA","3937","NA","NA","166087","3963","NA","NA","166191","166713","166084","166191","Flanker Task","55","31916","55","yes","1024"
"100","100","579.5357142857143","579.5357142857143","black","legacy","legacy","legacy","0","inconguent","uniform","1","undefined","1","s","0","0","0","55","55","0","55","0","55","0","0","0","55","55","55","55","Mon Sep 19 20:22:22 2022","1500","The main experiment item","yes","FlankerTask.osexp","C:/Users/lil_p/OneDrive/Documents/School/Advanced Quantitative Analysis/Lab 2.1","no","mono","no","18","no","white","no","yes","768","legacy","55","55","C:/Users/lil_p/OneDrive/Documents/School/Advanced Quantitative Analysis/Lab 2.1/WP-subject-3.csv","legacy","Lentiform Loewenfeld","3.3.12","0","s","NA","h","NA","NA","s","538","NA","62499","NA","NA","538","2","legacy","1024","2","48000","-16","experiment","HHSHH","3","odd","66464","NA","NA","166719","NA","3937","NA","NA","167865","3963","NA","NA","167969","168508","167861","167969","Flanker Task","56","32454","56","yes","1024"
"100","100","578.6491228070175","578.6491228070175","black","legacy","legacy","legacy","0","inconguent","uniform","1","undefined","1","s","0","0","0","56","56","0","56","0","56","0","0","0","56","56","56","56","Mon Sep 19 20:22:22 2022","1500","The main experiment item","yes","FlankerTask.osexp","C:/Users/lil_p/OneDrive/Documents/School/Advanced Quantitative Analysis/Lab 2.1","no","mono","no","18","no","white","no","yes","768","legacy","56","56","C:/Users/lil_p/OneDrive/Documents/School/Advanced Quantitative Analysis/Lab 2.1/WP-subject-3.csv","legacy","Lentiform Loewenfeld","3.3.12","0","s","NA","h","NA","NA","s","529","NA","62499","NA","NA","529","2","legacy","1024","2","48000","-16","experiment","HHSHH","3","odd","66464","NA","NA","168517","NA","3937","NA","NA","169666","3963","NA","NA","169769","170301","169662","169769","Flanker Task","57","32983","57","yes","1024"
"98.27586206896552","98.27586206896552","576.9137931034483","576.9137931034483","black","legacy","legacy","legacy","0","incongruent","uniform","0","undefined","0","h","0","0","0","57","57","0","57","0","57","0","0","0","57","57","57","57","Mon Sep 19 20:22:22 2022","1500","The main experiment item","yes","FlankerTask.osexp","C:/Users/lil_p/OneDrive/Documents/School/Advanced Quantitative Analysis/Lab 2.1","no","mono","no","18","no","white","no","yes","768","legacy","57","57","C:/Users/lil_p/OneDrive/Documents/School/Advanced Quantitative Analysis/Lab 2.1/WP-subject-3.csv","legacy","Lentiform Loewenfeld","3.3.12","0","s","NA","h","NA","NA","s","478","NA","62499","NA","NA","478","2","legacy","1024","2","48000","-16","experiment","SSHSS","3","odd","66464","NA","NA","170308","172039","3937","NA","NA","171454","3963","NA","NA","171557","172539","171450","171557","Flanker Task","57","33461","58","yes","1024"
"98.30508474576271","98.30508474576271","578.1864406779661","578.1864406779661","black","legacy","legacy","legacy","0","congruent","uniform","1","undefined","1","s","0","0","0","58","58","0","58","0","58","0","0","0","58","58","58","58","Mon Sep 19 20:22:22 2022","1500","The main experiment item","yes","FlankerTask.osexp","C:/Users/lil_p/OneDrive/Documents/School/Advanced Quantitative Analysis/Lab 2.1","no","mono","no","18","no","white","no","yes","768","legacy","58","58","C:/Users/lil_p/OneDrive/Documents/School/Advanced Quantitative Analysis/Lab 2.1/WP-subject-3.csv","legacy","Lentiform Loewenfeld","3.3.12","0","s","NA","h","NA","NA","s","652","NA","62499","NA","NA","652","2","legacy","1024","2","48000","-16","experiment","SSSSS","3","odd","66464","NA","NA","172547","172039","3937","NA","NA","173689","3963","NA","NA","173792","174446","173685","173792","Flanker Task","58","34113","59","yes","1024"
"98.33333333333333","98.33333333333333","578.6666666666666","578.6666666666666","black","legacy","legacy","legacy","0","congruent","uniform","1","undefined","1","s","0","0","0","59","59","0","59","0","59","0","0","0","59","59","59","59","Mon Sep 19 20:22:22 2022","1500","The main experiment item","yes","FlankerTask.osexp","C:/Users/lil_p/OneDrive/Documents/School/Advanced Quantitative Analysis/Lab 2.1","no","mono","no","18","no","white","no","yes","768","legacy","59","59","C:/Users/lil_p/OneDrive/Documents/School/Advanced Quantitative Analysis/Lab 2.1/WP-subject-3.csv","legacy","Lentiform Loewenfeld","3.3.12","0","s","NA","h","NA","NA","s","607","NA","62499","NA","NA","607","2","legacy","1024","2","48000","-16","experiment","SSSSS","3","odd","66464","NA","NA","174455","172039","3937","NA","NA","175614","3963","NA","NA","175718","176327","175610","175718","Flanker Task","59","34720","60","yes","1024"
"98.36065573770492","98.36065573770492","580.1639344262295","580.1639344262295","black","legacy","legacy","legacy","0","inconguent","uniform","1","undefined","1","s","0","0","0","60","60","0","60","0","60","0","0","0","60","60","60","60","Mon Sep 19 20:22:22 2022","1500","The main experiment item","yes","FlankerTask.osexp","C:/Users/lil_p/OneDrive/Documents/School/Advanced Quantitative Analysis/Lab 2.1","no","mono","no","18","no","white","no","yes","768","legacy","60","60","C:/Users/lil_p/OneDrive/Documents/School/Advanced Quantitative Analysis/Lab 2.1/WP-subject-3.csv","legacy","Lentiform Loewenfeld","3.3.12","0","s","NA","h","NA","NA","s","670","NA","62499","NA","NA","670","2","legacy","1024","2","48000","-16","experiment","HHSHH","3","odd","66464","NA","NA","176336","172039","3937","NA","NA","177480","3963","NA","NA","177583","178255","177475","177583","Flanker Task","60","35390","61","yes","1024"
"98.38709677419355","98.38709677419355","580.4032258064516","580.4032258064516","black","legacy","legacy","legacy","0","incongruent","uniform","1","undefined","1","h","0","0","0","61","61","0","61","0","61","0","0","0","61","61","61","61","Mon Sep 19 20:22:22 2022","1500","The main experiment item","yes","FlankerTask.osexp","C:/Users/lil_p/OneDrive/Documents/School/Advanced Quantitative Analysis/Lab 2.1","no","mono","no","18","no","white","no","yes","768","legacy","61","61","C:/Users/lil_p/OneDrive/Documents/School/Advanced Quantitative Analysis/Lab 2.1/WP-subject-3.csv","legacy","Lentiform Loewenfeld","3.3.12","0","h","NA","h","NA","NA","h","595","NA","62499","NA","NA","595","2","legacy","1024","2","48000","-16","experiment","SSHSS","3","odd","66464","NA","NA","178262","172039","3937","NA","NA","179408","3963","NA","NA","179511","180108","179403","179511","Flanker Task","61","35985","62","yes","1024"
"98.41269841269842","98.41269841269842","578.968253968254","578.968253968254","black","legacy","legacy","legacy","0","incongruent","uniform","1","undefined","1","h","0","0","0","62","62","0","62","0","62","0","0","0","62","62","62","62","Mon Sep 19 20:22:22 2022","1500","The main experiment item","yes","FlankerTask.osexp","C:/Users/lil_p/OneDrive/Documents/School/Advanced Quantitative Analysis/Lab 2.1","no","mono","no","18","no","white","no","yes","768","legacy","62","62","C:/Users/lil_p/OneDrive/Documents/School/Advanced Quantitative Analysis/Lab 2.1/WP-subject-3.csv","legacy","Lentiform Loewenfeld","3.3.12","0","h","NA","h","NA","NA","h","490","NA","62499","NA","NA","490","2","legacy","1024","2","48000","-16","experiment","SSHSS","3","odd","66464","NA","NA","180116","172039","3937","NA","NA","181257","3963","NA","NA","181360","181852","181253","181360","Flanker Task","62","36475","63","yes","1024"
"98.4375","98.4375","578.046875","578.046875","black","legacy","legacy","legacy","0","congruent","uniform","1","undefined","1","s","0","0","0","63","63","0","63","0","63","0","0","0","63","63","63","63","Mon Sep 19 20:22:22 2022","1500","The main experiment item","yes","FlankerTask.osexp","C:/Users/lil_p/OneDrive/Documents/School/Advanced Quantitative Analysis/Lab 2.1","no","mono","no","18","no","white","no","yes","768","legacy","63","63","C:/Users/lil_p/OneDrive/Documents/School/Advanced Quantitative Analysis/Lab 2.1/WP-subject-3.csv","legacy","Lentiform Loewenfeld","3.3.12","0","s","NA","h","NA","NA","s","520","NA","62499","NA","NA","520","2","legacy","1024","2","48000","-16","experiment","SSSSS","3","odd","66464","NA","NA","181860","172039","3937","NA","NA","183002","3963","NA","NA","183106","183628","182999","183106","Flanker Task","63","36995","64","yes","1024"
"98.46153846153847","98.46153846153847","576.4","576.4","black","legacy","legacy","legacy","0","incongruent","uniform","1","undefined","1","h","0","0","0","64","64","0","64","0","64","0","0","0","64","64","64","64","Mon Sep 19 20:22:22 2022","1500","The main experiment item","yes","FlankerTask.osexp","C:/Users/lil_p/OneDrive/Documents/School/Advanced Quantitative Analysis/Lab 2.1","no","mono","no","18","no","white","no","yes","768","legacy","64","64","C:/Users/lil_p/OneDrive/Documents/School/Advanced Quantitative Analysis/Lab 2.1/WP-subject-3.csv","legacy","Lentiform Loewenfeld","3.3.12","0","h","NA","h","NA","NA","h","471","NA","62499","NA","NA","471","2","legacy","1024","2","48000","-16","experiment","SSHSS","3","odd","66464","NA","NA","183636","172039","3937","NA","NA","184782","3963","NA","NA","184885","185359","184778","184885","Flanker Task","64","37466","65","yes","1024"
"98.48484848484848","98.48484848484848","575.7727272727273","575.7727272727273","black","legacy","legacy","legacy","0","congruent","uniform","1","undefined","1","s","0","0","0","65","65","0","65","0","65","0","0","0","65","65","65","65","Mon Sep 19 20:22:22 2022","1500","The main experiment item","yes","FlankerTask.osexp","C:/Users/lil_p/OneDrive/Documents/School/Advanced Quantitative Analysis/Lab 2.1","no","mono","no","18","no","white","no","yes","768","legacy","65","65","C:/Users/lil_p/OneDrive/Documents/School/Advanced Quantitative Analysis/Lab 2.1/WP-subject-3.csv","legacy","Lentiform Loewenfeld","3.3.12","0","s","NA","h","NA","NA","s","535","NA","62499","NA","NA","535","2","legacy","1024","2","48000","-16","experiment","SSSSS","3","odd","66464","NA","NA","185366","172039","3937","NA","NA","186515","3963","NA","NA","186618","187155","186510","186618","Flanker Task","65","38001","66","yes","1024"
"98.50746268656717","98.50746268656717","574.8059701492538","574.8059701492538","black","legacy","legacy","legacy","0","inconguent","uniform","1","undefined","1","s","0","0","0","66","66","0","66","0","66","0","0","0","66","66","66","66","Mon Sep 19 20:22:22 2022","1500","The main experiment item","yes","FlankerTask.osexp","C:/Users/lil_p/OneDrive/Documents/School/Advanced Quantitative Analysis/Lab 2.1","no","mono","no","18","no","white","no","yes","768","legacy","66","66","C:/Users/lil_p/OneDrive/Documents/School/Advanced Quantitative Analysis/Lab 2.1/WP-subject-3.csv","legacy","Lentiform Loewenfeld","3.3.12","0","s","NA","h","NA","NA","s","511","NA","62499","NA","NA","511","2","legacy","1024","2","48000","-16","experiment","HHSHH","3","odd","66464","NA","NA","187162","172039","3937","NA","NA","188303","3963","NA","NA","188406","188919","188299","188406","Flanker Task","66","38512","67","yes","1024"
"98.52941176470588","98.52941176470588","572.9264705882352","572.9264705882352","black","legacy","legacy","legacy","0","congruent","uniform","1","undefined","1","s","0","0","0","67","67","0","67","0","67","0","0","0","67","67","67","67","Mon Sep 19 20:22:22 2022","1500","The main experiment item","yes","FlankerTask.osexp","C:/Users/lil_p/OneDrive/Documents/School/Advanced Quantitative Analysis/Lab 2.1","no","mono","no","18","no","white","no","yes","768","legacy","67","67","C:/Users/lil_p/OneDrive/Documents/School/Advanced Quantitative Analysis/Lab 2.1/WP-subject-3.csv","legacy","Lentiform Loewenfeld","3.3.12","0","s","NA","h","NA","NA","s","447","NA","62499","NA","NA","447","2","legacy","1024","2","48000","-16","experiment","SSSSS","3","odd","66464","NA","NA","188927","172039","3937","NA","NA","190069","3963","NA","NA","190172","190621","190065","190172","Flanker Task","67","38959","68","yes","1024"
"98.55072463768116","98.55072463768116","572.3188405797101","572.3188405797101","black","legacy","legacy","legacy","0","congruent","uniform","1","undefined","1","h","0","0","0","68","68","0","68","0","68","0","0","0","68","68","68","68","Mon Sep 19 20:22:22 2022","1500","The main experiment item","yes","FlankerTask.osexp","C:/Users/lil_p/OneDrive/Documents/School/Advanced Quantitative Analysis/Lab 2.1","no","mono","no","18","no","white","no","yes","768","legacy","68","68","C:/Users/lil_p/OneDrive/Documents/School/Advanced Quantitative Analysis/Lab 2.1/WP-subject-3.csv","legacy","Lentiform Loewenfeld","3.3.12","0","h","NA","h","NA","NA","h","531","NA","62499","NA","NA","531","2","legacy","1024","2","48000","-16","experiment","HHHHH","3","odd","66464","NA","NA","190630","172039","3937","NA","NA","191777","3963","NA","NA","191880","192413","191773","191880","Flanker Task","68","39490","69","yes","1024"
"98.57142857142857","98.57142857142857","570.1142857142858","570.1142857142858","black","legacy","legacy","legacy","0","congruent","uniform","1","undefined","1","s","0","0","0","69","69","0","69","0","69","0","0","0","69","69","69","69","Mon Sep 19 20:22:22 2022","1500","The main experiment item","yes","FlankerTask.osexp","C:/Users/lil_p/OneDrive/Documents/School/Advanced Quantitative Analysis/Lab 2.1","no","mono","no","18","no","white","no","yes","768","legacy","69","69","C:/Users/lil_p/OneDrive/Documents/School/Advanced Quantitative Analysis/Lab 2.1/WP-subject-3.csv","legacy","Lentiform Loewenfeld","3.3.12","0","s","NA","h","NA","NA","s","418","NA","62499","NA","NA","418","2","legacy","1024","2","48000","-16","experiment","SSSSS","3","odd","66464","NA","NA","192422","172039","3937","NA","NA","193576","3963","NA","NA","193679","194100","193572","193679","Flanker Task","69","39908","70","yes","1024"
"98.59154929577464","98.59154929577464","569.5633802816901","569.5633802816901","black","legacy","legacy","legacy","0","incongruent","uniform","1","undefined","1","h","0","0","0","70","70","0","70","0","70","0","0","0","70","70","70","70","Mon Sep 19 20:22:22 2022","1500","The main experiment item","yes","FlankerTask.osexp","C:/Users/lil_p/OneDrive/Documents/School/Advanced Quantitative Analysis/Lab 2.1","no","mono","no","18","no","white","no","yes","768","legacy","70","70","C:/Users/lil_p/OneDrive/Documents/School/Advanced Quantitative Analysis/Lab 2.1/WP-subject-3.csv","legacy","Lentiform Loewenfeld","3.3.12","0","h","NA","h","NA","NA","h","531","NA","62499","NA","NA","531","2","legacy","1024","2","48000","-16","experiment","SSHSS","3","odd","66464","NA","NA","194108","172039","3937","NA","NA","195253","3963","NA","NA","195356","195889","195248","195356","Flanker Task","70","40439","71","yes","1024"
"98.61111111111111","98.61111111111111","567.9027777777778","567.9027777777778","black","legacy","legacy","legacy","0","congruent","uniform","1","undefined","1","s","0","0","0","71","71","0","71","0","71","0","0","0","71","71","71","71","Mon Sep 19 20:22:22 2022","1500","The main experiment item","yes","FlankerTask.osexp","C:/Users/lil_p/OneDrive/Documents/School/Advanced Quantitative Analysis/Lab 2.1","no","mono","no","18","no","white","no","yes","768","legacy","71","71","C:/Users/lil_p/OneDrive/Documents/School/Advanced Quantitative Analysis/Lab 2.1/WP-subject-3.csv","legacy","Lentiform Loewenfeld","3.3.12","0","s","NA","h","NA","NA","s","450","NA","62499","NA","NA","450","2","legacy","1024","2","48000","-16","experiment","SSSSS","3","odd","66464","NA","NA","195897","172039","3937","NA","NA","197039","3963","NA","NA","197142","197595","197034","197142","Flanker Task","71","40889","72","yes","1024"
"98.63013698630137","98.63013698630137","566.4794520547945","566.4794520547945","black","legacy","legacy","legacy","0","incongruent","uniform","1","undefined","1","h","0","0","0","72","72","0","72","0","72","0","0","0","72","72","72","72","Mon Sep 19 20:22:22 2022","1500","The main experiment item","yes","FlankerTask.osexp","C:/Users/lil_p/OneDrive/Documents/School/Advanced Quantitative Analysis/Lab 2.1","no","mono","no","18","no","white","no","yes","768","legacy","72","72","C:/Users/lil_p/OneDrive/Documents/School/Advanced Quantitative Analysis/Lab 2.1/WP-subject-3.csv","legacy","Lentiform Loewenfeld","3.3.12","0","h","NA","h","NA","NA","h","464","NA","62499","NA","NA","464","2","legacy","1024","2","48000","-16","experiment","SSHSS","3","odd","66464","NA","NA","197604","172039","3937","NA","NA","198765","3963","NA","NA","198869","199336","198762","198869","Flanker Task","72","41353","73","yes","1024"
"98.64864864864865","98.64864864864865","565.5540540540541","565.5540540540541","black","legacy","legacy","legacy","0","inconguent","uniform","1","undefined","1","s","0","0","0","73","73","0","73","0","73","0","0","0","73","73","73","73","Mon Sep 19 20:22:22 2022","1500","The main experiment item","yes","FlankerTask.osexp","C:/Users/lil_p/OneDrive/Documents/School/Advanced Quantitative Analysis/Lab 2.1","no","mono","no","18","no","white","no","yes","768","legacy","73","73","C:/Users/lil_p/OneDrive/Documents/School/Advanced Quantitative Analysis/Lab 2.1/WP-subject-3.csv","legacy","Lentiform Loewenfeld","3.3.12","0","s","NA","h","NA","NA","s","498","NA","62499","NA","NA","498","2","legacy","1024","2","48000","-16","experiment","HHSHH","3","odd","66464","NA","NA","199344","172039","3937","NA","NA","200488","3963","NA","NA","200591","201091","200483","200591","Flanker Task","73","41851","74","yes","1024"
"98.66666666666667","98.66666666666667","566.4133333333333","566.4133333333333","black","legacy","legacy","legacy","0","inconguent","uniform","1","undefined","1","s","0","0","0","74","74","0","74","0","74","0","0","0","74","74","74","74","Mon Sep 19 20:22:22 2022","1500","The main experiment item","yes","FlankerTask.osexp","C:/Users/lil_p/OneDrive/Documents/School/Advanced Quantitative Analysis/Lab 2.1","no","mono","no","18","no","white","no","yes","768","legacy","74","74","C:/Users/lil_p/OneDrive/Documents/School/Advanced Quantitative Analysis/Lab 2.1/WP-subject-3.csv","legacy","Lentiform Loewenfeld","3.3.12","0","s","NA","h","NA","NA","s","630","NA","62499","NA","NA","630","2","legacy","1024","2","48000","-16","experiment","HHSHH","3","odd","66464","NA","NA","201099","172039","3937","NA","NA","202244","3963","NA","NA","202347","202980","202239","202347","Flanker Task","74","42481","75","yes","1024"
"98.6842105263158","98.6842105263158","565.5921052631579","565.5921052631579","black","legacy","legacy","legacy","0","congruent","uniform","1","undefined","1","h","0","0","0","75","75","0","75","0","75","0","0","0","75","75","75","75","Mon Sep 19 20:22:22 2022","1500","The main experiment item","yes","FlankerTask.osexp","C:/Users/lil_p/OneDrive/Documents/School/Advanced Quantitative Analysis/Lab 2.1","no","mono","no","18","no","white","no","yes","768","legacy","75","75","C:/Users/lil_p/OneDrive/Documents/School/Advanced Quantitative Analysis/Lab 2.1/WP-subject-3.csv","legacy","Lentiform Loewenfeld","3.3.12","0","h","NA","h","NA","NA","h","504","NA","62499","NA","NA","504","2","legacy","1024","2","48000","-16","experiment","HHHHH","3","odd","66464","NA","NA","202987","172039","3937","NA","NA","204132","3963","NA","NA","204235","204741","204127","204235","Flanker Task","75","42985","76","yes","1024"
"98.7012987012987","98.7012987012987","564.6233766233767","564.6233766233767","black","legacy","legacy","legacy","0","incongruent","uniform","1","undefined","1","h","0","0","0","76","76","0","76","0","76","0","0","0","76","76","76","76","Mon Sep 19 20:22:22 2022","1500","The main experiment item","yes","FlankerTask.osexp","C:/Users/lil_p/OneDrive/Documents/School/Advanced Quantitative Analysis/Lab 2.1","no","mono","no","18","no","white","no","yes","768","legacy","76","76","C:/Users/lil_p/OneDrive/Documents/School/Advanced Quantitative Analysis/Lab 2.1/WP-subject-3.csv","legacy","Lentiform Loewenfeld","3.3.12","0","h","NA","h","NA","NA","h","491","NA","62499","NA","NA","491","2","legacy","1024","2","48000","-16","experiment","SSHSS","3","odd","66464","NA","NA","204750","172039","3937","NA","NA","205895","3963","NA","NA","205998","206491","205891","205998","Flanker Task","76","43476","77","yes","1024"
"98.71794871794872","98.71794871794872","564.525641025641","564.525641025641","black","legacy","legacy","legacy","0","inconguent","uniform","1","undefined","1","s","0","0","0","77","77","0","77","0","77","0","0","0","77","77","77","77","Mon Sep 19 20:22:22 2022","1500","The main experiment item","yes","FlankerTask.osexp","C:/Users/lil_p/OneDrive/Documents/School/Advanced Quantitative Analysis/Lab 2.1","no","mono","no","18","no","white","no","yes","768","legacy","77","77","C:/Users/lil_p/OneDrive/Documents/School/Advanced Quantitative Analysis/Lab 2.1/WP-subject-3.csv","legacy","Lentiform Loewenfeld","3.3.12","0","s","NA","h","NA","NA","s","557","NA","62499","NA","NA","557","2","legacy","1024","2","48000","-16","experiment","HHSHH","3","odd","66464","NA","NA","206500","172039","3937","NA","NA","207654","3963","NA","NA","207757","208317","207650","207757","Flanker Task","77","44033","78","yes","1024"
"98.73417721518987","98.73417721518987","563.3164556962025","563.3164556962025","black","legacy","legacy","legacy","0","congruent","uniform","1","undefined","1","s","0","0","0","78","78","0","78","0","78","0","0","0","78","78","78","78","Mon Sep 19 20:22:22 2022","1500","The main experiment item","yes","FlankerTask.osexp","C:/Users/lil_p/OneDrive/Documents/School/Advanced Quantitative Analysis/Lab 2.1","no","mono","no","18","no","white","no","yes","768","legacy","78","78","C:/Users/lil_p/OneDrive/Documents/School/Advanced Quantitative Analysis/Lab 2.1/WP-subject-3.csv","legacy","Lentiform Loewenfeld","3.3.12","0","s","NA","h","NA","NA","s","469","NA","62499","NA","NA","469","2","legacy","1024","2","48000","-16","experiment","SSSSS","3","odd","66464","NA","NA","208325","172039","3937","NA","NA","209471","3963","NA","NA","209574","210046","209467","209574","Flanker Task","78","44502","79","yes","1024"
"98.75","98.75","562.35","562.35","black","legacy","legacy","legacy","0","congruent","uniform","1","undefined","1","s","0","0","0","79","79","0","79","0","79","0","0","0","79","79","79","79","Mon Sep 19 20:22:22 2022","1500","The main experiment item","yes","FlankerTask.osexp","C:/Users/lil_p/OneDrive/Documents/School/Advanced Quantitative Analysis/Lab 2.1","no","mono","no","18","no","white","no","yes","768","legacy","79","79","C:/Users/lil_p/OneDrive/Documents/School/Advanced Quantitative Analysis/Lab 2.1/WP-subject-3.csv","legacy","Lentiform Loewenfeld","3.3.12","0","s","NA","h","NA","NA","s","486","NA","62499","NA","NA","486","2","legacy","1024","2","48000","-16","experiment","SSSSS","3","odd","66464","NA","NA","210055","172039","3937","NA","NA","211205","3963","NA","NA","211308","211797","211201","211308","Flanker Task","79","44988","80","yes","1024"
"98.76543209876543","98.76543209876543","561.8641975308642","561.8641975308642","black","legacy","legacy","legacy","0","inconguent","uniform","1","undefined","1","s","0","0","0","80","80","0","80","0","80","0","0","0","80","80","80","80","Mon Sep 19 20:22:22 2022","600","The main experiment item","yes","FlankerTask.osexp","C:/Users/lil_p/OneDrive/Documents/School/Advanced Quantitative Analysis/Lab 2.1","no","mono","no","18","no","white","no","yes","768","legacy","0","79","C:/Users/lil_p/OneDrive/Documents/School/Advanced Quantitative Analysis/Lab 2.1/WP-subject-3.csv","legacy","Lentiform Loewenfeld","3.3.12","0","s","NA","h","h","NA","s","523","NA","62499","10714","NA","523","2","legacy","1024","2","48000","-16","experiment","HHSHH","3","odd","66464","223573","NA","211805","172039","3937","NA","NA","223678","3963","212857","NA","223782","224307","223675","223782","Flanker Task","80","45511","81","yes","1024"
"98.78048780487805","98.78048780487805","560.0731707317074","560.0731707317074","black","legacy","legacy","legacy","0","incongruent","uniform","1","undefined","1","h","0","0","0","81","81","0","81","0","81","0","0","0","81","81","81","81","Mon Sep 19 20:22:22 2022","600","The main experiment item","yes","FlankerTask.osexp","C:/Users/lil_p/OneDrive/Documents/School/Advanced Quantitative Analysis/Lab 2.1","no","mono","no","18","no","white","no","yes","768","legacy","1","79","C:/Users/lil_p/OneDrive/Documents/School/Advanced Quantitative Analysis/Lab 2.1/WP-subject-3.csv","legacy","Lentiform Loewenfeld","3.3.12","0","h","NA","h","h","NA","h","415","NA","62499","10714","NA","415","2","legacy","1024","2","48000","-16","experiment","SSHSS","3","odd","66464","223573","NA","224316","172039","3937","NA","NA","225462","3963","212857","NA","225565","225983","225457","225565","Flanker Task","81","45926","82","yes","1024"
"98.79518072289157","98.79518072289157","559.2168674698795","559.2168674698795","black","legacy","legacy","legacy","0","inconguent","uniform","1","undefined","1","s","0","0","0","82","82","0","82","0","82","0","0","0","82","82","82","82","Mon Sep 19 20:22:22 2022","600","The main experiment item","yes","FlankerTask.osexp","C:/Users/lil_p/OneDrive/Documents/School/Advanced Quantitative Analysis/Lab 2.1","no","mono","no","18","no","white","no","yes","768","legacy","2","79","C:/Users/lil_p/OneDrive/Documents/School/Advanced Quantitative Analysis/Lab 2.1/WP-subject-3.csv","legacy","Lentiform Loewenfeld","3.3.12","0","s","NA","h","h","NA","s","489","NA","62499","10714","NA","489","2","legacy","1024","2","48000","-16","experiment","HHSHH","3","odd","66464","223573","NA","225992","172039","3937","NA","NA","227137","3963","212857","NA","227240","227731","227133","227240","Flanker Task","82","46415","83","yes","1024"
"98.80952380952381","98.80952380952381","558.1904761904761","558.1904761904761","black","legacy","legacy","legacy","0","inconguent","uniform","1","undefined","1","s","0","0","0","83","83","0","83","0","83","0","0","0","83","83","83","83","Mon Sep 19 20:22:22 2022","600","The main experiment item","yes","FlankerTask.osexp","C:/Users/lil_p/OneDrive/Documents/School/Advanced Quantitative Analysis/Lab 2.1","no","mono","no","18","no","white","no","yes","768","legacy","3","79","C:/Users/lil_p/OneDrive/Documents/School/Advanced Quantitative Analysis/Lab 2.1/WP-subject-3.csv","legacy","Lentiform Loewenfeld","3.3.12","0","s","NA","h","h","NA","s","473","NA","62499","10714","NA","473","2","legacy","1024","2","48000","-16","experiment","HHSHH","3","odd","66464","223573","NA","227740","172039","3937","NA","NA","228892","3963","212857","NA","228995","229470","228888","228995","Flanker Task","83","46888","84","yes","1024"
"98.82352941176471","98.82352941176471","556.9882352941177","556.9882352941177","black","legacy","legacy","legacy","0","congruent","uniform","1","undefined","1","s","0","0","0","84","84","0","84","0","84","0","0","0","84","84","84","84","Mon Sep 19 20:22:22 2022","600","The main experiment item","yes","FlankerTask.osexp","C:/Users/lil_p/OneDrive/Documents/School/Advanced Quantitative Analysis/Lab 2.1","no","mono","no","18","no","white","no","yes","768","legacy","4","79","C:/Users/lil_p/OneDrive/Documents/School/Advanced Quantitative Analysis/Lab 2.1/WP-subject-3.csv","legacy","Lentiform Loewenfeld","3.3.12","0","s","NA","h","h","NA","s","456","NA","62499","10714","NA","456","2","legacy","1024","2","48000","-16","experiment","SSSSS","3","odd","66464","223573","NA","229478","172039","3937","NA","NA","230624","3963","212857","NA","230728","231186","230619","230728","Flanker Task","84","47344","85","yes","1024"
"98.83720930232558","98.83720930232558","555.7906976744187","555.7906976744187","black","legacy","legacy","legacy","0","congruent","uniform","1","undefined","1","s","0","0","0","85","85","0","85","0","85","0","0","0","85","85","85","85","Mon Sep 19 20:22:22 2022","600","The main experiment item","yes","FlankerTask.osexp","C:/Users/lil_p/OneDrive/Documents/School/Advanced Quantitative Analysis/Lab 2.1","no","mono","no","18","no","white","no","yes","768","legacy","5","79","C:/Users/lil_p/OneDrive/Documents/School/Advanced Quantitative Analysis/Lab 2.1/WP-subject-3.csv","legacy","Lentiform Loewenfeld","3.3.12","0","s","NA","h","h","NA","s","454","NA","62499","10714","NA","454","2","legacy","1024","2","48000","-16","experiment","SSSSS","3","odd","66464","223573","NA","231193","172039","3937","NA","NA","232343","3963","212857","NA","232446","232903","232339","232446","Flanker Task","85","47798","86","yes","1024"
"98.85057471264368","98.85057471264368","559.919540229885","559.919540229885","black","legacy","legacy","legacy","0","incongruent","uniform","1","undefined","1","h","0","0","0","86","86","0","86","0","86","0","0","0","86","86","86","86","Mon Sep 19 20:22:22 2022","600","The main experiment item","yes","FlankerTask.osexp","C:/Users/lil_p/OneDrive/Documents/School/Advanced Quantitative Analysis/Lab 2.1","no","mono","no","18","no","white","no","yes","768","legacy","6","79","C:/Users/lil_p/OneDrive/Documents/School/Advanced Quantitative Analysis/Lab 2.1/WP-subject-3.csv","legacy","Lentiform Loewenfeld","3.3.12","0","h","NA","h","h","NA","h","915","NA","62499","10714","NA","915","2","legacy","1024","2","48000","-16","experiment","SSHSS","3","odd","66464","223573","NA","232911","172039","3937","NA","NA","234056","3963","212857","NA","234159","235077","234052","234159","Flanker Task","86","48713","87","yes","1024"
"98.86363636363636","98.86363636363636","559.6818181818181","559.6818181818181","black","legacy","legacy","legacy","0","congruent","uniform","1","undefined","1","h","0","0","0","87","87","0","87","0","87","0","0","0","87","87","87","87","Mon Sep 19 20:22:22 2022","600","The main experiment item","yes","FlankerTask.osexp","C:/Users/lil_p/OneDrive/Documents/School/Advanced Quantitative Analysis/Lab 2.1","no","mono","no","18","no","white","no","yes","768","legacy","7","79","C:/Users/lil_p/OneDrive/Documents/School/Advanced Quantitative Analysis/Lab 2.1/WP-subject-3.csv","legacy","Lentiform Loewenfeld","3.3.12","0","h","NA","h","h","NA","h","539","NA","62499","10714","NA","539","2","legacy","1024","2","48000","-16","experiment","HHHHH","3","odd","66464","223573","NA","235085","172039","3937","NA","NA","236231","3963","212857","NA","236334","236874","236227","236334","Flanker Task","87","49252","88","yes","1024"
"98.87640449438203","98.87640449438203","559.0674157303371","559.0674157303371","black","legacy","legacy","legacy","0","congruent","uniform","1","undefined","1","h","0","0","0","88","88","0","88","0","88","0","0","0","88","88","88","88","Mon Sep 19 20:22:22 2022","600","The main experiment item","yes","FlankerTask.osexp","C:/Users/lil_p/OneDrive/Documents/School/Advanced Quantitative Analysis/Lab 2.1","no","mono","no","18","no","white","no","yes","768","legacy","8","79","C:/Users/lil_p/OneDrive/Documents/School/Advanced Quantitative Analysis/Lab 2.1/WP-subject-3.csv","legacy","Lentiform Loewenfeld","3.3.12","0","h","NA","h","h","NA","h","505","NA","62499","10714","NA","505","2","legacy","1024","2","48000","-16","experiment","HHHHH","3","odd","66464","223573","NA","236883","172039","3937","NA","NA","238027","3963","212857","NA","238130","238638","238023","238130","Flanker Task","88","49757","89","yes","1024"
"98.88888888888889","98.88888888888889","558.4666666666667","558.4666666666667","black","legacy","legacy","legacy","0","congruent","uniform","1","undefined","1","h","0","0","0","89","89","0","89","0","89","0","0","0","89","89","89","89","Mon Sep 19 20:22:22 2022","600","The main experiment item","yes","FlankerTask.osexp","C:/Users/lil_p/OneDrive/Documents/School/Advanced Quantitative Analysis/Lab 2.1","no","mono","no","18","no","white","no","yes","768","legacy","9","79","C:/Users/lil_p/OneDrive/Documents/School/Advanced Quantitative Analysis/Lab 2.1/WP-subject-3.csv","legacy","Lentiform Loewenfeld","3.3.12","0","h","NA","h","h","NA","h","505","NA","62499","10714","NA","505","2","legacy","1024","2","48000","-16","experiment","HHHHH","3","odd","66464","223573","NA","238647","172039","3937","NA","NA","239800","3963","212857","NA","239903","240410","239795","239903","Flanker Task","89","50262","90","yes","1024"
"98.9010989010989","98.9010989010989","557.4835164835165","557.4835164835165","black","legacy","legacy","legacy","0","congruent","uniform","1","undefined","1","s","0","0","0","90","90","0","90","0","90","0","0","0","90","90","90","90","Mon Sep 19 20:22:22 2022","600","The main experiment item","yes","FlankerTask.osexp","C:/Users/lil_p/OneDrive/Documents/School/Advanced Quantitative Analysis/Lab 2.1","no","mono","no","18","no","white","no","yes","768","legacy","10","79","C:/Users/lil_p/OneDrive/Documents/School/Advanced Quantitative Analysis/Lab 2.1/WP-subject-3.csv","legacy","Lentiform Loewenfeld","3.3.12","0","s","NA","h","h","NA","s","469","NA","62499","10714","NA","469","2","legacy","1024","2","48000","-16","experiment","SSSSS","3","odd","66464","223573","NA","240417","172039","3937","NA","NA","241559","3963","212857","NA","241662","242134","241554","241662","Flanker Task","90","50731","91","yes","1024"
"98.91304347826087","98.91304347826087","556.4565217391304","556.4565217391304","black","legacy","legacy","legacy","0","congruent","uniform","1","undefined","1","s","0","0","0","91","91","0","91","0","91","0","0","0","91","91","91","91","Mon Sep 19 20:22:22 2022","600","The main experiment item","yes","FlankerTask.osexp","C:/Users/lil_p/OneDrive/Documents/School/Advanced Quantitative Analysis/Lab 2.1","no","mono","no","18","no","white","no","yes","768","legacy","11","79","C:/Users/lil_p/OneDrive/Documents/School/Advanced Quantitative Analysis/Lab 2.1/WP-subject-3.csv","legacy","Lentiform Loewenfeld","3.3.12","0","s","NA","h","h","NA","s","463","NA","62499","10714","NA","463","2","legacy","1024","2","48000","-16","experiment","SSSSS","3","odd","66464","223573","NA","242143","172039","3937","NA","NA","243292","3963","212857","NA","243395","243860","243288","243395","Flanker Task","91","51194","92","yes","1024"
"98.9247311827957","98.9247311827957","556.3118279569892","556.3118279569892","black","legacy","legacy","legacy","0","incongruent","uniform","1","undefined","1","h","0","0","0","92","92","0","92","0","92","0","0","0","92","92","92","92","Mon Sep 19 20:22:22 2022","600","The main experiment item","yes","FlankerTask.osexp","C:/Users/lil_p/OneDrive/Documents/School/Advanced Quantitative Analysis/Lab 2.1","no","mono","no","18","no","white","no","yes","768","legacy","12","79","C:/Users/lil_p/OneDrive/Documents/School/Advanced Quantitative Analysis/Lab 2.1/WP-subject-3.csv","legacy","Lentiform Loewenfeld","3.3.12","0","h","NA","h","h","NA","h","543","NA","62499","10714","NA","543","2","legacy","1024","2","48000","-16","experiment","SSHSS","3","odd","66464","223573","NA","243867","172039","3937","NA","NA","245016","3963","212857","NA","245119","245664","245012","245119","Flanker Task","92","51737","93","yes","1024"
"98.93617021276596","98.93617021276596","556.2021276595744","556.2021276595744","black","legacy","legacy","legacy","0","congruent","uniform","1","undefined","1","s","0","0","0","93","93","0","93","0","93","0","0","0","93","93","93","93","Mon Sep 19 20:22:22 2022","600","The main experiment item","yes","FlankerTask.osexp","C:/Users/lil_p/OneDrive/Documents/School/Advanced Quantitative Analysis/Lab 2.1","no","mono","no","18","no","white","no","yes","768","legacy","13","79","C:/Users/lil_p/OneDrive/Documents/School/Advanced Quantitative Analysis/Lab 2.1/WP-subject-3.csv","legacy","Lentiform Loewenfeld","3.3.12","0","s","NA","h","h","NA","s","546","NA","62499","10714","NA","546","2","legacy","1024","2","48000","-16","experiment","SSSSS","3","odd","66464","223573","NA","245671","172039","3937","NA","NA","246818","3963","212857","NA","246921","247470","246814","246921","Flanker Task","93","52283","94","yes","1024"
"98.94736842105263","98.94736842105263","555.6315789473684","555.6315789473684","black","legacy","legacy","legacy","0","incongruent","uniform","1","undefined","1","h","0","0","0","94","94","0","94","0","94","0","0","0","94","94","94","94","Mon Sep 19 20:22:22 2022","600","The main experiment item","yes","FlankerTask.osexp","C:/Users/lil_p/OneDrive/Documents/School/Advanced Quantitative Analysis/Lab 2.1","no","mono","no","18","no","white","no","yes","768","legacy","14","79","C:/Users/lil_p/OneDrive/Documents/School/Advanced Quantitative Analysis/Lab 2.1/WP-subject-3.csv","legacy","Lentiform Loewenfeld","3.3.12","0","h","NA","h","h","NA","h","502","NA","62499","10714","NA","502","2","legacy","1024","2","48000","-16","experiment","SSHSS","3","odd","66464","223573","NA","247478","172039","3937","NA","NA","248626","3963","212857","NA","248730","249235","248622","248730","Flanker Task","94","52785","95","yes","1024"
"98.95833333333333","98.95833333333333","554.6354166666666","554.6354166666666","black","legacy","legacy","legacy","0","congruent","uniform","1","undefined","1","s","0","0","0","95","95","0","95","0","95","0","0","0","95","95","95","95","Mon Sep 19 20:22:22 2022","600","The main experiment item","yes","FlankerTask.osexp","C:/Users/lil_p/OneDrive/Documents/School/Advanced Quantitative Analysis/Lab 2.1","no","mono","no","18","no","white","no","yes","768","legacy","15","79","C:/Users/lil_p/OneDrive/Documents/School/Advanced Quantitative Analysis/Lab 2.1/WP-subject-3.csv","legacy","Lentiform Loewenfeld","3.3.12","0","s","NA","h","h","NA","s","460","NA","62499","10714","NA","460","2","legacy","1024","2","48000","-16","experiment","SSSSS","3","odd","66464","223573","NA","249244","172039","3937","NA","NA","250391","3963","212857","NA","250494","250956","250386","250494","Flanker Task","95","53245","96","yes","1024"
"98.96907216494846","98.96907216494846","553.2989690721649","553.2989690721649","black","legacy","legacy","legacy","0","incongruent","uniform","1","undefined","1","h","0","0","0","96","96","0","96","0","96","0","0","0","96","96","96","96","Mon Sep 19 20:22:22 2022","600","The main experiment item","yes","FlankerTask.osexp","C:/Users/lil_p/OneDrive/Documents/School/Advanced Quantitative Analysis/Lab 2.1","no","mono","no","18","no","white","no","yes","768","legacy","16","79","C:/Users/lil_p/OneDrive/Documents/School/Advanced Quantitative Analysis/Lab 2.1/WP-subject-3.csv","legacy","Lentiform Loewenfeld","3.3.12","0","h","NA","h","h","NA","h","425","NA","62499","10714","NA","425","2","legacy","1024","2","48000","-16","experiment","SSHSS","3","odd","66464","223573","NA","250963","172039","3937","NA","NA","252108","3963","212857","NA","252211","252639","252104","252211","Flanker Task","96","53670","97","yes","1024"
"98.9795918367347","98.9795918367347","552.1734693877551","552.1734693877551","black","legacy","legacy","legacy","0","congruent","uniform","1","undefined","1","h","0","0","0","97","97","0","97","0","97","0","0","0","97","97","97","97","Mon Sep 19 20:22:22 2022","600","The main experiment item","yes","FlankerTask.osexp","C:/Users/lil_p/OneDrive/Documents/School/Advanced Quantitative Analysis/Lab 2.1","no","mono","no","18","no","white","no","yes","768","legacy","17","79","C:/Users/lil_p/OneDrive/Documents/School/Advanced Quantitative Analysis/Lab 2.1/WP-subject-3.csv","legacy","Lentiform Loewenfeld","3.3.12","0","h","NA","h","h","NA","h","443","NA","62499","10714","NA","443","2","legacy","1024","2","48000","-16","experiment","HHHHH","3","odd","66464","223573","NA","252646","172039","3937","NA","NA","253789","3963","212857","NA","253892","254338","253786","253892","Flanker Task","97","54113","98","yes","1024"
"98.98989898989899","98.98989898989899","551.929292929293","551.929292929293","black","legacy","legacy","legacy","0","inconguent","uniform","1","undefined","1","s","0","0","0","98","98","0","98","0","98","0","0","0","98","98","98","98","Mon Sep 19 20:22:22 2022","600","The main experiment item","yes","FlankerTask.osexp","C:/Users/lil_p/OneDrive/Documents/School/Advanced Quantitative Analysis/Lab 2.1","no","mono","no","18","no","white","no","yes","768","legacy","18","79","C:/Users/lil_p/OneDrive/Documents/School/Advanced Quantitative Analysis/Lab 2.1/WP-subject-3.csv","legacy","Lentiform Loewenfeld","3.3.12","0","s","NA","h","h","NA","s","528","NA","62499","10714","NA","528","2","legacy","1024","2","48000","-16","experiment","HHSHH","3","odd","66464","223573","NA","254346","172039","3937","NA","NA","255493","3963","212857","NA","255596","256127","255488","255596","Flanker Task","98","54641","99","yes","1024"
"99","99","550.45","550.45","black","legacy","legacy","legacy","0","congruent","uniform","1","undefined","1","h","0","0","0","99","99","0","99","0","99","0","0","0","99","99","99","99","Mon Sep 19 20:22:22 2022","600","The main experiment item","yes","FlankerTask.osexp","C:/Users/lil_p/OneDrive/Documents/School/Advanced Quantitative Analysis/Lab 2.1","no","mono","no","18","no","white","no","yes","768","legacy","19","79","C:/Users/lil_p/OneDrive/Documents/School/Advanced Quantitative Analysis/Lab 2.1/WP-subject-3.csv","legacy","Lentiform Loewenfeld","3.3.12","0","h","NA","h","h","NA","h","404","NA","62499","10714","NA","404","2","legacy","1024","2","48000","-16","experiment","HHHHH","3","odd","66464","223573","NA","256135","172039","3937","NA","NA","257291","3963","212857","NA","257394","257801","257287","257394","Flanker Task","99","55045","100","yes","1024"
"99.00990099009901","99.00990099009901","549.2970297029703","549.2970297029703","black","legacy","legacy","legacy","0","congruent","uniform","1","undefined","1","h","0","0","0","100","100","0","100","0","100","0","0","0","100","100","100","100","Mon Sep 19 20:22:22 2022","600","The main experiment item","yes","FlankerTask.osexp","C:/Users/lil_p/OneDrive/Documents/School/Advanced Quantitative Analysis/Lab 2.1","no","mono","no","18","no","white","no","yes","768","legacy","20","79","C:/Users/lil_p/OneDrive/Documents/School/Advanced Quantitative Analysis/Lab 2.1/WP-subject-3.csv","legacy","Lentiform Loewenfeld","3.3.12","0","h","NA","h","h","NA","h","434","NA","62499","10714","NA","434","2","legacy","1024","2","48000","-16","experiment","HHHHH","3","odd","66464","223573","NA","257810","172039","3937","NA","NA","258962","3963","212857","NA","259065","259502","258958","259065","Flanker Task","100","55479","101","yes","1024"
"99.01960784313725","99.01960784313725","549.3235294117648","549.3235294117648","black","legacy","legacy","legacy","0","incongruent","uniform","1","undefined","1","h","0","0","0","101","101","0","101","0","101","0","0","0","101","101","101","101","Mon Sep 19 20:22:22 2022","600","The main experiment item","yes","FlankerTask.osexp","C:/Users/lil_p/OneDrive/Documents/School/Advanced Quantitative Analysis/Lab 2.1","no","mono","no","18","no","white","no","yes","768","legacy","21","79","C:/Users/lil_p/OneDrive/Documents/School/Advanced Quantitative Analysis/Lab 2.1/WP-subject-3.csv","legacy","Lentiform Loewenfeld","3.3.12","0","h","NA","h","h","NA","h","552","NA","62499","10714","NA","552","2","legacy","1024","2","48000","-16","experiment","SSHSS","3","odd","66464","223573","NA","259511","172039","3937","NA","NA","260660","3963","212857","NA","260763","261317","260655","260763","Flanker Task","101","56031","102","yes","1024"
"99.02912621359224","99.02912621359224","548.1165048543689","548.1165048543689","black","legacy","legacy","legacy","0","congruent","uniform","1","undefined","1","h","0","0","0","102","102","0","102","0","102","0","0","0","102","102","102","102","Mon Sep 19 20:22:22 2022","600","The main experiment item","yes","FlankerTask.osexp","C:/Users/lil_p/OneDrive/Documents/School/Advanced Quantitative Analysis/Lab 2.1","no","mono","no","18","no","white","no","yes","768","legacy","22","79","C:/Users/lil_p/OneDrive/Documents/School/Advanced Quantitative Analysis/Lab 2.1/WP-subject-3.csv","legacy","Lentiform Loewenfeld","3.3.12","0","h","NA","h","h","NA","h","425","NA","62499","10714","NA","425","2","legacy","1024","2","48000","-16","experiment","HHHHH","3","odd","66464","223573","NA","261325","172039","3937","NA","NA","262476","3963","212857","NA","262580","263008","262473","262580","Flanker Task","102","56456","103","yes","1024"
"99.03846153846153","99.03846153846153","547.6538461538462","547.6538461538462","black","legacy","legacy","legacy","0","congruent","uniform","1","undefined","1","h","0","0","0","103","103","0","103","0","103","0","0","0","103","103","103","103","Mon Sep 19 20:22:22 2022","600","The main experiment item","yes","FlankerTask.osexp","C:/Users/lil_p/OneDrive/Documents/School/Advanced Quantitative Analysis/Lab 2.1","no","mono","no","18","no","white","no","yes","768","legacy","23","79","C:/Users/lil_p/OneDrive/Documents/School/Advanced Quantitative Analysis/Lab 2.1/WP-subject-3.csv","legacy","Lentiform Loewenfeld","3.3.12","0","h","NA","h","h","NA","h","500","NA","62499","10714","NA","500","2","legacy","1024","2","48000","-16","experiment","HHHHH","3","odd","66464","223573","NA","263017","172039","3937","NA","NA","264161","3963","212857","NA","264264","264766","264157","264264","Flanker Task","103","56956","104","yes","1024"
"99.04761904761905","99.04761904761905","548.7523809523809","548.7523809523809","black","legacy","legacy","legacy","0","inconguent","uniform","1","undefined","1","s","0","0","0","104","104","0","104","0","104","0","0","0","104","104","104","104","Mon Sep 19 20:22:22 2022","600","The main experiment item","yes","FlankerTask.osexp","C:/Users/lil_p/OneDrive/Documents/School/Advanced Quantitative Analysis/Lab 2.1","no","mono","no","18","no","white","no","yes","768","legacy","24","79","C:/Users/lil_p/OneDrive/Documents/School/Advanced Quantitative Analysis/Lab 2.1/WP-subject-3.csv","legacy","Lentiform Loewenfeld","3.3.12","0","s","NA","h","h","NA","s","663","NA","62499","10714","NA","663","2","legacy","1024","2","48000","-16","experiment","HHSHH","3","odd","66464","223573","NA","264775","172039","3937","NA","NA","265917","3963","212857","NA","266020","266685","265911","266020","Flanker Task","104","57619","105","yes","1024"
"99.05660377358491","99.05660377358491","548.2641509433962","548.2641509433962","black","legacy","legacy","legacy","0","incongruent","uniform","1","undefined","1","h","0","0","0","105","105","0","105","0","105","0","0","0","105","105","105","105","Mon Sep 19 20:22:22 2022","600","The main experiment item","yes","FlankerTask.osexp","C:/Users/lil_p/OneDrive/Documents/School/Advanced Quantitative Analysis/Lab 2.1","no","mono","no","18","no","white","no","yes","768","legacy","25","79","C:/Users/lil_p/OneDrive/Documents/School/Advanced Quantitative Analysis/Lab 2.1/WP-subject-3.csv","legacy","Lentiform Loewenfeld","3.3.12","0","h","NA","h","h","NA","h","497","NA","62499","10714","NA","497","2","legacy","1024","2","48000","-16","experiment","SSHSS","3","odd","66464","223573","NA","266692","172039","3937","NA","NA","267838","3963","212857","NA","267941","268441","267835","267941","Flanker Task","105","58116","106","yes","1024"
"99.06542056074767","99.06542056074767","548.9532710280374","548.9532710280374","black","legacy","legacy","legacy","0","congruent","uniform","1","undefined","1","s","0","0","0","106","106","0","106","0","106","0","0","0","106","106","106","106","Mon Sep 19 20:22:22 2022","600","The main experiment item","yes","FlankerTask.osexp","C:/Users/lil_p/OneDrive/Documents/School/Advanced Quantitative Analysis/Lab 2.1","no","mono","no","18","no","white","no","yes","768","legacy","26","79","C:/Users/lil_p/OneDrive/Documents/School/Advanced Quantitative Analysis/Lab 2.1/WP-subject-3.csv","legacy","Lentiform Loewenfeld","3.3.12","0","s","NA","h","h","NA","s","622","NA","62499","10714","NA","622","2","legacy","1024","2","48000","-16","experiment","SSSSS","3","odd","66464","223573","NA","268448","172039","3937","NA","NA","269611","3963","212857","NA","269715","270340","269608","269715","Flanker Task","106","58738","107","yes","1024"
"99.07407407407408","99.07407407407408","549.3888888888889","549.3888888888889","black","legacy","legacy","legacy","0","inconguent","uniform","1","undefined","1","s","0","0","0","107","107","0","107","0","107","0","0","0","107","107","107","107","Mon Sep 19 20:22:22 2022","600","The main experiment item","yes","FlankerTask.osexp","C:/Users/lil_p/OneDrive/Documents/School/Advanced Quantitative Analysis/Lab 2.1","no","mono","no","18","no","white","no","yes","768","legacy","27","79","C:/Users/lil_p/OneDrive/Documents/School/Advanced Quantitative Analysis/Lab 2.1/WP-subject-3.csv","legacy","Lentiform Loewenfeld","3.3.12","0","s","NA","h","h","NA","s","596","NA","62499","10714","NA","596","2","legacy","1024","2","48000","-16","experiment","HHSHH","3","odd","66464","223573","NA","270348","172039","3937","NA","NA","271495","3963","212857","NA","271599","272198","271491","271599","Flanker Task","107","59334","108","yes","1024"
"99.08256880733946","99.08256880733946","548.1467889908257","548.1467889908257","black","legacy","legacy","legacy","0","congruent","uniform","1","undefined","1","h","0","0","0","108","108","0","108","0","108","0","0","0","108","108","108","108","Mon Sep 19 20:22:22 2022","600","The main experiment item","yes","FlankerTask.osexp","C:/Users/lil_p/OneDrive/Documents/School/Advanced Quantitative Analysis/Lab 2.1","no","mono","no","18","no","white","no","yes","768","legacy","28","79","C:/Users/lil_p/OneDrive/Documents/School/Advanced Quantitative Analysis/Lab 2.1/WP-subject-3.csv","legacy","Lentiform Loewenfeld","3.3.12","0","h","NA","h","h","NA","h","414","NA","62499","10714","NA","414","2","legacy","1024","2","48000","-16","experiment","HHHHH","3","odd","66464","223573","NA","272207","172039","3937","NA","NA","273350","3963","212857","NA","273452","273869","273345","273452","Flanker Task","108","59748","109","yes","1024"
