"acc","accuracy","average_response_time","avg_rt","background","canvas_backend","clock_backend","color_backend","compensation","condition","coordinates","correct","correct_Instructions1","correct_keyboard_response","correct_response","count_Block1","count_Block2","count_Block3","count_ISI","count_Instructions1","count_Sequence","count_errorFeedback","count_experiment","count_faster","count_finish","count_fixation","count_instructions2","count_instructions3","count_keyboard_response","count_logger","count_stimulus","datetime","deadline","description","disable_garbage_collection","experiment_file","experiment_path","font_bold","font_family","font_italic","font_size","font_underline","foreground","form_clicks","fullscreen","height","keyboard_backend","live_row","live_row_Block1","logfile","mouse_backend","opensesame_codename","opensesame_version","repeat_cycle","response","response_Instructions1","response_finish","response_instructions2","response_instructions3","response_keyboard_response","response_time","response_time_Instructions1","response_time_finish","response_time_instructions2","response_time_instructions3","response_time_keyboard_response","round_decimals","sampler_backend","sound_buf_size","sound_channels","sound_freq","sound_sample_size","start","stimulus","subject_nr","subject_parity","time_Block1","time_Block2","time_Block3","time_ISI","time_Instructions1","time_Sequence","time_errorFeedback","time_experiment","time_faster","time_finish","time_fixation","time_instructions2","time_instructions3","time_keyboard_response","time_logger","time_stimulus","title","total_correct","total_response_time","total_responses","uniform_coordinates","width"
"100","100","638","638","black","legacy","legacy","legacy","0","incongruent","uniform","1","undefined","1","s","0","0","0","0","0","0","0","0","0","0","0","0","0","0","0","0","Sun Sep 18 16:15:32 2022","1500","The main experiment item","yes","FlankerTest.osexp","/Users/andrea/Desktop","no","mono","no","18","no","white","no","no","768","legacy","0","0","/Users/andrea/Desktop/AS_subject-1.csv","legacy","Lentiform Loewenfeld","3.3.12","0","s","h","NA","NA","NA","s","638","20766","NA","NA","NA","638","2","legacy","1024","2","48000","-16","experiment","HHSHH","1","odd","22189","NA","NA","NA","1417","22233","NA","1363","NA","NA","22235","NA","NA","22338","22977","22337","Flanker Test","1","638","1","yes","1024"
"100","100","587.5","587.5","black","legacy","legacy","legacy","0","incongruent","uniform","1","undefined","1","s","0","0","0","1","0","1","1","0","1","0","1","0","0","1","1","1","Sun Sep 18 16:15:32 2022","1500","The main experiment item","yes","FlankerTest.osexp","/Users/andrea/Desktop","no","mono","no","18","no","white","no","no","768","legacy","1","1","/Users/andrea/Desktop/AS_subject-1.csv","legacy","Lentiform Loewenfeld","3.3.12","0","s","h","NA","NA","NA","s","537","20766","NA","NA","NA","537","2","legacy","1024","2","48000","-16","experiment","HHSHH","1","odd","22189","NA","NA","22981","1417","24043","NA","1363","NA","NA","24046","NA","NA","24151","24691","24150","Flanker Test","2","1175","2","yes","1024"
"100","100","567.3333333333334","567.3333333333334","black","legacy","legacy","legacy","0","congruent","uniform","1","undefined","1","h","0","0","0","2","0","2","2","0","2","0","2","0","0","2","2","2","Sun Sep 18 16:15:32 2022","1500","The main experiment item","yes","FlankerTest.osexp","/Users/andrea/Desktop","no","mono","no","18","no","white","no","no","768","legacy","2","2","/Users/andrea/Desktop/AS_subject-1.csv","legacy","Lentiform Loewenfeld","3.3.12","0","h","h","NA","NA","NA","h","527","20766","NA","NA","NA","527","2","legacy","1024","2","48000","-16","experiment","HHHHH","1","odd","22189","NA","NA","24694","1417","25743","NA","1363","NA","NA","25745","NA","NA","25849","26377","25849","Flanker Test","3","1702","3","yes","1024"
"100","100","540.75","540.75","black","legacy","legacy","legacy","0","incongruent","uniform","1","undefined","1","s","0","0","0","3","0","3","3","0","3","0","3","0","0","3","3","3","Sun Sep 18 16:15:32 2022","1500","The main experiment item","yes","FlankerTest.osexp","/Users/andrea/Desktop","no","mono","no","18","no","white","no","no","768","legacy","3","3","/Users/andrea/Desktop/AS_subject-1.csv","legacy","Lentiform Loewenfeld","3.3.12","0","s","h","NA","NA","NA","s","461","20766","NA","NA","NA","461","2","legacy","1024","2","48000","-16","experiment","HHSHH","1","odd","22189","NA","NA","26379","1417","27417","NA","1363","NA","NA","27419","NA","NA","27520","27982","27520","Flanker Test","4","2163","4","yes","1024"
"100","100","512","512","black","legacy","legacy","legacy","0","incongruent","uniform","1","undefined","1","s","0","0","0","4","0","4","4","0","4","0","4","0","0","4","4","4","Sun Sep 18 16:15:32 2022","1500","The main experiment item","yes","FlankerTest.osexp","/Users/andrea/Desktop","no","mono","no","18","no","white","no","no","768","legacy","4","4","/Users/andrea/Desktop/AS_subject-1.csv","legacy","Lentiform Loewenfeld","3.3.12","0","s","h","NA","NA","NA","s","397","20766","NA","NA","NA","397","2","legacy","1024","2","48000","-16","experiment","HHSHH","1","odd","22189","NA","NA","27985","1417","29033","NA","1363","NA","NA","29035","NA","NA","29137","29534","29137","Flanker Test","5","2560","5","yes","1024"
"100","100","490.3333333333333","490.3333333333333","black","legacy","legacy","legacy","0","incongruent","uniform","1","undefined","1","s","0","0","0","5","0","5","5","0","5","0","5","0","0","5","5","5","Sun Sep 18 16:15:32 2022","1500","The main experiment item","yes","FlankerTest.osexp","/Users/andrea/Desktop","no","mono","no","18","no","white","no","no","768","legacy","5","5","/Users/andrea/Desktop/AS_subject-1.csv","legacy","Lentiform Loewenfeld","3.3.12","0","s","h","NA","NA","NA","s","382","20766","NA","NA","NA","382","2","legacy","1024","2","48000","-16","experiment","HHSHH","1","odd","22189","NA","NA","29538","1417","30586","NA","1363","NA","NA","30588","NA","NA","30692","31074","30692","Flanker Test","6","2942","6","yes","1024"
"100","100","483","483","black","legacy","legacy","legacy","0","congruent","uniform","1","undefined","1","s","0","0","0","6","0","6","6","0","6","0","6","0","0","6","6","6","Sun Sep 18 16:15:32 2022","1500","The main experiment item","yes","FlankerTest.osexp","/Users/andrea/Desktop","no","mono","no","18","no","white","no","no","768","legacy","6","6","/Users/andrea/Desktop/AS_subject-1.csv","legacy","Lentiform Loewenfeld","3.3.12","0","s","h","NA","NA","NA","s","439","20766","NA","NA","NA","439","2","legacy","1024","2","48000","-16","experiment","SSSSS","1","odd","22189","NA","NA","31077","1417","32125","NA","1363","NA","NA","32127","NA","NA","32232","32672","32232","Flanker Test","7","3381","7","yes","1024"
"100","100","473.5","473.5","black","legacy","legacy","legacy","0","congruent","uniform","1","undefined","1","s","0","0","0","7","0","7","7","0","7","0","7","0","0","7","7","7","Sun Sep 18 16:15:32 2022","1500","The main experiment item","yes","FlankerTest.osexp","/Users/andrea/Desktop","no","mono","no","18","no","white","no","no","768","legacy","7","7","/Users/andrea/Desktop/AS_subject-1.csv","legacy","Lentiform Loewenfeld","3.3.12","0","s","h","NA","NA","NA","s","407","20766","NA","NA","NA","407","2","legacy","1024","2","48000","-16","experiment","SSSSS","1","odd","22189","NA","NA","32675","1417","33723","NA","1363","NA","NA","33725","NA","NA","33829","34236","33829","Flanker Test","8","3788","8","yes","1024"
"100","100","462.44444444444446","462.44444444444446","black","legacy","legacy","legacy","0","incongruent","uniform","1","undefined","1","s","0","0","0","8","0","8","8","0","8","0","8","0","0","8","8","8","Sun Sep 18 16:15:32 2022","1500","The main experiment item","yes","FlankerTest.osexp","/Users/andrea/Desktop","no","mono","no","18","no","white","no","no","768","legacy","8","8","/Users/andrea/Desktop/AS_subject-1.csv","legacy","Lentiform Loewenfeld","3.3.12","0","s","h","NA","NA","NA","s","374","20766","NA","NA","NA","374","2","legacy","1024","2","48000","-16","experiment","HHSHH","1","odd","22189","NA","NA","34239","1417","35279","NA","1363","NA","NA","35281","NA","NA","35385","35759","35385","Flanker Test","9","4162","9","yes","1024"
"100","100","460","460","black","legacy","legacy","legacy","0","incongruent","uniform","1","undefined","1","s","0","0","0","9","0","9","9","0","9","0","9","0","0","9","9","9","Sun Sep 18 16:15:32 2022","1500","The main experiment item","yes","FlankerTest.osexp","/Users/andrea/Desktop","no","mono","no","18","no","white","no","no","768","legacy","9","9","/Users/andrea/Desktop/AS_subject-1.csv","legacy","Lentiform Loewenfeld","3.3.12","0","s","h","NA","NA","NA","s","438","20766","NA","NA","NA","438","2","legacy","1024","2","48000","-16","experiment","HHSHH","1","odd","22189","NA","NA","35762","1417","36812","NA","1363","NA","NA","36814","NA","NA","36919","37358","36919","Flanker Test","10","4600","10","yes","1024"
"100","100","451","451","black","legacy","legacy","legacy","0","incongruent","uniform","1","undefined","1","s","0","0","0","10","0","10","10","0","10","0","10","0","0","10","10","10","Sun Sep 18 16:15:32 2022","1500","The main experiment item","yes","FlankerTest.osexp","/Users/andrea/Desktop","no","mono","no","18","no","white","no","no","768","legacy","10","10","/Users/andrea/Desktop/AS_subject-1.csv","legacy","Lentiform Loewenfeld","3.3.12","0","s","h","NA","NA","NA","s","361","20766","NA","NA","NA","361","2","legacy","1024","2","48000","-16","experiment","HHSHH","1","odd","22189","NA","NA","37361","1417","38409","NA","1363","NA","NA","38411","NA","NA","38516","38877","38515","Flanker Test","11","4961","11","yes","1024"
"100","100","456.5","456.5","black","legacy","legacy","legacy","0","incongruent","uniform","1","undefined","1","h","0","0","0","11","0","11","11","0","11","0","11","0","0","11","11","11","Sun Sep 18 16:15:32 2022","1500","The main experiment item","yes","FlankerTest.osexp","/Users/andrea/Desktop","no","mono","no","18","no","white","no","no","768","legacy","11","11","/Users/andrea/Desktop/AS_subject-1.csv","legacy","Lentiform Loewenfeld","3.3.12","0","h","h","NA","NA","NA","h","517","20766","NA","NA","NA","517","2","legacy","1024","2","48000","-16","experiment","SSHSS","1","odd","22189","NA","NA","38881","1417","39927","NA","1363","NA","NA","39930","NA","NA","40034","40551","40034","Flanker Test","12","5478","12","yes","1024"
"100","100","452.7692307692308","452.7692307692308","black","legacy","legacy","legacy","0","congruent","uniform","1","undefined","1","h","0","0","0","12","0","12","12","0","12","0","12","0","0","12","12","12","Sun Sep 18 16:15:32 2022","1500","The main experiment item","yes","FlankerTest.osexp","/Users/andrea/Desktop","no","mono","no","18","no","white","no","no","768","legacy","12","12","/Users/andrea/Desktop/AS_subject-1.csv","legacy","Lentiform Loewenfeld","3.3.12","0","h","h","NA","NA","NA","h","408","20766","NA","NA","NA","408","2","legacy","1024","2","48000","-16","experiment","HHHHH","1","odd","22189","NA","NA","40554","1417","41603","NA","1363","NA","NA","41605","NA","NA","41709","42118","41709","Flanker Test","13","5886","13","yes","1024"
"100","100","450.2857142857143","450.2857142857143","black","legacy","legacy","legacy","0","congruent","uniform","1","undefined","1","s","0","0","0","13","0","13","13","0","13","0","13","0","0","13","13","13","Sun Sep 18 16:15:32 2022","1500","The main experiment item","yes","FlankerTest.osexp","/Users/andrea/Desktop","no","mono","no","18","no","white","no","no","768","legacy","13","13","/Users/andrea/Desktop/AS_subject-1.csv","legacy","Lentiform Loewenfeld","3.3.12","0","s","h","NA","NA","NA","s","418","20766","NA","NA","NA","418","2","legacy","1024","2","48000","-16","experiment","SSSSS","1","odd","22189","NA","NA","42121","1417","43168","NA","1363","NA","NA","43170","NA","NA","43275","43694","43275","Flanker Test","14","6304","14","yes","1024"
"100","100","451.93333333333334","451.93333333333334","black","legacy","legacy","legacy","0","incongruent","uniform","1","undefined","1","h","0","0","0","14","0","14","14","0","14","0","14","0","0","14","14","14","Sun Sep 18 16:15:32 2022","1500","The main experiment item","yes","FlankerTest.osexp","/Users/andrea/Desktop","no","mono","no","18","no","white","no","no","768","legacy","14","14","/Users/andrea/Desktop/AS_subject-1.csv","legacy","Lentiform Loewenfeld","3.3.12","0","h","h","NA","NA","NA","h","475","20766","NA","NA","NA","475","2","legacy","1024","2","48000","-16","experiment","SSHSS","1","odd","22189","NA","NA","43697","1417","44745","NA","1363","NA","NA","44747","NA","NA","44851","45327","44851","Flanker Test","15","6779","15","yes","1024"
"100","100","449.25","449.25","black","legacy","legacy","legacy","0","congruent","uniform","1","undefined","1","s","0","0","0","15","0","15","15","0","15","0","15","0","0","15","15","15","Sun Sep 18 16:15:32 2022","1500","The main experiment item","yes","FlankerTest.osexp","/Users/andrea/Desktop","no","mono","no","18","no","white","no","no","768","legacy","15","15","/Users/andrea/Desktop/AS_subject-1.csv","legacy","Lentiform Loewenfeld","3.3.12","0","s","h","NA","NA","NA","s","409","20766","NA","NA","NA","409","2","legacy","1024","2","48000","-16","experiment","SSSSS","1","odd","22189","NA","NA","45330","1417","46378","NA","1363","NA","NA","46380","NA","NA","46482","46891","46482","Flanker Test","16","7188","16","yes","1024"
"100","100","446.2352941176471","446.2352941176471","black","legacy","legacy","legacy","0","congruent","uniform","1","undefined","1","h","0","0","0","16","0","16","16","0","16","0","16","0","0","16","16","16","Sun Sep 18 16:15:32 2022","1500","The main experiment item","yes","FlankerTest.osexp","/Users/andrea/Desktop","no","mono","no","18","no","white","no","no","768","legacy","16","16","/Users/andrea/Desktop/AS_subject-1.csv","legacy","Lentiform Loewenfeld","3.3.12","0","h","h","NA","NA","NA","h","398","20766","NA","NA","NA","398","2","legacy","1024","2","48000","-16","experiment","HHHHH","1","odd","22189","NA","NA","46895","1417","47943","NA","1363","NA","NA","47945","NA","NA","48049","48448","48049","Flanker Test","17","7586","17","yes","1024"
"100","100","442.3888888888889","442.3888888888889","black","legacy","legacy","legacy","0","congruent","uniform","1","undefined","1","h","0","0","0","17","0","17","17","0","17","0","17","0","0","17","17","17","Sun Sep 18 16:15:32 2022","1500","The main experiment item","yes","FlankerTest.osexp","/Users/andrea/Desktop","no","mono","no","18","no","white","no","no","768","legacy","17","17","/Users/andrea/Desktop/AS_subject-1.csv","legacy","Lentiform Loewenfeld","3.3.12","0","h","h","NA","NA","NA","h","377","20766","NA","NA","NA","377","2","legacy","1024","2","48000","-16","experiment","HHHHH","1","odd","22189","NA","NA","48451","1417","49506","NA","1363","NA","NA","49508","NA","NA","49612","49990","49612","Flanker Test","18","7963","18","yes","1024"
"100","100","440.5263157894737","440.5263157894737","black","legacy","legacy","legacy","0","incongruent","uniform","1","undefined","1","s","0","0","0","18","0","18","18","0","18","0","18","0","0","18","18","18","Sun Sep 18 16:15:32 2022","1500","The main experiment item","yes","FlankerTest.osexp","/Users/andrea/Desktop","no","mono","no","18","no","white","no","no","768","legacy","18","18","/Users/andrea/Desktop/AS_subject-1.csv","legacy","Lentiform Loewenfeld","3.3.12","0","s","h","NA","NA","NA","s","407","20766","NA","NA","NA","407","2","legacy","1024","2","48000","-16","experiment","HHSHH","1","odd","22189","NA","NA","49993","1417","51038","NA","1363","NA","NA","51040","NA","NA","51144","51552","51144","Flanker Test","19","8370","19","yes","1024"
"100","100","438.15","438.15","black","legacy","legacy","legacy","0","congruent","uniform","1","undefined","1","h","0","0","0","19","0","19","19","0","19","0","19","0","0","19","19","19","Sun Sep 18 16:15:32 2022","1500","The main experiment item","yes","FlankerTest.osexp","/Users/andrea/Desktop","no","mono","no","18","no","white","no","no","768","legacy","19","19","/Users/andrea/Desktop/AS_subject-1.csv","legacy","Lentiform Loewenfeld","3.3.12","0","h","h","NA","NA","NA","h","393","20766","NA","NA","NA","393","2","legacy","1024","2","48000","-16","experiment","HHHHH","1","odd","22189","NA","NA","51555","1417","52609","NA","1363","NA","NA","52611","NA","NA","52716","53110","52715","Flanker Test","20","8763","20","yes","1024"
"100","100","434.76190476190476","434.76190476190476","black","legacy","legacy","legacy","0","incongruent","uniform","1","undefined","1","s","0","0","0","20","0","20","20","0","20","0","20","0","0","20","20","20","Sun Sep 18 16:15:32 2022","1500","The main experiment item","yes","FlankerTest.osexp","/Users/andrea/Desktop","no","mono","no","18","no","white","no","no","768","legacy","20","20","/Users/andrea/Desktop/AS_subject-1.csv","legacy","Lentiform Loewenfeld","3.3.12","0","s","h","NA","NA","NA","s","367","20766","NA","NA","NA","367","2","legacy","1024","2","48000","-16","experiment","HHSHH","1","odd","22189","NA","NA","53113","1417","54160","NA","1363","NA","NA","54162","NA","NA","54266","54633","54266","Flanker Test","21","9130","21","yes","1024"
"100","100","430.27272727272725","430.27272727272725","black","legacy","legacy","legacy","0","incongruent","uniform","1","undefined","1","s","0","0","0","21","0","21","21","0","21","0","21","0","0","21","21","21","Sun Sep 18 16:15:32 2022","1500","The main experiment item","yes","FlankerTest.osexp","/Users/andrea/Desktop","no","mono","no","18","no","white","no","no","768","legacy","21","21","/Users/andrea/Desktop/AS_subject-1.csv","legacy","Lentiform Loewenfeld","3.3.12","0","s","h","NA","NA","NA","s","336","20766","NA","NA","NA","336","2","legacy","1024","2","48000","-16","experiment","HHSHH","1","odd","22189","NA","NA","54638","1417","55694","NA","1363","NA","NA","55696","NA","NA","55800","56136","55800","Flanker Test","22","9466","22","yes","1024"
"100","100","428.17391304347825","428.17391304347825","black","legacy","legacy","legacy","0","congruent","uniform","1","undefined","1","s","0","0","0","22","0","22","22","0","22","0","22","0","0","22","22","22","Sun Sep 18 16:15:32 2022","1500","The main experiment item","yes","FlankerTest.osexp","/Users/andrea/Desktop","no","mono","no","18","no","white","no","no","768","legacy","22","22","/Users/andrea/Desktop/AS_subject-1.csv","legacy","Lentiform Loewenfeld","3.3.12","0","s","h","NA","NA","NA","s","382","20766","NA","NA","NA","382","2","legacy","1024","2","48000","-16","experiment","SSSSS","1","odd","22189","NA","NA","56140","1417","57188","NA","1363","NA","NA","57190","NA","NA","57294","57676","57293","Flanker Test","23","9848","23","yes","1024"
"100","100","427.2083333333333","427.2083333333333","black","legacy","legacy","legacy","0","congruent","uniform","1","undefined","1","h","0","0","0","23","0","23","23","0","23","0","23","0","0","23","23","23","Sun Sep 18 16:15:32 2022","1500","The main experiment item","yes","FlankerTest.osexp","/Users/andrea/Desktop","no","mono","no","18","no","white","no","no","768","legacy","23","23","/Users/andrea/Desktop/AS_subject-1.csv","legacy","Lentiform Loewenfeld","3.3.12","0","h","h","NA","NA","NA","h","405","20766","NA","NA","NA","405","2","legacy","1024","2","48000","-16","experiment","HHHHH","1","odd","22189","NA","NA","57680","1417","58734","NA","1363","NA","NA","58736","NA","NA","58839","59245","58839","Flanker Test","24","10253","24","yes","1024"
"96","96","423.64","423.64","black","legacy","legacy","legacy","0","incongruent","uniform","0","undefined","0","h","0","0","0","24","0","24","24","0","24","0","24","0","0","24","24","24","Sun Sep 18 16:15:32 2022","1500","The main experiment item","yes","FlankerTest.osexp","/Users/andrea/Desktop","no","mono","no","18","no","white","no","no","768","legacy","24","24","/Users/andrea/Desktop/AS_subject-1.csv","legacy","Lentiform Loewenfeld","3.3.12","0","s","h","NA","NA","NA","s","338","20766","NA","NA","NA","338","2","legacy","1024","2","48000","-16","experiment","SSHSS","1","odd","22189","NA","NA","59248","1417","60296","NA","1363","NA","NA","60298","NA","NA","60402","60741","60402","Flanker Test","24","10591","25","yes","1024"
"96.15384615384616","96.15384615384616","434.65384615384613","434.65384615384613","black","legacy","legacy","legacy","0","congruent","uniform","1","undefined","1","s","0","0","0","25","0","25","25","0","25","0","25","0","0","25","25","25","Sun Sep 18 16:15:32 2022","1500","The main experiment item","yes","FlankerTest.osexp","/Users/andrea/Desktop","no","mono","no","18","no","white","no","no","768","legacy","25","25","/Users/andrea/Desktop/AS_subject-1.csv","legacy","Lentiform Loewenfeld","3.3.12","0","s","h","NA","NA","NA","s","710","20766","NA","NA","NA","710","2","legacy","1024","2","48000","-16","experiment","SSSSS","1","odd","22189","NA","NA","61248","1417","62294","60744","1363","NA","NA","62296","NA","NA","62400","63111","62400","Flanker Test","25","11301","26","yes","1024"
"96.29629629629629","96.29629629629629","433.48148148148147","433.48148148148147","black","legacy","legacy","legacy","0","congruent","uniform","1","undefined","1","h","0","0","0","26","0","26","26","0","26","0","26","0","0","26","26","26","Sun Sep 18 16:15:32 2022","1500","The main experiment item","yes","FlankerTest.osexp","/Users/andrea/Desktop","no","mono","no","18","no","white","no","no","768","legacy","26","26","/Users/andrea/Desktop/AS_subject-1.csv","legacy","Lentiform Loewenfeld","3.3.12","0","h","h","NA","NA","NA","h","403","20766","NA","NA","NA","403","2","legacy","1024","2","48000","-16","experiment","HHHHH","1","odd","22189","NA","NA","63113","1417","64161","60744","1363","NA","NA","64163","NA","NA","64268","64671","64268","Flanker Test","26","11704","27","yes","1024"
"96.42857142857143","96.42857142857143","432.17857142857144","432.17857142857144","black","legacy","legacy","legacy","0","congruent","uniform","1","undefined","1","s","0","0","0","27","0","27","27","0","27","0","27","0","0","27","27","27","Sun Sep 18 16:15:32 2022","1500","The main experiment item","yes","FlankerTest.osexp","/Users/andrea/Desktop","no","mono","no","18","no","white","no","no","768","legacy","27","27","/Users/andrea/Desktop/AS_subject-1.csv","legacy","Lentiform Loewenfeld","3.3.12","0","s","h","NA","NA","NA","s","397","20766","NA","NA","NA","397","2","legacy","1024","2","48000","-16","experiment","SSSSS","1","odd","22189","NA","NA","64675","1417","65722","60744","1363","NA","NA","65724","NA","NA","65828","66226","65828","Flanker Test","27","12101","28","yes","1024"
"96.55172413793103","96.55172413793103","429.3448275862069","429.3448275862069","black","legacy","legacy","legacy","0","congruent","uniform","1","undefined","1","s","0","0","0","28","0","28","28","0","28","0","28","0","0","28","28","28","Sun Sep 18 16:15:32 2022","1500","The main experiment item","yes","FlankerTest.osexp","/Users/andrea/Desktop","no","mono","no","18","no","white","no","no","768","legacy","28","28","/Users/andrea/Desktop/AS_subject-1.csv","legacy","Lentiform Loewenfeld","3.3.12","0","s","h","NA","NA","NA","s","350","20766","NA","NA","NA","350","2","legacy","1024","2","48000","-16","experiment","SSSSS","1","odd","22189","NA","NA","66229","1417","67277","60744","1363","NA","NA","67279","NA","NA","67383","67734","67383","Flanker Test","28","12451","29","yes","1024"
"96.66666666666667","96.66666666666667","427.26666666666665","427.26666666666665","black","legacy","legacy","legacy","0","congruent","uniform","1","undefined","1","s","0","0","0","29","0","29","29","0","29","0","29","0","0","29","29","29","Sun Sep 18 16:15:32 2022","1500","The main experiment item","yes","FlankerTest.osexp","/Users/andrea/Desktop","no","mono","no","18","no","white","no","no","768","legacy","29","29","/Users/andrea/Desktop/AS_subject-1.csv","legacy","Lentiform Loewenfeld","3.3.12","0","s","h","NA","NA","NA","s","367","20766","NA","NA","NA","367","2","legacy","1024","2","48000","-16","experiment","SSSSS","1","odd","22189","NA","NA","67737","1417","68785","60744","1363","NA","NA","68787","NA","NA","68891","69258","68891","Flanker Test","29","12818","30","yes","1024"
"96.7741935483871","96.7741935483871","429.1290322580645","429.1290322580645","black","legacy","legacy","legacy","0","congruent","uniform","1","undefined","1","h","0","0","0","30","0","30","30","0","30","0","30","0","0","30","30","30","Sun Sep 18 16:15:32 2022","1500","The main experiment item","yes","FlankerTest.osexp","/Users/andrea/Desktop","no","mono","no","18","no","white","no","no","768","legacy","30","30","/Users/andrea/Desktop/AS_subject-1.csv","legacy","Lentiform Loewenfeld","3.3.12","0","h","h","NA","NA","NA","h","485","20766","NA","NA","NA","485","2","legacy","1024","2","48000","-16","experiment","HHHHH","1","odd","22189","NA","NA","69262","1417","70309","60744","1363","NA","NA","70311","NA","NA","70415","70901","70415","Flanker Test","30","13303","31","yes","1024"
"96.875","96.875","431.15625","431.15625","black","legacy","legacy","legacy","0","incongruent","uniform","1","undefined","1","h","0","0","0","31","0","31","31","0","31","0","31","0","0","31","31","31","Sun Sep 18 16:15:32 2022","1500","The main experiment item","yes","FlankerTest.osexp","/Users/andrea/Desktop","no","mono","no","18","no","white","no","no","768","legacy","31","31","/Users/andrea/Desktop/AS_subject-1.csv","legacy","Lentiform Loewenfeld","3.3.12","0","h","h","NA","NA","NA","h","494","20766","NA","NA","NA","494","2","legacy","1024","2","48000","-16","experiment","SSHSS","1","odd","22189","NA","NA","70904","1417","71952","60744","1363","NA","NA","71954","NA","NA","72059","72553","72058","Flanker Test","31","13797","32","yes","1024"
"96.96969696969697","96.96969696969697","430.1515151515151","430.1515151515151","black","legacy","legacy","legacy","0","congruent","uniform","1","undefined","1","h","0","0","0","32","0","32","32","0","32","0","32","0","0","32","32","32","Sun Sep 18 16:15:32 2022","1500","The main experiment item","yes","FlankerTest.osexp","/Users/andrea/Desktop","no","mono","no","18","no","white","no","no","768","legacy","32","32","/Users/andrea/Desktop/AS_subject-1.csv","legacy","Lentiform Loewenfeld","3.3.12","0","h","h","NA","NA","NA","h","398","20766","NA","NA","NA","398","2","legacy","1024","2","48000","-16","experiment","HHHHH","1","odd","22189","NA","NA","72556","1417","73605","60744","1363","NA","NA","73607","NA","NA","73711","74110","73711","Flanker Test","32","14195","33","yes","1024"
"97.05882352941177","97.05882352941177","431.1470588235294","431.1470588235294","black","legacy","legacy","legacy","0","incongruent","uniform","1","undefined","1","s","0","0","0","33","0","33","33","0","33","0","33","0","0","33","33","33","Sun Sep 18 16:15:32 2022","1500","The main experiment item","yes","FlankerTest.osexp","/Users/andrea/Desktop","no","mono","no","18","no","white","no","no","768","legacy","33","33","/Users/andrea/Desktop/AS_subject-1.csv","legacy","Lentiform Loewenfeld","3.3.12","0","s","h","NA","NA","NA","s","464","20766","NA","NA","NA","464","2","legacy","1024","2","48000","-16","experiment","HHSHH","1","odd","22189","NA","NA","74113","1417","75161","60744","1363","NA","NA","75163","NA","NA","75267","75732","75267","Flanker Test","33","14659","34","yes","1024"
"97.14285714285714","97.14285714285714","432","432","black","legacy","legacy","legacy","0","incongruent","uniform","1","undefined","1","h","0","0","0","34","0","34","34","0","34","0","34","0","0","34","34","34","Sun Sep 18 16:15:32 2022","1500","The main experiment item","yes","FlankerTest.osexp","/Users/andrea/Desktop","no","mono","no","18","no","white","no","no","768","legacy","34","34","/Users/andrea/Desktop/AS_subject-1.csv","legacy","Lentiform Loewenfeld","3.3.12","0","h","h","NA","NA","NA","h","461","20766","NA","NA","NA","461","2","legacy","1024","2","48000","-16","experiment","SSHSS","1","odd","22189","NA","NA","75735","1417","76783","60744","1363","NA","NA","76785","NA","NA","76886","77348","76886","Flanker Test","34","15120","35","yes","1024"
"97.22222222222223","97.22222222222223","431.0833333333333","431.0833333333333","black","legacy","legacy","legacy","0","congruent","uniform","1","undefined","1","s","0","0","0","35","0","35","35","0","35","0","35","0","0","35","35","35","Sun Sep 18 16:15:32 2022","1500","The main experiment item","yes","FlankerTest.osexp","/Users/andrea/Desktop","no","mono","no","18","no","white","no","no","768","legacy","35","35","/Users/andrea/Desktop/AS_subject-1.csv","legacy","Lentiform Loewenfeld","3.3.12","0","s","h","NA","NA","NA","s","399","20766","NA","NA","NA","399","2","legacy","1024","2","48000","-16","experiment","SSSSS","1","odd","22189","NA","NA","77351","1417","78400","60744","1363","NA","NA","78402","NA","NA","78506","78906","78506","Flanker Test","35","15519","36","yes","1024"
"97.29729729729729","97.29729729729729","429.94594594594594","429.94594594594594","black","legacy","legacy","legacy","0","congruent","uniform","1","undefined","1","s","0","0","0","36","0","36","36","0","36","0","36","0","0","36","36","36","Sun Sep 18 16:15:32 2022","1500","The main experiment item","yes","FlankerTest.osexp","/Users/andrea/Desktop","no","mono","no","18","no","white","no","no","768","legacy","36","36","/Users/andrea/Desktop/AS_subject-1.csv","legacy","Lentiform Loewenfeld","3.3.12","0","s","h","NA","NA","NA","s","389","20766","NA","NA","NA","389","2","legacy","1024","2","48000","-16","experiment","SSSSS","1","odd","22189","NA","NA","78909","1417","79957","60744","1363","NA","NA","79959","NA","NA","80063","80453","80063","Flanker Test","36","15908","37","yes","1024"
"97.36842105263158","97.36842105263158","429.10526315789474","429.10526315789474","black","legacy","legacy","legacy","0","congruent","uniform","1","undefined","1","h","0","0","0","37","0","37","37","0","37","0","37","0","0","37","37","37","Sun Sep 18 16:15:32 2022","1500","The main experiment item","yes","FlankerTest.osexp","/Users/andrea/Desktop","no","mono","no","18","no","white","no","no","768","legacy","37","37","/Users/andrea/Desktop/AS_subject-1.csv","legacy","Lentiform Loewenfeld","3.3.12","0","h","h","NA","NA","NA","h","398","20766","NA","NA","NA","398","2","legacy","1024","2","48000","-16","experiment","HHHHH","1","odd","22189","NA","NA","80456","1417","81501","60744","1363","NA","NA","81503","NA","NA","81607","82006","81607","Flanker Test","37","16306","38","yes","1024"
"97.43589743589743","97.43589743589743","430.97435897435895","430.97435897435895","black","legacy","legacy","legacy","0","incongruent","uniform","1","undefined","1","h","0","0","0","38","0","38","38","0","38","0","38","0","0","38","38","38","Sun Sep 18 16:15:32 2022","1500","The main experiment item","yes","FlankerTest.osexp","/Users/andrea/Desktop","no","mono","no","18","no","white","no","no","768","legacy","38","38","/Users/andrea/Desktop/AS_subject-1.csv","legacy","Lentiform Loewenfeld","3.3.12","0","h","h","NA","NA","NA","h","502","20766","NA","NA","NA","502","2","legacy","1024","2","48000","-16","experiment","SSHSS","1","odd","22189","NA","NA","82009","1417","83056","60744","1363","NA","NA","83058","NA","NA","83162","83665","83162","Flanker Test","38","16808","39","yes","1024"
"97.5","97.5","429.175","429.175","black","legacy","legacy","legacy","0","congruent","uniform","1","undefined","1","h","0","0","0","39","0","39","39","0","39","0","39","0","0","39","39","39","Sun Sep 18 16:15:32 2022","1500","The main experiment item","yes","FlankerTest.osexp","/Users/andrea/Desktop","no","mono","no","18","no","white","no","no","768","legacy","39","39","/Users/andrea/Desktop/AS_subject-1.csv","legacy","Lentiform Loewenfeld","3.3.12","0","h","h","NA","NA","NA","h","359","20766","NA","NA","NA","359","2","legacy","1024","2","48000","-16","experiment","HHHHH","1","odd","22189","NA","NA","83668","1417","84716","60744","1363","NA","NA","84718","NA","NA","84822","85182","84822","Flanker Test","39","17167","40","yes","1024"
"97.5609756097561","97.5609756097561","428.8780487804878","428.8780487804878","black","legacy","legacy","legacy","0","congruent","uniform","1","undefined","1","s","0","0","0","40","0","40","40","0","40","0","40","0","0","40","40","40","Sun Sep 18 16:15:32 2022","1500","The main experiment item","yes","FlankerTest.osexp","/Users/andrea/Desktop","no","mono","no","18","no","white","no","no","768","legacy","40","40","/Users/andrea/Desktop/AS_subject-1.csv","legacy","Lentiform Loewenfeld","3.3.12","0","s","h","NA","NA","NA","s","417","20766","NA","NA","NA","417","2","legacy","1024","2","48000","-16","experiment","SSSSS","1","odd","22189","NA","NA","85185","1417","86233","60744","1363","NA","NA","86235","NA","NA","86339","86757","86339","Flanker Test","40","17584","41","yes","1024"
"97.61904761904762","97.61904761904762","427.04761904761904","427.04761904761904","black","legacy","legacy","legacy","0","congruent","uniform","1","undefined","1","s","0","0","0","41","0","41","41","0","41","0","41","0","0","41","41","41","Sun Sep 18 16:15:32 2022","1500","The main experiment item","yes","FlankerTest.osexp","/Users/andrea/Desktop","no","mono","no","18","no","white","no","no","768","legacy","41","41","/Users/andrea/Desktop/AS_subject-1.csv","legacy","Lentiform Loewenfeld","3.3.12","0","s","h","NA","NA","NA","s","352","20766","NA","NA","NA","352","2","legacy","1024","2","48000","-16","experiment","SSSSS","1","odd","22189","NA","NA","86760","1417","87808","60744","1363","NA","NA","87810","NA","NA","87914","88267","87914","Flanker Test","41","17936","42","yes","1024"
"97.67441860465117","97.67441860465117","427.51162790697674","427.51162790697674","black","legacy","legacy","legacy","0","congruent","uniform","1","undefined","1","h","0","0","0","42","0","42","42","0","42","0","42","0","0","42","42","42","Sun Sep 18 16:15:32 2022","1500","The main experiment item","yes","FlankerTest.osexp","/Users/andrea/Desktop","no","mono","no","18","no","white","no","no","768","legacy","42","42","/Users/andrea/Desktop/AS_subject-1.csv","legacy","Lentiform Loewenfeld","3.3.12","0","h","h","NA","NA","NA","h","447","20766","NA","NA","NA","447","2","legacy","1024","2","48000","-16","experiment","HHHHH","1","odd","22189","NA","NA","88270","1417","89322","60744","1363","NA","NA","89325","NA","NA","89429","89876","89429","Flanker Test","42","18383","43","yes","1024"
"97.72727272727273","97.72727272727273","427.15909090909093","427.15909090909093","black","legacy","legacy","legacy","0","congruent","uniform","1","undefined","1","s","0","0","0","43","0","43","43","0","43","0","43","0","0","43","43","43","Sun Sep 18 16:15:32 2022","1500","The main experiment item","yes","FlankerTest.osexp","/Users/andrea/Desktop","no","mono","no","18","no","white","no","no","768","legacy","43","43","/Users/andrea/Desktop/AS_subject-1.csv","legacy","Lentiform Loewenfeld","3.3.12","0","s","h","NA","NA","NA","s","412","20766","NA","NA","NA","412","2","legacy","1024","2","48000","-16","experiment","SSSSS","1","odd","22189","NA","NA","89880","1417","90928","60744","1363","NA","NA","90930","NA","NA","91034","91447","91034","Flanker Test","43","18795","44","yes","1024"
"97.77777777777777","97.77777777777777","425.4222222222222","425.4222222222222","black","legacy","legacy","legacy","0","congruent","uniform","1","undefined","1","s","0","0","0","44","0","44","44","0","44","0","44","0","0","44","44","44","Sun Sep 18 16:15:32 2022","1500","The main experiment item","yes","FlankerTest.osexp","/Users/andrea/Desktop","no","mono","no","18","no","white","no","no","768","legacy","44","44","/Users/andrea/Desktop/AS_subject-1.csv","legacy","Lentiform Loewenfeld","3.3.12","0","s","h","NA","NA","NA","s","349","20766","NA","NA","NA","349","2","legacy","1024","2","48000","-16","experiment","SSSSS","1","odd","22189","NA","NA","91450","1417","92496","60744","1363","NA","NA","92498","NA","NA","92602","92952","92602","Flanker Test","44","19144","45","yes","1024"
"97.82608695652173","97.82608695652173","427.32608695652175","427.32608695652175","black","legacy","legacy","legacy","0","incongruent","uniform","1","undefined","1","h","0","0","0","45","0","45","45","0","45","0","45","0","0","45","45","45","Sun Sep 18 16:15:32 2022","1500","The main experiment item","yes","FlankerTest.osexp","/Users/andrea/Desktop","no","mono","no","18","no","white","no","no","768","legacy","45","45","/Users/andrea/Desktop/AS_subject-1.csv","legacy","Lentiform Loewenfeld","3.3.12","0","h","h","NA","NA","NA","h","513","20766","NA","NA","NA","513","2","legacy","1024","2","48000","-16","experiment","SSHSS","1","odd","22189","NA","NA","92955","1417","94003","60744","1363","NA","NA","94005","NA","NA","94109","94623","94109","Flanker Test","45","19657","46","yes","1024"
"97.87234042553192","97.87234042553192","430.2340425531915","430.2340425531915","black","legacy","legacy","legacy","0","incongruent","uniform","1","undefined","1","h","0","0","0","46","0","46","46","0","46","0","46","0","0","46","46","46","Sun Sep 18 16:15:32 2022","1500","The main experiment item","yes","FlankerTest.osexp","/Users/andrea/Desktop","no","mono","no","18","no","white","no","no","768","legacy","46","46","/Users/andrea/Desktop/AS_subject-1.csv","legacy","Lentiform Loewenfeld","3.3.12","0","h","h","NA","NA","NA","h","564","20766","NA","NA","NA","564","2","legacy","1024","2","48000","-16","experiment","SSHSS","1","odd","22189","NA","NA","94625","1417","95673","60744","1363","NA","NA","95675","NA","NA","95779","96344","95779","Flanker Test","46","20221","47","yes","1024"
"97.91666666666667","97.91666666666667","430.875","430.875","black","legacy","legacy","legacy","0","incongruent","uniform","1","undefined","1","s","0","0","0","47","0","47","47","0","47","0","47","0","0","47","47","47","Sun Sep 18 16:15:32 2022","1500","The main experiment item","yes","FlankerTest.osexp","/Users/andrea/Desktop","no","mono","no","18","no","white","no","no","768","legacy","47","47","/Users/andrea/Desktop/AS_subject-1.csv","legacy","Lentiform Loewenfeld","3.3.12","0","s","h","NA","NA","NA","s","461","20766","NA","NA","NA","461","2","legacy","1024","2","48000","-16","experiment","HHSHH","1","odd","22189","NA","NA","96347","1417","97394","60744","1363","NA","NA","97396","NA","NA","97498","97960","97498","Flanker Test","47","20682","48","yes","1024"
"97.95918367346938","97.95918367346938","430.40816326530614","430.40816326530614","black","legacy","legacy","legacy","0","congruent","uniform","1","undefined","1","h","0","0","0","48","0","48","48","0","48","0","48","0","0","48","48","48","Sun Sep 18 16:15:32 2022","1500","The main experiment item","yes","FlankerTest.osexp","/Users/andrea/Desktop","no","mono","no","18","no","white","no","no","768","legacy","48","48","/Users/andrea/Desktop/AS_subject-1.csv","legacy","Lentiform Loewenfeld","3.3.12","0","h","h","NA","NA","NA","h","408","20766","NA","NA","NA","408","2","legacy","1024","2","48000","-16","experiment","HHHHH","1","odd","22189","NA","NA","97964","1417","99011","60744","1363","NA","NA","99013","NA","NA","99118","99526","99117","Flanker Test","48","21090","49","yes","1024"
"98","98","431.02","431.02","black","legacy","legacy","legacy","0","congruent","uniform","1","undefined","1","h","0","0","0","49","0","49","49","0","49","0","49","0","0","49","49","49","Sun Sep 18 16:15:32 2022","1500","The main experiment item","yes","FlankerTest.osexp","/Users/andrea/Desktop","no","mono","no","18","no","white","no","no","768","legacy","49","49","/Users/andrea/Desktop/AS_subject-1.csv","legacy","Lentiform Loewenfeld","3.3.12","0","h","h","NA","NA","NA","h","461","20766","NA","NA","NA","461","2","legacy","1024","2","48000","-16","experiment","HHHHH","1","odd","22189","NA","NA","99532","1417","100588","60744","1363","NA","NA","100590","NA","NA","100694","101156","100694","Flanker Test","49","21551","50","yes","1024"
"98.03921568627452","98.03921568627452","433.5882352941176","433.5882352941176","black","legacy","legacy","legacy","0","incongruent","uniform","1","undefined","1","h","0","0","0","50","0","50","50","0","50","0","50","0","0","50","50","50","Sun Sep 18 16:15:32 2022","1500","The main experiment item","yes","FlankerTest.osexp","/Users/andrea/Desktop","no","mono","no","18","no","white","no","no","768","legacy","50","50","/Users/andrea/Desktop/AS_subject-1.csv","legacy","Lentiform Loewenfeld","3.3.12","0","h","h","NA","NA","NA","h","562","20766","NA","NA","NA","562","2","legacy","1024","2","48000","-16","experiment","SSHSS","1","odd","22189","NA","NA","101159","1417","102206","60744","1363","NA","NA","102208","NA","NA","102313","102876","102313","Flanker Test","50","22113","51","yes","1024"
"98.07692307692308","98.07692307692308","434.2692307692308","434.2692307692308","black","legacy","legacy","legacy","0","congruent","uniform","1","undefined","1","s","0","0","0","51","0","51","51","0","51","0","51","0","0","51","51","51","Sun Sep 18 16:15:32 2022","1500","The main experiment item","yes","FlankerTest.osexp","/Users/andrea/Desktop","no","mono","no","18","no","white","no","no","768","legacy","51","51","/Users/andrea/Desktop/AS_subject-1.csv","legacy","Lentiform Loewenfeld","3.3.12","0","s","h","NA","NA","NA","s","469","20766","NA","NA","NA","469","2","legacy","1024","2","48000","-16","experiment","SSSSS","1","odd","22189","NA","NA","102879","1417","103927","60744","1363","NA","NA","103929","NA","NA","104033","104502","104033","Flanker Test","51","22582","52","yes","1024"
"98.11320754716981","98.11320754716981","434.54716981132077","434.54716981132077","black","legacy","legacy","legacy","0","incongruent","uniform","1","undefined","1","h","0","0","0","52","0","52","52","0","52","0","52","0","0","52","52","52","Sun Sep 18 16:15:32 2022","1500","The main experiment item","yes","FlankerTest.osexp","/Users/andrea/Desktop","no","mono","no","18","no","white","no","no","768","legacy","52","52","/Users/andrea/Desktop/AS_subject-1.csv","legacy","Lentiform Loewenfeld","3.3.12","0","h","h","NA","NA","NA","h","449","20766","NA","NA","NA","449","2","legacy","1024","2","48000","-16","experiment","SSHSS","1","odd","22189","NA","NA","104506","1417","105554","60744","1363","NA","NA","105556","NA","NA","105666","106116","105666","Flanker Test","52","23031","53","yes","1024"
"98.14814814814815","98.14814814814815","438.2962962962963","438.2962962962963","black","legacy","legacy","legacy","0","incongruent","uniform","1","undefined","1","s","0","0","0","53","0","53","53","0","53","0","53","0","0","53","53","53","Sun Sep 18 16:15:32 2022","1500","The main experiment item","yes","FlankerTest.osexp","/Users/andrea/Desktop","no","mono","no","18","no","white","no","no","768","legacy","53","53","/Users/andrea/Desktop/AS_subject-1.csv","legacy","Lentiform Loewenfeld","3.3.12","0","s","h","NA","NA","NA","s","637","20766","NA","NA","NA","637","2","legacy","1024","2","48000","-16","experiment","HHSHH","1","odd","22189","NA","NA","106119","1417","107168","60744","1363","NA","NA","107170","NA","NA","107274","107911","107274","Flanker Test","53","23668","54","yes","1024"
"98.18181818181819","98.18181818181819","439.4727272727273","439.4727272727273","black","legacy","legacy","legacy","0","incongruent","uniform","1","undefined","1","s","0","0","0","54","0","54","54","0","54","0","54","0","0","54","54","54","Sun Sep 18 16:15:32 2022","1500","The main experiment item","yes","FlankerTest.osexp","/Users/andrea/Desktop","no","mono","no","18","no","white","no","no","768","legacy","54","54","/Users/andrea/Desktop/AS_subject-1.csv","legacy","Lentiform Loewenfeld","3.3.12","0","s","h","NA","NA","NA","s","503","20766","NA","NA","NA","503","2","legacy","1024","2","48000","-16","experiment","HHSHH","1","odd","22189","NA","NA","107915","1417","108963","60744","1363","NA","NA","108965","NA","NA","109069","109573","109069","Flanker Test","54","24171","55","yes","1024"
"98.21428571428571","98.21428571428571","439.5","439.5","black","legacy","legacy","legacy","0","congruent","uniform","1","undefined","1","h","0","0","0","55","0","55","55","0","55","0","55","0","0","55","55","55","Sun Sep 18 16:15:32 2022","1500","The main experiment item","yes","FlankerTest.osexp","/Users/andrea/Desktop","no","mono","no","18","no","white","no","no","768","legacy","55","55","/Users/andrea/Desktop/AS_subject-1.csv","legacy","Lentiform Loewenfeld","3.3.12","0","h","h","NA","NA","NA","h","441","20766","NA","NA","NA","441","2","legacy","1024","2","48000","-16","experiment","HHHHH","1","odd","22189","NA","NA","109576","1417","110623","60744","1363","NA","NA","110625","NA","NA","110730","111172","110729","Flanker Test","55","24612","56","yes","1024"
"98.24561403508773","98.24561403508773","438.03508771929825","438.03508771929825","black","legacy","legacy","legacy","0","congruent","uniform","1","undefined","1","h","0","0","0","56","0","56","56","0","56","0","56","0","0","56","56","56","Sun Sep 18 16:15:32 2022","1500","The main experiment item","yes","FlankerTest.osexp","/Users/andrea/Desktop","no","mono","no","18","no","white","no","no","768","legacy","56","56","/Users/andrea/Desktop/AS_subject-1.csv","legacy","Lentiform Loewenfeld","3.3.12","0","h","h","NA","NA","NA","h","356","20766","NA","NA","NA","356","2","legacy","1024","2","48000","-16","experiment","HHHHH","1","odd","22189","NA","NA","111175","1417","112222","60744","1363","NA","NA","112224","NA","NA","112328","112685","112328","Flanker Test","56","24968","57","yes","1024"
"98.27586206896552","98.27586206896552","438.98275862068965","438.98275862068965","black","legacy","legacy","legacy","0","incongruent","uniform","1","undefined","1","h","0","0","0","57","0","57","57","0","57","0","57","0","0","57","57","57","Sun Sep 18 16:15:32 2022","1500","The main experiment item","yes","FlankerTest.osexp","/Users/andrea/Desktop","no","mono","no","18","no","white","no","no","768","legacy","57","57","/Users/andrea/Desktop/AS_subject-1.csv","legacy","Lentiform Loewenfeld","3.3.12","0","h","h","NA","NA","NA","h","493","20766","NA","NA","NA","493","2","legacy","1024","2","48000","-16","experiment","SSHSS","1","odd","22189","NA","NA","112688","1417","113735","60744","1363","NA","NA","113737","NA","NA","113846","114339","113845","Flanker Test","57","25461","58","yes","1024"
"98.30508474576271","98.30508474576271","438.4237288135593","438.4237288135593","black","legacy","legacy","legacy","0","incongruent","uniform","1","undefined","1","h","0","0","0","58","0","58","58","0","58","0","58","0","0","58","58","58","Sun Sep 18 16:15:32 2022","1500","The main experiment item","yes","FlankerTest.osexp","/Users/andrea/Desktop","no","mono","no","18","no","white","no","no","768","legacy","58","58","/Users/andrea/Desktop/AS_subject-1.csv","legacy","Lentiform Loewenfeld","3.3.12","0","h","h","NA","NA","NA","h","406","20766","NA","NA","NA","406","2","legacy","1024","2","48000","-16","experiment","SSHSS","1","odd","22189","NA","NA","114342","1417","115390","60744","1363","NA","NA","115392","NA","NA","115496","115903","115496","Flanker Test","58","25867","59","yes","1024"
"98.33333333333333","98.33333333333333","438.93333333333334","438.93333333333334","black","legacy","legacy","legacy","0","congruent","uniform","1","undefined","1","s","0","0","0","59","0","59","59","0","59","0","59","0","0","59","59","59","Sun Sep 18 16:15:32 2022","1500","The main experiment item","yes","FlankerTest.osexp","/Users/andrea/Desktop","no","mono","no","18","no","white","no","no","768","legacy","59","59","/Users/andrea/Desktop/AS_subject-1.csv","legacy","Lentiform Loewenfeld","3.3.12","0","s","h","NA","NA","NA","s","469","20766","NA","NA","NA","469","2","legacy","1024","2","48000","-16","experiment","SSSSS","1","odd","22189","NA","NA","115906","1417","116952","60744","1363","NA","NA","116954","NA","NA","117058","117528","117058","Flanker Test","59","26336","60","yes","1024"
"98.36065573770492","98.36065573770492","438.5409836065574","438.5409836065574","black","legacy","legacy","legacy","0","incongruent","uniform","1","undefined","1","h","0","0","0","60","0","60","60","0","60","0","60","0","0","60","60","60","Sun Sep 18 16:15:32 2022","1500","The main experiment item","yes","FlankerTest.osexp","/Users/andrea/Desktop","no","mono","no","18","no","white","no","no","768","legacy","60","60","/Users/andrea/Desktop/AS_subject-1.csv","legacy","Lentiform Loewenfeld","3.3.12","0","h","h","NA","NA","NA","h","415","20766","NA","NA","NA","415","2","legacy","1024","2","48000","-16","experiment","SSHSS","1","odd","22189","NA","NA","117531","1417","118578","60744","1363","NA","NA","118580","NA","NA","118684","119099","118684","Flanker Test","60","26751","61","yes","1024"
"98.38709677419355","98.38709677419355","440.48387096774195","440.48387096774195","black","legacy","legacy","legacy","0","incongruent","uniform","1","undefined","1","s","0","0","0","61","0","61","61","0","61","0","61","0","0","61","61","61","Sun Sep 18 16:15:32 2022","1500","The main experiment item","yes","FlankerTest.osexp","/Users/andrea/Desktop","no","mono","no","18","no","white","no","no","768","legacy","61","61","/Users/andrea/Desktop/AS_subject-1.csv","legacy","Lentiform Loewenfeld","3.3.12","0","s","h","NA","NA","NA","s","559","20766","NA","NA","NA","559","2","legacy","1024","2","48000","-16","experiment","HHSHH","1","odd","22189","NA","NA","119103","1417","120150","60744","1363","NA","NA","120152","NA","NA","120257","120817","120256","Flanker Test","61","27310","62","yes","1024"
"98.41269841269842","98.41269841269842","443.26984126984127","443.26984126984127","black","legacy","legacy","legacy","0","incongruent","uniform","1","undefined","1","s","0","0","0","62","0","62","62","0","62","0","62","0","0","62","62","62","Sun Sep 18 16:15:32 2022","1500","The main experiment item","yes","FlankerTest.osexp","/Users/andrea/Desktop","no","mono","no","18","no","white","no","no","768","legacy","62","62","/Users/andrea/Desktop/AS_subject-1.csv","legacy","Lentiform Loewenfeld","3.3.12","0","s","h","NA","NA","NA","s","616","20766","NA","NA","NA","616","2","legacy","1024","2","48000","-16","experiment","HHSHH","1","odd","22189","NA","NA","120820","1417","121869","60744","1363","NA","NA","121871","NA","NA","121975","122592","121975","Flanker Test","62","27926","63","yes","1024"
"98.4375","98.4375","442.203125","442.203125","black","legacy","legacy","legacy","0","congruent","uniform","1","undefined","1","s","0","0","0","63","0","63","63","0","63","0","63","0","0","63","63","63","Sun Sep 18 16:15:32 2022","1500","The main experiment item","yes","FlankerTest.osexp","/Users/andrea/Desktop","no","mono","no","18","no","white","no","no","768","legacy","63","63","/Users/andrea/Desktop/AS_subject-1.csv","legacy","Lentiform Loewenfeld","3.3.12","0","s","h","NA","NA","NA","s","375","20766","NA","NA","NA","375","2","legacy","1024","2","48000","-16","experiment","SSSSS","1","odd","22189","NA","NA","122595","1417","123643","60744","1363","NA","NA","123645","NA","NA","123749","124125","123749","Flanker Test","63","28301","64","yes","1024"
"98.46153846153847","98.46153846153847","442.1384615384615","442.1384615384615","black","legacy","legacy","legacy","0","congruent","uniform","1","undefined","1","h","0","0","0","64","0","64","64","0","64","0","64","0","0","64","64","64","Sun Sep 18 16:15:32 2022","1500","The main experiment item","yes","FlankerTest.osexp","/Users/andrea/Desktop","no","mono","no","18","no","white","no","no","768","legacy","64","64","/Users/andrea/Desktop/AS_subject-1.csv","legacy","Lentiform Loewenfeld","3.3.12","0","h","h","NA","NA","NA","h","438","20766","NA","NA","NA","438","2","legacy","1024","2","48000","-16","experiment","HHHHH","1","odd","22189","NA","NA","124128","1417","125171","60744","1363","NA","NA","125173","NA","NA","125277","125716","125277","Flanker Test","64","28739","65","yes","1024"
"98.48484848484848","98.48484848484848","442.3939393939394","442.3939393939394","black","legacy","legacy","legacy","0","incongruent","uniform","1","undefined","1","s","0","0","0","65","0","65","65","0","65","0","65","0","0","65","65","65","Sun Sep 18 16:15:32 2022","1500","The main experiment item","yes","FlankerTest.osexp","/Users/andrea/Desktop","no","mono","no","18","no","white","no","no","768","legacy","65","65","/Users/andrea/Desktop/AS_subject-1.csv","legacy","Lentiform Loewenfeld","3.3.12","0","s","h","NA","NA","NA","s","459","20766","NA","NA","NA","459","2","legacy","1024","2","48000","-16","experiment","HHSHH","1","odd","22189","NA","NA","125719","1417","126766","60744","1363","NA","NA","126768","NA","NA","126873","127333","126872","Flanker Test","65","29198","66","yes","1024"
"98.50746268656717","98.50746268656717","444.04477611940297","444.04477611940297","black","legacy","legacy","legacy","0","incongruent","uniform","1","undefined","1","h","0","0","0","66","0","66","66","0","66","0","66","0","0","66","66","66","Sun Sep 18 16:15:32 2022","1500","The main experiment item","yes","FlankerTest.osexp","/Users/andrea/Desktop","no","mono","no","18","no","white","no","no","768","legacy","66","66","/Users/andrea/Desktop/AS_subject-1.csv","legacy","Lentiform Loewenfeld","3.3.12","0","h","h","NA","NA","NA","h","553","20766","NA","NA","NA","553","2","legacy","1024","2","48000","-16","experiment","SSHSS","1","odd","22189","NA","NA","127336","1417","128382","60744","1363","NA","NA","128385","NA","NA","128489","129043","128489","Flanker Test","66","29751","67","yes","1024"
"98.52941176470588","98.52941176470588","444.0147058823529","444.0147058823529","black","legacy","legacy","legacy","0","incongruent","uniform","1","undefined","1","h","0","0","0","67","0","67","67","0","67","0","67","0","0","67","67","67","Sun Sep 18 16:15:32 2022","1500","The main experiment item","yes","FlankerTest.osexp","/Users/andrea/Desktop","no","mono","no","18","no","white","no","no","768","legacy","67","67","/Users/andrea/Desktop/AS_subject-1.csv","legacy","Lentiform Loewenfeld","3.3.12","0","h","h","NA","NA","NA","h","442","20766","NA","NA","NA","442","2","legacy","1024","2","48000","-16","experiment","SSHSS","1","odd","22189","NA","NA","129045","1417","130092","60744","1363","NA","NA","130094","NA","NA","130204","130647","130204","Flanker Test","67","30193","68","yes","1024"
"98.55072463768116","98.55072463768116","442.7826086956522","442.7826086956522","black","legacy","legacy","legacy","0","congruent","uniform","1","undefined","1","h","0","0","0","68","0","68","68","0","68","0","68","0","0","68","68","68","Sun Sep 18 16:15:32 2022","1500","The main experiment item","yes","FlankerTest.osexp","/Users/andrea/Desktop","no","mono","no","18","no","white","no","no","768","legacy","68","68","/Users/andrea/Desktop/AS_subject-1.csv","legacy","Lentiform Loewenfeld","3.3.12","0","h","h","NA","NA","NA","h","359","20766","NA","NA","NA","359","2","legacy","1024","2","48000","-16","experiment","HHHHH","1","odd","22189","NA","NA","130650","1417","131699","60744","1363","NA","NA","131701","NA","NA","131805","132165","131805","Flanker Test","68","30552","69","yes","1024"
"98.57142857142857","98.57142857142857","443.2857142857143","443.2857142857143","black","legacy","legacy","legacy","0","congruent","uniform","1","undefined","1","s","0","0","0","69","0","69","69","0","69","0","69","0","0","69","69","69","Sun Sep 18 16:15:32 2022","1500","The main experiment item","yes","FlankerTest.osexp","/Users/andrea/Desktop","no","mono","no","18","no","white","no","no","768","legacy","69","69","/Users/andrea/Desktop/AS_subject-1.csv","legacy","Lentiform Loewenfeld","3.3.12","0","s","h","NA","NA","NA","s","478","20766","NA","NA","NA","478","2","legacy","1024","2","48000","-16","experiment","SSSSS","1","odd","22189","NA","NA","132168","1417","133207","60744","1363","NA","NA","133209","NA","NA","133312","133791","133311","Flanker Test","69","31030","70","yes","1024"
"98.59154929577464","98.59154929577464","443.23943661971833","443.23943661971833","black","legacy","legacy","legacy","0","incongruent","uniform","1","undefined","1","h","0","0","0","70","0","70","70","0","70","0","70","0","0","70","70","70","Sun Sep 18 16:15:32 2022","1500","The main experiment item","yes","FlankerTest.osexp","/Users/andrea/Desktop","no","mono","no","18","no","white","no","no","768","legacy","70","70","/Users/andrea/Desktop/AS_subject-1.csv","legacy","Lentiform Loewenfeld","3.3.12","0","h","h","NA","NA","NA","h","440","20766","NA","NA","NA","440","2","legacy","1024","2","48000","-16","experiment","SSHSS","1","odd","22189","NA","NA","133794","1417","134843","60744","1363","NA","NA","134845","NA","NA","134949","135390","134949","Flanker Test","70","31470","71","yes","1024"
"98.61111111111111","98.61111111111111","441.47222222222223","441.47222222222223","black","legacy","legacy","legacy","0","congruent","uniform","1","undefined","1","h","0","0","0","71","0","71","71","0","71","0","71","0","0","71","71","71","Sun Sep 18 16:15:32 2022","1500","The main experiment item","yes","FlankerTest.osexp","/Users/andrea/Desktop","no","mono","no","18","no","white","no","no","768","legacy","71","71","/Users/andrea/Desktop/AS_subject-1.csv","legacy","Lentiform Loewenfeld","3.3.12","0","h","h","NA","NA","NA","h","316","20766","NA","NA","NA","316","2","legacy","1024","2","48000","-16","experiment","HHHHH","1","odd","22189","NA","NA","135393","1417","136441","60744","1363","NA","NA","136443","NA","NA","136548","136866","136548","Flanker Test","71","31786","72","yes","1024"
"98.63013698630137","98.63013698630137","441.5890410958904","441.5890410958904","black","legacy","legacy","legacy","0","incongruent","uniform","1","undefined","1","s","0","0","0","72","0","72","72","0","72","0","72","0","0","72","72","72","Sun Sep 18 16:15:32 2022","1500","The main experiment item","yes","FlankerTest.osexp","/Users/andrea/Desktop","no","mono","no","18","no","white","no","no","768","legacy","72","72","/Users/andrea/Desktop/AS_subject-1.csv","legacy","Lentiform Loewenfeld","3.3.12","0","s","h","NA","NA","NA","s","450","20766","NA","NA","NA","450","2","legacy","1024","2","48000","-16","experiment","HHSHH","1","odd","22189","NA","NA","136904","1417","137952","60744","1363","NA","NA","137955","NA","NA","138059","138510","138059","Flanker Test","72","32236","73","yes","1024"
"98.64864864864865","98.64864864864865","441.2162162162162","441.2162162162162","black","legacy","legacy","legacy","0","incongruent","uniform","1","undefined","1","h","0","0","0","73","0","73","73","0","73","0","73","0","0","73","73","73","Sun Sep 18 16:15:32 2022","1500","The main experiment item","yes","FlankerTest.osexp","/Users/andrea/Desktop","no","mono","no","18","no","white","no","no","768","legacy","73","73","/Users/andrea/Desktop/AS_subject-1.csv","legacy","Lentiform Loewenfeld","3.3.12","0","h","h","NA","NA","NA","h","414","20766","NA","NA","NA","414","2","legacy","1024","2","48000","-16","experiment","SSHSS","1","odd","22189","NA","NA","138512","1417","139561","60744","1363","NA","NA","139563","NA","NA","139668","140082","139668","Flanker Test","73","32650","74","yes","1024"
"98.66666666666667","98.66666666666667","441.17333333333335","441.17333333333335","black","legacy","legacy","legacy","0","incongruent","uniform","1","undefined","1","h","0","0","0","74","0","74","74","0","74","0","74","0","0","74","74","74","Sun Sep 18 16:15:32 2022","1500","The main experiment item","yes","FlankerTest.osexp","/Users/andrea/Desktop","no","mono","no","18","no","white","no","no","768","legacy","74","74","/Users/andrea/Desktop/AS_subject-1.csv","legacy","Lentiform Loewenfeld","3.3.12","0","h","h","NA","NA","NA","h","438","20766","NA","NA","NA","438","2","legacy","1024","2","48000","-16","experiment","SSHSS","1","odd","22189","NA","NA","140085","1417","141133","60744","1363","NA","NA","141135","NA","NA","141239","141678","141239","Flanker Test","74","33088","75","yes","1024"
"98.6842105263158","98.6842105263158","441.7894736842105","441.7894736842105","black","legacy","legacy","legacy","0","congruent","uniform","1","undefined","1","s","0","0","0","75","0","75","75","0","75","0","75","0","0","75","75","75","Sun Sep 18 16:15:32 2022","1500","The main experiment item","yes","FlankerTest.osexp","/Users/andrea/Desktop","no","mono","no","18","no","white","no","no","768","legacy","75","75","/Users/andrea/Desktop/AS_subject-1.csv","legacy","Lentiform Loewenfeld","3.3.12","0","s","h","NA","NA","NA","s","488","20766","NA","NA","NA","488","2","legacy","1024","2","48000","-16","experiment","SSSSS","1","odd","22189","NA","NA","141681","1417","142729","60744","1363","NA","NA","142731","NA","NA","142835","143324","142834","Flanker Test","75","33576","76","yes","1024"
"98.7012987012987","98.7012987012987","441.31168831168833","441.31168831168833","black","legacy","legacy","legacy","0","incongruent","uniform","1","undefined","1","h","0","0","0","76","0","76","76","0","76","0","76","0","0","76","76","76","Sun Sep 18 16:15:32 2022","1500","The main experiment item","yes","FlankerTest.osexp","/Users/andrea/Desktop","no","mono","no","18","no","white","no","no","768","legacy","76","76","/Users/andrea/Desktop/AS_subject-1.csv","legacy","Lentiform Loewenfeld","3.3.12","0","h","h","NA","NA","NA","h","405","20766","NA","NA","NA","405","2","legacy","1024","2","48000","-16","experiment","SSHSS","1","odd","22189","NA","NA","143327","1417","144374","60744","1363","NA","NA","144376","NA","NA","144481","144887","144481","Flanker Test","76","33981","77","yes","1024"
"98.71794871794872","98.71794871794872","440.28205128205127","440.28205128205127","black","legacy","legacy","legacy","0","congruent","uniform","1","undefined","1","h","0","0","0","77","0","77","77","0","77","0","77","0","0","77","77","77","Sun Sep 18 16:15:32 2022","1500","The main experiment item","yes","FlankerTest.osexp","/Users/andrea/Desktop","no","mono","no","18","no","white","no","no","768","legacy","77","77","/Users/andrea/Desktop/AS_subject-1.csv","legacy","Lentiform Loewenfeld","3.3.12","0","h","h","NA","NA","NA","h","361","20766","NA","NA","NA","361","2","legacy","1024","2","48000","-16","experiment","HHHHH","1","odd","22189","NA","NA","144890","1417","145938","60744","1363","NA","NA","145940","NA","NA","146045","146407","146044","Flanker Test","77","34342","78","yes","1024"
"98.73417721518987","98.73417721518987","440.50632911392404","440.50632911392404","black","legacy","legacy","legacy","0","incongruent","uniform","1","undefined","1","s","0","0","0","78","0","78","78","0","78","0","78","0","0","78","78","78","Sun Sep 18 16:15:32 2022","1500","The main experiment item","yes","FlankerTest.osexp","/Users/andrea/Desktop","no","mono","no","18","no","white","no","no","768","legacy","78","78","/Users/andrea/Desktop/AS_subject-1.csv","legacy","Lentiform Loewenfeld","3.3.12","0","s","h","NA","NA","NA","s","458","20766","NA","NA","NA","458","2","legacy","1024","2","48000","-16","experiment","HHSHH","1","odd","22189","NA","NA","146410","1417","147458","60744","1363","NA","NA","147460","NA","NA","147564","148023","147564","Flanker Test","78","34800","79","yes","1024"
"98.75","98.75","440.1875","440.1875","black","legacy","legacy","legacy","0","incongruent","uniform","1","undefined","1","h","0","0","0","79","0","79","79","0","79","0","79","0","0","79","79","79","Sun Sep 18 16:15:32 2022","1500","The main experiment item","yes","FlankerTest.osexp","/Users/andrea/Desktop","no","mono","no","18","no","white","no","no","768","legacy","79","79","/Users/andrea/Desktop/AS_subject-1.csv","legacy","Lentiform Loewenfeld","3.3.12","0","h","h","NA","NA","NA","h","415","20766","NA","NA","NA","415","2","legacy","1024","2","48000","-16","experiment","SSHSS","1","odd","22189","NA","NA","148026","1417","149072","60744","1363","NA","NA","149075","NA","NA","149179","149595","149179","Flanker Test","79","35215","80","yes","1024"
"98.76543209876543","98.76543209876543","439.6296296296296","439.6296296296296","black","legacy","legacy","legacy","0","congruent","uniform","1","undefined","1","s","0","0","0","80","0","80","80","0","80","0","80","0","0","80","80","80","Sun Sep 18 16:15:32 2022","600","The main experiment item","yes","FlankerTest.osexp","/Users/andrea/Desktop","no","mono","no","18","no","white","no","no","768","legacy","0","79","/Users/andrea/Desktop/AS_subject-1.csv","legacy","Lentiform Loewenfeld","3.3.12","0","s","h","NA","s","NA","s","395","20766","NA","7634","NA","395","2","legacy","1024","2","48000","-16","experiment","SSSSS","1","odd","22189","158268","NA","149598","1417","158290","60744","1363","NA","NA","158292","150633","NA","158397","158793","158397","Flanker Test","80","35610","81","yes","1024"
"98.78048780487805","98.78048780487805","439.0853658536585","439.0853658536585","black","legacy","legacy","legacy","0","congruent","uniform","1","undefined","1","s","0","0","0","81","0","81","81","0","81","0","81","0","0","81","81","81","Sun Sep 18 16:15:32 2022","600","The main experiment item","yes","FlankerTest.osexp","/Users/andrea/Desktop","no","mono","no","18","no","white","no","no","768","legacy","1","79","/Users/andrea/Desktop/AS_subject-1.csv","legacy","Lentiform Loewenfeld","3.3.12","0","s","h","NA","s","NA","s","395","20766","NA","7634","NA","395","2","legacy","1024","2","48000","-16","experiment","SSSSS","1","odd","22189","158268","NA","158801","1417","159859","60744","1363","NA","NA","159861","150633","NA","159965","160361","159965","Flanker Test","81","36005","82","yes","1024"
"97.59036144578313","97.59036144578313","437.67469879518075","437.67469879518075","black","legacy","legacy","legacy","0","incongruent","uniform","0","undefined","0","h","0","0","0","82","0","82","82","0","82","0","82","0","0","82","82","82","Sun Sep 18 16:15:32 2022","600","The main experiment item","yes","FlankerTest.osexp","/Users/andrea/Desktop","no","mono","no","18","no","white","no","no","768","legacy","2","79","/Users/andrea/Desktop/AS_subject-1.csv","legacy","Lentiform Loewenfeld","3.3.12","0","s","h","NA","s","NA","s","322","20766","NA","7634","NA","322","2","legacy","1024","2","48000","-16","experiment","SSHSS","1","odd","22189","158268","NA","160364","1417","161412","60744","1363","NA","NA","161414","150633","NA","161519","161842","161518","Flanker Test","81","36327","83","yes","1024"
"97.61904761904762","97.61904761904762","436.8095238095238","436.8095238095238","black","legacy","legacy","legacy","0","congruent","uniform","1","undefined","1","s","0","0","0","83","0","83","83","0","83","0","83","0","0","83","83","83","Sun Sep 18 16:15:32 2022","600","The main experiment item","yes","FlankerTest.osexp","/Users/andrea/Desktop","no","mono","no","18","no","white","no","no","768","legacy","3","79","/Users/andrea/Desktop/AS_subject-1.csv","legacy","Lentiform Loewenfeld","3.3.12","0","s","h","NA","s","NA","s","365","20766","NA","7634","NA","365","2","legacy","1024","2","48000","-16","experiment","SSSSS","1","odd","22189","158268","NA","162349","1417","163392","161845","1363","NA","NA","163396","150633","NA","163498","163864","163497","Flanker Test","82","36692","84","yes","1024"
"96.47058823529412","96.47058823529412","435.90588235294115","435.90588235294115","black","legacy","legacy","legacy","0","incongruent","uniform","0","undefined","0","s","0","0","0","84","0","84","84","0","84","0","84","0","0","84","84","84","Sun Sep 18 16:15:32 2022","600","The main experiment item","yes","FlankerTest.osexp","/Users/andrea/Desktop","no","mono","no","18","no","white","no","no","768","legacy","4","79","/Users/andrea/Desktop/AS_subject-1.csv","legacy","Lentiform Loewenfeld","3.3.12","0","h","h","NA","s","NA","h","360","20766","NA","7634","NA","360","2","legacy","1024","2","48000","-16","experiment","HHSHH","1","odd","22189","158268","NA","163866","1417","164923","161845","1363","NA","NA","164926","150633","NA","165030","165391","165030","Flanker Test","82","37052","85","yes","1024"
"96.51162790697674","96.51162790697674","435.4651162790698","435.4651162790698","black","legacy","legacy","legacy","0","congruent","uniform","1","undefined","1","s","0","0","0","85","0","85","85","0","85","0","85","0","0","85","85","85","Sun Sep 18 16:15:32 2022","600","The main experiment item","yes","FlankerTest.osexp","/Users/andrea/Desktop","no","mono","no","18","no","white","no","no","768","legacy","5","79","/Users/andrea/Desktop/AS_subject-1.csv","legacy","Lentiform Loewenfeld","3.3.12","0","s","h","NA","s","NA","s","398","20766","NA","7634","NA","398","2","legacy","1024","2","48000","-16","experiment","SSSSS","1","odd","22189","158268","NA","165900","1417","166954","165393","1363","NA","NA","166957","150633","NA","167061","167460","167061","Flanker Test","83","37450","86","yes","1024"
"96.55172413793103","96.55172413793103","434.7011494252874","434.7011494252874","black","legacy","legacy","legacy","0","congruent","uniform","1","undefined","1","h","0","0","0","86","0","86","86","0","86","0","86","0","0","86","86","86","Sun Sep 18 16:15:32 2022","600","The main experiment item","yes","FlankerTest.osexp","/Users/andrea/Desktop","no","mono","no","18","no","white","no","no","768","legacy","6","79","/Users/andrea/Desktop/AS_subject-1.csv","legacy","Lentiform Loewenfeld","3.3.12","0","h","h","NA","s","NA","h","369","20766","NA","7634","NA","369","2","legacy","1024","2","48000","-16","experiment","HHHHH","1","odd","22189","158268","NA","167462","1417","168512","165393","1363","NA","NA","168514","150633","NA","168618","168988","168618","Flanker Test","84","37819","87","yes","1024"
"96.5909090909091","96.5909090909091","434.1136363636364","434.1136363636364","black","legacy","legacy","legacy","0","incongruent","uniform","1","undefined","1","s","0","0","0","87","0","87","87","0","87","0","87","0","0","87","87","87","Sun Sep 18 16:15:32 2022","600","The main experiment item","yes","FlankerTest.osexp","/Users/andrea/Desktop","no","mono","no","18","no","white","no","no","768","legacy","7","79","/Users/andrea/Desktop/AS_subject-1.csv","legacy","Lentiform Loewenfeld","3.3.12","0","s","h","NA","s","NA","s","383","20766","NA","7634","NA","383","2","legacy","1024","2","48000","-16","experiment","HHSHH","1","odd","22189","158268","NA","168997","1417","170056","165393","1363","NA","NA","170059","150633","NA","170164","170548","170163","Flanker Test","85","38202","88","yes","1024"
"96.62921348314607","96.62921348314607","434.17977528089887","434.17977528089887","black","legacy","legacy","legacy","0","incongruent","uniform","1","undefined","1","s","0","0","0","88","0","88","88","0","88","0","88","0","0","88","88","88","Sun Sep 18 16:15:32 2022","600","The main experiment item","yes","FlankerTest.osexp","/Users/andrea/Desktop","no","mono","no","18","no","white","no","no","768","legacy","8","79","/Users/andrea/Desktop/AS_subject-1.csv","legacy","Lentiform Loewenfeld","3.3.12","0","s","h","NA","s","NA","s","440","20766","NA","7634","NA","440","2","legacy","1024","2","48000","-16","experiment","HHSHH","1","odd","22189","158268","NA","170551","1417","171600","165393","1363","NA","NA","171602","150633","NA","171706","172147","171706","Flanker Test","86","38642","89","yes","1024"
"96.66666666666667","96.66666666666667","433.5444444444444","433.5444444444444","black","legacy","legacy","legacy","0","incongruent","uniform","1","undefined","1","s","0","0","0","89","0","89","89","0","89","0","89","0","0","89","89","89","Sun Sep 18 16:15:32 2022","600","The main experiment item","yes","FlankerTest.osexp","/Users/andrea/Desktop","no","mono","no","18","no","white","no","no","768","legacy","9","79","/Users/andrea/Desktop/AS_subject-1.csv","legacy","Lentiform Loewenfeld","3.3.12","0","s","h","NA","s","NA","s","377","20766","NA","7634","NA","377","2","legacy","1024","2","48000","-16","experiment","HHSHH","1","odd","22189","158268","NA","172150","1417","173197","165393","1363","NA","NA","173199","150633","NA","173303","173681","173303","Flanker Test","87","39019","90","yes","1024"
"96.7032967032967","96.7032967032967","433.56043956043953","433.56043956043953","black","legacy","legacy","legacy","0","congruent","uniform","1","undefined","1","h","0","0","0","90","0","90","90","0","90","0","90","0","0","90","90","90","Sun Sep 18 16:15:32 2022","600","The main experiment item","yes","FlankerTest.osexp","/Users/andrea/Desktop","no","mono","no","18","no","white","no","no","768","legacy","10","79","/Users/andrea/Desktop/AS_subject-1.csv","legacy","Lentiform Loewenfeld","3.3.12","0","h","h","NA","s","NA","h","435","20766","NA","7634","NA","435","2","legacy","1024","2","48000","-16","experiment","HHHHH","1","odd","22189","158268","NA","173684","1417","174731","165393","1363","NA","NA","174733","150633","NA","174836","175272","174836","Flanker Test","88","39454","91","yes","1024"
"96.73913043478261","96.73913043478261","433.6304347826087","433.6304347826087","black","legacy","legacy","legacy","0","congruent","uniform","1","undefined","1","h","0","0","0","91","0","91","91","0","91","0","91","0","0","91","91","91","Sun Sep 18 16:15:32 2022","600","The main experiment item","yes","FlankerTest.osexp","/Users/andrea/Desktop","no","mono","no","18","no","white","no","no","768","legacy","11","79","/Users/andrea/Desktop/AS_subject-1.csv","legacy","Lentiform Loewenfeld","3.3.12","0","h","h","NA","s","NA","h","440","20766","NA","7634","NA","440","2","legacy","1024","2","48000","-16","experiment","HHHHH","1","odd","22189","158268","NA","175275","1417","176323","165393","1363","NA","NA","176326","150633","NA","176430","176871","176430","Flanker Test","89","39894","92","yes","1024"
"96.7741935483871","96.7741935483871","432.6666666666667","432.6666666666667","black","legacy","legacy","legacy","0","incongruent","uniform","1","undefined","1","s","0","0","0","92","0","92","92","0","92","0","92","0","0","92","92","92","Sun Sep 18 16:15:32 2022","600","The main experiment item","yes","FlankerTest.osexp","/Users/andrea/Desktop","no","mono","no","18","no","white","no","no","768","legacy","12","79","/Users/andrea/Desktop/AS_subject-1.csv","legacy","Lentiform Loewenfeld","3.3.12","0","s","h","NA","s","NA","s","344","20766","NA","7634","NA","344","2","legacy","1024","2","48000","-16","experiment","HHSHH","1","odd","22189","158268","NA","176874","1417","177921","165393","1363","NA","NA","177923","150633","NA","178027","178372","178027","Flanker Test","90","40238","93","yes","1024"
"96.80851063829788","96.80851063829788","432.468085106383","432.468085106383","black","legacy","legacy","legacy","0","congruent","uniform","1","undefined","1","h","0","0","0","93","0","93","93","0","93","0","93","0","0","93","93","93","Sun Sep 18 16:15:32 2022","600","The main experiment item","yes","FlankerTest.osexp","/Users/andrea/Desktop","no","mono","no","18","no","white","no","no","768","legacy","13","79","/Users/andrea/Desktop/AS_subject-1.csv","legacy","Lentiform Loewenfeld","3.3.12","0","h","h","NA","s","NA","h","414","20766","NA","7634","NA","414","2","legacy","1024","2","48000","-16","experiment","HHHHH","1","odd","22189","158268","NA","178375","1417","179423","165393","1363","NA","NA","179425","150633","NA","179529","179943","179529","Flanker Test","91","40652","94","yes","1024"
"96.84210526315789","96.84210526315789","431.8","431.8","black","legacy","legacy","legacy","0","congruent","uniform","1","undefined","1","s","0","0","0","94","0","94","94","0","94","0","94","0","0","94","94","94","Sun Sep 18 16:15:32 2022","600","The main experiment item","yes","FlankerTest.osexp","/Users/andrea/Desktop","no","mono","no","18","no","white","no","no","768","legacy","14","79","/Users/andrea/Desktop/AS_subject-1.csv","legacy","Lentiform Loewenfeld","3.3.12","0","s","h","NA","s","NA","s","369","20766","NA","7634","NA","369","2","legacy","1024","2","48000","-16","experiment","SSSSS","1","odd","22189","158268","NA","179946","1417","180993","165393","1363","NA","NA","180995","150633","NA","181099","181469","181099","Flanker Test","92","41021","95","yes","1024"
"96.875","96.875","431.7083333333333","431.7083333333333","black","legacy","legacy","legacy","0","incongruent","uniform","1","undefined","1","h","0","0","0","95","0","95","95","0","95","0","95","0","0","95","95","95","Sun Sep 18 16:15:32 2022","600","The main experiment item","yes","FlankerTest.osexp","/Users/andrea/Desktop","no","mono","no","18","no","white","no","no","768","legacy","15","79","/Users/andrea/Desktop/AS_subject-1.csv","legacy","Lentiform Loewenfeld","3.3.12","0","h","h","NA","s","NA","h","423","20766","NA","7634","NA","423","2","legacy","1024","2","48000","-16","experiment","SSHSS","1","odd","22189","158268","NA","181472","1417","182520","165393","1363","NA","NA","182522","150633","NA","182626","183050","182626","Flanker Test","93","41444","96","yes","1024"
"96.90721649484536","96.90721649484536","432","432","black","legacy","legacy","legacy","0","incongruent","uniform","1","undefined","1","h","0","0","0","96","0","96","96","0","96","0","96","0","0","96","96","96","Sun Sep 18 16:15:32 2022","600","The main experiment item","yes","FlankerTest.osexp","/Users/andrea/Desktop","no","mono","no","18","no","white","no","no","768","legacy","16","79","/Users/andrea/Desktop/AS_subject-1.csv","legacy","Lentiform Loewenfeld","3.3.12","0","h","h","NA","s","NA","h","460","20766","NA","7634","NA","460","2","legacy","1024","2","48000","-16","experiment","SSHSS","1","odd","22189","158268","NA","183053","1417","184100","165393","1363","NA","NA","184102","150633","NA","184206","184667","184206","Flanker Test","94","41904","97","yes","1024"
"96.93877551020408","96.93877551020408","432.31632653061223","432.31632653061223","black","legacy","legacy","legacy","0","incongruent","uniform","1","undefined","1","s","0","0","0","97","0","97","97","0","97","0","97","0","0","97","97","97","Sun Sep 18 16:15:32 2022","600","The main experiment item","yes","FlankerTest.osexp","/Users/andrea/Desktop","no","mono","no","18","no","white","no","no","768","legacy","17","79","/Users/andrea/Desktop/AS_subject-1.csv","legacy","Lentiform Loewenfeld","3.3.12","0","s","h","NA","s","NA","s","463","20766","NA","7634","NA","463","2","legacy","1024","2","48000","-16","experiment","HHSHH","1","odd","22189","158268","NA","184670","1417","185718","165393","1363","NA","NA","185720","150633","NA","185824","186288","185824","Flanker Test","95","42367","98","yes","1024"
"96.96969696969697","96.96969696969697","432.8787878787879","432.8787878787879","black","legacy","legacy","legacy","0","incongruent","uniform","1","undefined","1","h","0","0","0","98","0","98","98","0","98","0","98","0","0","98","98","98","Sun Sep 18 16:15:32 2022","600","The main experiment item","yes","FlankerTest.osexp","/Users/andrea/Desktop","no","mono","no","18","no","white","no","no","768","legacy","18","79","/Users/andrea/Desktop/AS_subject-1.csv","legacy","Lentiform Loewenfeld","3.3.12","0","h","h","NA","s","NA","h","488","20766","NA","7634","NA","488","2","legacy","1024","2","48000","-16","experiment","SSHSS","1","odd","22189","158268","NA","186291","1417","187338","165393","1363","NA","NA","187340","150633","NA","187445","187934","187445","Flanker Test","96","42855","99","yes","1024"
"97","97","433.55","433.55","black","legacy","legacy","legacy","0","incongruent","uniform","1","undefined","1","s","0","0","0","99","0","99","99","0","99","0","99","0","0","99","99","99","Sun Sep 18 16:15:32 2022","600","The main experiment item","yes","FlankerTest.osexp","/Users/andrea/Desktop","no","mono","no","18","no","white","no","no","768","legacy","19","79","/Users/andrea/Desktop/AS_subject-1.csv","legacy","Lentiform Loewenfeld","3.3.12","0","s","h","NA","s","NA","s","500","20766","NA","7634","NA","500","2","legacy","1024","2","48000","-16","experiment","HHSHH","1","odd","22189","158268","NA","187937","1417","188984","165393","1363","NA","NA","188986","150633","NA","189090","189591","189090","Flanker Test","97","43355","100","yes","1024"
"97.02970297029702","97.02970297029702","434.2970297029703","434.2970297029703","black","legacy","legacy","legacy","0","incongruent","uniform","1","undefined","1","h","0","0","0","100","0","100","100","0","100","0","100","0","0","100","100","100","Sun Sep 18 16:15:32 2022","600","The main experiment item","yes","FlankerTest.osexp","/Users/andrea/Desktop","no","mono","no","18","no","white","no","no","768","legacy","20","79","/Users/andrea/Desktop/AS_subject-1.csv","legacy","Lentiform Loewenfeld","3.3.12","0","h","h","NA","s","NA","h","509","20766","NA","7634","NA","509","2","legacy","1024","2","48000","-16","experiment","SSHSS","1","odd","22189","158268","NA","189594","1417","190641","165393","1363","NA","NA","190643","150633","NA","190747","191257","190747","Flanker Test","98","43864","101","yes","1024"
"97.05882352941177","97.05882352941177","434.3333333333333","434.3333333333333","black","legacy","legacy","legacy","0","congruent","uniform","1","undefined","1","s","0","0","0","101","0","101","101","0","101","0","101","0","0","101","101","101","Sun Sep 18 16:15:32 2022","600","The main experiment item","yes","FlankerTest.osexp","/Users/andrea/Desktop","no","mono","no","18","no","white","no","no","768","legacy","21","79","/Users/andrea/Desktop/AS_subject-1.csv","legacy","Lentiform Loewenfeld","3.3.12","0","s","h","NA","s","NA","s","438","20766","NA","7634","NA","438","2","legacy","1024","2","48000","-16","experiment","SSSSS","1","odd","22189","158268","NA","191261","1417","192308","165393","1363","NA","NA","192310","150633","NA","192414","192853","192414","Flanker Test","99","44302","102","yes","1024"
"97.0873786407767","97.0873786407767","433.94174757281553","433.94174757281553","black","legacy","legacy","legacy","0","congruent","uniform","1","undefined","1","h","0","0","0","102","0","102","102","0","102","0","102","0","0","102","102","102","Sun Sep 18 16:15:32 2022","600","The main experiment item","yes","FlankerTest.osexp","/Users/andrea/Desktop","no","mono","no","18","no","white","no","no","768","legacy","22","79","/Users/andrea/Desktop/AS_subject-1.csv","legacy","Lentiform Loewenfeld","3.3.12","0","h","h","NA","s","NA","h","394","20766","NA","7634","NA","394","2","legacy","1024","2","48000","-16","experiment","HHHHH","1","odd","22189","158268","NA","192856","1417","193898","165393","1363","NA","NA","193900","150633","NA","194004","194399","194004","Flanker Test","100","44696","103","yes","1024"
"97.11538461538461","97.11538461538461","434.02884615384613","434.02884615384613","black","legacy","legacy","legacy","0","congruent","uniform","1","undefined","1","h","0","0","0","103","0","103","103","0","103","0","103","0","0","103","103","103","Sun Sep 18 16:15:32 2022","600","The main experiment item","yes","FlankerTest.osexp","/Users/andrea/Desktop","no","mono","no","18","no","white","no","no","768","legacy","23","79","/Users/andrea/Desktop/AS_subject-1.csv","legacy","Lentiform Loewenfeld","3.3.12","0","h","h","NA","s","NA","h","443","20766","NA","7634","NA","443","2","legacy","1024","2","48000","-16","experiment","HHHHH","1","odd","22189","158268","NA","194402","1417","195450","165393","1363","NA","NA","195452","150633","NA","195556","196000","195556","Flanker Test","101","45139","104","yes","1024"
"97.14285714285714","97.14285714285714","433.73333333333335","433.73333333333335","black","legacy","legacy","legacy","0","congruent","uniform","1","undefined","1","s","0","0","0","104","0","104","104","0","104","0","104","0","0","104","104","104","Sun Sep 18 16:15:32 2022","600","The main experiment item","yes","FlankerTest.osexp","/Users/andrea/Desktop","no","mono","no","18","no","white","no","no","768","legacy","24","79","/Users/andrea/Desktop/AS_subject-1.csv","legacy","Lentiform Loewenfeld","3.3.12","0","s","h","NA","s","NA","s","403","20766","NA","7634","NA","403","2","legacy","1024","2","48000","-16","experiment","SSSSS","1","odd","22189","158268","NA","196003","1417","197049","165393","1363","NA","NA","197051","150633","NA","197156","197560","197155","Flanker Test","102","45542","105","yes","1024"
"97.16981132075472","97.16981132075472","433.79245283018867","433.79245283018867","black","legacy","legacy","legacy","0","incongruent","uniform","1","undefined","1","h","0","0","0","105","0","105","105","0","105","0","105","0","0","105","105","105","Sun Sep 18 16:15:32 2022","600","The main experiment item","yes","FlankerTest.osexp","/Users/andrea/Desktop","no","mono","no","18","no","white","no","no","768","legacy","25","79","/Users/andrea/Desktop/AS_subject-1.csv","legacy","Lentiform Loewenfeld","3.3.12","0","h","h","NA","s","NA","h","440","20766","NA","7634","NA","440","2","legacy","1024","2","48000","-16","experiment","SSHSS","1","odd","22189","158268","NA","197563","1417","198611","165393","1363","NA","NA","198613","150633","NA","198717","199158","198717","Flanker Test","103","45982","106","yes","1024"
"97.19626168224299","97.19626168224299","433.4579439252336","433.4579439252336","black","legacy","legacy","legacy","0","congruent","uniform","1","undefined","1","s","0","0","0","106","0","106","106","0","106","0","106","0","0","106","106","106","Sun Sep 18 16:15:32 2022","600","The main experiment item","yes","FlankerTest.osexp","/Users/andrea/Desktop","no","mono","no","18","no","white","no","no","768","legacy","26","79","/Users/andrea/Desktop/AS_subject-1.csv","legacy","Lentiform Loewenfeld","3.3.12","0","s","h","NA","s","NA","s","398","20766","NA","7634","NA","398","2","legacy","1024","2","48000","-16","experiment","SSSSS","1","odd","22189","158268","NA","199161","1417","200209","165393","1363","NA","NA","200211","150633","NA","200316","200715","200316","Flanker Test","104","46380","107","yes","1024"
"97.22222222222223","97.22222222222223","432.69444444444446","432.69444444444446","black","legacy","legacy","legacy","0","congruent","uniform","1","undefined","1","h","0","0","0","107","0","107","107","0","107","0","107","0","0","107","107","107","Sun Sep 18 16:15:32 2022","600","The main experiment item","yes","FlankerTest.osexp","/Users/andrea/Desktop","no","mono","no","18","no","white","no","no","768","legacy","27","79","/Users/andrea/Desktop/AS_subject-1.csv","legacy","Lentiform Loewenfeld","3.3.12","0","h","h","NA","s","NA","h","351","20766","NA","7634","NA","351","2","legacy","1024","2","48000","-16","experiment","HHHHH","1","odd","22189","158268","NA","200718","1417","201763","165393","1363","NA","NA","201765","150633","NA","201870","202222","201869","Flanker Test","105","46731","108","yes","1024"
"97.24770642201835","97.24770642201835","434.56880733944956","434.56880733944956","black","legacy","legacy","legacy","0","incongruent","uniform","1","undefined","1","h","0","0","0","108","0","108","108","0","108","0","108","0","0","108","108","108","Sun Sep 18 16:15:32 2022","600","The main experiment item","yes","FlankerTest.osexp","/Users/andrea/Desktop","no","mono","no","18","no","white","no","no","768","legacy","28","79","/Users/andrea/Desktop/AS_subject-1.csv","legacy","Lentiform Loewenfeld","3.3.12","0","h","h","NA","s","NA","h","637","20766","NA","7634","NA","637","2","legacy","1024","2","48000","-16","experiment","SSHSS","1","odd","22189","158268","NA","202225","1417","203272","165393","1363","NA","NA","203274","150633","NA","203378","204016","203378","Flanker Test","106","47368","109","yes","1024"
"97.27272727272727","97.27272727272727","434.92727272727274","434.92727272727274","black","legacy","legacy","legacy","0","incongruent","uniform","1","undefined","1","s","0","0","0","109","0","109","109","0","109","0","109","0","0","109","109","109","Sun Sep 18 16:15:32 2022","600","The main experiment item","yes","FlankerTest.osexp","/Users/andrea/Desktop","no","mono","no","18","no","white","no","no","768","legacy","29","79","/Users/andrea/Desktop/AS_subject-1.csv","legacy","Lentiform Loewenfeld","3.3.12","0","s","h","NA","s","NA","s","474","20766","NA","7634","NA","474","2","legacy","1024","2","48000","-16","experiment","HHSHH","1","odd","22189","158268","NA","204523","1417","205572","165393","1363","204019","NA","205574","150633","NA","205678","206153","205678","Flanker Test","107","47842","110","yes","1024"
"97.29729729729729","97.29729729729729","435.4144144144144","435.4144144144144","black","legacy","legacy","legacy","0","incongruent","uniform","1","undefined","1","h","0","0","0","110","0","110","110","0","110","0","110","0","0","110","110","110","Sun Sep 18 16:15:32 2022","600","The main experiment item","yes","FlankerTest.osexp","/Users/andrea/Desktop","no","mono","no","18","no","white","no","no","768","legacy","30","79","/Users/andrea/Desktop/AS_subject-1.csv","legacy","Lentiform Loewenfeld","3.3.12","0","h","h","NA","s","NA","h","489","20766","NA","7634","NA","489","2","legacy","1024","2","48000","-16","experiment","SSHSS","1","odd","22189","158268","NA","206156","1417","207202","165393","1363","204019","NA","207204","150633","NA","207308","207798","207308","Flanker Test","108","48331","111","yes","1024"
"97.32142857142857","97.32142857142857","434.58035714285717","434.58035714285717","black","legacy","legacy","legacy","0","congruent","uniform","1","undefined","1","h","0","0","0","111","0","111","111","0","111","0","111","0","0","111","111","111","Sun Sep 18 16:15:32 2022","600","The main experiment item","yes","FlankerTest.osexp","/Users/andrea/Desktop","no","mono","no","18","no","white","no","no","768","legacy","31","79","/Users/andrea/Desktop/AS_subject-1.csv","legacy","Lentiform Loewenfeld","3.3.12","0","h","h","NA","s","NA","h","342","20766","NA","7634","NA","342","2","legacy","1024","2","48000","-16","experiment","HHHHH","1","odd","22189","158268","NA","207802","1417","208855","165393","1363","204019","NA","208858","150633","NA","208963","209306","208962","Flanker Test","109","48673","112","yes","1024"
"97.34513274336283","97.34513274336283","434.4159292035398","434.4159292035398","black","legacy","legacy","legacy","0","incongruent","uniform","1","undefined","1","h","0","0","0","112","0","112","112","0","112","0","112","0","0","112","112","112","Sun Sep 18 16:15:32 2022","600","The main experiment item","yes","FlankerTest.osexp","/Users/andrea/Desktop","no","mono","no","18","no","white","no","no","768","legacy","32","79","/Users/andrea/Desktop/AS_subject-1.csv","legacy","Lentiform Loewenfeld","3.3.12","0","h","h","NA","s","NA","h","416","20766","NA","7634","NA","416","2","legacy","1024","2","48000","-16","experiment","SSHSS","1","odd","22189","158268","NA","209310","1417","210358","165393","1363","204019","NA","210360","150633","NA","210464","210881","210464","Flanker Test","110","49089","113","yes","1024"
"97.36842105263158","97.36842105263158","433.4561403508772","433.4561403508772","black","legacy","legacy","legacy","0","congruent","uniform","1","undefined","1","s","0","0","0","113","0","113","113","0","113","0","113","0","0","113","113","113","Sun Sep 18 16:15:32 2022","600","The main experiment item","yes","FlankerTest.osexp","/Users/andrea/Desktop","no","mono","no","18","no","white","no","no","768","legacy","33","79","/Users/andrea/Desktop/AS_subject-1.csv","legacy","Lentiform Loewenfeld","3.3.12","0","s","h","NA","s","NA","s","325","20766","NA","7634","NA","325","2","legacy","1024","2","48000","-16","experiment","SSSSS","1","odd","22189","158268","NA","210891","1417","211948","165393","1363","204019","NA","211950","150633","NA","212054","212380","212054","Flanker Test","111","49414","114","yes","1024"
"97.3913043478261","97.3913043478261","432.9391304347826","432.9391304347826","black","legacy","legacy","legacy","0","congruent","uniform","1","undefined","1","s","0","0","0","114","0","114","114","0","114","0","114","0","0","114","114","114","Sun Sep 18 16:15:32 2022","600","The main experiment item","yes","FlankerTest.osexp","/Users/andrea/Desktop","no","mono","no","18","no","white","no","no","768","legacy","34","79","/Users/andrea/Desktop/AS_subject-1.csv","legacy","Lentiform Loewenfeld","3.3.12","0","s","h","NA","s","NA","s","374","20766","NA","7634","NA","374","2","legacy","1024","2","48000","-16","experiment","SSSSS","1","odd","22189","158268","NA","212383","1417","213428","165393","1363","204019","NA","213430","150633","NA","213534","213909","213534","Flanker Test","112","49788","115","yes","1024"
"96.55172413793103","96.55172413793103","432.1810344827586","432.1810344827586","black","legacy","legacy","legacy","0","incongruent","uniform","0","undefined","0","s","0","0","0","115","0","115","115","0","115","0","115","0","0","115","115","115","Sun Sep 18 16:15:32 2022","600","The main experiment item","yes","FlankerTest.osexp","/Users/andrea/Desktop","no","mono","no","18","no","white","no","no","768","legacy","35","79","/Users/andrea/Desktop/AS_subject-1.csv","legacy","Lentiform Loewenfeld","3.3.12","0","h","h","NA","s","NA","h","345","20766","NA","7634","NA","345","2","legacy","1024","2","48000","-16","experiment","HHSHH","1","odd","22189","158268","NA","213912","1417","214959","165393","1363","204019","NA","214961","150633","NA","215065","215411","215065","Flanker Test","112","50133","116","yes","1024"
"96.58119658119658","96.58119658119658","431.56410256410254","431.56410256410254","black","legacy","legacy","legacy","0","congruent","uniform","1","undefined","1","s","0","0","0","116","0","116","116","0","116","0","116","0","0","116","116","116","Sun Sep 18 16:15:32 2022","600","The main experiment item","yes","FlankerTest.osexp","/Users/andrea/Desktop","no","mono","no","18","no","white","no","no","768","legacy","36","79","/Users/andrea/Desktop/AS_subject-1.csv","legacy","Lentiform Loewenfeld","3.3.12","0","s","h","NA","s","NA","s","360","20766","NA","7634","NA","360","2","legacy","1024","2","48000","-16","experiment","SSSSS","1","odd","22189","158268","NA","215918","1417","216966","215414","1363","204019","NA","216967","150633","NA","217071","217432","217071","Flanker Test","113","50493","117","yes","1024"
"96.61016949152543","96.61016949152543","432.04237288135596","432.04237288135596","black","legacy","legacy","legacy","0","incongruent","uniform","1","undefined","1","s","0","0","0","117","0","117","117","0","117","0","117","0","0","117","117","117","Sun Sep 18 16:15:32 2022","600","The main experiment item","yes","FlankerTest.osexp","/Users/andrea/Desktop","no","mono","no","18","no","white","no","no","768","legacy","37","79","/Users/andrea/Desktop/AS_subject-1.csv","legacy","Lentiform Loewenfeld","3.3.12","0","s","h","NA","s","NA","s","488","20766","NA","7634","NA","488","2","legacy","1024","2","48000","-16","experiment","HHSHH","1","odd","22189","158268","NA","217435","1417","218483","215414","1363","204019","NA","218485","150633","NA","218590","219079","218589","Flanker Test","114","50981","118","yes","1024"
"96.63865546218487","96.63865546218487","431.672268907563","431.672268907563","black","legacy","legacy","legacy","0","congruent","uniform","1","undefined","1","s","0","0","0","118","0","118","118","0","118","0","118","0","0","118","118","118","Sun Sep 18 16:15:32 2022","600","The main experiment item","yes","FlankerTest.osexp","/Users/andrea/Desktop","no","mono","no","18","no","white","no","no","768","legacy","38","79","/Users/andrea/Desktop/AS_subject-1.csv","legacy","Lentiform Loewenfeld","3.3.12","0","s","h","NA","s","NA","s","388","20766","NA","7634","NA","388","2","legacy","1024","2","48000","-16","experiment","SSSSS","1","odd","22189","158268","NA","219082","1417","220134","215414","1363","204019","NA","220136","150633","NA","220240","220629","220240","Flanker Test","115","51369","119","yes","1024"
"96.66666666666667","96.66666666666667","431.40833333333336","431.40833333333336","black","legacy","legacy","legacy","0","incongruent","uniform","1","undefined","1","h","0","0","0","119","0","119","119","0","119","0","119","0","0","119","119","119","Sun Sep 18 16:15:32 2022","600","The main experiment item","yes","FlankerTest.osexp","/Users/andrea/Desktop","no","mono","no","18","no","white","no","no","768","legacy","39","79","/Users/andrea/Desktop/AS_subject-1.csv","legacy","Lentiform Loewenfeld","3.3.12","0","h","h","NA","s","NA","h","400","20766","NA","7634","NA","400","2","legacy","1024","2","48000","-16","experiment","SSHSS","1","odd","22189","158268","NA","220632","1417","221680","215414","1363","204019","NA","221682","150633","NA","221786","222187","221786","Flanker Test","116","51769","120","yes","1024"
"96.69421487603306","96.69421487603306","431.3388429752066","431.3388429752066","black","legacy","legacy","legacy","0","congruent","uniform","1","undefined","1","s","0","0","0","120","0","120","120","0","120","0","120","0","0","120","120","120","Sun Sep 18 16:15:32 2022","600","The main experiment item","yes","FlankerTest.osexp","/Users/andrea/Desktop","no","mono","no","18","no","white","no","no","768","legacy","40","79","/Users/andrea/Desktop/AS_subject-1.csv","legacy","Lentiform Loewenfeld","3.3.12","0","s","h","NA","s","NA","s","423","20766","NA","7634","NA","423","2","legacy","1024","2","48000","-16","experiment","SSSSS","1","odd","22189","158268","NA","222190","1417","223229","215414","1363","204019","NA","223231","150633","NA","223335","223759","223335","Flanker Test","117","52192","121","yes","1024"
"96.72131147540983","96.72131147540983","431.844262295082","431.844262295082","black","legacy","legacy","legacy","0","incongruent","uniform","1","undefined","1","s","0","0","0","121","0","121","121","0","121","0","121","0","0","121","121","121","Sun Sep 18 16:15:32 2022","600","The main experiment item","yes","FlankerTest.osexp","/Users/andrea/Desktop","no","mono","no","18","no","white","no","no","768","legacy","41","79","/Users/andrea/Desktop/AS_subject-1.csv","legacy","Lentiform Loewenfeld","3.3.12","0","s","h","NA","s","NA","s","493","20766","NA","7634","NA","493","2","legacy","1024","2","48000","-16","experiment","HHSHH","1","odd","22189","158268","NA","223762","1417","224811","215414","1363","204019","NA","224813","150633","NA","224917","225411","224917","Flanker Test","118","52685","122","yes","1024"
"96.7479674796748","96.7479674796748","433.1869918699187","433.1869918699187","black","legacy","legacy","legacy","0","incongruent","uniform","1","undefined","1","s","0","0","0","122","0","122","122","0","122","0","122","0","0","122","122","122","Sun Sep 18 16:15:32 2022","600","The main experiment item","yes","FlankerTest.osexp","/Users/andrea/Desktop","no","mono","no","18","no","white","no","no","768","legacy","42","79","/Users/andrea/Desktop/AS_subject-1.csv","legacy","Lentiform Loewenfeld","3.3.12","0","s","h","NA","s","NA","s","597","20766","NA","7634","NA","597","2","legacy","1024","2","48000","-16","experiment","HHSHH","1","odd","22189","158268","NA","225414","1417","226462","215414","1363","204019","NA","226464","150633","NA","226568","227166","226568","Flanker Test","119","53282","123","yes","1024"
"96.7741935483871","96.7741935483871","432.6532258064516","432.6532258064516","black","legacy","legacy","legacy","0","incongruent","uniform","1","undefined","1","s","0","0","0","123","0","123","123","0","123","0","123","0","0","123","123","123","Sun Sep 18 16:15:32 2022","600","The main experiment item","yes","FlankerTest.osexp","/Users/andrea/Desktop","no","mono","no","18","no","white","no","no","768","legacy","43","79","/Users/andrea/Desktop/AS_subject-1.csv","legacy","Lentiform Loewenfeld","3.3.12","0","s","h","NA","s","NA","s","367","20766","NA","7634","NA","367","2","legacy","1024","2","48000","-16","experiment","HHSHH","1","odd","22189","158268","NA","227169","1417","228216","215414","1363","204019","NA","228218","150633","NA","228321","228689","228321","Flanker Test","120","53649","124","yes","1024"
"96.8","96.8","431.76","431.76","black","legacy","legacy","legacy","0","congruent","uniform","1","undefined","1","s","0","0","0","124","0","124","124","0","124","0","124","0","0","124","124","124","Sun Sep 18 16:15:32 2022","600","The main experiment item","yes","FlankerTest.osexp","/Users/andrea/Desktop","no","mono","no","18","no","white","no","no","768","legacy","44","79","/Users/andrea/Desktop/AS_subject-1.csv","legacy","Lentiform Loewenfeld","3.3.12","0","s","h","NA","s","NA","s","321","20766","NA","7634","NA","321","2","legacy","1024","2","48000","-16","experiment","SSSSS","1","odd","22189","158268","NA","228691","1417","229739","215414","1363","204019","NA","229742","150633","NA","229846","230168","229846","Flanker Test","121","53970","125","yes","1024"
