acc,accuracy,average_response_time,avg_rt,background,canvas_backend,clock_backend,color_backend,condition,correct,correct_instructions1,correct_keyboard_response,correct_response,count_ISI,count_block1,count_block2,count_block3,count_errorFeedback,count_experiment,count_faster,count_finish,count_fixation,count_instructions1,count_instructions2,count_instructions3,count_keyboard_response,count_logger,count_new_sketchpad,count_sequence,count_stimulus,datetime,deadline,description,disable_garbage_collection,experiment_file,experiment_path,font_bold,font_family,font_italic,font_size,font_underline,foreground,form_clicks,fullscreen,height,keyboard_backend,live_row,live_row_block1,logfile,mouse_backend,opensesame_codename,opensesame_version,repeat_cycle,response,response_finish,response_instructions1,response_instructions2,response_instructions3,response_keyboard_response,response_new_sketchpad,response_time,response_time_finish,response_time_instructions1,response_time_instructions2,response_time_instructions3,response_time_keyboard_response,response_time_new_sketchpad,round_decimals,sampler_backend,sound_buf_size,sound_channels,sound_freq,sound_sample_size,start,stimulus,subject_nr,subject_parity,time_ISI,time_block1,time_block2,time_block3,time_errorFeedback,time_experiment,time_faster,time_finish,time_fixation,time_instructions1,time_instructions2,time_instructions3,time_keyboard_response,time_logger,time_new_sketchpad,time_sequence,time_stimulus,title,total_correct,total_response_time,total_responses,width
100,100,422,422,black,legacy,legacy,legacy,congruent ,1,undefined,1,h,0,0,0,0,0,0,0,0,0,0,0,0,0,0,NA,0,0,Thu Sep 21 14:33:46 2023,1500,The main experiment item,TRUE,FlankerTask.osexp,C:\Users\Simone\Desktop,FALSE,mono,FALSE,18,no,white,no,yes,768,legacy,0,0,C:/Users/Simone/Desktop/SD-subject-4.csv,legacy,Melodramatic Milgram,4.0.5,0,h,NA,s,NA,NA,h,NA,422,NA,2308,NA,NA,422,NA,2,legacy,1024,2,48000,-16,experiment,HHHHH,4,even,NA,4092,NA,NA,NA,1780,NA,NA,4133,1783,NA,NA,4234,4656,NA,4132,4234,Flanker Task,1,422,1,1024
50,50,372,372,black,legacy,legacy,legacy,incongruent,0,undefined,0,h,1,0,0,0,1,0,1,0,1,0,0,0,1,1,NA,1,1,Thu Sep 21 14:33:46 2023,1500,The main experiment item,TRUE,FlankerTask.osexp,C:\Users\Simone\Desktop,FALSE,mono,FALSE,18,no,white,no,yes,768,legacy,1,1,C:/Users/Simone/Desktop/SD-subject-4.csv,legacy,Melodramatic Milgram,4.0.5,0,s,NA,s,NA,NA,s,NA,322,NA,2308,NA,NA,322,NA,2,legacy,1024,2,48000,-16,experiment,SSHSS,4,even,4662,4092,NA,NA,NA,1780,NA,NA,5689,1783,NA,NA,5790,6112,NA,5688,5790,Flanker Task,1,744,2,1024
66,66,380,380,black,legacy,legacy,legacy,congruent ,1,undefined,1,s,2,0,0,0,2,0,2,0,2,0,0,0,2,2,NA,2,2,Thu Sep 21 14:33:46 2023,1500,The main experiment item,TRUE,FlankerTask.osexp,C:\Users\Simone\Desktop,FALSE,mono,FALSE,18,no,white,no,yes,768,legacy,2,2,C:/Users/Simone/Desktop/SD-subject-4.csv,legacy,Melodramatic Milgram,4.0.5,0,s,NA,s,NA,NA,s,NA,398,NA,2308,NA,NA,398,NA,2,legacy,1024,2,48000,-16,experiment,SSSSS,4,even,6617,4092,NA,NA,6115,1780,NA,NA,7648,1783,NA,NA,7750,8149,NA,7646,7750,Flanker Task,2,1142,3,1024
75,75,383,383,black,legacy,legacy,legacy,congruent ,1,undefined,1,h,3,0,0,0,3,0,3,0,3,0,0,0,3,3,NA,3,3,Thu Sep 21 14:33:46 2023,1500,The main experiment item,TRUE,FlankerTask.osexp,C:\Users\Simone\Desktop,FALSE,mono,FALSE,18,no,white,no,yes,768,legacy,3,3,C:/Users/Simone/Desktop/SD-subject-4.csv,legacy,Melodramatic Milgram,4.0.5,0,h,NA,s,NA,NA,h,NA,391,NA,2308,NA,NA,391,NA,2,legacy,1024,2,48000,-16,experiment,HHHHH,4,even,8151,4092,NA,NA,6115,1780,NA,NA,9188,1783,NA,NA,9289,9681,NA,9186,9289,Flanker Task,3,1533,4,1024
80,80,384,384,black,legacy,legacy,legacy,incongruent,1,undefined,1,s,4,0,0,0,4,0,4,0,4,0,0,0,4,4,NA,4,4,Thu Sep 21 14:33:46 2023,1500,The main experiment item,TRUE,FlankerTask.osexp,C:\Users\Simone\Desktop,FALSE,mono,FALSE,18,no,white,no,yes,768,legacy,4,4,C:/Users/Simone/Desktop/SD-subject-4.csv,legacy,Melodramatic Milgram,4.0.5,0,s,NA,s,NA,NA,s,NA,389,NA,2308,NA,NA,389,NA,2,legacy,1024,2,48000,-16,experiment,HHSHH,4,even,9684,4092,NA,NA,6115,1780,NA,NA,10719,1783,NA,NA,10820,11210,NA,10716,10820,Flanker Task,4,1922,5,1024
83,83,381,381,black,legacy,legacy,legacy,congruent ,1,undefined,1,h,5,0,0,0,5,0,5,0,5,0,0,0,5,5,NA,5,5,Thu Sep 21 14:33:46 2023,1500,The main experiment item,TRUE,FlankerTask.osexp,C:\Users\Simone\Desktop,FALSE,mono,FALSE,18,no,white,no,yes,768,legacy,5,5,C:/Users/Simone/Desktop/SD-subject-4.csv,legacy,Melodramatic Milgram,4.0.5,0,h,NA,s,NA,NA,h,NA,364,NA,2308,NA,NA,364,NA,2,legacy,1024,2,48000,-16,experiment,HHHHH,4,even,11218,4092,NA,NA,6115,1780,NA,NA,12248,1783,NA,NA,12349,12713,NA,12246,12349,Flanker Task,5,2286,6,1024
85,85,389,389,black,legacy,legacy,legacy,congruent ,1,undefined,1,s,6,0,0,0,6,0,6,0,6,0,0,0,6,6,NA,6,6,Thu Sep 21 14:33:46 2023,1500,The main experiment item,TRUE,FlankerTask.osexp,C:\Users\Simone\Desktop,FALSE,mono,FALSE,18,no,white,no,yes,768,legacy,6,6,C:/Users/Simone/Desktop/SD-subject-4.csv,legacy,Melodramatic Milgram,4.0.5,0,s,NA,s,NA,NA,s,NA,440,NA,2308,NA,NA,440,NA,2,legacy,1024,2,48000,-16,experiment,SSSSS,4,even,12717,4092,NA,NA,6115,1780,NA,NA,13741,1783,NA,NA,13842,14282,NA,13739,13842,Flanker Task,6,2726,7,1024
87,87,389,389,black,legacy,legacy,legacy,congruent ,1,undefined,1,s,7,0,0,0,7,0,7,0,7,0,0,0,7,7,NA,7,7,Thu Sep 21 14:33:46 2023,1500,The main experiment item,TRUE,FlankerTask.osexp,C:\Users\Simone\Desktop,FALSE,mono,FALSE,18,no,white,no,yes,768,legacy,7,7,C:/Users/Simone/Desktop/SD-subject-4.csv,legacy,Melodramatic Milgram,4.0.5,0,s,NA,s,NA,NA,s,NA,388,NA,2308,NA,NA,388,NA,2,legacy,1024,2,48000,-16,experiment,SSSSS,4,even,14286,4092,NA,NA,6115,1780,NA,NA,15317,1783,NA,NA,15418,15807,NA,15315,15418,Flanker Task,7,3114,8,1024
88,88,396,396,black,legacy,legacy,legacy,incongruent,1,undefined,1,s,8,0,0,0,8,0,8,0,8,0,0,0,8,8,NA,8,8,Thu Sep 21 14:33:46 2023,1500,The main experiment item,TRUE,FlankerTask.osexp,C:\Users\Simone\Desktop,FALSE,mono,FALSE,18,no,white,no,yes,768,legacy,8,8,C:/Users/Simone/Desktop/SD-subject-4.csv,legacy,Melodramatic Milgram,4.0.5,0,s,NA,s,NA,NA,s,NA,454,NA,2308,NA,NA,454,NA,2,legacy,1024,2,48000,-16,experiment,HHSHH,4,even,15812,4092,NA,NA,6115,1780,NA,NA,16843,1783,NA,NA,16945,17399,NA,16841,16945,Flanker Task,8,3568,9,1024
90,90,419,419,black,legacy,legacy,legacy,incongruent,1,undefined,1,s,9,0,0,0,9,0,9,0,9,0,0,0,9,9,NA,9,9,Thu Sep 21 14:33:46 2023,1500,The main experiment item,TRUE,FlankerTask.osexp,C:\Users\Simone\Desktop,FALSE,mono,FALSE,18,no,white,no,yes,768,legacy,9,9,C:/Users/Simone/Desktop/SD-subject-4.csv,legacy,Melodramatic Milgram,4.0.5,0,s,NA,s,NA,NA,s,NA,626,NA,2308,NA,NA,626,NA,2,legacy,1024,2,48000,-16,experiment,HHSHH,4,even,17404,4092,NA,NA,6115,1780,NA,NA,18439,1783,NA,NA,18540,19167,NA,18437,18540,Flanker Task,9,4194,10,1024
90,90,414,414,black,legacy,legacy,legacy,congruent ,1,undefined,1,h,10,0,0,0,10,0,10,0,10,0,0,0,10,10,NA,10,10,Thu Sep 21 14:33:46 2023,1500,The main experiment item,TRUE,FlankerTask.osexp,C:\Users\Simone\Desktop,FALSE,mono,FALSE,18,no,white,no,yes,768,legacy,10,10,C:/Users/Simone/Desktop/SD-subject-4.csv,legacy,Melodramatic Milgram,4.0.5,0,h,NA,s,NA,NA,h,NA,364,NA,2308,NA,NA,364,NA,2,legacy,1024,2,48000,-16,experiment,HHHHH,4,even,19171,4092,NA,NA,6115,1780,NA,NA,20201,1783,NA,NA,20302,20667,NA,20200,20302,Flanker Task,10,4558,11,1024
91,91,420,420,black,legacy,legacy,legacy,incongruent,1,undefined,1,h,11,0,0,0,11,0,11,0,11,0,0,0,11,11,NA,11,11,Thu Sep 21 14:33:46 2023,1500,The main experiment item,TRUE,FlankerTask.osexp,C:\Users\Simone\Desktop,FALSE,mono,FALSE,18,no,white,no,yes,768,legacy,11,11,C:/Users/Simone/Desktop/SD-subject-4.csv,legacy,Melodramatic Milgram,4.0.5,0,h,NA,s,NA,NA,h,NA,488,NA,2308,NA,NA,488,NA,2,legacy,1024,2,48000,-16,experiment,SSHSS,4,even,20670,4092,NA,NA,6115,1780,NA,NA,21705,1783,NA,NA,21806,22295,NA,21704,21806,Flanker Task,11,5046,12,1024
92,92,420,420,black,legacy,legacy,legacy,congruent ,1,undefined,1,h,12,0,0,0,12,0,12,0,12,0,0,0,12,12,NA,12,12,Thu Sep 21 14:33:46 2023,1500,The main experiment item,TRUE,FlankerTask.osexp,C:\Users\Simone\Desktop,FALSE,mono,FALSE,18,no,white,no,yes,768,legacy,12,12,C:/Users/Simone/Desktop/SD-subject-4.csv,legacy,Melodramatic Milgram,4.0.5,0,h,NA,s,NA,NA,h,NA,420,NA,2308,NA,NA,420,NA,2,legacy,1024,2,48000,-16,experiment,HHHHH,4,even,22299,4092,NA,NA,6115,1780,NA,NA,23336,1783,NA,NA,23437,23858,NA,23334,23437,Flanker Task,12,5466,13,1024
92,92,420,420,black,legacy,legacy,legacy,incongruent,1,undefined,1,s,13,0,0,0,13,0,13,0,13,0,0,0,13,13,NA,13,13,Thu Sep 21 14:33:46 2023,1500,The main experiment item,TRUE,FlankerTask.osexp,C:\Users\Simone\Desktop,FALSE,mono,FALSE,18,no,white,no,yes,768,legacy,13,13,C:/Users/Simone/Desktop/SD-subject-4.csv,legacy,Melodramatic Milgram,4.0.5,0,s,NA,s,NA,NA,s,NA,425,NA,2308,NA,NA,425,NA,2,legacy,1024,2,48000,-16,experiment,HHSHH,4,even,23863,4092,NA,NA,6115,1780,NA,NA,24895,1783,NA,NA,24996,25421,NA,24893,24996,Flanker Task,13,5891,14,1024
93,93,424,424,black,legacy,legacy,legacy,incongruent,1,undefined,1,h,14,0,0,0,14,0,14,0,14,0,0,0,14,14,NA,14,14,Thu Sep 21 14:33:46 2023,1500,The main experiment item,TRUE,FlankerTask.osexp,C:\Users\Simone\Desktop,FALSE,mono,FALSE,18,no,white,no,yes,768,legacy,14,14,C:/Users/Simone/Desktop/SD-subject-4.csv,legacy,Melodramatic Milgram,4.0.5,0,h,NA,s,NA,NA,h,NA,481,NA,2308,NA,NA,481,NA,2,legacy,1024,2,48000,-16,experiment,SSHSS,4,even,25425,4092,NA,NA,6115,1780,NA,NA,26461,1783,NA,NA,26562,27044,NA,26458,26562,Flanker Task,14,6372,15,1024
93,93,429,429,black,legacy,legacy,legacy,incongruent,1,undefined,1,s,15,0,0,0,15,0,15,0,15,0,0,0,15,15,NA,15,15,Thu Sep 21 14:33:46 2023,1500,The main experiment item,TRUE,FlankerTask.osexp,C:\Users\Simone\Desktop,FALSE,mono,FALSE,18,no,white,no,yes,768,legacy,15,15,C:/Users/Simone/Desktop/SD-subject-4.csv,legacy,Melodramatic Milgram,4.0.5,0,s,NA,s,NA,NA,s,NA,493,NA,2308,NA,NA,493,NA,2,legacy,1024,2,48000,-16,experiment,HHSHH,4,even,27048,4092,NA,NA,6115,1780,NA,NA,28077,1783,NA,NA,28178,28671,NA,28075,28178,Flanker Task,15,6865,16,1024
94,94,428,428,black,legacy,legacy,legacy,congruent ,1,undefined,1,h,16,0,0,0,16,0,16,0,16,0,0,0,16,16,NA,16,16,Thu Sep 21 14:33:46 2023,1500,The main experiment item,TRUE,FlankerTask.osexp,C:\Users\Simone\Desktop,FALSE,mono,FALSE,18,no,white,no,yes,768,legacy,16,16,C:/Users/Simone/Desktop/SD-subject-4.csv,legacy,Melodramatic Milgram,4.0.5,0,h,NA,s,NA,NA,h,NA,421,NA,2308,NA,NA,421,NA,2,legacy,1024,2,48000,-16,experiment,HHHHH,4,even,28674,4092,NA,NA,6115,1780,NA,NA,29704,1783,NA,NA,29805,30226,NA,29702,29805,Flanker Task,16,7286,17,1024
94,94,432,432,black,legacy,legacy,legacy,incongruent,1,undefined,1,h,17,0,0,0,17,0,17,0,17,0,0,0,17,17,NA,17,17,Thu Sep 21 14:33:46 2023,1500,The main experiment item,TRUE,FlankerTask.osexp,C:\Users\Simone\Desktop,FALSE,mono,FALSE,18,no,white,no,yes,768,legacy,17,17,C:/Users/Simone/Desktop/SD-subject-4.csv,legacy,Melodramatic Milgram,4.0.5,0,h,NA,s,NA,NA,h,NA,504,NA,2308,NA,NA,504,NA,2,legacy,1024,2,48000,-16,experiment,SSHSS,4,even,30230,4092,NA,NA,6115,1780,NA,NA,31270,1783,NA,NA,31371,31875,NA,31268,31371,Flanker Task,17,7790,18,1024
94,94,432,432,black,legacy,legacy,legacy,congruent ,1,undefined,1,s,18,0,0,0,18,0,18,0,18,0,0,0,18,18,NA,18,18,Thu Sep 21 14:33:46 2023,1500,The main experiment item,TRUE,FlankerTask.osexp,C:\Users\Simone\Desktop,FALSE,mono,FALSE,18,no,white,no,yes,768,legacy,18,18,C:/Users/Simone/Desktop/SD-subject-4.csv,legacy,Melodramatic Milgram,4.0.5,0,s,NA,s,NA,NA,s,NA,424,NA,2308,NA,NA,424,NA,2,legacy,1024,2,48000,-16,experiment,SSSSS,4,even,31879,4092,NA,NA,6115,1780,NA,NA,32912,1783,NA,NA,33013,33437,NA,32911,33013,Flanker Task,18,8214,19,1024
95,95,431,431,black,legacy,legacy,legacy,congruent ,1,undefined,1,h,19,0,0,0,19,0,19,0,19,0,0,0,19,19,NA,19,19,Thu Sep 21 14:33:46 2023,1500,The main experiment item,TRUE,FlankerTask.osexp,C:\Users\Simone\Desktop,FALSE,mono,FALSE,18,no,white,no,yes,768,legacy,19,19,C:/Users/Simone/Desktop/SD-subject-4.csv,legacy,Melodramatic Milgram,4.0.5,0,h,NA,s,NA,NA,h,NA,421,NA,2308,NA,NA,421,NA,2,legacy,1024,2,48000,-16,experiment,HHHHH,4,even,33441,4092,NA,NA,6115,1780,NA,NA,34477,1783,NA,NA,34578,34999,NA,34475,34578,Flanker Task,19,8635,20,1024
95,95,434,434,black,legacy,legacy,legacy,congruent ,1,undefined,1,s,20,0,0,0,20,0,20,0,20,0,0,0,20,20,NA,20,20,Thu Sep 21 14:33:46 2023,1500,The main experiment item,TRUE,FlankerTask.osexp,C:\Users\Simone\Desktop,FALSE,mono,FALSE,18,no,white,no,yes,768,legacy,20,20,C:/Users/Simone/Desktop/SD-subject-4.csv,legacy,Melodramatic Milgram,4.0.5,0,s,NA,s,NA,NA,s,NA,494,NA,2308,NA,NA,494,NA,2,legacy,1024,2,48000,-16,experiment,SSSSS,4,even,35004,4092,NA,NA,6115,1780,NA,NA,36046,1783,NA,NA,36147,36642,NA,36044,36147,Flanker Task,20,9129,21,1024
95,95,434,434,black,legacy,legacy,legacy,congruent ,1,undefined,1,s,21,0,0,0,21,0,21,0,21,0,0,0,21,21,NA,21,21,Thu Sep 21 14:33:46 2023,1500,The main experiment item,TRUE,FlankerTask.osexp,C:\Users\Simone\Desktop,FALSE,mono,FALSE,18,no,white,no,yes,768,legacy,21,21,C:/Users/Simone/Desktop/SD-subject-4.csv,legacy,Melodramatic Milgram,4.0.5,0,s,NA,s,NA,NA,s,NA,439,NA,2308,NA,NA,439,NA,2,legacy,1024,2,48000,-16,experiment,SSSSS,4,even,36645,4092,NA,NA,6115,1780,NA,NA,37677,1783,NA,NA,37778,38217,NA,37676,37778,Flanker Task,21,9568,22,1024
95,95,432,432,black,legacy,legacy,legacy,congruent ,1,undefined,1,s,22,0,0,0,22,0,22,0,22,0,0,0,22,22,NA,22,22,Thu Sep 21 14:33:46 2023,1500,The main experiment item,TRUE,FlankerTask.osexp,C:\Users\Simone\Desktop,FALSE,mono,FALSE,18,no,white,no,yes,768,legacy,22,22,C:/Users/Simone/Desktop/SD-subject-4.csv,legacy,Melodramatic Milgram,4.0.5,0,s,NA,s,NA,NA,s,NA,382,NA,2308,NA,NA,382,NA,2,legacy,1024,2,48000,-16,experiment,SSSSS,4,even,38220,4092,NA,NA,6115,1780,NA,NA,39250,1783,NA,NA,39352,39734,NA,39249,39352,Flanker Task,22,9950,23,1024
95,95,430,430,black,legacy,legacy,legacy,congruent ,1,undefined,1,s,23,0,0,0,23,0,23,0,23,0,0,0,23,23,NA,23,23,Thu Sep 21 14:33:46 2023,1500,The main experiment item,TRUE,FlankerTask.osexp,C:\Users\Simone\Desktop,FALSE,mono,FALSE,18,no,white,no,yes,768,legacy,23,23,C:/Users/Simone/Desktop/SD-subject-4.csv,legacy,Melodramatic Milgram,4.0.5,0,s,NA,s,NA,NA,s,NA,378,NA,2308,NA,NA,378,NA,2,legacy,1024,2,48000,-16,experiment,SSSSS,4,even,39737,4092,NA,NA,6115,1780,NA,NA,40768,1783,NA,NA,40869,41247,NA,40766,40869,Flanker Task,23,10328,24,1024
96,96,431,431,black,legacy,legacy,legacy,congruent ,1,undefined,1,h,24,0,0,0,24,0,24,0,24,0,0,0,24,24,NA,24,24,Thu Sep 21 14:33:46 2023,1500,The main experiment item,TRUE,FlankerTask.osexp,C:\Users\Simone\Desktop,FALSE,mono,FALSE,18,no,white,no,yes,768,legacy,24,24,C:/Users/Simone/Desktop/SD-subject-4.csv,legacy,Melodramatic Milgram,4.0.5,0,h,NA,s,NA,NA,h,NA,451,NA,2308,NA,NA,451,NA,2,legacy,1024,2,48000,-16,experiment,HHHHH,4,even,41251,4092,NA,NA,6115,1780,NA,NA,42281,1783,NA,NA,42382,42834,NA,42280,42382,Flanker Task,24,10779,25,1024
96,96,433,433,black,legacy,legacy,legacy,incongruent,1,undefined,1,h,25,0,0,0,25,0,25,0,25,0,0,0,25,25,NA,25,25,Thu Sep 21 14:33:46 2023,1500,The main experiment item,TRUE,FlankerTask.osexp,C:\Users\Simone\Desktop,FALSE,mono,FALSE,18,no,white,no,yes,768,legacy,25,25,C:/Users/Simone/Desktop/SD-subject-4.csv,legacy,Melodramatic Milgram,4.0.5,0,h,NA,s,NA,NA,h,NA,503,NA,2308,NA,NA,503,NA,2,legacy,1024,2,48000,-16,experiment,SSHSS,4,even,42838,4092,NA,NA,6115,1780,NA,NA,43871,1783,NA,NA,43972,44476,NA,43869,43972,Flanker Task,25,11282,26,1024
96,96,433,433,black,legacy,legacy,legacy,incongruent,1,undefined,1,h,26,0,0,0,26,0,26,0,26,0,0,0,26,26,NA,26,26,Thu Sep 21 14:33:46 2023,1500,The main experiment item,TRUE,FlankerTask.osexp,C:\Users\Simone\Desktop,FALSE,mono,FALSE,18,no,white,no,yes,768,legacy,26,26,C:/Users/Simone/Desktop/SD-subject-4.csv,legacy,Melodramatic Milgram,4.0.5,0,h,NA,s,NA,NA,h,NA,427,NA,2308,NA,NA,427,NA,2,legacy,1024,2,48000,-16,experiment,SSHSS,4,even,44481,4092,NA,NA,6115,1780,NA,NA,45517,1783,NA,NA,45618,46046,NA,45515,45618,Flanker Task,26,11709,27,1024
96,96,433,433,black,legacy,legacy,legacy,incongruent,1,undefined,1,s,27,0,0,0,27,0,27,0,27,0,0,0,27,27,NA,27,27,Thu Sep 21 14:33:46 2023,1500,The main experiment item,TRUE,FlankerTask.osexp,C:\Users\Simone\Desktop,FALSE,mono,FALSE,18,no,white,no,yes,768,legacy,27,27,C:/Users/Simone/Desktop/SD-subject-4.csv,legacy,Melodramatic Milgram,4.0.5,0,s,NA,s,NA,NA,s,NA,420,NA,2308,NA,NA,420,NA,2,legacy,1024,2,48000,-16,experiment,HHSHH,4,even,46052,4092,NA,NA,6115,1780,NA,NA,47086,1783,NA,NA,47187,47607,NA,47084,47187,Flanker Task,27,12129,28,1024
96,96,434,434,black,legacy,legacy,legacy,incongruent,1,undefined,1,h,28,0,0,0,28,0,28,0,28,0,0,0,28,28,NA,28,28,Thu Sep 21 14:33:46 2023,1500,The main experiment item,TRUE,FlankerTask.osexp,C:\Users\Simone\Desktop,FALSE,mono,FALSE,18,no,white,no,yes,768,legacy,28,28,C:/Users/Simone/Desktop/SD-subject-4.csv,legacy,Melodramatic Milgram,4.0.5,0,h,NA,s,NA,NA,h,NA,462,NA,2308,NA,NA,462,NA,2,legacy,1024,2,48000,-16,experiment,SSHSS,4,even,47611,4092,NA,NA,6115,1780,NA,NA,48640,1783,NA,NA,48741,49203,NA,48638,48741,Flanker Task,28,12591,29,1024
96,96,433,433,black,legacy,legacy,legacy,incongruent,1,undefined,1,h,29,0,0,0,29,0,29,0,29,0,0,0,29,29,NA,29,29,Thu Sep 21 14:33:46 2023,1500,The main experiment item,TRUE,FlankerTask.osexp,C:\Users\Simone\Desktop,FALSE,mono,FALSE,18,no,white,no,yes,768,legacy,29,29,C:/Users/Simone/Desktop/SD-subject-4.csv,legacy,Melodramatic Milgram,4.0.5,0,h,NA,s,NA,NA,h,NA,419,NA,2308,NA,NA,419,NA,2,legacy,1024,2,48000,-16,experiment,SSHSS,4,even,49207,4092,NA,NA,6115,1780,NA,NA,50251,1783,NA,NA,50352,50771,NA,50249,50352,Flanker Task,29,13010,30,1024
96,96,432,432,black,legacy,legacy,legacy,congruent ,1,undefined,1,s,30,0,0,0,30,0,30,0,30,0,0,0,30,30,NA,30,30,Thu Sep 21 14:33:46 2023,1500,The main experiment item,TRUE,FlankerTask.osexp,C:\Users\Simone\Desktop,FALSE,mono,FALSE,18,no,white,no,yes,768,legacy,30,30,C:/Users/Simone/Desktop/SD-subject-4.csv,legacy,Melodramatic Milgram,4.0.5,0,s,NA,s,NA,NA,s,NA,396,NA,2308,NA,NA,396,NA,2,legacy,1024,2,48000,-16,experiment,SSSSS,4,even,50775,4092,NA,NA,6115,1780,NA,NA,51807,1783,NA,NA,51908,52304,NA,51805,51908,Flanker Task,30,13406,31,1024
96,96,431,431,black,legacy,legacy,legacy,congruent ,1,undefined,1,s,31,0,0,0,31,0,31,0,31,0,0,0,31,31,NA,31,31,Thu Sep 21 14:33:46 2023,1500,The main experiment item,TRUE,FlankerTask.osexp,C:\Users\Simone\Desktop,FALSE,mono,FALSE,18,no,white,no,yes,768,legacy,31,31,C:/Users/Simone/Desktop/SD-subject-4.csv,legacy,Melodramatic Milgram,4.0.5,0,s,NA,s,NA,NA,s,NA,407,NA,2308,NA,NA,407,NA,2,legacy,1024,2,48000,-16,experiment,SSSSS,4,even,52308,4092,NA,NA,6115,1780,NA,NA,53337,1783,NA,NA,53438,53846,NA,53335,53438,Flanker Task,31,13813,32,1024
96,96,431,431,black,legacy,legacy,legacy,incongruent,1,undefined,1,h,32,0,0,0,32,0,32,0,32,0,0,0,32,32,NA,32,32,Thu Sep 21 14:33:46 2023,1500,The main experiment item,TRUE,FlankerTask.osexp,C:\Users\Simone\Desktop,FALSE,mono,FALSE,18,no,white,no,yes,768,legacy,32,32,C:/Users/Simone/Desktop/SD-subject-4.csv,legacy,Melodramatic Milgram,4.0.5,0,h,NA,s,NA,NA,h,NA,423,NA,2308,NA,NA,423,NA,2,legacy,1024,2,48000,-16,experiment,SSHSS,4,even,53851,4092,NA,NA,6115,1780,NA,NA,54883,1783,NA,NA,54984,55408,NA,54881,54984,Flanker Task,32,14236,33,1024
97,97,428,428,black,legacy,legacy,legacy,congruent ,1,undefined,1,s,33,0,0,0,33,0,33,0,33,0,0,0,33,33,NA,33,33,Thu Sep 21 14:33:46 2023,1500,The main experiment item,TRUE,FlankerTask.osexp,C:\Users\Simone\Desktop,FALSE,mono,FALSE,18,no,white,no,yes,768,legacy,33,33,C:/Users/Simone/Desktop/SD-subject-4.csv,legacy,Melodramatic Milgram,4.0.5,0,s,NA,s,NA,NA,s,NA,349,NA,2308,NA,NA,349,NA,2,legacy,1024,2,48000,-16,experiment,SSSSS,4,even,55412,4092,NA,NA,6115,1780,NA,NA,56443,1783,NA,NA,56544,56894,NA,56441,56544,Flanker Task,33,14585,34,1024
97,97,428,428,black,legacy,legacy,legacy,incongruent,1,undefined,1,s,34,0,0,0,34,0,34,0,34,0,0,0,34,34,NA,34,34,Thu Sep 21 14:33:46 2023,1500,The main experiment item,TRUE,FlankerTask.osexp,C:\Users\Simone\Desktop,FALSE,mono,FALSE,18,no,white,no,yes,768,legacy,34,34,C:/Users/Simone/Desktop/SD-subject-4.csv,legacy,Melodramatic Milgram,4.0.5,0,s,NA,s,NA,NA,s,NA,411,NA,2308,NA,NA,411,NA,2,legacy,1024,2,48000,-16,experiment,HHSHH,4,even,56898,4092,NA,NA,6115,1780,NA,NA,57922,1783,NA,NA,58023,58435,NA,57920,58023,Flanker Task,34,14996,35,1024
97,97,428,428,black,legacy,legacy,legacy,congruent ,1,undefined,1,h,35,0,0,0,35,0,35,0,35,0,0,0,35,35,NA,35,35,Thu Sep 21 14:33:46 2023,1500,The main experiment item,TRUE,FlankerTask.osexp,C:\Users\Simone\Desktop,FALSE,mono,FALSE,18,no,white,no,yes,768,legacy,35,35,C:/Users/Simone/Desktop/SD-subject-4.csv,legacy,Melodramatic Milgram,4.0.5,0,h,NA,s,NA,NA,h,NA,426,NA,2308,NA,NA,426,NA,2,legacy,1024,2,48000,-16,experiment,HHHHH,4,even,58437,4092,NA,NA,6115,1780,NA,NA,59465,1783,NA,NA,59566,59993,NA,59464,59566,Flanker Task,35,15422,36,1024
97,97,428,428,black,legacy,legacy,legacy,incongruent,1,undefined,1,h,36,0,0,0,36,0,36,0,36,0,0,0,36,36,NA,36,36,Thu Sep 21 14:33:46 2023,1500,The main experiment item,TRUE,FlankerTask.osexp,C:\Users\Simone\Desktop,FALSE,mono,FALSE,18,no,white,no,yes,768,legacy,36,36,C:/Users/Simone/Desktop/SD-subject-4.csv,legacy,Melodramatic Milgram,4.0.5,0,h,NA,s,NA,NA,h,NA,448,NA,2308,NA,NA,448,NA,2,legacy,1024,2,48000,-16,experiment,SSHSS,4,even,59997,4092,NA,NA,6115,1780,NA,NA,61031,1783,NA,NA,61132,61581,NA,61029,61132,Flanker Task,36,15870,37,1024
97,97,428,428,black,legacy,legacy,legacy,congruent ,1,undefined,1,h,37,0,0,0,37,0,37,0,37,0,0,0,37,37,NA,37,37,Thu Sep 21 14:33:46 2023,1500,The main experiment item,TRUE,FlankerTask.osexp,C:\Users\Simone\Desktop,FALSE,mono,FALSE,18,no,white,no,yes,768,legacy,37,37,C:/Users/Simone/Desktop/SD-subject-4.csv,legacy,Melodramatic Milgram,4.0.5,0,h,NA,s,NA,NA,h,NA,407,NA,2308,NA,NA,407,NA,2,legacy,1024,2,48000,-16,experiment,HHHHH,4,even,61585,4092,NA,NA,6115,1780,NA,NA,62618,1783,NA,NA,62719,63127,NA,62615,62719,Flanker Task,37,16277,38,1024
97,97,426,426,black,legacy,legacy,legacy,congruent ,1,undefined,1,s,38,0,0,0,38,0,38,0,38,0,0,0,38,38,NA,38,38,Thu Sep 21 14:33:46 2023,1500,The main experiment item,TRUE,FlankerTask.osexp,C:\Users\Simone\Desktop,FALSE,mono,FALSE,18,no,white,no,yes,768,legacy,38,38,C:/Users/Simone/Desktop/SD-subject-4.csv,legacy,Melodramatic Milgram,4.0.5,0,s,NA,s,NA,NA,s,NA,352,NA,2308,NA,NA,352,NA,2,legacy,1024,2,48000,-16,experiment,SSSSS,4,even,63130,4092,NA,NA,6115,1780,NA,NA,64168,1783,NA,NA,64269,64622,NA,64166,64269,Flanker Task,38,16629,39,1024
97,97,428,428,black,legacy,legacy,legacy,incongruent,1,undefined,1,s,39,0,0,0,39,0,39,0,39,0,0,0,39,39,NA,39,39,Thu Sep 21 14:33:46 2023,1500,The main experiment item,TRUE,FlankerTask.osexp,C:\Users\Simone\Desktop,FALSE,mono,FALSE,18,no,white,no,yes,768,legacy,39,39,C:/Users/Simone/Desktop/SD-subject-4.csv,legacy,Melodramatic Milgram,4.0.5,0,s,NA,s,NA,NA,s,NA,503,NA,2308,NA,NA,503,NA,2,legacy,1024,2,48000,-16,experiment,HHSHH,4,even,64627,4092,NA,NA,6115,1780,NA,NA,65658,1783,NA,NA,65759,66262,NA,65656,65759,Flanker Task,39,17132,40,1024
97,97,432,432,black,legacy,legacy,legacy,congruent ,1,undefined,1,s,40,0,0,0,40,0,40,0,40,0,0,0,40,40,NA,40,40,Thu Sep 21 14:33:46 2023,1500,The main experiment item,TRUE,FlankerTask.osexp,C:\Users\Simone\Desktop,FALSE,mono,FALSE,18,no,white,no,yes,768,legacy,40,40,C:/Users/Simone/Desktop/SD-subject-4.csv,legacy,Melodramatic Milgram,4.0.5,0,s,NA,s,NA,NA,s,NA,586,NA,2308,NA,NA,586,NA,2,legacy,1024,2,48000,-16,experiment,SSSSS,4,even,66266,4092,NA,NA,6115,1780,NA,NA,67293,1783,NA,NA,67394,67980,NA,67291,67394,Flanker Task,40,17718,41,1024
97,97,432,432,black,legacy,legacy,legacy,incongruent,1,undefined,1,h,41,0,0,0,41,0,41,0,41,0,0,0,41,41,NA,41,41,Thu Sep 21 14:33:46 2023,1500,The main experiment item,TRUE,FlankerTask.osexp,C:\Users\Simone\Desktop,FALSE,mono,FALSE,18,no,white,no,yes,768,legacy,41,41,C:/Users/Simone/Desktop/SD-subject-4.csv,legacy,Melodramatic Milgram,4.0.5,0,h,NA,s,NA,NA,h,NA,441,NA,2308,NA,NA,441,NA,2,legacy,1024,2,48000,-16,experiment,SSHSS,4,even,67984,4092,NA,NA,6115,1780,NA,NA,69013,1783,NA,NA,69115,69557,NA,69012,69115,Flanker Task,41,18159,42,1024
97,97,430,430,black,legacy,legacy,legacy,congruent ,1,undefined,1,s,42,0,0,0,42,0,42,0,42,0,0,0,42,42,NA,42,42,Thu Sep 21 14:33:46 2023,1500,The main experiment item,TRUE,FlankerTask.osexp,C:\Users\Simone\Desktop,FALSE,mono,FALSE,18,no,white,no,yes,768,legacy,42,42,C:/Users/Simone/Desktop/SD-subject-4.csv,legacy,Melodramatic Milgram,4.0.5,0,s,NA,s,NA,NA,s,NA,364,NA,2308,NA,NA,364,NA,2,legacy,1024,2,48000,-16,experiment,SSSSS,4,even,69559,4092,NA,NA,6115,1780,NA,NA,70592,1783,NA,NA,70693,71058,NA,70590,70693,Flanker Task,42,18523,43,1024
97,97,432,432,black,legacy,legacy,legacy,congruent ,1,undefined,1,h,43,0,0,0,43,0,43,0,43,0,0,0,43,43,NA,43,43,Thu Sep 21 14:33:46 2023,1500,The main experiment item,TRUE,FlankerTask.osexp,C:\Users\Simone\Desktop,FALSE,mono,FALSE,18,no,white,no,yes,768,legacy,43,43,C:/Users/Simone/Desktop/SD-subject-4.csv,legacy,Melodramatic Milgram,4.0.5,0,h,NA,s,NA,NA,h,NA,520,NA,2308,NA,NA,520,NA,2,legacy,1024,2,48000,-16,experiment,HHHHH,4,even,71062,4092,NA,NA,6115,1780,NA,NA,72096,1783,NA,NA,72197,72718,NA,72094,72197,Flanker Task,43,19043,44,1024
97,97,433,433,black,legacy,legacy,legacy,congruent ,1,undefined,1,h,44,0,0,0,44,0,44,0,44,0,0,0,44,44,NA,44,44,Thu Sep 21 14:33:46 2023,1500,The main experiment item,TRUE,FlankerTask.osexp,C:\Users\Simone\Desktop,FALSE,mono,FALSE,18,no,white,no,yes,768,legacy,44,44,C:/Users/Simone/Desktop/SD-subject-4.csv,legacy,Melodramatic Milgram,4.0.5,0,h,NA,s,NA,NA,h,NA,468,NA,2308,NA,NA,468,NA,2,legacy,1024,2,48000,-16,experiment,HHHHH,4,even,72722,4092,NA,NA,6115,1780,NA,NA,73748,1783,NA,NA,73849,74318,NA,73746,73849,Flanker Task,44,19511,45,1024
97,97,433,433,black,legacy,legacy,legacy,incongruent,1,undefined,1,s,45,0,0,0,45,0,45,0,45,0,0,0,45,45,NA,45,45,Thu Sep 21 14:33:46 2023,1500,The main experiment item,TRUE,FlankerTask.osexp,C:\Users\Simone\Desktop,FALSE,mono,FALSE,18,no,white,no,yes,768,legacy,45,45,C:/Users/Simone/Desktop/SD-subject-4.csv,legacy,Melodramatic Milgram,4.0.5,0,s,NA,s,NA,NA,s,NA,407,NA,2308,NA,NA,407,NA,2,legacy,1024,2,48000,-16,experiment,HHSHH,4,even,74323,4092,NA,NA,6115,1780,NA,NA,75349,1783,NA,NA,75450,75858,NA,75347,75450,Flanker Task,45,19918,46,1024
97,97,432,432,black,legacy,legacy,legacy,incongruent,1,undefined,1,s,46,0,0,0,46,0,46,0,46,0,0,0,46,46,NA,46,46,Thu Sep 21 14:33:46 2023,1500,The main experiment item,TRUE,FlankerTask.osexp,C:\Users\Simone\Desktop,FALSE,mono,FALSE,18,no,white,no,yes,768,legacy,46,46,C:/Users/Simone/Desktop/SD-subject-4.csv,legacy,Melodramatic Milgram,4.0.5,0,s,NA,s,NA,NA,s,NA,405,NA,2308,NA,NA,405,NA,2,legacy,1024,2,48000,-16,experiment,HHSHH,4,even,75861,4092,NA,NA,6115,1780,NA,NA,76890,1783,NA,NA,76991,77396,NA,76888,76991,Flanker Task,46,20323,47,1024
97,97,432,432,black,legacy,legacy,legacy,incongruent,1,undefined,1,s,47,0,0,0,47,0,47,0,47,0,0,0,47,47,NA,47,47,Thu Sep 21 14:33:46 2023,1500,The main experiment item,TRUE,FlankerTask.osexp,C:\Users\Simone\Desktop,FALSE,mono,FALSE,18,no,white,no,yes,768,legacy,47,47,C:/Users/Simone/Desktop/SD-subject-4.csv,legacy,Melodramatic Milgram,4.0.5,0,s,NA,s,NA,NA,s,NA,416,NA,2308,NA,NA,416,NA,2,legacy,1024,2,48000,-16,experiment,HHSHH,4,even,77400,4092,NA,NA,6115,1780,NA,NA,78436,1783,NA,NA,78537,78954,NA,78435,78537,Flanker Task,47,20739,48,1024
97,97,431,431,black,legacy,legacy,legacy,congruent ,1,undefined,1,h,48,0,0,0,48,0,48,0,48,0,0,0,48,48,NA,48,48,Thu Sep 21 14:33:46 2023,1500,The main experiment item,TRUE,FlankerTask.osexp,C:\Users\Simone\Desktop,FALSE,mono,FALSE,18,no,white,no,yes,768,legacy,48,48,C:/Users/Simone/Desktop/SD-subject-4.csv,legacy,Melodramatic Milgram,4.0.5,0,h,NA,s,NA,NA,h,NA,413,NA,2308,NA,NA,413,NA,2,legacy,1024,2,48000,-16,experiment,HHHHH,4,even,78958,4092,NA,NA,6115,1780,NA,NA,79990,1783,NA,NA,80091,80505,NA,79988,80091,Flanker Task,48,21152,49,1024
98,98,431,431,black,legacy,legacy,legacy,incongruent,1,undefined,1,s,49,0,0,0,49,0,49,0,49,0,0,0,49,49,NA,49,49,Thu Sep 21 14:33:46 2023,1500,The main experiment item,TRUE,FlankerTask.osexp,C:\Users\Simone\Desktop,FALSE,mono,FALSE,18,no,white,no,yes,768,legacy,49,49,C:/Users/Simone/Desktop/SD-subject-4.csv,legacy,Melodramatic Milgram,4.0.5,0,s,NA,s,NA,NA,s,NA,420,NA,2308,NA,NA,420,NA,2,legacy,1024,2,48000,-16,experiment,HHSHH,4,even,80507,4092,NA,NA,6115,1780,NA,NA,81537,1783,NA,NA,81638,82059,NA,81535,81638,Flanker Task,49,21572,50,1024
98,98,430,430,black,legacy,legacy,legacy,incongruent,1,undefined,1,s,50,0,0,0,50,0,50,0,50,0,0,0,50,50,NA,50,50,Thu Sep 21 14:33:46 2023,1500,The main experiment item,TRUE,FlankerTask.osexp,C:\Users\Simone\Desktop,FALSE,mono,FALSE,18,no,white,no,yes,768,legacy,50,50,C:/Users/Simone/Desktop/SD-subject-4.csv,legacy,Melodramatic Milgram,4.0.5,0,s,NA,s,NA,NA,s,NA,385,NA,2308,NA,NA,385,NA,2,legacy,1024,2,48000,-16,experiment,HHSHH,4,even,82064,4092,NA,NA,6115,1780,NA,NA,83098,1783,NA,NA,83199,83585,NA,83096,83199,Flanker Task,50,21957,51,1024
98,98,429,429,black,legacy,legacy,legacy,congruent ,1,undefined,1,s,51,0,0,0,51,0,51,0,51,0,0,0,51,51,NA,51,51,Thu Sep 21 14:33:46 2023,1500,The main experiment item,TRUE,FlankerTask.osexp,C:\Users\Simone\Desktop,FALSE,mono,FALSE,18,no,white,no,yes,768,legacy,51,51,C:/Users/Simone/Desktop/SD-subject-4.csv,legacy,Melodramatic Milgram,4.0.5,0,s,NA,s,NA,NA,s,NA,387,NA,2308,NA,NA,387,NA,2,legacy,1024,2,48000,-16,experiment,SSSSS,4,even,83589,4092,NA,NA,6115,1780,NA,NA,84623,1783,NA,NA,84725,85112,NA,84621,84724,Flanker Task,51,22344,52,1024
98,98,429,429,black,legacy,legacy,legacy,incongruent,1,undefined,1,s,52,0,0,0,52,0,52,0,52,0,0,0,52,52,NA,52,52,Thu Sep 21 14:33:46 2023,1500,The main experiment item,TRUE,FlankerTask.osexp,C:\Users\Simone\Desktop,FALSE,mono,FALSE,18,no,white,no,yes,768,legacy,52,52,C:/Users/Simone/Desktop/SD-subject-4.csv,legacy,Melodramatic Milgram,4.0.5,0,s,NA,s,NA,NA,s,NA,436,NA,2308,NA,NA,436,NA,2,legacy,1024,2,48000,-16,experiment,HHSHH,4,even,85116,4092,NA,NA,6115,1780,NA,NA,86145,1783,NA,NA,86246,86683,NA,86143,86246,Flanker Task,52,22780,53,1024
98,98,428,428,black,legacy,legacy,legacy,congruent ,1,undefined,1,s,53,0,0,0,53,0,53,0,53,0,0,0,53,53,NA,53,53,Thu Sep 21 14:33:46 2023,1500,The main experiment item,TRUE,FlankerTask.osexp,C:\Users\Simone\Desktop,FALSE,mono,FALSE,18,no,white,no,yes,768,legacy,53,53,C:/Users/Simone/Desktop/SD-subject-4.csv,legacy,Melodramatic Milgram,4.0.5,0,s,NA,s,NA,NA,s,NA,364,NA,2308,NA,NA,364,NA,2,legacy,1024,2,48000,-16,experiment,SSSSS,4,even,86687,4092,NA,NA,6115,1780,NA,NA,87714,1783,NA,NA,87815,88179,NA,87712,87815,Flanker Task,53,23144,54,1024
98,98,429,429,black,legacy,legacy,legacy,congruent ,1,undefined,1,h,54,0,0,0,54,0,54,0,54,0,0,0,54,54,NA,54,54,Thu Sep 21 14:33:46 2023,1500,The main experiment item,TRUE,FlankerTask.osexp,C:\Users\Simone\Desktop,FALSE,mono,FALSE,18,no,white,no,yes,768,legacy,54,54,C:/Users/Simone/Desktop/SD-subject-4.csv,legacy,Melodramatic Milgram,4.0.5,0,h,NA,s,NA,NA,h,NA,462,NA,2308,NA,NA,462,NA,2,legacy,1024,2,48000,-16,experiment,HHHHH,4,even,88184,4092,NA,NA,6115,1780,NA,NA,89217,1783,NA,NA,89318,89781,NA,89215,89318,Flanker Task,54,23606,55,1024
98,98,428,428,black,legacy,legacy,legacy,congruent ,1,undefined,1,h,55,0,0,0,55,0,55,0,55,0,0,0,55,55,NA,55,55,Thu Sep 21 14:33:46 2023,1500,The main experiment item,TRUE,FlankerTask.osexp,C:\Users\Simone\Desktop,FALSE,mono,FALSE,18,no,white,no,yes,768,legacy,55,55,C:/Users/Simone/Desktop/SD-subject-4.csv,legacy,Melodramatic Milgram,4.0.5,0,h,NA,s,NA,NA,h,NA,401,NA,2308,NA,NA,401,NA,2,legacy,1024,2,48000,-16,experiment,HHHHH,4,even,89785,4092,NA,NA,6115,1780,NA,NA,90816,1783,NA,NA,90917,91319,NA,90814,90917,Flanker Task,55,24007,56,1024
98,98,427,427,black,legacy,legacy,legacy,incongruent,1,undefined,1,s,56,0,0,0,56,0,56,0,56,0,0,0,56,56,NA,56,56,Thu Sep 21 14:33:46 2023,1500,The main experiment item,TRUE,FlankerTask.osexp,C:\Users\Simone\Desktop,FALSE,mono,FALSE,18,no,white,no,yes,768,legacy,56,56,C:/Users/Simone/Desktop/SD-subject-4.csv,legacy,Melodramatic Milgram,4.0.5,0,s,NA,s,NA,NA,s,NA,377,NA,2308,NA,NA,377,NA,2,legacy,1024,2,48000,-16,experiment,HHSHH,4,even,91322,4092,NA,NA,6115,1780,NA,NA,92367,1783,NA,NA,92468,92846,NA,92365,92468,Flanker Task,56,24384,57,1024
98,98,428,428,black,legacy,legacy,legacy,congruent ,1,undefined,1,h,57,0,0,0,57,0,57,0,57,0,0,0,57,57,NA,57,57,Thu Sep 21 14:33:46 2023,1500,The main experiment item,TRUE,FlankerTask.osexp,C:\Users\Simone\Desktop,FALSE,mono,FALSE,18,no,white,no,yes,768,legacy,57,57,C:/Users/Simone/Desktop/SD-subject-4.csv,legacy,Melodramatic Milgram,4.0.5,0,h,NA,s,NA,NA,h,NA,464,NA,2308,NA,NA,464,NA,2,legacy,1024,2,48000,-16,experiment,HHHHH,4,even,92849,4092,NA,NA,6115,1780,NA,NA,93881,1783,NA,NA,93982,94447,NA,93879,93982,Flanker Task,57,24848,58,1024
96,96,430,430,black,legacy,legacy,legacy,incongruent,0,undefined,0,h,58,0,0,0,58,0,58,0,58,0,0,0,58,58,NA,58,58,Thu Sep 21 14:33:46 2023,1500,The main experiment item,TRUE,FlankerTask.osexp,C:\Users\Simone\Desktop,FALSE,mono,FALSE,18,no,white,no,yes,768,legacy,58,58,C:/Users/Simone/Desktop/SD-subject-4.csv,legacy,Melodramatic Milgram,4.0.5,0,s,NA,s,NA,NA,s,NA,533,NA,2308,NA,NA,533,NA,2,legacy,1024,2,48000,-16,experiment,SSHSS,4,even,94450,4092,NA,NA,6115,1780,NA,NA,95485,1783,NA,NA,95587,96121,NA,95483,95586,Flanker Task,57,25381,59,1024
96,96,431,431,black,legacy,legacy,legacy,incongruent,1,undefined,1,h,59,0,0,0,59,0,59,0,59,0,0,0,59,59,NA,59,59,Thu Sep 21 14:33:46 2023,1500,The main experiment item,TRUE,FlankerTask.osexp,C:\Users\Simone\Desktop,FALSE,mono,FALSE,18,no,white,no,yes,768,legacy,59,59,C:/Users/Simone/Desktop/SD-subject-4.csv,legacy,Melodramatic Milgram,4.0.5,0,h,NA,s,NA,NA,h,NA,532,NA,2308,NA,NA,532,NA,2,legacy,1024,2,48000,-16,experiment,SSHSS,4,even,96626,4092,NA,NA,96125,1780,NA,NA,97651,1783,NA,NA,97752,98286,NA,97649,97752,Flanker Task,58,25913,60,1024
96,96,433,433,black,legacy,legacy,legacy,incongruent,1,undefined,1,h,60,0,0,0,60,0,60,0,60,0,0,0,60,60,NA,60,60,Thu Sep 21 14:33:46 2023,1500,The main experiment item,TRUE,FlankerTask.osexp,C:\Users\Simone\Desktop,FALSE,mono,FALSE,18,no,white,no,yes,768,legacy,60,60,C:/Users/Simone/Desktop/SD-subject-4.csv,legacy,Melodramatic Milgram,4.0.5,0,h,NA,s,NA,NA,h,NA,515,NA,2308,NA,NA,515,NA,2,legacy,1024,2,48000,-16,experiment,SSHSS,4,even,98292,4092,NA,NA,96125,1780,NA,NA,99322,1783,NA,NA,99423,99939,NA,99320,99423,Flanker Task,59,26428,61,1024
96,96,433,433,black,legacy,legacy,legacy,incongruent,1,undefined,1,s,61,0,0,0,61,0,61,0,61,0,0,0,61,61,NA,61,61,Thu Sep 21 14:33:46 2023,1500,The main experiment item,TRUE,FlankerTask.osexp,C:\Users\Simone\Desktop,FALSE,mono,FALSE,18,no,white,no,yes,768,legacy,61,61,C:/Users/Simone/Desktop/SD-subject-4.csv,legacy,Melodramatic Milgram,4.0.5,0,s,NA,s,NA,NA,s,NA,454,NA,2308,NA,NA,454,NA,2,legacy,1024,2,48000,-16,experiment,HHSHH,4,even,99943,4092,NA,NA,96125,1780,NA,NA,100973,1783,NA,NA,101074,101529,NA,100971,101074,Flanker Task,60,26882,62,1024
96,96,432,432,black,legacy,legacy,legacy,congruent ,1,undefined,1,h,62,0,0,0,62,0,62,0,62,0,0,0,62,62,NA,62,62,Thu Sep 21 14:33:46 2023,1500,The main experiment item,TRUE,FlankerTask.osexp,C:\Users\Simone\Desktop,FALSE,mono,FALSE,18,no,white,no,yes,768,legacy,62,62,C:/Users/Simone/Desktop/SD-subject-4.csv,legacy,Melodramatic Milgram,4.0.5,0,h,NA,s,NA,NA,h,NA,370,NA,2308,NA,NA,370,NA,2,legacy,1024,2,48000,-16,experiment,HHHHH,4,even,101533,4092,NA,NA,96125,1780,NA,NA,102565,1783,NA,NA,102666,103036,NA,102563,102666,Flanker Task,61,27252,63,1024
96,96,433,433,black,legacy,legacy,legacy,incongruent,1,undefined,1,h,63,0,0,0,63,0,63,0,63,0,0,0,63,63,NA,63,63,Thu Sep 21 14:33:46 2023,1500,The main experiment item,TRUE,FlankerTask.osexp,C:\Users\Simone\Desktop,FALSE,mono,FALSE,18,no,white,no,yes,768,legacy,63,63,C:/Users/Simone/Desktop/SD-subject-4.csv,legacy,Melodramatic Milgram,4.0.5,0,h,NA,s,NA,NA,h,NA,498,NA,2308,NA,NA,498,NA,2,legacy,1024,2,48000,-16,experiment,SSHSS,4,even,103040,4092,NA,NA,96125,1780,NA,NA,104069,1783,NA,NA,104170,104669,NA,104067,104170,Flanker Task,62,27750,64,1024
96,96,434,434,black,legacy,legacy,legacy,incongruent,1,undefined,1,h,64,0,0,0,64,0,64,0,64,0,0,0,64,64,NA,64,64,Thu Sep 21 14:33:46 2023,1500,The main experiment item,TRUE,FlankerTask.osexp,C:\Users\Simone\Desktop,FALSE,mono,FALSE,18,no,white,no,yes,768,legacy,64,64,C:/Users/Simone/Desktop/SD-subject-4.csv,legacy,Melodramatic Milgram,4.0.5,0,h,NA,s,NA,NA,h,NA,481,NA,2308,NA,NA,481,NA,2,legacy,1024,2,48000,-16,experiment,SSHSS,4,even,104675,4092,NA,NA,96125,1780,NA,NA,105706,1783,NA,NA,105807,106289,NA,105704,105807,Flanker Task,63,28231,65,1024
96,96,434,434,black,legacy,legacy,legacy,incongruent,1,undefined,1,s,65,0,0,0,65,0,65,0,65,0,0,0,65,65,NA,65,65,Thu Sep 21 14:33:46 2023,1500,The main experiment item,TRUE,FlankerTask.osexp,C:\Users\Simone\Desktop,FALSE,mono,FALSE,18,no,white,no,yes,768,legacy,65,65,C:/Users/Simone/Desktop/SD-subject-4.csv,legacy,Melodramatic Milgram,4.0.5,0,s,NA,s,NA,NA,s,NA,443,NA,2308,NA,NA,443,NA,2,legacy,1024,2,48000,-16,experiment,HHSHH,4,even,106293,4092,NA,NA,96125,1780,NA,NA,107345,1783,NA,NA,107446,107890,NA,107343,107446,Flanker Task,64,28674,66,1024
97,97,434,434,black,legacy,legacy,legacy,incongruent,1,undefined,1,s,66,0,0,0,66,0,66,0,66,0,0,0,66,66,NA,66,66,Thu Sep 21 14:33:46 2023,1500,The main experiment item,TRUE,FlankerTask.osexp,C:\Users\Simone\Desktop,FALSE,mono,FALSE,18,no,white,no,yes,768,legacy,66,66,C:/Users/Simone/Desktop/SD-subject-4.csv,legacy,Melodramatic Milgram,4.0.5,0,s,NA,s,NA,NA,s,NA,428,NA,2308,NA,NA,428,NA,2,legacy,1024,2,48000,-16,experiment,HHSHH,4,even,107894,4092,NA,NA,96125,1780,NA,NA,108925,1783,NA,NA,109026,109455,NA,108923,109026,Flanker Task,65,29102,67,1024
97,97,436,436,black,legacy,legacy,legacy,congruent ,1,undefined,1,s,67,0,0,0,67,0,67,0,67,0,0,0,67,67,NA,67,67,Thu Sep 21 14:33:46 2023,1500,The main experiment item,TRUE,FlankerTask.osexp,C:\Users\Simone\Desktop,FALSE,mono,FALSE,18,no,white,no,yes,768,legacy,67,67,C:/Users/Simone/Desktop/SD-subject-4.csv,legacy,Melodramatic Milgram,4.0.5,0,s,NA,s,NA,NA,s,NA,602,NA,2308,NA,NA,602,NA,2,legacy,1024,2,48000,-16,experiment,SSSSS,4,even,109458,4092,NA,NA,96125,1780,NA,NA,110489,1783,NA,NA,110590,111192,NA,110488,110590,Flanker Task,66,29704,68,1024
97,97,436,436,black,legacy,legacy,legacy,congruent ,1,undefined,1,h,68,0,0,0,68,0,68,0,68,0,0,0,68,68,NA,68,68,Thu Sep 21 14:33:46 2023,1500,The main experiment item,TRUE,FlankerTask.osexp,C:\Users\Simone\Desktop,FALSE,mono,FALSE,18,no,white,no,yes,768,legacy,68,68,C:/Users/Simone/Desktop/SD-subject-4.csv,legacy,Melodramatic Milgram,4.0.5,0,h,NA,s,NA,NA,h,NA,402,NA,2308,NA,NA,402,NA,2,legacy,1024,2,48000,-16,experiment,HHHHH,4,even,111196,4092,NA,NA,96125,1780,NA,NA,112231,1783,NA,NA,112333,112736,NA,112229,112333,Flanker Task,67,30106,69,1024
97,97,436,436,black,legacy,legacy,legacy,congruent ,1,undefined,1,h,69,0,0,0,69,0,69,0,69,0,0,0,69,69,NA,69,69,Thu Sep 21 14:33:46 2023,1500,The main experiment item,TRUE,FlankerTask.osexp,C:\Users\Simone\Desktop,FALSE,mono,FALSE,18,no,white,no,yes,768,legacy,69,69,C:/Users/Simone/Desktop/SD-subject-4.csv,legacy,Melodramatic Milgram,4.0.5,0,h,NA,s,NA,NA,h,NA,418,NA,2308,NA,NA,418,NA,2,legacy,1024,2,48000,-16,experiment,HHHHH,4,even,112740,4092,NA,NA,96125,1780,NA,NA,113775,1783,NA,NA,113876,114295,NA,113773,113876,Flanker Task,68,30524,70,1024
97,97,436,436,black,legacy,legacy,legacy,congruent ,1,undefined,1,h,70,0,0,0,70,0,70,0,70,0,0,0,70,70,NA,70,70,Thu Sep 21 14:33:46 2023,1500,The main experiment item,TRUE,FlankerTask.osexp,C:\Users\Simone\Desktop,FALSE,mono,FALSE,18,no,white,no,yes,768,legacy,70,70,C:/Users/Simone/Desktop/SD-subject-4.csv,legacy,Melodramatic Milgram,4.0.5,0,h,NA,s,NA,NA,h,NA,445,NA,2308,NA,NA,445,NA,2,legacy,1024,2,48000,-16,experiment,HHHHH,4,even,114299,4092,NA,NA,96125,1780,NA,NA,115331,1783,NA,NA,115432,115878,NA,115329,115432,Flanker Task,69,30969,71,1024
97,97,435,435,black,legacy,legacy,legacy,congruent ,1,undefined,1,s,71,0,0,0,71,0,71,0,71,0,0,0,71,71,NA,71,71,Thu Sep 21 14:33:46 2023,1500,The main experiment item,TRUE,FlankerTask.osexp,C:\Users\Simone\Desktop,FALSE,mono,FALSE,18,no,white,no,yes,768,legacy,71,71,C:/Users/Simone/Desktop/SD-subject-4.csv,legacy,Melodramatic Milgram,4.0.5,0,s,NA,s,NA,NA,s,NA,413,NA,2308,NA,NA,413,NA,2,legacy,1024,2,48000,-16,experiment,SSSSS,4,even,115882,4092,NA,NA,96125,1780,NA,NA,116912,1783,NA,NA,117013,117426,NA,116910,117013,Flanker Task,70,31382,72,1024
97,97,436,436,black,legacy,legacy,legacy,incongruent,1,undefined,1,s,72,0,0,0,72,0,72,0,72,0,0,0,72,72,NA,72,72,Thu Sep 21 14:33:46 2023,1500,The main experiment item,TRUE,FlankerTask.osexp,C:\Users\Simone\Desktop,FALSE,mono,FALSE,18,no,white,no,yes,768,legacy,72,72,C:/Users/Simone/Desktop/SD-subject-4.csv,legacy,Melodramatic Milgram,4.0.5,0,s,NA,s,NA,NA,s,NA,465,NA,2308,NA,NA,465,NA,2,legacy,1024,2,48000,-16,experiment,HHSHH,4,even,117431,4092,NA,NA,96125,1780,NA,NA,118469,1783,NA,NA,118570,119036,NA,118467,118570,Flanker Task,71,31847,73,1024
97,97,437,437,black,legacy,legacy,legacy,congruent ,1,undefined,1,s,73,0,0,0,73,0,73,0,73,0,0,0,73,73,NA,73,73,Thu Sep 21 14:33:46 2023,1500,The main experiment item,TRUE,FlankerTask.osexp,C:\Users\Simone\Desktop,FALSE,mono,FALSE,18,no,white,no,yes,768,legacy,73,73,C:/Users/Simone/Desktop/SD-subject-4.csv,legacy,Melodramatic Milgram,4.0.5,0,s,NA,s,NA,NA,s,NA,554,NA,2308,NA,NA,554,NA,2,legacy,1024,2,48000,-16,experiment,SSSSS,4,even,119040,4092,NA,NA,96125,1780,NA,NA,120075,1783,NA,NA,120176,120731,NA,120073,120176,Flanker Task,72,32401,74,1024
97,97,439,439,black,legacy,legacy,legacy,incongruent,1,undefined,1,s,74,0,0,0,74,0,74,0,74,0,0,0,74,74,NA,74,74,Thu Sep 21 14:33:46 2023,1500,The main experiment item,TRUE,FlankerTask.osexp,C:\Users\Simone\Desktop,FALSE,mono,FALSE,18,no,white,no,yes,768,legacy,74,74,C:/Users/Simone/Desktop/SD-subject-4.csv,legacy,Melodramatic Milgram,4.0.5,0,s,NA,s,NA,NA,s,NA,526,NA,2308,NA,NA,526,NA,2,legacy,1024,2,48000,-16,experiment,HHSHH,4,even,120735,4092,NA,NA,96125,1780,NA,NA,121778,1783,NA,NA,121880,122407,NA,121776,121880,Flanker Task,73,32927,75,1024
97,97,438,438,black,legacy,legacy,legacy,incongruent,1,undefined,1,h,75,0,0,0,75,0,75,0,75,0,0,0,75,75,NA,75,75,Thu Sep 21 14:33:46 2023,1500,The main experiment item,TRUE,FlankerTask.osexp,C:\Users\Simone\Desktop,FALSE,mono,FALSE,18,no,white,no,yes,768,legacy,75,75,C:/Users/Simone/Desktop/SD-subject-4.csv,legacy,Melodramatic Milgram,4.0.5,0,h,NA,s,NA,NA,h,NA,434,NA,2308,NA,NA,434,NA,2,legacy,1024,2,48000,-16,experiment,SSHSS,4,even,122411,4092,NA,NA,96125,1780,NA,NA,123440,1783,NA,NA,123541,123976,NA,123439,123541,Flanker Task,74,33361,76,1024
97,97,439,439,black,legacy,legacy,legacy,incongruent,1,undefined,1,h,76,0,0,0,76,0,76,0,76,0,0,0,76,76,NA,76,76,Thu Sep 21 14:33:46 2023,1500,The main experiment item,TRUE,FlankerTask.osexp,C:\Users\Simone\Desktop,FALSE,mono,FALSE,18,no,white,no,yes,768,legacy,76,76,C:/Users/Simone/Desktop/SD-subject-4.csv,legacy,Melodramatic Milgram,4.0.5,0,h,NA,s,NA,NA,h,NA,457,NA,2308,NA,NA,457,NA,2,legacy,1024,2,48000,-16,experiment,SSHSS,4,even,123980,4092,NA,NA,96125,1780,NA,NA,125012,1783,NA,NA,125113,125571,NA,125010,125113,Flanker Task,75,33818,77,1024
97,97,438,438,black,legacy,legacy,legacy,congruent ,1,undefined,1,s,77,0,0,0,77,0,77,0,77,0,0,0,77,77,NA,77,77,Thu Sep 21 14:33:46 2023,1500,The main experiment item,TRUE,FlankerTask.osexp,C:\Users\Simone\Desktop,FALSE,mono,FALSE,18,no,white,no,yes,768,legacy,77,77,C:/Users/Simone/Desktop/SD-subject-4.csv,legacy,Melodramatic Milgram,4.0.5,0,s,NA,s,NA,NA,s,NA,384,NA,2308,NA,NA,384,NA,2,legacy,1024,2,48000,-16,experiment,SSSSS,4,even,125575,4092,NA,NA,96125,1780,NA,NA,126606,1783,NA,NA,126707,127091,NA,126604,126707,Flanker Task,76,34202,78,1024
97,97,440,440,black,legacy,legacy,legacy,incongruent,1,undefined,1,h,78,0,0,0,78,0,78,0,78,0,0,0,78,78,NA,78,78,Thu Sep 21 14:33:46 2023,1500,The main experiment item,TRUE,FlankerTask.osexp,C:\Users\Simone\Desktop,FALSE,mono,FALSE,18,no,white,no,yes,768,legacy,78,78,C:/Users/Simone/Desktop/SD-subject-4.csv,legacy,Melodramatic Milgram,4.0.5,0,h,NA,s,NA,NA,h,NA,570,NA,2308,NA,NA,570,NA,2,legacy,1024,2,48000,-16,experiment,SSHSS,4,even,127095,4092,NA,NA,96125,1780,NA,NA,128122,1783,NA,NA,128224,128794,NA,128120,128224,Flanker Task,77,34772,79,1024
97,97,440,440,black,legacy,legacy,legacy,incongruent,1,undefined,1,h,79,0,0,0,79,0,79,0,79,0,0,0,79,79,NA,79,79,Thu Sep 21 14:33:46 2023,1500,The main experiment item,TRUE,FlankerTask.osexp,C:\Users\Simone\Desktop,FALSE,mono,FALSE,18,no,white,no,yes,768,legacy,79,79,C:/Users/Simone/Desktop/SD-subject-4.csv,legacy,Melodramatic Milgram,4.0.5,0,h,NA,s,NA,NA,h,NA,459,NA,2308,NA,NA,459,NA,2,legacy,1024,2,48000,-16,experiment,SSHSS,4,even,128798,4092,NA,NA,96125,1780,NA,NA,129826,1783,NA,NA,129927,130387,NA,129824,129927,Flanker Task,78,35231,80,1024
97,97,441,441,black,legacy,legacy,legacy,incongruent,1,undefined,1,h,80,0,0,0,80,0,80,0,80,0,0,0,80,80,NA,80,80,Thu Sep 21 14:33:46 2023,600,The main experiment item,TRUE,FlankerTask.osexp,C:\Users\Simone\Desktop,FALSE,mono,FALSE,18,no,white,no,yes,768,legacy,0,79,C:/Users/Simone/Desktop/SD-subject-4.csv,legacy,Melodramatic Milgram,4.0.5,0,h,NA,s,h,NA,h,NA,541,NA,2308,27822,NA,541,NA,2,legacy,1024,2,48000,-16,experiment,SSHSS,4,even,130390,4092,159214,NA,96125,1780,NA,NA,159255,1783,131391,NA,159356,159897,NA,159253,159356,Flanker Task,79,35772,81,1024
97,97,440,440,black,legacy,legacy,legacy,incongruent,1,undefined,1,s,81,0,0,0,81,0,81,0,81,0,0,0,81,81,NA,81,81,Thu Sep 21 14:33:46 2023,600,The main experiment item,TRUE,FlankerTask.osexp,C:\Users\Simone\Desktop,FALSE,mono,FALSE,18,no,white,no,yes,768,legacy,1,79,C:/Users/Simone/Desktop/SD-subject-4.csv,legacy,Melodramatic Milgram,4.0.5,0,s,NA,s,h,NA,s,NA,364,NA,2308,27822,NA,364,NA,2,legacy,1024,2,48000,-16,experiment,HHSHH,4,even,159901,4092,159214,NA,96125,1780,NA,NA,160933,1783,131391,NA,161034,161399,NA,160930,161034,Flanker Task,80,36136,82,1024
97,97,440,440,black,legacy,legacy,legacy,incongruent,1,undefined,1,h,82,0,0,0,82,0,82,0,82,0,0,0,82,82,NA,82,82,Thu Sep 21 14:33:46 2023,600,The main experiment item,TRUE,FlankerTask.osexp,C:\Users\Simone\Desktop,FALSE,mono,FALSE,18,no,white,no,yes,768,legacy,2,79,C:/Users/Simone/Desktop/SD-subject-4.csv,legacy,Melodramatic Milgram,4.0.5,0,h,NA,s,h,NA,h,NA,430,NA,2308,27822,NA,430,NA,2,legacy,1024,2,48000,-16,experiment,SSHSS,4,even,161402,4092,159214,NA,96125,1780,NA,NA,162428,1783,131391,NA,162530,162960,NA,162427,162530,Flanker Task,81,36566,83,1024
97,97,440,440,black,legacy,legacy,legacy,congruent ,1,undefined,1,h,83,0,0,0,83,0,83,0,83,0,0,0,83,83,NA,83,83,Thu Sep 21 14:33:46 2023,600,The main experiment item,TRUE,FlankerTask.osexp,C:\Users\Simone\Desktop,FALSE,mono,FALSE,18,no,white,no,yes,768,legacy,3,79,C:/Users/Simone/Desktop/SD-subject-4.csv,legacy,Melodramatic Milgram,4.0.5,0,h,NA,s,h,NA,h,NA,437,NA,2308,27822,NA,437,NA,2,legacy,1024,2,48000,-16,experiment,HHHHH,4,even,162965,4092,159214,NA,96125,1780,NA,NA,163998,1783,131391,NA,164099,164536,NA,163996,164099,Flanker Task,82,37003,84,1024
97,97,440,440,black,legacy,legacy,legacy,incongruent,1,undefined,1,s,84,0,0,0,84,0,84,0,84,0,0,0,84,84,NA,84,84,Thu Sep 21 14:33:46 2023,600,The main experiment item,TRUE,FlankerTask.osexp,C:\Users\Simone\Desktop,FALSE,mono,FALSE,18,no,white,no,yes,768,legacy,4,79,C:/Users/Simone/Desktop/SD-subject-4.csv,legacy,Melodramatic Milgram,4.0.5,0,s,NA,s,h,NA,s,NA,454,NA,2308,27822,NA,454,NA,2,legacy,1024,2,48000,-16,experiment,HHSHH,4,even,164540,4092,159214,NA,96125,1780,NA,NA,165570,1783,131391,NA,165671,166125,NA,165568,165671,Flanker Task,83,37457,85,1024
97,97,440,440,black,legacy,legacy,legacy,incongruent,1,undefined,1,h,85,0,0,0,85,0,85,0,85,0,0,0,85,85,NA,85,85,Thu Sep 21 14:33:46 2023,600,The main experiment item,TRUE,FlankerTask.osexp,C:\Users\Simone\Desktop,FALSE,mono,FALSE,18,no,white,no,yes,768,legacy,5,79,C:/Users/Simone/Desktop/SD-subject-4.csv,legacy,Melodramatic Milgram,4.0.5,0,h,NA,s,h,NA,h,NA,414,NA,2308,27822,NA,414,NA,2,legacy,1024,2,48000,-16,experiment,SSHSS,4,even,166129,4092,159214,NA,96125,1780,NA,NA,167158,1783,131391,NA,167259,167674,NA,167156,167259,Flanker Task,84,37871,86,1024
97,97,439,439,black,legacy,legacy,legacy,congruent ,1,undefined,1,h,86,0,0,0,86,0,86,0,86,0,0,0,86,86,NA,86,86,Thu Sep 21 14:33:46 2023,600,The main experiment item,TRUE,FlankerTask.osexp,C:\Users\Simone\Desktop,FALSE,mono,FALSE,18,no,white,no,yes,768,legacy,6,79,C:/Users/Simone/Desktop/SD-subject-4.csv,legacy,Melodramatic Milgram,4.0.5,0,h,NA,s,h,NA,h,NA,359,NA,2308,27822,NA,359,NA,2,legacy,1024,2,48000,-16,experiment,HHHHH,4,even,167678,4092,159214,NA,96125,1780,NA,NA,168710,1783,131391,NA,168811,169171,NA,168707,168811,Flanker Task,85,38230,87,1024
97,97,439,439,black,legacy,legacy,legacy,incongruent,1,undefined,1,s,87,0,0,0,87,0,87,0,87,0,0,0,87,87,NA,87,87,Thu Sep 21 14:33:46 2023,600,The main experiment item,TRUE,FlankerTask.osexp,C:\Users\Simone\Desktop,FALSE,mono,FALSE,18,no,white,no,yes,768,legacy,7,79,C:/Users/Simone/Desktop/SD-subject-4.csv,legacy,Melodramatic Milgram,4.0.5,0,s,NA,s,h,NA,s,NA,422,NA,2308,27822,NA,422,NA,2,legacy,1024,2,48000,-16,experiment,HHSHH,4,even,169173,4092,159214,NA,96125,1780,NA,NA,170205,1783,131391,NA,170306,170729,NA,170203,170306,Flanker Task,86,38652,88,1024
97,97,438,438,black,legacy,legacy,legacy,congruent ,1,undefined,1,h,88,0,0,0,88,0,88,0,88,0,0,0,88,88,NA,88,88,Thu Sep 21 14:33:46 2023,600,The main experiment item,TRUE,FlankerTask.osexp,C:\Users\Simone\Desktop,FALSE,mono,FALSE,18,no,white,no,yes,768,legacy,8,79,C:/Users/Simone/Desktop/SD-subject-4.csv,legacy,Melodramatic Milgram,4.0.5,0,h,NA,s,h,NA,h,NA,383,NA,2308,27822,NA,383,NA,2,legacy,1024,2,48000,-16,experiment,HHHHH,4,even,170734,4092,159214,NA,96125,1780,NA,NA,171766,1783,131391,NA,171867,172251,NA,171764,171867,Flanker Task,87,39035,89,1024
97,97,438,438,black,legacy,legacy,legacy,congruent ,1,undefined,1,h,89,0,0,0,89,0,89,0,89,0,0,0,89,89,NA,89,89,Thu Sep 21 14:33:46 2023,600,The main experiment item,TRUE,FlankerTask.osexp,C:\Users\Simone\Desktop,FALSE,mono,FALSE,18,no,white,no,yes,768,legacy,9,79,C:/Users/Simone/Desktop/SD-subject-4.csv,legacy,Melodramatic Milgram,4.0.5,0,h,NA,s,h,NA,h,NA,389,NA,2308,27822,NA,389,NA,2,legacy,1024,2,48000,-16,experiment,HHHHH,4,even,172255,4092,159214,NA,96125,1780,NA,NA,173296,1783,131391,NA,173397,173787,NA,173294,173397,Flanker Task,88,39424,90,1024
97,97,437,437,black,legacy,legacy,legacy,incongruent,1,undefined,1,s,90,0,0,0,90,0,90,0,90,0,0,0,90,90,NA,90,90,Thu Sep 21 14:33:46 2023,600,The main experiment item,TRUE,FlankerTask.osexp,C:\Users\Simone\Desktop,FALSE,mono,FALSE,18,no,white,no,yes,768,legacy,10,79,C:/Users/Simone/Desktop/SD-subject-4.csv,legacy,Melodramatic Milgram,4.0.5,0,s,NA,s,h,NA,s,NA,350,NA,2308,27822,NA,350,NA,2,legacy,1024,2,48000,-16,experiment,HHSHH,4,even,173790,4092,159214,NA,96125,1780,NA,NA,174830,1783,131391,NA,174932,175283,NA,174827,174932,Flanker Task,89,39774,91,1024
97,97,435,435,black,legacy,legacy,legacy,incongruent,1,undefined,1,s,91,0,0,0,91,0,91,0,91,0,0,0,91,91,NA,91,91,Thu Sep 21 14:33:46 2023,600,The main experiment item,TRUE,FlankerTask.osexp,C:\Users\Simone\Desktop,FALSE,mono,FALSE,18,no,white,no,yes,768,legacy,11,79,C:/Users/Simone/Desktop/SD-subject-4.csv,legacy,Melodramatic Milgram,4.0.5,0,s,NA,s,h,NA,s,NA,336,NA,2308,27822,NA,336,NA,2,legacy,1024,2,48000,-16,experiment,HHSHH,4,even,175287,4092,159214,NA,96125,1780,NA,NA,176318,1783,131391,NA,176419,176757,NA,176316,176419,Flanker Task,90,40110,92,1024
97,97,436,436,black,legacy,legacy,legacy,incongruent,1,undefined,1,h,92,0,0,0,92,0,92,0,92,0,0,0,92,92,NA,92,92,Thu Sep 21 14:33:46 2023,600,The main experiment item,TRUE,FlankerTask.osexp,C:\Users\Simone\Desktop,FALSE,mono,FALSE,18,no,white,no,yes,768,legacy,12,79,C:/Users/Simone/Desktop/SD-subject-4.csv,legacy,Melodramatic Milgram,4.0.5,0,h,NA,s,h,NA,h,NA,439,NA,2308,27822,NA,439,NA,2,legacy,1024,2,48000,-16,experiment,SSHSS,4,even,176760,4092,159214,NA,96125,1780,NA,NA,177789,1783,131391,NA,177890,178330,NA,177787,177890,Flanker Task,91,40549,93,1024
97,97,435,435,black,legacy,legacy,legacy,incongruent,1,undefined,1,s,93,0,0,0,93,0,93,0,93,0,0,0,93,93,NA,93,93,Thu Sep 21 14:33:46 2023,600,The main experiment item,TRUE,FlankerTask.osexp,C:\Users\Simone\Desktop,FALSE,mono,FALSE,18,no,white,no,yes,768,legacy,13,79,C:/Users/Simone/Desktop/SD-subject-4.csv,legacy,Melodramatic Milgram,4.0.5,0,s,NA,s,h,NA,s,NA,431,NA,2308,27822,NA,431,NA,2,legacy,1024,2,48000,-16,experiment,HHSHH,4,even,178334,4092,159214,NA,96125,1780,NA,NA,179368,1783,131391,NA,179470,179902,NA,179366,179470,Flanker Task,92,40980,94,1024
97,97,435,435,black,legacy,legacy,legacy,incongruent,1,undefined,1,s,94,0,0,0,94,0,94,0,94,0,0,0,94,94,NA,94,94,Thu Sep 21 14:33:46 2023,600,The main experiment item,TRUE,FlankerTask.osexp,C:\Users\Simone\Desktop,FALSE,mono,FALSE,18,no,white,no,yes,768,legacy,14,79,C:/Users/Simone/Desktop/SD-subject-4.csv,legacy,Melodramatic Milgram,4.0.5,0,s,NA,s,h,NA,s,NA,402,NA,2308,27822,NA,402,NA,2,legacy,1024,2,48000,-16,experiment,HHSHH,4,even,179906,4092,159214,NA,96125,1780,NA,NA,180936,1783,131391,NA,181037,181440,NA,180935,181037,Flanker Task,93,41382,95,1024
97,97,434,434,black,legacy,legacy,legacy,congruent ,1,undefined,1,s,95,0,0,0,95,0,95,0,95,0,0,0,95,95,NA,95,95,Thu Sep 21 14:33:46 2023,600,The main experiment item,TRUE,FlankerTask.osexp,C:\Users\Simone\Desktop,FALSE,mono,FALSE,18,no,white,no,yes,768,legacy,15,79,C:/Users/Simone/Desktop/SD-subject-4.csv,legacy,Melodramatic Milgram,4.0.5,0,s,NA,s,h,NA,s,NA,354,NA,2308,27822,NA,354,NA,2,legacy,1024,2,48000,-16,experiment,SSSSS,4,even,181442,4092,159214,NA,96125,1780,NA,NA,182480,1783,131391,NA,182581,182935,NA,182478,182581,Flanker Task,94,41736,96,1024
97,97,433,433,black,legacy,legacy,legacy,congruent ,1,undefined,1,h,96,0,0,0,96,0,96,0,96,0,0,0,96,96,NA,96,96,Thu Sep 21 14:33:46 2023,600,The main experiment item,TRUE,FlankerTask.osexp,C:\Users\Simone\Desktop,FALSE,mono,FALSE,18,no,white,no,yes,768,legacy,16,79,C:/Users/Simone/Desktop/SD-subject-4.csv,legacy,Melodramatic Milgram,4.0.5,0,h,NA,s,h,NA,h,NA,326,NA,2308,27822,NA,326,NA,2,legacy,1024,2,48000,-16,experiment,HHHHH,4,even,182939,4092,159214,NA,96125,1780,NA,NA,183964,1783,131391,NA,184065,184392,NA,183962,184065,Flanker Task,95,42062,97,1024
97,97,433,433,black,legacy,legacy,legacy,incongruent,1,undefined,1,h,97,0,0,0,97,0,97,0,97,0,0,0,97,97,NA,97,97,Thu Sep 21 14:33:46 2023,600,The main experiment item,TRUE,FlankerTask.osexp,C:\Users\Simone\Desktop,FALSE,mono,FALSE,18,no,white,no,yes,768,legacy,17,79,C:/Users/Simone/Desktop/SD-subject-4.csv,legacy,Melodramatic Milgram,4.0.5,0,h,NA,s,h,NA,h,NA,434,NA,2308,27822,NA,434,NA,2,legacy,1024,2,48000,-16,experiment,SSHSS,4,even,184396,4092,159214,NA,96125,1780,NA,NA,185427,1783,131391,NA,185528,185963,NA,185426,185528,Flanker Task,96,42496,98,1024
97,97,433,433,black,legacy,legacy,legacy,congruent ,1,undefined,1,h,98,0,0,0,98,0,98,0,98,0,0,0,98,98,NA,98,98,Thu Sep 21 14:33:46 2023,600,The main experiment item,TRUE,FlankerTask.osexp,C:\Users\Simone\Desktop,FALSE,mono,FALSE,18,no,white,no,yes,768,legacy,18,79,C:/Users/Simone/Desktop/SD-subject-4.csv,legacy,Melodramatic Milgram,4.0.5,0,h,NA,s,h,NA,h,NA,397,NA,2308,27822,NA,397,NA,2,legacy,1024,2,48000,-16,experiment,HHHHH,4,even,185966,4092,159214,NA,96125,1780,NA,NA,187007,1783,131391,NA,187108,187506,NA,187006,187108,Flanker Task,97,42893,99,1024
98,98,432,432,black,legacy,legacy,legacy,congruent ,1,undefined,1,h,99,0,0,0,99,0,99,0,99,0,0,0,99,99,NA,99,99,Thu Sep 21 14:33:46 2023,600,The main experiment item,TRUE,FlankerTask.osexp,C:\Users\Simone\Desktop,FALSE,mono,FALSE,18,no,white,no,yes,768,legacy,19,79,C:/Users/Simone/Desktop/SD-subject-4.csv,legacy,Melodramatic Milgram,4.0.5,0,h,NA,s,h,NA,h,NA,406,NA,2308,27822,NA,406,NA,2,legacy,1024,2,48000,-16,experiment,HHHHH,4,even,187509,4092,159214,NA,96125,1780,NA,NA,188538,1783,131391,NA,188640,189047,NA,188536,188639,Flanker Task,98,43299,100,1024
98,98,431,431,black,legacy,legacy,legacy,congruent ,1,undefined,1,s,100,0,0,0,100,0,100,0,100,0,0,0,100,100,NA,100,100,Thu Sep 21 14:33:46 2023,600,The main experiment item,TRUE,FlankerTask.osexp,C:\Users\Simone\Desktop,FALSE,mono,FALSE,18,no,white,no,yes,768,legacy,20,79,C:/Users/Simone/Desktop/SD-subject-4.csv,legacy,Melodramatic Milgram,4.0.5,0,s,NA,s,h,NA,s,NA,307,NA,2308,27822,NA,307,NA,2,legacy,1024,2,48000,-16,experiment,SSSSS,4,even,189051,4092,159214,NA,96125,1780,NA,NA,190078,1783,131391,NA,190179,190487,NA,190076,190179,Flanker Task,99,43606,101,1024
97,97,431,431,black,legacy,legacy,legacy,incongruent,0,undefined,0,s,101,0,0,0,101,0,101,0,101,0,0,0,101,101,NA,101,101,Thu Sep 21 14:33:46 2023,600,The main experiment item,TRUE,FlankerTask.osexp,C:\Users\Simone\Desktop,FALSE,mono,FALSE,18,no,white,no,yes,768,legacy,21,79,C:/Users/Simone/Desktop/SD-subject-4.csv,legacy,Melodramatic Milgram,4.0.5,0,h,NA,s,h,NA,h,NA,399,NA,2308,27822,NA,399,NA,2,legacy,1024,2,48000,-16,experiment,HHSHH,4,even,190492,4092,159214,NA,96125,1780,NA,NA,191523,1783,131391,NA,191624,192025,NA,191521,191624,Flanker Task,99,44005,102,1024
97,97,431,431,black,legacy,legacy,legacy,incongruent,1,undefined,1,s,102,0,0,0,102,0,102,0,102,0,0,0,102,102,NA,102,102,Thu Sep 21 14:33:46 2023,600,The main experiment item,TRUE,FlankerTask.osexp,C:\Users\Simone\Desktop,FALSE,mono,FALSE,18,no,white,no,yes,768,legacy,22,79,C:/Users/Simone/Desktop/SD-subject-4.csv,legacy,Melodramatic Milgram,4.0.5,0,s,NA,s,h,NA,s,NA,431,NA,2308,27822,NA,431,NA,2,legacy,1024,2,48000,-16,experiment,HHSHH,4,even,192530,4092,159214,NA,192029,1780,NA,NA,193562,1783,131391,NA,193663,194095,NA,193560,193663,Flanker Task,100,44436,103,1024
97,97,430,430,black,legacy,legacy,legacy,incongruent,1,undefined,1,s,103,0,0,0,103,0,103,0,103,0,0,0,103,103,NA,103,103,Thu Sep 21 14:33:46 2023,600,The main experiment item,TRUE,FlankerTask.osexp,C:\Users\Simone\Desktop,FALSE,mono,FALSE,18,no,white,no,yes,768,legacy,23,79,C:/Users/Simone/Desktop/SD-subject-4.csv,legacy,Melodramatic Milgram,4.0.5,0,s,NA,s,h,NA,s,NA,386,NA,2308,27822,NA,386,NA,2,legacy,1024,2,48000,-16,experiment,HHSHH,4,even,194099,4092,159214,NA,192029,1780,NA,NA,195126,1783,131391,NA,195227,195613,NA,195124,195227,Flanker Task,101,44822,104,1024
97,97,430,430,black,legacy,legacy,legacy,congruent ,1,undefined,1,s,104,0,0,0,104,0,104,0,104,0,0,0,104,104,NA,104,104,Thu Sep 21 14:33:46 2023,600,The main experiment item,TRUE,FlankerTask.osexp,C:\Users\Simone\Desktop,FALSE,mono,FALSE,18,no,white,no,yes,768,legacy,24,79,C:/Users/Simone/Desktop/SD-subject-4.csv,legacy,Melodramatic Milgram,4.0.5,0,s,NA,s,h,NA,s,NA,357,NA,2308,27822,NA,357,NA,2,legacy,1024,2,48000,-16,experiment,SSSSS,4,even,195619,4092,159214,NA,192029,1780,NA,NA,196650,1783,131391,NA,196751,197110,NA,196648,196751,Flanker Task,102,45179,105,1024
97,97,430,430,black,legacy,legacy,legacy,congruent ,1,undefined,1,h,105,0,0,0,105,0,105,0,105,0,0,0,105,105,NA,105,105,Thu Sep 21 14:33:46 2023,600,The main experiment item,TRUE,FlankerTask.osexp,C:\Users\Simone\Desktop,FALSE,mono,FALSE,18,no,white,no,yes,768,legacy,25,79,C:/Users/Simone/Desktop/SD-subject-4.csv,legacy,Melodramatic Milgram,4.0.5,0,h,NA,s,h,NA,h,NA,444,NA,2308,27822,NA,444,NA,2,legacy,1024,2,48000,-16,experiment,HHHHH,4,even,197113,4092,159214,NA,192029,1780,NA,NA,198144,1783,131391,NA,198246,198691,NA,198141,198246,Flanker Task,103,45623,106,1024
97,97,429,429,black,legacy,legacy,legacy,congruent ,1,undefined,1,s,106,0,0,0,106,0,106,0,106,0,0,0,106,106,NA,106,106,Thu Sep 21 14:33:46 2023,600,The main experiment item,TRUE,FlankerTask.osexp,C:\Users\Simone\Desktop,FALSE,mono,FALSE,18,no,white,no,yes,768,legacy,26,79,C:/Users/Simone/Desktop/SD-subject-4.csv,legacy,Melodramatic Milgram,4.0.5,0,s,NA,s,h,NA,s,NA,348,NA,2308,27822,NA,348,NA,2,legacy,1024,2,48000,-16,experiment,SSSSS,4,even,198695,4092,159214,NA,192029,1780,NA,NA,199725,1783,131391,NA,199826,200175,NA,199724,199826,Flanker Task,104,45971,107,1024
97,97,429,429,black,legacy,legacy,legacy,congruent ,1,undefined,1,s,107,0,0,0,107,0,107,0,107,0,0,0,107,107,NA,107,107,Thu Sep 21 14:33:46 2023,600,The main experiment item,TRUE,FlankerTask.osexp,C:\Users\Simone\Desktop,FALSE,mono,FALSE,18,no,white,no,yes,768,legacy,27,79,C:/Users/Simone/Desktop/SD-subject-4.csv,legacy,Melodramatic Milgram,4.0.5,0,s,NA,s,h,NA,s,NA,422,NA,2308,27822,NA,422,NA,2,legacy,1024,2,48000,-16,experiment,SSSSS,4,even,200180,4092,159214,NA,192029,1780,NA,NA,201221,1783,131391,NA,201322,201745,NA,201219,201322,Flanker Task,105,46393,108,1024
97,97,429,429,black,legacy,legacy,legacy,congruent ,1,undefined,1,s,108,0,0,0,108,0,108,0,108,0,0,0,108,108,NA,108,108,Thu Sep 21 14:33:46 2023,600,The main experiment item,TRUE,FlankerTask.osexp,C:\Users\Simone\Desktop,FALSE,mono,FALSE,18,no,white,no,yes,768,legacy,28,79,C:/Users/Simone/Desktop/SD-subject-4.csv,legacy,Melodramatic Milgram,4.0.5,0,s,NA,s,h,NA,s,NA,393,NA,2308,27822,NA,393,NA,2,legacy,1024,2,48000,-16,experiment,SSSSS,4,even,201749,4092,159214,NA,192029,1780,NA,NA,202783,1783,131391,NA,202884,203278,NA,202780,202884,Flanker Task,106,46786,109,1024
97,97,428,428,black,legacy,legacy,legacy,congruent ,1,undefined,1,s,109,0,0,0,109,0,109,0,109,0,0,0,109,109,NA,109,109,Thu Sep 21 14:33:46 2023,600,The main experiment item,TRUE,FlankerTask.osexp,C:\Users\Simone\Desktop,FALSE,mono,FALSE,18,no,white,no,yes,768,legacy,29,79,C:/Users/Simone/Desktop/SD-subject-4.csv,legacy,Melodramatic Milgram,4.0.5,0,s,NA,s,h,NA,s,NA,380,NA,2308,27822,NA,380,NA,2,legacy,1024,2,48000,-16,experiment,SSSSS,4,even,203281,4092,159214,NA,192029,1780,NA,NA,204307,1783,131391,NA,204408,204789,NA,204305,204408,Flanker Task,107,47166,110,1024
97,97,428,428,black,legacy,legacy,legacy,congruent ,1,undefined,1,h,110,0,0,0,110,0,110,0,110,0,0,0,110,110,NA,110,110,Thu Sep 21 14:33:46 2023,600,The main experiment item,TRUE,FlankerTask.osexp,C:\Users\Simone\Desktop,FALSE,mono,FALSE,18,no,white,no,yes,768,legacy,30,79,C:/Users/Simone/Desktop/SD-subject-4.csv,legacy,Melodramatic Milgram,4.0.5,0,h,NA,s,h,NA,h,NA,374,NA,2308,27822,NA,374,NA,2,legacy,1024,2,48000,-16,experiment,HHHHH,4,even,204792,4092,159214,NA,192029,1780,NA,NA,205817,1783,131391,NA,205918,206293,NA,205815,205918,Flanker Task,108,47540,111,1024
97,97,428,428,black,legacy,legacy,legacy,incongruent,1,undefined,1,h,111,0,0,0,111,0,111,0,111,0,0,0,111,111,NA,111,111,Thu Sep 21 14:33:46 2023,600,The main experiment item,TRUE,FlankerTask.osexp,C:\Users\Simone\Desktop,FALSE,mono,FALSE,18,no,white,no,yes,768,legacy,31,79,C:/Users/Simone/Desktop/SD-subject-4.csv,legacy,Melodramatic Milgram,4.0.5,0,h,NA,s,h,NA,h,NA,429,NA,2308,27822,NA,429,NA,2,legacy,1024,2,48000,-16,experiment,SSHSS,4,even,206296,4092,159214,NA,192029,1780,NA,NA,207327,1783,131391,NA,207428,207858,NA,207326,207428,Flanker Task,109,47969,112,1024
97,97,428,428,black,legacy,legacy,legacy,incongruent,1,undefined,1,h,112,0,0,0,112,0,112,0,112,0,0,0,112,112,NA,112,112,Thu Sep 21 14:33:46 2023,600,The main experiment item,TRUE,FlankerTask.osexp,C:\Users\Simone\Desktop,FALSE,mono,FALSE,18,no,white,no,yes,768,legacy,32,79,C:/Users/Simone/Desktop/SD-subject-4.csv,legacy,Melodramatic Milgram,4.0.5,0,h,NA,s,h,NA,h,NA,409,NA,2308,27822,NA,409,NA,2,legacy,1024,2,48000,-16,experiment,SSHSS,4,even,207861,4092,159214,NA,192029,1780,NA,NA,208894,1783,131391,NA,208995,209405,NA,208892,208995,Flanker Task,110,48378,113,1024
97,97,428,428,black,legacy,legacy,legacy,incongruent,1,undefined,1,h,113,0,0,0,113,0,113,0,113,0,0,0,113,113,NA,113,113,Thu Sep 21 14:33:46 2023,600,The main experiment item,TRUE,FlankerTask.osexp,C:\Users\Simone\Desktop,FALSE,mono,FALSE,18,no,white,no,yes,768,legacy,33,79,C:/Users/Simone/Desktop/SD-subject-4.csv,legacy,Melodramatic Milgram,4.0.5,0,h,NA,s,h,NA,h,NA,506,NA,2308,27822,NA,506,NA,2,legacy,1024,2,48000,-16,experiment,SSHSS,4,even,209409,4092,159214,NA,192029,1780,NA,NA,210436,1783,131391,NA,210537,211044,NA,210434,210537,Flanker Task,111,48884,114,1024
97,97,428,428,black,legacy,legacy,legacy,congruent ,1,undefined,1,s,114,0,0,0,114,0,114,0,114,0,0,0,114,114,NA,114,114,Thu Sep 21 14:33:46 2023,600,The main experiment item,TRUE,FlankerTask.osexp,C:\Users\Simone\Desktop,FALSE,mono,FALSE,18,no,white,no,yes,768,legacy,34,79,C:/Users/Simone/Desktop/SD-subject-4.csv,legacy,Melodramatic Milgram,4.0.5,0,s,NA,s,h,NA,s,NA,370,NA,2308,27822,NA,370,NA,2,legacy,1024,2,48000,-16,experiment,SSSSS,4,even,211048,4092,159214,NA,192029,1780,NA,NA,212085,1783,131391,NA,212186,212557,NA,212083,212186,Flanker Task,112,49254,115,1024
97,97,427,427,black,legacy,legacy,legacy,congruent ,1,undefined,1,s,115,0,0,0,115,0,115,0,115,0,0,0,115,115,NA,115,115,Thu Sep 21 14:33:46 2023,600,The main experiment item,TRUE,FlankerTask.osexp,C:\Users\Simone\Desktop,FALSE,mono,FALSE,18,no,white,no,yes,768,legacy,35,79,C:/Users/Simone/Desktop/SD-subject-4.csv,legacy,Melodramatic Milgram,4.0.5,0,s,NA,s,h,NA,s,NA,355,NA,2308,27822,NA,355,NA,2,legacy,1024,2,48000,-16,experiment,SSSSS,4,even,212560,4092,159214,NA,192029,1780,NA,NA,213593,1783,131391,NA,213694,214051,NA,213591,213694,Flanker Task,113,49609,116,1024
97,97,427,427,black,legacy,legacy,legacy,congruent ,1,undefined,1,h,116,0,0,0,116,0,116,0,116,0,0,0,116,116,NA,116,116,Thu Sep 21 14:33:46 2023,600,The main experiment item,TRUE,FlankerTask.osexp,C:\Users\Simone\Desktop,FALSE,mono,FALSE,18,no,white,no,yes,768,legacy,36,79,C:/Users/Simone/Desktop/SD-subject-4.csv,legacy,Melodramatic Milgram,4.0.5,0,h,NA,s,h,NA,h,NA,377,NA,2308,27822,NA,377,NA,2,legacy,1024,2,48000,-16,experiment,HHHHH,4,even,214055,4092,159214,NA,192029,1780,NA,NA,215089,1783,131391,NA,215191,215569,NA,215088,215191,Flanker Task,114,49986,117,1024
97,97,427,427,black,legacy,legacy,legacy,incongruent,1,undefined,1,h,117,0,0,0,117,0,117,0,117,0,0,0,117,117,NA,117,117,Thu Sep 21 14:33:46 2023,600,The main experiment item,TRUE,FlankerTask.osexp,C:\Users\Simone\Desktop,FALSE,mono,FALSE,18,no,white,no,yes,768,legacy,37,79,C:/Users/Simone/Desktop/SD-subject-4.csv,legacy,Melodramatic Milgram,4.0.5,0,h,NA,s,h,NA,h,NA,418,NA,2308,27822,NA,418,NA,2,legacy,1024,2,48000,-16,experiment,SSHSS,4,even,215573,4092,159214,NA,192029,1780,NA,NA,216604,1783,131391,NA,216707,217126,NA,216602,216707,Flanker Task,115,50404,118,1024
97,97,427,427,black,legacy,legacy,legacy,incongruent,1,undefined,1,h,118,0,0,0,118,0,118,0,118,0,0,0,118,118,NA,118,118,Thu Sep 21 14:33:46 2023,600,The main experiment item,TRUE,FlankerTask.osexp,C:\Users\Simone\Desktop,FALSE,mono,FALSE,18,no,white,no,yes,768,legacy,38,79,C:/Users/Simone/Desktop/SD-subject-4.csv,legacy,Melodramatic Milgram,4.0.5,0,h,NA,s,h,NA,h,NA,509,NA,2308,27822,NA,509,NA,2,legacy,1024,2,48000,-16,experiment,SSHSS,4,even,217129,4092,159214,NA,192029,1780,NA,NA,218160,1783,131391,NA,218261,218771,NA,218158,218261,Flanker Task,116,50913,119,1024
97,97,427,427,black,legacy,legacy,legacy,congruent ,1,undefined,1,h,119,0,0,0,119,0,119,0,119,0,0,0,119,119,NA,119,119,Thu Sep 21 14:33:46 2023,600,The main experiment item,TRUE,FlankerTask.osexp,C:\Users\Simone\Desktop,FALSE,mono,FALSE,18,no,white,no,yes,768,legacy,39,79,C:/Users/Simone/Desktop/SD-subject-4.csv,legacy,Melodramatic Milgram,4.0.5,0,h,NA,s,h,NA,h,NA,386,NA,2308,27822,NA,386,NA,2,legacy,1024,2,48000,-16,experiment,HHHHH,4,even,218774,4092,159214,NA,192029,1780,NA,NA,219807,1783,131391,NA,219908,220295,NA,219805,219908,Flanker Task,117,51299,120,1024
97,97,427,427,black,legacy,legacy,legacy,congruent ,1,undefined,1,h,120,0,0,0,120,0,120,0,120,0,0,0,120,120,NA,120,120,Thu Sep 21 14:33:46 2023,600,The main experiment item,TRUE,FlankerTask.osexp,C:\Users\Simone\Desktop,FALSE,mono,FALSE,18,no,white,no,yes,768,legacy,40,79,C:/Users/Simone/Desktop/SD-subject-4.csv,legacy,Melodramatic Milgram,4.0.5,0,h,NA,s,h,NA,h,NA,401,NA,2308,27822,NA,401,NA,2,legacy,1024,2,48000,-16,experiment,HHHHH,4,even,220300,4092,159214,NA,192029,1780,NA,NA,221329,1783,131391,NA,221430,221832,NA,221327,221430,Flanker Task,118,51700,121,1024
97,97,427,427,black,legacy,legacy,legacy,incongruent,1,undefined,1,h,121,0,0,0,121,0,121,0,121,0,0,0,121,121,NA,121,121,Thu Sep 21 14:33:46 2023,600,The main experiment item,TRUE,FlankerTask.osexp,C:\Users\Simone\Desktop,FALSE,mono,FALSE,18,no,white,no,yes,768,legacy,41,79,C:/Users/Simone/Desktop/SD-subject-4.csv,legacy,Melodramatic Milgram,4.0.5,0,h,NA,s,h,NA,h,NA,420,NA,2308,27822,NA,420,NA,2,legacy,1024,2,48000,-16,experiment,SSHSS,4,even,221835,4092,159214,NA,192029,1780,NA,NA,222866,1783,131391,NA,222967,223388,NA,222864,222967,Flanker Task,119,52120,122,1024
97,97,427,427,black,legacy,legacy,legacy,incongruent,1,undefined,1,h,122,0,0,0,122,0,122,0,122,0,0,0,122,122,NA,122,122,Thu Sep 21 14:33:46 2023,600,The main experiment item,TRUE,FlankerTask.osexp,C:\Users\Simone\Desktop,FALSE,mono,FALSE,18,no,white,no,yes,768,legacy,42,79,C:/Users/Simone/Desktop/SD-subject-4.csv,legacy,Melodramatic Milgram,4.0.5,0,h,NA,s,h,NA,h,NA,420,NA,2308,27822,NA,420,NA,2,legacy,1024,2,48000,-16,experiment,SSHSS,4,even,223391,4092,159214,NA,192029,1780,NA,NA,224417,1783,131391,NA,224518,224939,NA,224416,224518,Flanker Task,120,52540,123,1024
97,97,426,426,black,legacy,legacy,legacy,congruent ,1,undefined,1,h,123,0,0,0,123,0,123,0,123,0,0,0,123,123,NA,123,123,Thu Sep 21 14:33:46 2023,600,The main experiment item,TRUE,FlankerTask.osexp,C:\Users\Simone\Desktop,FALSE,mono,FALSE,18,no,white,no,yes,768,legacy,43,79,C:/Users/Simone/Desktop/SD-subject-4.csv,legacy,Melodramatic Milgram,4.0.5,0,h,NA,s,h,NA,h,NA,390,NA,2308,27822,NA,390,NA,2,legacy,1024,2,48000,-16,experiment,HHHHH,4,even,224943,4092,159214,NA,192029,1780,NA,NA,225977,1783,131391,NA,226078,226469,NA,225975,226078,Flanker Task,121,52930,124,1024
97,97,426,426,black,legacy,legacy,legacy,incongruent,1,undefined,1,s,124,0,0,0,124,0,124,0,124,0,0,0,124,124,NA,124,124,Thu Sep 21 14:33:46 2023,600,The main experiment item,TRUE,FlankerTask.osexp,C:\Users\Simone\Desktop,FALSE,mono,FALSE,18,no,white,no,yes,768,legacy,44,79,C:/Users/Simone/Desktop/SD-subject-4.csv,legacy,Melodramatic Milgram,4.0.5,0,s,NA,s,h,NA,s,NA,356,NA,2308,27822,NA,356,NA,2,legacy,1024,2,48000,-16,experiment,HHSHH,4,even,226471,4092,159214,NA,192029,1780,NA,NA,227496,1783,131391,NA,227599,227955,NA,227495,227598,Flanker Task,122,53286,125,1024
97,97,426,426,black,legacy,legacy,legacy,incongruent,1,undefined,1,s,125,0,0,0,125,0,125,0,125,0,0,0,125,125,NA,125,125,Thu Sep 21 14:33:46 2023,600,The main experiment item,TRUE,FlankerTask.osexp,C:\Users\Simone\Desktop,FALSE,mono,FALSE,18,no,white,no,yes,768,legacy,45,79,C:/Users/Simone/Desktop/SD-subject-4.csv,legacy,Melodramatic Milgram,4.0.5,0,s,NA,s,h,NA,s,NA,397,NA,2308,27822,NA,397,NA,2,legacy,1024,2,48000,-16,experiment,HHSHH,4,even,227959,4092,159214,NA,192029,1780,NA,NA,229009,1783,131391,NA,229110,229508,NA,229007,229110,Flanker Task,123,53683,126,1024
97,97,425,425,black,legacy,legacy,legacy,congruent ,1,undefined,1,s,126,0,0,0,126,0,126,0,126,0,0,0,126,126,NA,126,126,Thu Sep 21 14:33:46 2023,600,The main experiment item,TRUE,FlankerTask.osexp,C:\Users\Simone\Desktop,FALSE,mono,FALSE,18,no,white,no,yes,768,legacy,46,79,C:/Users/Simone/Desktop/SD-subject-4.csv,legacy,Melodramatic Milgram,4.0.5,0,s,NA,s,h,NA,s,NA,376,NA,2308,27822,NA,376,NA,2,legacy,1024,2,48000,-16,experiment,SSSSS,4,even,229512,4092,159214,NA,192029,1780,NA,NA,230547,1783,131391,NA,230648,231026,NA,230545,230648,Flanker Task,124,54059,127,1024
97,97,425,425,black,legacy,legacy,legacy,incongruent,1,undefined,1,s,127,0,0,0,127,0,127,0,127,0,0,0,127,127,NA,127,127,Thu Sep 21 14:33:46 2023,600,The main experiment item,TRUE,FlankerTask.osexp,C:\Users\Simone\Desktop,FALSE,mono,FALSE,18,no,white,no,yes,768,legacy,47,79,C:/Users/Simone/Desktop/SD-subject-4.csv,legacy,Melodramatic Milgram,4.0.5,0,s,NA,s,h,NA,s,NA,411,NA,2308,27822,NA,411,NA,2,legacy,1024,2,48000,-16,experiment,HHSHH,4,even,231029,4092,159214,NA,192029,1780,NA,NA,232058,1783,131391,NA,232160,232572,NA,232056,232160,Flanker Task,125,54470,128,1024
97,97,425,425,black,legacy,legacy,legacy,incongruent,1,undefined,1,h,128,0,0,0,128,0,128,0,128,0,0,0,128,128,NA,128,128,Thu Sep 21 14:33:46 2023,600,The main experiment item,TRUE,FlankerTask.osexp,C:\Users\Simone\Desktop,FALSE,mono,FALSE,18,no,white,no,yes,768,legacy,48,79,C:/Users/Simone/Desktop/SD-subject-4.csv,legacy,Melodramatic Milgram,4.0.5,0,h,NA,s,h,NA,h,NA,416,NA,2308,27822,NA,416,NA,2,legacy,1024,2,48000,-16,experiment,SSHSS,4,even,232575,4092,159214,NA,192029,1780,NA,NA,233610,1783,131391,NA,233712,234129,NA,233608,233712,Flanker Task,126,54886,129,1024
97,97,425,425,black,legacy,legacy,legacy,congruent ,1,undefined,1,h,129,0,0,0,129,0,129,0,129,0,0,0,129,129,NA,129,129,Thu Sep 21 14:33:46 2023,600,The main experiment item,TRUE,FlankerTask.osexp,C:\Users\Simone\Desktop,FALSE,mono,FALSE,18,no,white,no,yes,768,legacy,49,79,C:/Users/Simone/Desktop/SD-subject-4.csv,legacy,Melodramatic Milgram,4.0.5,0,h,NA,s,h,NA,h,NA,411,NA,2308,27822,NA,411,NA,2,legacy,1024,2,48000,-16,experiment,HHHHH,4,even,234134,4092,159214,NA,192029,1780,NA,NA,235167,1783,131391,NA,235269,235682,NA,235165,235269,Flanker Task,127,55297,130,1024
97,97,425,425,black,legacy,legacy,legacy,congruent ,1,undefined,1,h,130,0,0,0,130,0,130,0,130,0,0,0,130,130,NA,130,130,Thu Sep 21 14:33:46 2023,600,The main experiment item,TRUE,FlankerTask.osexp,C:\Users\Simone\Desktop,FALSE,mono,FALSE,18,no,white,no,yes,768,legacy,50,79,C:/Users/Simone/Desktop/SD-subject-4.csv,legacy,Melodramatic Milgram,4.0.5,0,h,NA,s,h,NA,h,NA,402,NA,2308,27822,NA,402,NA,2,legacy,1024,2,48000,-16,experiment,HHHHH,4,even,235685,4092,159214,NA,192029,1780,NA,NA,236719,1783,131391,NA,236820,237223,NA,236717,236820,Flanker Task,128,55699,131,1024
97,97,424,424,black,legacy,legacy,legacy,incongruent,1,undefined,1,s,131,0,0,0,131,0,131,0,131,0,0,0,131,131,NA,131,131,Thu Sep 21 14:33:46 2023,600,The main experiment item,TRUE,FlankerTask.osexp,C:\Users\Simone\Desktop,FALSE,mono,FALSE,18,no,white,no,yes,768,legacy,51,79,C:/Users/Simone/Desktop/SD-subject-4.csv,legacy,Melodramatic Milgram,4.0.5,0,s,NA,s,h,NA,s,NA,379,NA,2308,27822,NA,379,NA,2,legacy,1024,2,48000,-16,experiment,HHSHH,4,even,237227,4092,159214,NA,192029,1780,NA,NA,238261,1783,131391,NA,238362,238742,NA,238258,238362,Flanker Task,129,56078,132,1024
97,97,425,425,black,legacy,legacy,legacy,incongruent,1,undefined,1,h,132,0,0,0,132,0,132,0,132,0,0,0,132,132,NA,132,132,Thu Sep 21 14:33:46 2023,600,The main experiment item,TRUE,FlankerTask.osexp,C:\Users\Simone\Desktop,FALSE,mono,FALSE,18,no,white,no,yes,768,legacy,52,79,C:/Users/Simone/Desktop/SD-subject-4.csv,legacy,Melodramatic Milgram,4.0.5,0,h,NA,s,h,NA,h,NA,447,NA,2308,27822,NA,447,NA,2,legacy,1024,2,48000,-16,experiment,SSHSS,4,even,238747,4092,159214,NA,192029,1780,NA,NA,239778,1783,131391,NA,239879,240327,NA,239776,239879,Flanker Task,130,56525,133,1024
97,97,424,424,black,legacy,legacy,legacy,incongruent,0,undefined,0,h,133,0,0,0,133,0,133,0,133,0,0,0,133,133,NA,133,133,Thu Sep 21 14:33:46 2023,600,The main experiment item,TRUE,FlankerTask.osexp,C:\Users\Simone\Desktop,FALSE,mono,FALSE,18,no,white,no,yes,768,legacy,53,79,C:/Users/Simone/Desktop/SD-subject-4.csv,legacy,Melodramatic Milgram,4.0.5,0,s,NA,s,h,NA,s,NA,300,NA,2308,27822,NA,300,NA,2,legacy,1024,2,48000,-16,experiment,SSHSS,4,even,240330,4092,159214,NA,192029,1780,NA,NA,241360,1783,131391,NA,241461,241761,NA,241358,241461,Flanker Task,130,56825,134,1024
97,97,423,423,black,legacy,legacy,legacy,congruent ,1,undefined,1,s,134,0,0,0,134,0,134,0,134,0,0,0,134,134,NA,134,134,Thu Sep 21 14:33:46 2023,600,The main experiment item,TRUE,FlankerTask.osexp,C:\Users\Simone\Desktop,FALSE,mono,FALSE,18,no,white,no,yes,768,legacy,54,79,C:/Users/Simone/Desktop/SD-subject-4.csv,legacy,Melodramatic Milgram,4.0.5,0,s,NA,s,h,NA,s,NA,411,NA,2308,27822,NA,411,NA,2,legacy,1024,2,48000,-16,experiment,SSSSS,4,even,242265,4092,159214,NA,241763,1780,NA,NA,243311,1783,131391,NA,243412,243824,NA,243307,243412,Flanker Task,131,57236,135,1024
97,97,424,424,black,legacy,legacy,legacy,congruent ,1,undefined,1,s,135,0,0,0,135,0,135,0,135,0,0,0,135,135,NA,135,135,Thu Sep 21 14:33:46 2023,600,The main experiment item,TRUE,FlankerTask.osexp,C:\Users\Simone\Desktop,FALSE,mono,FALSE,18,no,white,no,yes,768,legacy,55,79,C:/Users/Simone/Desktop/SD-subject-4.csv,legacy,Melodramatic Milgram,4.0.5,0,s,NA,s,h,NA,s,NA,540,NA,2308,27822,NA,540,NA,2,legacy,1024,2,48000,-16,experiment,SSSSS,4,even,243827,4092,159214,NA,241763,1780,NA,NA,244861,1783,131391,NA,244962,245502,NA,244858,244962,Flanker Task,132,57776,136,1024
97,97,426,426,black,legacy,legacy,legacy,incongruent,1,undefined,1,s,136,0,0,0,136,0,136,0,136,0,0,0,136,136,NA,136,136,Thu Sep 21 14:33:46 2023,600,The main experiment item,TRUE,FlankerTask.osexp,C:\Users\Simone\Desktop,FALSE,mono,FALSE,18,no,white,no,yes,768,legacy,56,79,C:/Users/Simone/Desktop/SD-subject-4.csv,legacy,Melodramatic Milgram,4.0.5,0,s,NA,s,h,NA,s,NA,595,NA,2308,27822,NA,595,NA,2,legacy,1024,2,48000,-16,experiment,HHSHH,4,even,245506,4092,159214,NA,241763,1780,NA,NA,246540,1783,131391,NA,246641,247238,NA,246538,246641,Flanker Task,133,58371,137,1024
97,97,425,425,black,legacy,legacy,legacy,congruent ,1,undefined,1,s,137,0,0,0,137,0,137,0,137,0,0,0,137,137,NA,137,137,Thu Sep 21 14:33:46 2023,600,The main experiment item,TRUE,FlankerTask.osexp,C:\Users\Simone\Desktop,FALSE,mono,FALSE,18,no,white,no,yes,768,legacy,57,79,C:/Users/Simone/Desktop/SD-subject-4.csv,legacy,Melodramatic Milgram,4.0.5,0,s,NA,s,h,NA,s,NA,405,NA,2308,27822,NA,405,NA,2,legacy,1024,2,48000,-16,experiment,SSSSS,4,even,247245,4092,159214,NA,241763,1780,NA,NA,248278,1783,131391,NA,248379,248785,NA,248276,248379,Flanker Task,134,58776,138,1024
97,97,425,425,black,legacy,legacy,legacy,congruent ,1,undefined,1,h,138,0,0,0,138,0,138,0,138,0,0,0,138,138,NA,138,138,Thu Sep 21 14:33:46 2023,600,The main experiment item,TRUE,FlankerTask.osexp,C:\Users\Simone\Desktop,FALSE,mono,FALSE,18,no,white,no,yes,768,legacy,58,79,C:/Users/Simone/Desktop/SD-subject-4.csv,legacy,Melodramatic Milgram,4.0.5,0,h,NA,s,h,NA,h,NA,411,NA,2308,27822,NA,411,NA,2,legacy,1024,2,48000,-16,experiment,HHHHH,4,even,248788,4092,159214,NA,241763,1780,NA,NA,249821,1783,131391,NA,249922,250333,NA,249820,249922,Flanker Task,135,59187,139,1024
97,97,425,425,black,legacy,legacy,legacy,incongruent,1,undefined,1,h,139,0,0,0,139,0,139,0,139,0,0,0,139,139,NA,139,139,Thu Sep 21 14:33:46 2023,600,The main experiment item,TRUE,FlankerTask.osexp,C:\Users\Simone\Desktop,FALSE,mono,FALSE,18,no,white,no,yes,768,legacy,59,79,C:/Users/Simone/Desktop/SD-subject-4.csv,legacy,Melodramatic Milgram,4.0.5,0,h,NA,s,h,NA,h,NA,411,NA,2308,27822,NA,411,NA,2,legacy,1024,2,48000,-16,experiment,SSHSS,4,even,250337,4092,159214,NA,241763,1780,NA,NA,251374,1783,131391,NA,251475,251887,NA,251372,251475,Flanker Task,136,59598,140,1024
97,97,425,425,black,legacy,legacy,legacy,congruent ,1,undefined,1,h,140,0,0,0,140,0,140,0,140,0,0,0,140,140,NA,140,140,Thu Sep 21 14:33:46 2023,600,The main experiment item,TRUE,FlankerTask.osexp,C:\Users\Simone\Desktop,FALSE,mono,FALSE,18,no,white,no,yes,768,legacy,60,79,C:/Users/Simone/Desktop/SD-subject-4.csv,legacy,Melodramatic Milgram,4.0.5,0,h,NA,s,h,NA,h,NA,451,NA,2308,27822,NA,451,NA,2,legacy,1024,2,48000,-16,experiment,HHHHH,4,even,251891,4092,159214,NA,241763,1780,NA,NA,252924,1783,131391,NA,253025,253477,NA,252922,253025,Flanker Task,137,60049,141,1024
97,97,425,425,black,legacy,legacy,legacy,congruent ,1,undefined,1,h,141,0,0,0,141,0,141,0,141,0,0,0,141,141,NA,141,141,Thu Sep 21 14:33:46 2023,600,The main experiment item,TRUE,FlankerTask.osexp,C:\Users\Simone\Desktop,FALSE,mono,FALSE,18,no,white,no,yes,768,legacy,61,79,C:/Users/Simone/Desktop/SD-subject-4.csv,legacy,Melodramatic Milgram,4.0.5,0,h,NA,s,h,NA,h,NA,414,NA,2308,27822,NA,414,NA,2,legacy,1024,2,48000,-16,experiment,HHHHH,4,even,253481,4092,159214,NA,241763,1780,NA,NA,254507,1783,131391,NA,254608,255023,NA,254505,254608,Flanker Task,138,60463,142,1024
97,97,425,425,black,legacy,legacy,legacy,congruent ,1,undefined,1,s,142,0,0,0,142,0,142,0,142,0,0,0,142,142,NA,142,142,Thu Sep 21 14:33:46 2023,600,The main experiment item,TRUE,FlankerTask.osexp,C:\Users\Simone\Desktop,FALSE,mono,FALSE,18,no,white,no,yes,768,legacy,62,79,C:/Users/Simone/Desktop/SD-subject-4.csv,legacy,Melodramatic Milgram,4.0.5,0,s,NA,s,h,NA,s,NA,386,NA,2308,27822,NA,386,NA,2,legacy,1024,2,48000,-16,experiment,SSSSS,4,even,255026,4092,159214,NA,241763,1780,NA,NA,256055,1783,131391,NA,256156,256543,NA,256053,256156,Flanker Task,139,60849,143,1024
97,97,425,425,black,legacy,legacy,legacy,congruent ,1,undefined,1,s,143,0,0,0,143,0,143,0,143,0,0,0,143,143,NA,143,143,Thu Sep 21 14:33:46 2023,600,The main experiment item,TRUE,FlankerTask.osexp,C:\Users\Simone\Desktop,FALSE,mono,FALSE,18,no,white,no,yes,768,legacy,63,79,C:/Users/Simone/Desktop/SD-subject-4.csv,legacy,Melodramatic Milgram,4.0.5,0,s,NA,s,h,NA,s,NA,352,NA,2308,27822,NA,352,NA,2,legacy,1024,2,48000,-16,experiment,SSSSS,4,even,256547,4092,159214,NA,241763,1780,NA,NA,257584,1783,131391,NA,257685,258038,NA,257583,257685,Flanker Task,140,61201,144,1024
97,97,425,425,black,legacy,legacy,legacy,incongruent,1,undefined,1,h,144,0,0,0,144,0,144,0,144,0,0,0,144,144,NA,144,144,Thu Sep 21 14:33:46 2023,600,The main experiment item,TRUE,FlankerTask.osexp,C:\Users\Simone\Desktop,FALSE,mono,FALSE,18,no,white,no,yes,768,legacy,64,79,C:/Users/Simone/Desktop/SD-subject-4.csv,legacy,Melodramatic Milgram,4.0.5,0,h,NA,s,h,NA,h,NA,519,NA,2308,27822,NA,519,NA,2,legacy,1024,2,48000,-16,experiment,SSHSS,4,even,258042,4092,159214,NA,241763,1780,NA,NA,259066,1783,131391,NA,259167,259686,NA,259064,259167,Flanker Task,141,61720,145,1024
97,97,426,426,black,legacy,legacy,legacy,incongruent,1,undefined,1,h,145,0,0,0,145,0,145,0,145,0,0,0,145,145,NA,145,145,Thu Sep 21 14:33:46 2023,600,The main experiment item,TRUE,FlankerTask.osexp,C:\Users\Simone\Desktop,FALSE,mono,FALSE,18,no,white,no,yes,768,legacy,65,79,C:/Users/Simone/Desktop/SD-subject-4.csv,legacy,Melodramatic Milgram,4.0.5,0,h,NA,s,h,NA,h,NA,600,NA,2308,27822,NA,600,NA,2,legacy,1024,2,48000,-16,experiment,SSHSS,4,even,259690,4092,159214,NA,241763,1780,NA,NA,260720,1783,131391,NA,260822,261423,NA,260719,260822,Flanker Task,142,62320,146,1024
97,97,426,426,black,legacy,legacy,legacy,incongruent,1,undefined,1,s,146,0,0,0,146,0,146,0,146,0,0,0,146,146,NA,146,146,Thu Sep 21 14:33:46 2023,600,The main experiment item,TRUE,FlankerTask.osexp,C:\Users\Simone\Desktop,FALSE,mono,FALSE,18,no,white,no,yes,768,legacy,66,79,C:/Users/Simone/Desktop/SD-subject-4.csv,legacy,Melodramatic Milgram,4.0.5,0,s,NA,s,h,NA,s,NA,436,NA,2308,27822,NA,436,NA,2,legacy,1024,2,48000,-16,experiment,HHSHH,4,even,261427,4092,159214,NA,241763,1780,NA,NA,262457,1783,131391,NA,262558,262995,NA,262456,262558,Flanker Task,143,62756,147,1024
97,97,427,427,black,legacy,legacy,legacy,congruent ,1,undefined,1,s,147,0,0,0,147,0,147,0,147,0,0,0,147,147,NA,147,147,Thu Sep 21 14:33:46 2023,600,The main experiment item,TRUE,FlankerTask.osexp,C:\Users\Simone\Desktop,FALSE,mono,FALSE,18,no,white,no,yes,768,legacy,67,79,C:/Users/Simone/Desktop/SD-subject-4.csv,legacy,Melodramatic Milgram,4.0.5,0,s,NA,s,h,NA,s,NA,456,NA,2308,27822,NA,456,NA,2,legacy,1024,2,48000,-16,experiment,SSSSS,4,even,262998,4092,159214,NA,241763,1780,NA,NA,264028,1783,131391,NA,264129,264586,NA,264027,264129,Flanker Task,144,63212,148,1024
97,97,427,427,black,legacy,legacy,legacy,incongruent,1,undefined,1,s,148,0,0,0,148,0,148,0,148,0,0,0,148,148,NA,148,148,Thu Sep 21 14:33:46 2023,600,The main experiment item,TRUE,FlankerTask.osexp,C:\Users\Simone\Desktop,FALSE,mono,FALSE,18,no,white,no,yes,768,legacy,68,79,C:/Users/Simone/Desktop/SD-subject-4.csv,legacy,Melodramatic Milgram,4.0.5,0,s,NA,s,h,NA,s,NA,553,NA,2308,27822,NA,553,NA,2,legacy,1024,2,48000,-16,experiment,HHSHH,4,even,264589,4092,159214,NA,241763,1780,NA,NA,265620,1783,131391,NA,265721,266275,NA,265618,265721,Flanker Task,145,63765,149,1024
97,97,428,428,black,legacy,legacy,legacy,congruent ,1,undefined,1,s,149,0,0,0,149,0,149,0,149,0,0,0,149,149,NA,149,149,Thu Sep 21 14:33:46 2023,600,The main experiment item,TRUE,FlankerTask.osexp,C:\Users\Simone\Desktop,FALSE,mono,FALSE,18,no,white,no,yes,768,legacy,69,79,C:/Users/Simone/Desktop/SD-subject-4.csv,legacy,Melodramatic Milgram,4.0.5,0,s,NA,s,h,NA,s,NA,454,NA,2308,27822,NA,454,NA,2,legacy,1024,2,48000,-16,experiment,SSSSS,4,even,266279,4092,159214,NA,241763,1780,NA,NA,267309,1783,131391,NA,267411,267866,NA,267308,267411,Flanker Task,146,64219,150,1024
97,97,429,429,black,legacy,legacy,legacy,incongruent,1,undefined,1,s,150,0,0,0,150,0,150,0,150,0,0,0,150,150,NA,150,150,Thu Sep 21 14:33:46 2023,600,The main experiment item,TRUE,FlankerTask.osexp,C:\Users\Simone\Desktop,FALSE,mono,FALSE,18,no,white,no,yes,768,legacy,70,79,C:/Users/Simone/Desktop/SD-subject-4.csv,legacy,Melodramatic Milgram,4.0.5,0,s,NA,s,h,NA,s,NA,593,NA,2308,27822,NA,593,NA,2,legacy,1024,2,48000,-16,experiment,HHSHH,4,even,267870,4092,159214,NA,241763,1780,NA,NA,268898,1783,131391,NA,268999,269593,NA,268895,268999,Flanker Task,147,64812,151,1024
97,97,428,428,black,legacy,legacy,legacy,congruent ,1,undefined,1,h,151,0,0,0,151,0,151,0,151,0,0,0,151,151,NA,151,151,Thu Sep 21 14:33:46 2023,600,The main experiment item,TRUE,FlankerTask.osexp,C:\Users\Simone\Desktop,FALSE,mono,FALSE,18,no,white,no,yes,768,legacy,71,79,C:/Users/Simone/Desktop/SD-subject-4.csv,legacy,Melodramatic Milgram,4.0.5,0,h,NA,s,h,NA,h,NA,316,NA,2308,27822,NA,316,NA,2,legacy,1024,2,48000,-16,experiment,HHHHH,4,even,269597,4092,159214,NA,241763,1780,NA,NA,270627,1783,131391,NA,270728,271045,NA,270625,270728,Flanker Task,148,65128,152,1024
97,97,428,428,black,legacy,legacy,legacy,incongruent,1,undefined,1,s,152,0,0,0,152,0,152,0,152,0,0,0,152,152,NA,152,152,Thu Sep 21 14:33:46 2023,600,The main experiment item,TRUE,FlankerTask.osexp,C:\Users\Simone\Desktop,FALSE,mono,FALSE,18,no,white,no,yes,768,legacy,72,79,C:/Users/Simone/Desktop/SD-subject-4.csv,legacy,Melodramatic Milgram,4.0.5,0,s,NA,s,h,NA,s,NA,477,NA,2308,27822,NA,477,NA,2,legacy,1024,2,48000,-16,experiment,HHSHH,4,even,271049,4092,159214,NA,241763,1780,NA,NA,272080,1783,131391,NA,272181,272659,NA,272079,272181,Flanker Task,149,65605,153,1024
97,97,428,428,black,legacy,legacy,legacy,congruent ,1,undefined,1,h,153,0,0,0,153,0,153,0,153,0,0,0,153,153,NA,153,153,Thu Sep 21 14:33:46 2023,600,The main experiment item,TRUE,FlankerTask.osexp,C:\Users\Simone\Desktop,FALSE,mono,FALSE,18,no,white,no,yes,768,legacy,73,79,C:/Users/Simone/Desktop/SD-subject-4.csv,legacy,Melodramatic Milgram,4.0.5,0,h,NA,s,h,NA,h,NA,404,NA,2308,27822,NA,404,NA,2,legacy,1024,2,48000,-16,experiment,HHHHH,4,even,272663,4092,159214,NA,241763,1780,NA,NA,273690,1783,131391,NA,273791,274196,NA,273688,273791,Flanker Task,150,66009,154,1024
97,97,428,428,black,legacy,legacy,legacy,congruent ,1,undefined,1,s,154,0,0,0,154,0,154,0,154,0,0,0,154,154,NA,154,154,Thu Sep 21 14:33:46 2023,600,The main experiment item,TRUE,FlankerTask.osexp,C:\Users\Simone\Desktop,FALSE,mono,FALSE,18,no,white,no,yes,768,legacy,74,79,C:/Users/Simone/Desktop/SD-subject-4.csv,legacy,Melodramatic Milgram,4.0.5,0,s,NA,s,h,NA,s,NA,430,NA,2308,27822,NA,430,NA,2,legacy,1024,2,48000,-16,experiment,SSSSS,4,even,274198,4092,159214,NA,241763,1780,NA,NA,275222,1783,131391,NA,275323,275753,NA,275221,275323,Flanker Task,151,66439,155,1024
97,97,428,428,black,legacy,legacy,legacy,incongruent,1,undefined,1,h,155,0,0,0,155,0,155,0,155,0,0,0,155,155,NA,155,155,Thu Sep 21 14:33:46 2023,600,The main experiment item,TRUE,FlankerTask.osexp,C:\Users\Simone\Desktop,FALSE,mono,FALSE,18,no,white,no,yes,768,legacy,75,79,C:/Users/Simone/Desktop/SD-subject-4.csv,legacy,Melodramatic Milgram,4.0.5,0,h,NA,s,h,NA,h,NA,465,NA,2308,27822,NA,465,NA,2,legacy,1024,2,48000,-16,experiment,SSHSS,4,even,275757,4092,159214,NA,241763,1780,NA,NA,276786,1783,131391,NA,276887,277353,NA,276784,276887,Flanker Task,152,66904,156,1024
97,97,428,428,black,legacy,legacy,legacy,incongruent,1,undefined,1,h,156,0,0,0,156,0,156,0,156,0,0,0,156,156,NA,156,156,Thu Sep 21 14:33:46 2023,600,The main experiment item,TRUE,FlankerTask.osexp,C:\Users\Simone\Desktop,FALSE,mono,FALSE,18,no,white,no,yes,768,legacy,76,79,C:/Users/Simone/Desktop/SD-subject-4.csv,legacy,Melodramatic Milgram,4.0.5,0,h,NA,s,h,NA,h,NA,406,NA,2308,27822,NA,406,NA,2,legacy,1024,2,48000,-16,experiment,SSHSS,4,even,277356,4092,159214,NA,241763,1780,NA,NA,278386,1783,131391,NA,278487,278894,NA,278385,278487,Flanker Task,153,67310,157,1024
97,97,428,428,black,legacy,legacy,legacy,congruent ,1,undefined,1,s,157,0,0,0,157,0,157,0,157,0,0,0,157,157,NA,157,157,Thu Sep 21 14:33:46 2023,600,The main experiment item,TRUE,FlankerTask.osexp,C:\Users\Simone\Desktop,FALSE,mono,FALSE,18,no,white,no,yes,768,legacy,77,79,C:/Users/Simone/Desktop/SD-subject-4.csv,legacy,Melodramatic Milgram,4.0.5,0,s,NA,s,h,NA,s,NA,437,NA,2308,27822,NA,437,NA,2,legacy,1024,2,48000,-16,experiment,SSSSS,4,even,278898,4092,159214,NA,241763,1780,NA,NA,279928,1783,131391,NA,280029,280467,NA,279927,280029,Flanker Task,154,67747,158,1024
97,97,428,428,black,legacy,legacy,legacy,incongruent,1,undefined,1,s,158,0,0,0,158,0,158,0,158,0,0,0,158,158,NA,158,158,Thu Sep 21 14:33:46 2023,600,The main experiment item,TRUE,FlankerTask.osexp,C:\Users\Simone\Desktop,FALSE,mono,FALSE,18,no,white,no,yes,768,legacy,78,79,C:/Users/Simone/Desktop/SD-subject-4.csv,legacy,Melodramatic Milgram,4.0.5,0,s,NA,s,h,NA,s,NA,409,NA,2308,27822,NA,409,NA,2,legacy,1024,2,48000,-16,experiment,HHSHH,4,even,280470,4092,159214,NA,241763,1780,NA,NA,281500,1783,131391,NA,281601,282011,NA,281498,281601,Flanker Task,155,68156,159,1024
97,97,428,428,black,legacy,legacy,legacy,congruent ,1,undefined,1,s,159,0,0,0,159,0,159,0,159,0,0,0,159,159,NA,159,159,Thu Sep 21 14:33:46 2023,600,The main experiment item,TRUE,FlankerTask.osexp,C:\Users\Simone\Desktop,FALSE,mono,FALSE,18,no,white,no,yes,768,legacy,79,79,C:/Users/Simone/Desktop/SD-subject-4.csv,legacy,Melodramatic Milgram,4.0.5,0,s,NA,s,h,NA,s,NA,370,NA,2308,27822,NA,370,NA,2,legacy,1024,2,48000,-16,experiment,SSSSS,4,even,282015,4092,159214,NA,241763,1780,NA,NA,283046,1783,131391,NA,283147,283518,NA,283044,283147,Flanker Task,156,68526,160,1024
96,96,428,428,black,legacy,legacy,legacy,incongruent,0,undefined,0,s,160,0,0,0,160,0,160,0,160,0,0,0,160,160,NA,160,160,Thu Sep 21 14:33:46 2023,300,The main experiment item,TRUE,FlankerTask.osexp,C:\Users\Simone\Desktop,FALSE,mono,FALSE,18,no,white,no,yes,768,legacy,0,79,C:/Users/Simone/Desktop/SD-subject-4.csv,legacy,Melodramatic Milgram,4.0.5,0,h,NA,s,h,s,h,NA,398,NA,2308,27822,77166,398,NA,2,legacy,1024,2,48000,-16,experiment,HHSHH,4,even,283520,4092,159214,361688,241763,1780,NA,NA,361740,1783,131391,284521,361841,362240,NA,361739,361841,Flanker Task,156,68924,161,1024
96,96,427,427,black,legacy,legacy,legacy,congruent ,1,undefined,1,s,161,0,0,0,161,0,161,0,161,0,0,0,161,161,NA,161,161,Thu Sep 21 14:33:46 2023,300,The main experiment item,TRUE,FlankerTask.osexp,C:\Users\Simone\Desktop,FALSE,mono,FALSE,18,no,white,no,yes,768,legacy,1,79,C:/Users/Simone/Desktop/SD-subject-4.csv,legacy,Melodramatic Milgram,4.0.5,0,s,NA,s,h,s,s,NA,327,NA,2308,27822,77166,327,NA,2,legacy,1024,2,48000,-16,experiment,SSSSS,4,even,363245,4092,159214,361688,362243,1780,362744,NA,364270,1783,131391,284521,364371,364699,NA,364269,364371,Flanker Task,157,69251,162,1024
96,96,426,426,black,legacy,legacy,legacy,congruent ,1,undefined,1,h,162,0,0,0,162,0,162,0,162,0,0,0,162,162,NA,162,162,Thu Sep 21 14:33:46 2023,300,The main experiment item,TRUE,FlankerTask.osexp,C:\Users\Simone\Desktop,FALSE,mono,FALSE,18,no,white,no,yes,768,legacy,2,79,C:/Users/Simone/Desktop/SD-subject-4.csv,legacy,Melodramatic Milgram,4.0.5,0,h,NA,s,h,s,h,NA,301,NA,2308,27822,77166,301,NA,2,legacy,1024,2,48000,-16,experiment,HHHHH,4,even,365204,4092,159214,361688,362243,1780,364703,NA,366228,1783,131391,284521,366330,366631,NA,366226,366330,Flanker Task,158,69552,163,1024
96,96,426,426,black,legacy,legacy,legacy,congruent ,1,undefined,1,h,163,0,0,0,163,0,163,0,163,0,0,0,163,163,NA,163,163,Thu Sep 21 14:33:46 2023,300,The main experiment item,TRUE,FlankerTask.osexp,C:\Users\Simone\Desktop,FALSE,mono,FALSE,18,no,white,no,yes,768,legacy,3,79,C:/Users/Simone/Desktop/SD-subject-4.csv,legacy,Melodramatic Milgram,4.0.5,0,h,NA,s,h,s,h,NA,346,NA,2308,27822,77166,346,NA,2,legacy,1024,2,48000,-16,experiment,HHHHH,4,even,367136,4092,159214,361688,362243,1780,366635,NA,368160,1783,131391,284521,368261,368608,NA,368158,368261,Flanker Task,159,69898,164,1024
96,96,425,425,black,legacy,legacy,legacy,congruent ,1,undefined,1,s,164,0,0,0,164,0,164,0,164,0,0,0,164,164,NA,164,164,Thu Sep 21 14:33:46 2023,300,The main experiment item,TRUE,FlankerTask.osexp,C:\Users\Simone\Desktop,FALSE,mono,FALSE,18,no,white,no,yes,768,legacy,4,79,C:/Users/Simone/Desktop/SD-subject-4.csv,legacy,Melodramatic Milgram,4.0.5,0,s,NA,s,h,s,s,NA,263,NA,2308,27822,77166,263,NA,2,legacy,1024,2,48000,-16,experiment,SSSSS,4,even,369113,4092,159214,361688,362243,1780,368612,NA,370135,1783,131391,284521,370236,370500,NA,370134,370236,Flanker Task,160,70161,165,1024
96,96,424,424,black,legacy,legacy,legacy,incongruent,1,undefined,1,s,165,0,0,0,165,0,165,0,165,0,0,0,165,165,NA,165,165,Thu Sep 21 14:33:46 2023,300,The main experiment item,TRUE,FlankerTask.osexp,C:\Users\Simone\Desktop,FALSE,mono,FALSE,18,no,white,no,yes,768,legacy,5,79,C:/Users/Simone/Desktop/SD-subject-4.csv,legacy,Melodramatic Milgram,4.0.5,0,s,NA,s,h,s,s,NA,296,NA,2308,27822,77166,296,NA,2,legacy,1024,2,48000,-16,experiment,HHSHH,4,even,370504,4092,159214,361688,362243,1780,368612,NA,371530,1783,131391,284521,371631,371928,NA,371529,371631,Flanker Task,161,70457,166,1024
96,96,423,423,black,legacy,legacy,legacy,incongruent,0,undefined,0,h,166,0,0,0,166,0,166,0,166,0,0,0,166,166,NA,166,166,Thu Sep 21 14:33:46 2023,300,The main experiment item,TRUE,FlankerTask.osexp,C:\Users\Simone\Desktop,FALSE,mono,FALSE,18,no,white,no,yes,768,legacy,6,79,C:/Users/Simone/Desktop/SD-subject-4.csv,legacy,Melodramatic Milgram,4.0.5,0,s,NA,s,h,s,s,NA,294,NA,2308,27822,77166,294,NA,2,legacy,1024,2,48000,-16,experiment,SSHSS,4,even,371931,4092,159214,361688,362243,1780,368612,NA,372956,1783,131391,284521,373057,373352,NA,372955,373057,Flanker Task,161,70751,167,1024
96,96,422,422,black,legacy,legacy,legacy,congruent ,1,undefined,1,s,167,0,0,0,167,0,167,0,167,0,0,0,167,167,NA,167,167,Thu Sep 21 14:33:46 2023,300,The main experiment item,TRUE,FlankerTask.osexp,C:\Users\Simone\Desktop,FALSE,mono,FALSE,18,no,white,no,yes,768,legacy,7,79,C:/Users/Simone/Desktop/SD-subject-4.csv,legacy,Melodramatic Milgram,4.0.5,0,s,NA,s,h,s,s,NA,289,NA,2308,27822,77166,289,NA,2,legacy,1024,2,48000,-16,experiment,SSSSS,4,even,373855,4092,159214,361688,373354,1780,368612,NA,374884,1783,131391,284521,374985,375275,NA,374883,374985,Flanker Task,162,71040,168,1024
96,96,422,422,black,legacy,legacy,legacy,congruent ,1,undefined,1,s,168,0,0,0,168,0,168,0,168,0,0,0,168,168,NA,168,168,Thu Sep 21 14:33:46 2023,300,The main experiment item,TRUE,FlankerTask.osexp,C:\Users\Simone\Desktop,FALSE,mono,FALSE,18,no,white,no,yes,768,legacy,8,79,C:/Users/Simone/Desktop/SD-subject-4.csv,legacy,Melodramatic Milgram,4.0.5,0,s,NA,s,h,s,s,NA,307,NA,2308,27822,77166,307,NA,2,legacy,1024,2,48000,-16,experiment,SSSSS,4,even,375279,4092,159214,361688,373354,1780,368612,NA,376302,1783,131391,284521,376403,376711,NA,376300,376403,Flanker Task,163,71347,169,1024
96,96,421,421,black,legacy,legacy,legacy,congruent ,1,undefined,1,h,169,0,0,0,169,0,169,0,169,0,0,0,169,169,NA,169,169,Thu Sep 21 14:33:46 2023,300,The main experiment item,TRUE,FlankerTask.osexp,C:\Users\Simone\Desktop,FALSE,mono,FALSE,18,no,white,no,yes,768,legacy,9,79,C:/Users/Simone/Desktop/SD-subject-4.csv,legacy,Melodramatic Milgram,4.0.5,0,h,NA,s,h,s,h,NA,252,NA,2308,27822,77166,252,NA,2,legacy,1024,2,48000,-16,experiment,HHHHH,4,even,377216,4092,159214,361688,373354,1780,376715,NA,378238,1783,131391,284521,378339,378592,NA,378237,378339,Flanker Task,164,71599,170,1024
95,95,420,420,black,legacy,legacy,legacy,incongruent,0,undefined,0,s,170,0,0,0,170,0,170,0,170,0,0,0,170,170,NA,170,170,Thu Sep 21 14:33:46 2023,300,The main experiment item,TRUE,FlankerTask.osexp,C:\Users\Simone\Desktop,FALSE,mono,FALSE,18,no,white,no,yes,768,legacy,10,79,C:/Users/Simone/Desktop/SD-subject-4.csv,legacy,Melodramatic Milgram,4.0.5,0,h,NA,s,h,s,h,NA,374,NA,2308,27822,77166,374,NA,2,legacy,1024,2,48000,-16,experiment,HHSHH,4,even,378595,4092,159214,361688,373354,1780,376715,NA,379626,1783,131391,284521,379727,380102,NA,379625,379727,Flanker Task,164,71973,171,1024
95,95,419,419,black,legacy,legacy,legacy,incongruent,0,undefined,0,h,171,0,0,0,171,0,171,0,171,0,0,0,171,171,NA,171,171,Thu Sep 21 14:33:46 2023,300,The main experiment item,TRUE,FlankerTask.osexp,C:\Users\Simone\Desktop,FALSE,mono,FALSE,18,no,white,no,yes,768,legacy,11,79,C:/Users/Simone/Desktop/SD-subject-4.csv,legacy,Melodramatic Milgram,4.0.5,0,s,NA,s,h,s,s,NA,223,NA,2308,27822,77166,223,NA,2,legacy,1024,2,48000,-16,experiment,SSHSS,4,even,381108,4092,159214,361688,380106,1780,380607,NA,382134,1783,131391,284521,382235,382459,NA,382132,382235,Flanker Task,164,72196,172,1024
95,95,417,417,black,legacy,legacy,legacy,incongruent,1,undefined,1,s,172,0,0,0,172,0,172,0,172,0,0,0,172,172,NA,172,172,Thu Sep 21 14:33:46 2023,300,The main experiment item,TRUE,FlankerTask.osexp,C:\Users\Simone\Desktop,FALSE,mono,FALSE,18,no,white,no,yes,768,legacy,12,79,C:/Users/Simone/Desktop/SD-subject-4.csv,legacy,Melodramatic Milgram,4.0.5,0,s,NA,s,h,s,s,NA,111,NA,2308,27822,77166,111,NA,2,legacy,1024,2,48000,-16,experiment,HHSHH,4,even,382966,4092,159214,361688,382465,1780,380607,NA,383990,1783,131391,284521,384092,384204,NA,383989,384091,Flanker Task,165,72307,173,1024
95,95,417,417,black,legacy,legacy,legacy,congruent ,1,undefined,1,h,173,0,0,0,173,0,173,0,173,0,0,0,173,173,NA,173,173,Thu Sep 21 14:33:46 2023,300,The main experiment item,TRUE,FlankerTask.osexp,C:\Users\Simone\Desktop,FALSE,mono,FALSE,18,no,white,no,yes,768,legacy,13,79,C:/Users/Simone/Desktop/SD-subject-4.csv,legacy,Melodramatic Milgram,4.0.5,0,h,NA,s,h,s,h,NA,271,NA,2308,27822,77166,271,NA,2,legacy,1024,2,48000,-16,experiment,HHHHH,4,even,384208,4092,159214,361688,382465,1780,380607,NA,385235,1783,131391,284521,385336,385608,NA,385233,385336,Flanker Task,166,72578,174,1024
95,95,416,416,black,legacy,legacy,legacy,incongruent,1,undefined,1,s,174,0,0,0,174,0,174,0,174,0,0,0,174,174,NA,174,174,Thu Sep 21 14:33:46 2023,300,The main experiment item,TRUE,FlankerTask.osexp,C:\Users\Simone\Desktop,FALSE,mono,FALSE,18,no,white,no,yes,768,legacy,14,79,C:/Users/Simone/Desktop/SD-subject-4.csv,legacy,Melodramatic Milgram,4.0.5,0,s,NA,s,h,s,s,NA,276,NA,2308,27822,77166,276,NA,2,legacy,1024,2,48000,-16,experiment,HHSHH,4,even,385611,4092,159214,361688,382465,1780,380607,NA,386637,1783,131391,284521,386738,387015,NA,386636,386738,Flanker Task,167,72854,175,1024
95,95,415,415,black,legacy,legacy,legacy,congruent ,1,undefined,1,s,175,0,0,0,175,0,175,0,175,0,0,0,175,175,NA,175,175,Thu Sep 21 14:33:46 2023,300,The main experiment item,TRUE,FlankerTask.osexp,C:\Users\Simone\Desktop,FALSE,mono,FALSE,18,no,white,no,yes,768,legacy,15,79,C:/Users/Simone/Desktop/SD-subject-4.csv,legacy,Melodramatic Milgram,4.0.5,0,s,NA,s,h,s,s,NA,317,NA,2308,27822,77166,317,NA,2,legacy,1024,2,48000,-16,experiment,SSSSS,4,even,387019,4092,159214,361688,382465,1780,380607,NA,388047,1783,131391,284521,388148,388467,NA,388046,388148,Flanker Task,168,73171,176,1024
