"acc","accuracy","average_response_time","avg_rt","background","canvas_backend","clock_backend","color_backend","compensation","condition","coordinates","correct","correct_instructions1","correct_keyboard_response","correct_response","count_Block1","count_Block2","count_Block3","count_errorFeedback","count_experiment","count_faster","count_finish","count_fixation","count_instructions1","count_instructions2","count_instructions3","count_isi","count_keyboard_response","count_logger","count_sequence","count_stimulus","datetime","deadline","description","disable_garbage_collection","experiment_file","experiment_path","font_bold","font_family","font_italic","font_size","font_underline","foreground","form_clicks","fullscreen","height","keyboard_backend","live_row","live_row_Block1","logfile","mouse_backend","opensesame_codename","opensesame_version","repeat_cycle","response","response_finish","response_instructions1","response_instructions2","response_instructions3","response_keyboard_response","response_time","response_time_finish","response_time_instructions1","response_time_instructions2","response_time_instructions3","response_time_keyboard_response","round_decimals","sampler_backend","sound_buf_size","sound_channels","sound_freq","sound_sample_size","start","stimulus","subject_nr","subject_parity","time_Block1","time_Block2","time_Block3","time_errorFeedback","time_experiment","time_faster","time_finish","time_fixation","time_instructions1","time_instructions2","time_instructions3","time_isi","time_keyboard_response","time_logger","time_sequence","time_stimulus","title","total_correct","total_response_time","total_responses","uniform_coordinates","width"
"100","100","880","880","black","legacy","legacy","legacy","0","congruent","uniform","1","undefined","1","s","0","0","0","0","0","0","0","0","0","0","0","0","0","0","0","0","Thu Sep 22 10:02:40 2022","1500","The main experiment item","yes","FlankerTask.osexp","/Users/keelyn/Library/CloudStorage/OneDrive-Personal","no","mono","no","18","no","white","no","yes","768","legacy","0","0","/Users/keelyn/Library/CloudStorage/OneDrive-Personal/subject-2.csv","legacy","Lentiform Loewenfeld","3.3.12","0","s","NA","space","NA","NA","s","880","NA","31892","NA","NA","880","2","legacy","1024","2","48000","-16","experiment","SSSSS","2","even","32850","NA","NA","NA","941","NA","NA","32880","952","NA","NA","NA","32987","33868","32876","32987","Flanker Task","1","880","1","yes","1024"
"100","100","754.5","754.5","black","legacy","legacy","legacy","0","incongruent","uniform","1","undefined","1","s","0","0","0","1","0","1","0","1","0","0","0","1","1","1","1","1","Thu Sep 22 10:02:40 2022","1500","The main experiment item","yes","FlankerTask.osexp","/Users/keelyn/Library/CloudStorage/OneDrive-Personal","no","mono","no","18","no","white","no","yes","768","legacy","1","1","/Users/keelyn/Library/CloudStorage/OneDrive-Personal/subject-2.csv","legacy","Lentiform Loewenfeld","3.3.12","0","s","NA","space","NA","NA","s","629","NA","31892","NA","NA","629","2","legacy","1024","2","48000","-16","experiment","HHSHH","2","even","32850","NA","NA","NA","941","NA","NA","34943","952","NA","NA","33874","35051","35689","34937","35051","Flanker Task","2","1509","2","yes","1024"
"100","100","663","663","black","legacy","legacy","legacy","0","congruent","uniform","1","undefined","1","h","0","0","0","2","0","2","0","2","0","0","0","2","2","2","2","2","Thu Sep 22 10:02:40 2022","1500","The main experiment item","yes","FlankerTask.osexp","/Users/keelyn/Library/CloudStorage/OneDrive-Personal","no","mono","no","18","no","white","no","yes","768","legacy","2","2","/Users/keelyn/Library/CloudStorage/OneDrive-Personal/subject-2.csv","legacy","Lentiform Loewenfeld","3.3.12","0","h","NA","space","NA","NA","h","480","NA","31892","NA","NA","480","2","legacy","1024","2","48000","-16","experiment","HHHHH","2","even","32850","NA","NA","NA","941","NA","NA","36763","952","NA","NA","35694","36871","37351","36757","36871","Flanker Task","3","1989","3","yes","1024"
"100","100","665.5","665.5","black","legacy","legacy","legacy","0","incongruent","uniform","1","undefined","1","s","0","0","0","3","0","3","0","3","0","0","0","3","3","3","3","3","Thu Sep 22 10:02:40 2022","1500","The main experiment item","yes","FlankerTask.osexp","/Users/keelyn/Library/CloudStorage/OneDrive-Personal","no","mono","no","18","no","white","no","yes","768","legacy","3","3","/Users/keelyn/Library/CloudStorage/OneDrive-Personal/subject-2.csv","legacy","Lentiform Loewenfeld","3.3.12","0","s","NA","space","NA","NA","s","673","NA","31892","NA","NA","673","2","legacy","1024","2","48000","-16","experiment","HHSHH","2","even","32850","NA","NA","NA","941","NA","NA","38421","952","NA","NA","37357","38529","39203","38415","38529","Flanker Task","4","2662","4","yes","1024"
"100","100","609.2","609.2","black","legacy","legacy","legacy","0","congruent","uniform","1","undefined","1","h","0","0","0","4","0","4","0","4","0","0","0","4","4","4","4","4","Thu Sep 22 10:02:40 2022","1500","The main experiment item","yes","FlankerTask.osexp","/Users/keelyn/Library/CloudStorage/OneDrive-Personal","no","mono","no","18","no","white","no","yes","768","legacy","4","4","/Users/keelyn/Library/CloudStorage/OneDrive-Personal/subject-2.csv","legacy","Lentiform Loewenfeld","3.3.12","0","h","NA","space","NA","NA","h","384","NA","31892","NA","NA","384","2","legacy","1024","2","48000","-16","experiment","HHHHH","2","even","32850","NA","NA","NA","941","NA","NA","40265","952","NA","NA","39208","40373","40758","40259","40373","Flanker Task","5","3046","5","yes","1024"
"100","100","569.6666666666666","569.6666666666666","black","legacy","legacy","legacy","0","congruent","uniform","1","undefined","1","s","0","0","0","5","0","5","0","5","0","0","0","5","5","5","5","5","Thu Sep 22 10:02:40 2022","1500","The main experiment item","yes","FlankerTask.osexp","/Users/keelyn/Library/CloudStorage/OneDrive-Personal","no","mono","no","18","no","white","no","yes","768","legacy","5","5","/Users/keelyn/Library/CloudStorage/OneDrive-Personal/subject-2.csv","legacy","Lentiform Loewenfeld","3.3.12","0","s","NA","space","NA","NA","s","372","NA","31892","NA","NA","372","2","legacy","1024","2","48000","-16","experiment","SSSSS","2","even","32850","NA","NA","NA","941","NA","NA","41827","952","NA","NA","40763","41936","42309","41821","41936","Flanker Task","6","3418","6","yes","1024"
"100","100","563.7142857142857","563.7142857142857","black","legacy","legacy","legacy","0","congruent","uniform","1","undefined","1","h","0","0","0","6","0","6","0","6","0","0","0","6","6","6","6","6","Thu Sep 22 10:02:40 2022","1500","The main experiment item","yes","FlankerTask.osexp","/Users/keelyn/Library/CloudStorage/OneDrive-Personal","no","mono","no","18","no","white","no","yes","768","legacy","6","6","/Users/keelyn/Library/CloudStorage/OneDrive-Personal/subject-2.csv","legacy","Lentiform Loewenfeld","3.3.12","0","h","NA","space","NA","NA","h","528","NA","31892","NA","NA","528","2","legacy","1024","2","48000","-16","experiment","HHHHH","2","even","32850","NA","NA","NA","941","NA","NA","43375","952","NA","NA","42314","43484","44013","43369","43483","Flanker Task","7","3946","7","yes","1024"
"100","100","536.5","536.5","black","legacy","legacy","legacy","0","incongruent","uniform","1","undefined","1","s","0","0","0","7","0","7","0","7","0","0","0","7","7","7","7","7","Thu Sep 22 10:02:40 2022","1500","The main experiment item","yes","FlankerTask.osexp","/Users/keelyn/Library/CloudStorage/OneDrive-Personal","no","mono","no","18","no","white","no","yes","768","legacy","7","7","/Users/keelyn/Library/CloudStorage/OneDrive-Personal/subject-2.csv","legacy","Lentiform Loewenfeld","3.3.12","0","s","NA","space","NA","NA","s","346","NA","31892","NA","NA","346","2","legacy","1024","2","48000","-16","experiment","HHSHH","2","even","32850","NA","NA","NA","941","NA","NA","45076","952","NA","NA","44018","45184","45531","45070","45184","Flanker Task","8","4292","8","yes","1024"
"100","100","523.2222222222222","523.2222222222222","black","legacy","legacy","legacy","0","congruent","uniform","1","undefined","1","s","0","0","0","8","0","8","0","8","0","0","0","8","8","8","8","8","Thu Sep 22 10:02:40 2022","1500","The main experiment item","yes","FlankerTask.osexp","/Users/keelyn/Library/CloudStorage/OneDrive-Personal","no","mono","no","18","no","white","no","yes","768","legacy","8","8","/Users/keelyn/Library/CloudStorage/OneDrive-Personal/subject-2.csv","legacy","Lentiform Loewenfeld","3.3.12","0","s","NA","space","NA","NA","s","417","NA","31892","NA","NA","417","2","legacy","1024","2","48000","-16","experiment","SSSSS","2","even","32850","NA","NA","NA","941","NA","NA","46595","952","NA","NA","45536","46703","47121","46589","46703","Flanker Task","9","4709","9","yes","1024"
"100","100","525.8","525.8","black","legacy","legacy","legacy","0","incongruent","uniform","1","undefined","1","h","0","0","0","9","0","9","0","9","0","0","0","9","9","9","9","9","Thu Sep 22 10:02:40 2022","1500","The main experiment item","yes","FlankerTask.osexp","/Users/keelyn/Library/CloudStorage/OneDrive-Personal","no","mono","no","18","no","white","no","yes","768","legacy","9","9","/Users/keelyn/Library/CloudStorage/OneDrive-Personal/subject-2.csv","legacy","Lentiform Loewenfeld","3.3.12","0","h","NA","space","NA","NA","h","549","NA","31892","NA","NA","549","2","legacy","1024","2","48000","-16","experiment","SSHSS","2","even","32850","NA","NA","NA","941","NA","NA","48187","952","NA","NA","47126","48296","48845","48181","48296","Flanker Task","10","5258","10","yes","1024"
"100","100","527.0909090909091","527.0909090909091","black","legacy","legacy","legacy","0","incongruent","uniform","1","undefined","1","h","0","0","0","10","0","10","0","10","0","0","0","10","10","10","10","10","Thu Sep 22 10:02:40 2022","1500","The main experiment item","yes","FlankerTask.osexp","/Users/keelyn/Library/CloudStorage/OneDrive-Personal","no","mono","no","18","no","white","no","yes","768","legacy","10","10","/Users/keelyn/Library/CloudStorage/OneDrive-Personal/subject-2.csv","legacy","Lentiform Loewenfeld","3.3.12","0","h","NA","space","NA","NA","h","540","NA","31892","NA","NA","540","2","legacy","1024","2","48000","-16","experiment","SSHSS","2","even","32850","NA","NA","NA","941","NA","NA","49909","952","NA","NA","48851","50018","50558","49903","50018","Flanker Task","11","5798","11","yes","1024"
"100","100","512","512","black","legacy","legacy","legacy","0","congruent","uniform","1","undefined","1","s","0","0","0","11","0","11","0","11","0","0","0","11","11","11","11","11","Thu Sep 22 10:02:40 2022","1500","The main experiment item","yes","FlankerTask.osexp","/Users/keelyn/Library/CloudStorage/OneDrive-Personal","no","mono","no","18","no","white","no","yes","768","legacy","11","11","/Users/keelyn/Library/CloudStorage/OneDrive-Personal/subject-2.csv","legacy","Lentiform Loewenfeld","3.3.12","0","s","NA","space","NA","NA","s","346","NA","31892","NA","NA","346","2","legacy","1024","2","48000","-16","experiment","SSSSS","2","even","32850","NA","NA","NA","941","NA","NA","51626","952","NA","NA","50563","51735","52082","51620","51734","Flanker Task","12","6144","12","yes","1024"
"100","100","504.61538461538464","504.61538461538464","black","legacy","legacy","legacy","0","incongruent","uniform","1","undefined","1","h","0","0","0","12","0","12","0","12","0","0","0","12","12","12","12","12","Thu Sep 22 10:02:40 2022","1500","The main experiment item","yes","FlankerTask.osexp","/Users/keelyn/Library/CloudStorage/OneDrive-Personal","no","mono","no","18","no","white","no","yes","768","legacy","12","12","/Users/keelyn/Library/CloudStorage/OneDrive-Personal/subject-2.csv","legacy","Lentiform Loewenfeld","3.3.12","0","h","NA","space","NA","NA","h","416","NA","31892","NA","NA","416","2","legacy","1024","2","48000","-16","experiment","SSHSS","2","even","32850","NA","NA","NA","941","NA","NA","53143","952","NA","NA","52087","53251","53667","53137","53251","Flanker Task","13","6560","13","yes","1024"
"100","100","502.64285714285717","502.64285714285717","black","legacy","legacy","legacy","0","congruent","uniform","1","undefined","1","h","0","0","0","13","0","13","0","13","0","0","0","13","13","13","13","13","Thu Sep 22 10:02:40 2022","1500","The main experiment item","yes","FlankerTask.osexp","/Users/keelyn/Library/CloudStorage/OneDrive-Personal","no","mono","no","18","no","white","no","yes","768","legacy","13","13","/Users/keelyn/Library/CloudStorage/OneDrive-Personal/subject-2.csv","legacy","Lentiform Loewenfeld","3.3.12","0","h","NA","space","NA","NA","h","477","NA","31892","NA","NA","477","2","legacy","1024","2","48000","-16","experiment","HHHHH","2","even","32850","NA","NA","NA","941","NA","NA","54736","952","NA","NA","53672","54845","55323","54730","54845","Flanker Task","14","7037","14","yes","1024"
"100","100","502.2","502.2","black","legacy","legacy","legacy","0","incongruent","uniform","1","undefined","1","s","0","0","0","14","0","14","0","14","0","0","0","14","14","14","14","14","Thu Sep 22 10:02:40 2022","1500","The main experiment item","yes","FlankerTask.osexp","/Users/keelyn/Library/CloudStorage/OneDrive-Personal","no","mono","no","18","no","white","no","yes","768","legacy","14","14","/Users/keelyn/Library/CloudStorage/OneDrive-Personal/subject-2.csv","legacy","Lentiform Loewenfeld","3.3.12","0","s","NA","space","NA","NA","s","496","NA","31892","NA","NA","496","2","legacy","1024","2","48000","-16","experiment","HHSHH","2","even","32850","NA","NA","NA","941","NA","NA","56388","952","NA","NA","55328","56497","56994","56382","56497","Flanker Task","15","7533","15","yes","1024"
"100","100","502.1875","502.1875","black","legacy","legacy","legacy","0","incongruent","uniform","1","undefined","1","h","0","0","0","15","0","15","0","15","0","0","0","15","15","15","15","15","Thu Sep 22 10:02:40 2022","1500","The main experiment item","yes","FlankerTask.osexp","/Users/keelyn/Library/CloudStorage/OneDrive-Personal","no","mono","no","18","no","white","no","yes","768","legacy","15","15","/Users/keelyn/Library/CloudStorage/OneDrive-Personal/subject-2.csv","legacy","Lentiform Loewenfeld","3.3.12","0","h","NA","space","NA","NA","h","502","NA","31892","NA","NA","502","2","legacy","1024","2","48000","-16","experiment","SSHSS","2","even","32850","NA","NA","NA","941","NA","NA","58060","952","NA","NA","56999","58169","58672","58054","58169","Flanker Task","16","8035","16","yes","1024"
"100","100","493.3529411764706","493.3529411764706","black","legacy","legacy","legacy","0","incongruent","uniform","1","undefined","1","s","0","0","0","16","0","16","0","16","0","0","0","16","16","16","16","16","Thu Sep 22 10:02:40 2022","1500","The main experiment item","yes","FlankerTask.osexp","/Users/keelyn/Library/CloudStorage/OneDrive-Personal","no","mono","no","18","no","white","no","yes","768","legacy","16","16","/Users/keelyn/Library/CloudStorage/OneDrive-Personal/subject-2.csv","legacy","Lentiform Loewenfeld","3.3.12","0","s","NA","space","NA","NA","s","352","NA","31892","NA","NA","352","2","legacy","1024","2","48000","-16","experiment","HHSHH","2","even","32850","NA","NA","NA","941","NA","NA","59738","952","NA","NA","58677","59848","60201","59732","59848","Flanker Task","17","8387","17","yes","1024"
"100","100","484.55555555555554","484.55555555555554","black","legacy","legacy","legacy","0","incongruent","uniform","1","undefined","1","h","0","0","0","17","0","17","0","17","0","0","0","17","17","17","17","17","Thu Sep 22 10:02:40 2022","1500","The main experiment item","yes","FlankerTask.osexp","/Users/keelyn/Library/CloudStorage/OneDrive-Personal","no","mono","no","18","no","white","no","yes","768","legacy","17","17","/Users/keelyn/Library/CloudStorage/OneDrive-Personal/subject-2.csv","legacy","Lentiform Loewenfeld","3.3.12","0","h","NA","space","NA","NA","h","335","NA","31892","NA","NA","335","2","legacy","1024","2","48000","-16","experiment","SSHSS","2","even","32850","NA","NA","NA","941","NA","NA","61270","952","NA","NA","60206","61379","61714","61264","61379","Flanker Task","18","8722","18","yes","1024"
"100","100","484.3157894736842","484.3157894736842","black","legacy","legacy","legacy","0","congruent","uniform","1","undefined","1","s","0","0","0","18","0","18","0","18","0","0","0","18","18","18","18","18","Thu Sep 22 10:02:40 2022","1500","The main experiment item","yes","FlankerTask.osexp","/Users/keelyn/Library/CloudStorage/OneDrive-Personal","no","mono","no","18","no","white","no","yes","768","legacy","18","18","/Users/keelyn/Library/CloudStorage/OneDrive-Personal/subject-2.csv","legacy","Lentiform Loewenfeld","3.3.12","0","s","NA","space","NA","NA","s","480","NA","31892","NA","NA","480","2","legacy","1024","2","48000","-16","experiment","SSSSS","2","even","32850","NA","NA","NA","941","NA","NA","62782","952","NA","NA","61719","62891","63372","62776","62891","Flanker Task","19","9202","19","yes","1024"
"100","100","490.15","490.15","black","legacy","legacy","legacy","0","incongruent","uniform","1","undefined","1","s","0","0","0","19","0","19","0","19","0","0","0","19","19","19","19","19","Thu Sep 22 10:02:40 2022","1500","The main experiment item","yes","FlankerTask.osexp","/Users/keelyn/Library/CloudStorage/OneDrive-Personal","no","mono","no","18","no","white","no","yes","768","legacy","19","19","/Users/keelyn/Library/CloudStorage/OneDrive-Personal/subject-2.csv","legacy","Lentiform Loewenfeld","3.3.12","0","s","NA","space","NA","NA","s","601","NA","31892","NA","NA","601","2","legacy","1024","2","48000","-16","experiment","HHSHH","2","even","32850","NA","NA","NA","941","NA","NA","64438","952","NA","NA","63377","64547","65148","64432","64547","Flanker Task","20","9803","20","yes","1024"
"100","100","482.2857142857143","482.2857142857143","black","legacy","legacy","legacy","0","congruent","uniform","1","undefined","1","h","0","0","0","20","0","20","0","20","0","0","0","20","20","20","20","20","Thu Sep 22 10:02:40 2022","1500","The main experiment item","yes","FlankerTask.osexp","/Users/keelyn/Library/CloudStorage/OneDrive-Personal","no","mono","no","18","no","white","no","yes","768","legacy","20","20","/Users/keelyn/Library/CloudStorage/OneDrive-Personal/subject-2.csv","legacy","Lentiform Loewenfeld","3.3.12","0","h","NA","space","NA","NA","h","325","NA","31892","NA","NA","325","2","legacy","1024","2","48000","-16","experiment","HHHHH","2","even","32850","NA","NA","NA","941","NA","NA","66214","952","NA","NA","65154","66324","66650","66208","66323","Flanker Task","21","10128","21","yes","1024"
"100","100","482.27272727272725","482.27272727272725","black","legacy","legacy","legacy","0","incongruent","uniform","1","undefined","1","h","0","0","0","21","0","21","0","21","0","0","0","21","21","21","21","21","Thu Sep 22 10:02:40 2022","1500","The main experiment item","yes","FlankerTask.osexp","/Users/keelyn/Library/CloudStorage/OneDrive-Personal","no","mono","no","18","no","white","no","yes","768","legacy","21","21","/Users/keelyn/Library/CloudStorage/OneDrive-Personal/subject-2.csv","legacy","Lentiform Loewenfeld","3.3.12","0","h","NA","space","NA","NA","h","482","NA","31892","NA","NA","482","2","legacy","1024","2","48000","-16","experiment","SSHSS","2","even","32850","NA","NA","NA","941","NA","NA","67715","952","NA","NA","66655","67824","68306","67709","67824","Flanker Task","22","10610","22","yes","1024"
"100","100","478.60869565217394","478.60869565217394","black","legacy","legacy","legacy","0","congruent","uniform","1","undefined","1","h","0","0","0","22","0","22","0","22","0","0","0","22","22","22","22","22","Thu Sep 22 10:02:40 2022","1500","The main experiment item","yes","FlankerTask.osexp","/Users/keelyn/Library/CloudStorage/OneDrive-Personal","no","mono","no","18","no","white","no","yes","768","legacy","22","22","/Users/keelyn/Library/CloudStorage/OneDrive-Personal/subject-2.csv","legacy","Lentiform Loewenfeld","3.3.12","0","h","NA","space","NA","NA","h","398","NA","31892","NA","NA","398","2","legacy","1024","2","48000","-16","experiment","HHHHH","2","even","32850","NA","NA","NA","941","NA","NA","69371","952","NA","NA","68311","69480","69878","69365","69479","Flanker Task","23","11008","23","yes","1024"
"100","100","475.5416666666667","475.5416666666667","black","legacy","legacy","legacy","0","congruent","uniform","1","undefined","1","h","0","0","0","23","0","23","0","23","0","0","0","23","23","23","23","23","Thu Sep 22 10:02:40 2022","1500","The main experiment item","yes","FlankerTask.osexp","/Users/keelyn/Library/CloudStorage/OneDrive-Personal","no","mono","no","18","no","white","no","yes","768","legacy","23","23","/Users/keelyn/Library/CloudStorage/OneDrive-Personal/subject-2.csv","legacy","Lentiform Loewenfeld","3.3.12","0","h","NA","space","NA","NA","h","405","NA","31892","NA","NA","405","2","legacy","1024","2","48000","-16","experiment","HHHHH","2","even","32850","NA","NA","NA","941","NA","NA","70951","952","NA","NA","69884","71060","71465","70944","71060","Flanker Task","24","11413","24","yes","1024"
"100","100","474","474","black","legacy","legacy","legacy","0","incongruent","uniform","1","undefined","1","s","0","0","0","24","0","24","0","24","0","0","0","24","24","24","24","24","Thu Sep 22 10:02:40 2022","1500","The main experiment item","yes","FlankerTask.osexp","/Users/keelyn/Library/CloudStorage/OneDrive-Personal","no","mono","no","18","no","white","no","yes","768","legacy","24","24","/Users/keelyn/Library/CloudStorage/OneDrive-Personal/subject-2.csv","legacy","Lentiform Loewenfeld","3.3.12","0","s","NA","space","NA","NA","s","437","NA","31892","NA","NA","437","2","legacy","1024","2","48000","-16","experiment","HHSHH","2","even","32850","NA","NA","NA","941","NA","NA","72533","952","NA","NA","71471","72642","73079","72527","72641","Flanker Task","25","11850","25","yes","1024"
"100","100","474","474","black","legacy","legacy","legacy","0","incongruent","uniform","1","undefined","1","s","0","0","0","25","0","25","0","25","0","0","0","25","25","25","25","25","Thu Sep 22 10:02:40 2022","1500","The main experiment item","yes","FlankerTask.osexp","/Users/keelyn/Library/CloudStorage/OneDrive-Personal","no","mono","no","18","no","white","no","yes","768","legacy","25","25","/Users/keelyn/Library/CloudStorage/OneDrive-Personal/subject-2.csv","legacy","Lentiform Loewenfeld","3.3.12","0","s","NA","space","NA","NA","s","474","NA","31892","NA","NA","474","2","legacy","1024","2","48000","-16","experiment","HHSHH","2","even","32850","NA","NA","NA","941","NA","NA","74144","952","NA","NA","73084","74252","74727","74138","74252","Flanker Task","26","12324","26","yes","1024"
"100","100","476.77777777777777","476.77777777777777","black","legacy","legacy","legacy","0","incongruent","uniform","1","undefined","1","h","0","0","0","26","0","26","0","26","0","0","0","26","26","26","26","26","Thu Sep 22 10:02:40 2022","1500","The main experiment item","yes","FlankerTask.osexp","/Users/keelyn/Library/CloudStorage/OneDrive-Personal","no","mono","no","18","no","white","no","yes","768","legacy","26","26","/Users/keelyn/Library/CloudStorage/OneDrive-Personal/subject-2.csv","legacy","Lentiform Loewenfeld","3.3.12","0","h","NA","space","NA","NA","h","549","NA","31892","NA","NA","549","2","legacy","1024","2","48000","-16","experiment","SSHSS","2","even","32850","NA","NA","NA","941","NA","NA","75791","952","NA","NA","74731","75900","76450","75785","75899","Flanker Task","27","12873","27","yes","1024"
"96.42857142857143","96.42857142857143","473.07142857142856","473.07142857142856","black","legacy","legacy","legacy","0","incongruent","uniform","0","undefined","0","s","0","0","0","27","0","27","0","27","0","0","0","27","27","27","27","27","Thu Sep 22 10:02:40 2022","1500","The main experiment item","yes","FlankerTask.osexp","/Users/keelyn/Library/CloudStorage/OneDrive-Personal","no","mono","no","18","no","white","no","yes","768","legacy","27","27","/Users/keelyn/Library/CloudStorage/OneDrive-Personal/subject-2.csv","legacy","Lentiform Loewenfeld","3.3.12","0","h","NA","space","NA","NA","h","373","NA","31892","NA","NA","373","2","legacy","1024","2","48000","-16","experiment","HHSHH","2","even","32850","NA","NA","NA","941","NA","NA","77515","952","NA","NA","76455","77624","77998","77509","77624","Flanker Task","27","13246","28","yes","1024"
"96.55172413793103","96.55172413793103","470.37931034482756","470.37931034482756","black","legacy","legacy","legacy","0","congruent","uniform","1","undefined","1","s","0","0","0","28","0","28","0","28","0","0","0","28","28","28","28","28","Thu Sep 22 10:02:40 2022","1500","The main experiment item","yes","FlankerTask.osexp","/Users/keelyn/Library/CloudStorage/OneDrive-Personal","no","mono","no","18","no","white","no","yes","768","legacy","28","28","/Users/keelyn/Library/CloudStorage/OneDrive-Personal/subject-2.csv","legacy","Lentiform Loewenfeld","3.3.12","0","s","NA","space","NA","NA","s","395","NA","31892","NA","NA","395","2","legacy","1024","2","48000","-16","experiment","SSSSS","2","even","32850","NA","NA","78003","941","NA","NA","79575","952","NA","NA","78515","79684","80079","79569","79683","Flanker Task","28","13641","29","yes","1024"
"96.66666666666667","96.66666666666667","468.06666666666666","468.06666666666666","black","legacy","legacy","legacy","0","congruent","uniform","1","undefined","1","s","0","0","0","29","0","29","0","29","0","0","0","29","29","29","29","29","Thu Sep 22 10:02:40 2022","1500","The main experiment item","yes","FlankerTask.osexp","/Users/keelyn/Library/CloudStorage/OneDrive-Personal","no","mono","no","18","no","white","no","yes","768","legacy","29","29","/Users/keelyn/Library/CloudStorage/OneDrive-Personal/subject-2.csv","legacy","Lentiform Loewenfeld","3.3.12","0","s","NA","space","NA","NA","s","401","NA","31892","NA","NA","401","2","legacy","1024","2","48000","-16","experiment","SSSSS","2","even","32850","NA","NA","78003","941","NA","NA","81146","952","NA","NA","80084","81255","81657","81140","81255","Flanker Task","29","14042","30","yes","1024"
"96.7741935483871","96.7741935483871","467.2258064516129","467.2258064516129","black","legacy","legacy","legacy","0","congruent","uniform","1","undefined","1","h","0","0","0","30","0","30","0","30","0","0","0","30","30","30","30","30","Thu Sep 22 10:02:40 2022","1500","The main experiment item","yes","FlankerTask.osexp","/Users/keelyn/Library/CloudStorage/OneDrive-Personal","no","mono","no","18","no","white","no","yes","768","legacy","30","30","/Users/keelyn/Library/CloudStorage/OneDrive-Personal/subject-2.csv","legacy","Lentiform Loewenfeld","3.3.12","0","h","NA","space","NA","NA","h","442","NA","31892","NA","NA","442","2","legacy","1024","2","48000","-16","experiment","HHHHH","2","even","32850","NA","NA","78003","941","NA","NA","82723","952","NA","NA","81662","82832","83274","82717","82832","Flanker Task","30","14484","31","yes","1024"
"96.875","96.875","466.53125","466.53125","black","legacy","legacy","legacy","0","incongruent","uniform","1","undefined","1","s","0","0","0","31","0","31","0","31","0","0","0","31","31","31","31","31","Thu Sep 22 10:02:40 2022","1500","The main experiment item","yes","FlankerTask.osexp","/Users/keelyn/Library/CloudStorage/OneDrive-Personal","no","mono","no","18","no","white","no","yes","768","legacy","31","31","/Users/keelyn/Library/CloudStorage/OneDrive-Personal/subject-2.csv","legacy","Lentiform Loewenfeld","3.3.12","0","s","NA","space","NA","NA","s","445","NA","31892","NA","NA","445","2","legacy","1024","2","48000","-16","experiment","HHSHH","2","even","32850","NA","NA","78003","941","NA","NA","84342","952","NA","NA","83279","84451","84897","84336","84451","Flanker Task","31","14929","32","yes","1024"
"96.96969696969697","96.96969696969697","467.57575757575756","467.57575757575756","black","legacy","legacy","legacy","0","incongruent","uniform","1","undefined","1","h","0","0","0","32","0","32","0","32","0","0","0","32","32","32","32","32","Thu Sep 22 10:02:40 2022","1500","The main experiment item","yes","FlankerTask.osexp","/Users/keelyn/Library/CloudStorage/OneDrive-Personal","no","mono","no","18","no","white","no","yes","768","legacy","32","32","/Users/keelyn/Library/CloudStorage/OneDrive-Personal/subject-2.csv","legacy","Lentiform Loewenfeld","3.3.12","0","h","NA","space","NA","NA","h","501","NA","31892","NA","NA","501","2","legacy","1024","2","48000","-16","experiment","SSHSS","2","even","32850","NA","NA","78003","941","NA","NA","85966","952","NA","NA","84904","86075","86576","85960","86075","Flanker Task","32","15430","33","yes","1024"
"97.05882352941177","97.05882352941177","463.8529411764706","463.8529411764706","black","legacy","legacy","legacy","0","congruent","uniform","1","undefined","1","s","0","0","0","33","0","33","0","33","0","0","0","33","33","33","33","33","Thu Sep 22 10:02:40 2022","1500","The main experiment item","yes","FlankerTask.osexp","/Users/keelyn/Library/CloudStorage/OneDrive-Personal","no","mono","no","18","no","white","no","yes","768","legacy","33","33","/Users/keelyn/Library/CloudStorage/OneDrive-Personal/subject-2.csv","legacy","Lentiform Loewenfeld","3.3.12","0","s","NA","space","NA","NA","s","341","NA","31892","NA","NA","341","2","legacy","1024","2","48000","-16","experiment","SSSSS","2","even","32850","NA","NA","78003","941","NA","NA","87643","952","NA","NA","86581","87752","88093","87636","87751","Flanker Task","33","15771","34","yes","1024"
"97.14285714285714","97.14285714285714","463.45714285714286","463.45714285714286","black","legacy","legacy","legacy","0","congruent","uniform","1","undefined","1","s","0","0","0","34","0","34","0","34","0","0","0","34","34","34","34","34","Thu Sep 22 10:02:40 2022","1500","The main experiment item","yes","FlankerTask.osexp","/Users/keelyn/Library/CloudStorage/OneDrive-Personal","no","mono","no","18","no","white","no","yes","768","legacy","34","34","/Users/keelyn/Library/CloudStorage/OneDrive-Personal/subject-2.csv","legacy","Lentiform Loewenfeld","3.3.12","0","s","NA","space","NA","NA","s","450","NA","31892","NA","NA","450","2","legacy","1024","2","48000","-16","experiment","SSSSS","2","even","32850","NA","NA","78003","941","NA","NA","89159","952","NA","NA","88098","89267","89718","89153","89267","Flanker Task","34","16221","35","yes","1024"
"97.22222222222223","97.22222222222223","461.9166666666667","461.9166666666667","black","legacy","legacy","legacy","0","congruent","uniform","1","undefined","1","h","0","0","0","35","0","35","0","35","0","0","0","35","35","35","35","35","Thu Sep 22 10:02:40 2022","1500","The main experiment item","yes","FlankerTask.osexp","/Users/keelyn/Library/CloudStorage/OneDrive-Personal","no","mono","no","18","no","white","no","yes","768","legacy","35","35","/Users/keelyn/Library/CloudStorage/OneDrive-Personal/subject-2.csv","legacy","Lentiform Loewenfeld","3.3.12","0","h","NA","space","NA","NA","h","408","NA","31892","NA","NA","408","2","legacy","1024","2","48000","-16","experiment","HHHHH","2","even","32850","NA","NA","78003","941","NA","NA","90782","952","NA","NA","89723","90892","91301","90776","90892","Flanker Task","35","16629","36","yes","1024"
"97.29729729729729","97.29729729729729","458.13513513513516","458.13513513513516","black","legacy","legacy","legacy","0","incongruent","uniform","1","undefined","1","s","0","0","0","36","0","36","0","36","0","0","0","36","36","36","36","36","Thu Sep 22 10:02:40 2022","1500","The main experiment item","yes","FlankerTask.osexp","/Users/keelyn/Library/CloudStorage/OneDrive-Personal","no","mono","no","18","no","white","no","yes","768","legacy","36","36","/Users/keelyn/Library/CloudStorage/OneDrive-Personal/subject-2.csv","legacy","Lentiform Loewenfeld","3.3.12","0","s","NA","space","NA","NA","s","322","NA","31892","NA","NA","322","2","legacy","1024","2","48000","-16","experiment","HHSHH","2","even","32850","NA","NA","78003","941","NA","NA","92367","952","NA","NA","91306","92476","92799","92361","92476","Flanker Task","36","16951","37","yes","1024"
"97.36842105263158","97.36842105263158","456.1842105263158","456.1842105263158","black","legacy","legacy","legacy","0","congruent","uniform","1","undefined","1","s","0","0","0","37","0","37","0","37","0","0","0","37","37","37","37","37","Thu Sep 22 10:02:40 2022","1500","The main experiment item","yes","FlankerTask.osexp","/Users/keelyn/Library/CloudStorage/OneDrive-Personal","no","mono","no","18","no","white","no","yes","768","legacy","37","37","/Users/keelyn/Library/CloudStorage/OneDrive-Personal/subject-2.csv","legacy","Lentiform Loewenfeld","3.3.12","0","s","NA","space","NA","NA","s","384","NA","31892","NA","NA","384","2","legacy","1024","2","48000","-16","experiment","SSSSS","2","even","32850","NA","NA","78003","941","NA","NA","93867","952","NA","NA","92804","93977","94362","93861","93976","Flanker Task","37","17335","38","yes","1024"
"97.43589743589743","97.43589743589743","453.87179487179486","453.87179487179486","black","legacy","legacy","legacy","0","congruent","uniform","1","undefined","1","h","0","0","0","38","0","38","0","38","0","0","0","38","38","38","38","38","Thu Sep 22 10:02:40 2022","1500","The main experiment item","yes","FlankerTask.osexp","/Users/keelyn/Library/CloudStorage/OneDrive-Personal","no","mono","no","18","no","white","no","yes","768","legacy","38","38","/Users/keelyn/Library/CloudStorage/OneDrive-Personal/subject-2.csv","legacy","Lentiform Loewenfeld","3.3.12","0","h","NA","space","NA","NA","h","366","NA","31892","NA","NA","366","2","legacy","1024","2","48000","-16","experiment","HHHHH","2","even","32850","NA","NA","78003","941","NA","NA","95426","952","NA","NA","94367","95534","95900","95420","95534","Flanker Task","38","17701","39","yes","1024"
"97.5","97.5","454.95","454.95","black","legacy","legacy","legacy","0","incongruent","uniform","1","undefined","1","h","0","0","0","39","0","39","0","39","0","0","0","39","39","39","39","39","Thu Sep 22 10:02:40 2022","1500","The main experiment item","yes","FlankerTask.osexp","/Users/keelyn/Library/CloudStorage/OneDrive-Personal","no","mono","no","18","no","white","no","yes","768","legacy","39","39","/Users/keelyn/Library/CloudStorage/OneDrive-Personal/subject-2.csv","legacy","Lentiform Loewenfeld","3.3.12","0","h","NA","space","NA","NA","h","497","NA","31892","NA","NA","497","2","legacy","1024","2","48000","-16","experiment","SSHSS","2","even","32850","NA","NA","78003","941","NA","NA","96968","952","NA","NA","95905","97077","97575","96962","97077","Flanker Task","39","18198","40","yes","1024"
"97.5609756097561","97.5609756097561","454.9512195121951","454.9512195121951","black","legacy","legacy","legacy","0","incongruent","uniform","1","undefined","1","s","0","0","0","40","0","40","0","40","0","0","0","40","40","40","40","40","Thu Sep 22 10:02:40 2022","1500","The main experiment item","yes","FlankerTask.osexp","/Users/keelyn/Library/CloudStorage/OneDrive-Personal","no","mono","no","18","no","white","no","yes","768","legacy","40","40","/Users/keelyn/Library/CloudStorage/OneDrive-Personal/subject-2.csv","legacy","Lentiform Loewenfeld","3.3.12","0","s","NA","space","NA","NA","s","455","NA","31892","NA","NA","455","2","legacy","1024","2","48000","-16","experiment","HHSHH","2","even","32850","NA","NA","78003","941","NA","NA","98642","952","NA","NA","97580","98751","99206","98636","98751","Flanker Task","40","18653","41","yes","1024"
"97.61904761904762","97.61904761904762","454.5952380952381","454.5952380952381","black","legacy","legacy","legacy","0","congruent","uniform","1","undefined","1","h","0","0","0","41","0","41","0","41","0","0","0","41","41","41","41","41","Thu Sep 22 10:02:40 2022","1500","The main experiment item","yes","FlankerTask.osexp","/Users/keelyn/Library/CloudStorage/OneDrive-Personal","no","mono","no","18","no","white","no","yes","768","legacy","41","41","/Users/keelyn/Library/CloudStorage/OneDrive-Personal/subject-2.csv","legacy","Lentiform Loewenfeld","3.3.12","0","h","NA","space","NA","NA","h","440","NA","31892","NA","NA","440","2","legacy","1024","2","48000","-16","experiment","HHHHH","2","even","32850","NA","NA","78003","941","NA","NA","100273","952","NA","NA","99211","100382","100823","100267","100382","Flanker Task","41","19093","42","yes","1024"
"97.67441860465117","97.67441860465117","452.4418604651163","452.4418604651163","black","legacy","legacy","legacy","0","incongruent","uniform","1","undefined","1","s","0","0","0","42","0","42","0","42","0","0","0","42","42","42","42","42","Thu Sep 22 10:02:40 2022","1500","The main experiment item","yes","FlankerTask.osexp","/Users/keelyn/Library/CloudStorage/OneDrive-Personal","no","mono","no","18","no","white","no","yes","768","legacy","42","42","/Users/keelyn/Library/CloudStorage/OneDrive-Personal/subject-2.csv","legacy","Lentiform Loewenfeld","3.3.12","0","s","NA","space","NA","NA","s","362","NA","31892","NA","NA","362","2","legacy","1024","2","48000","-16","experiment","HHSHH","2","even","32850","NA","NA","78003","941","NA","NA","101887","952","NA","NA","100828","101995","102358","101881","101995","Flanker Task","42","19455","43","yes","1024"
"97.72727272727273","97.72727272727273","452.77272727272725","452.77272727272725","black","legacy","legacy","legacy","0","incongruent","uniform","1","undefined","1","s","0","0","0","43","0","43","0","43","0","0","0","43","43","43","43","43","Thu Sep 22 10:02:40 2022","1500","The main experiment item","yes","FlankerTask.osexp","/Users/keelyn/Library/CloudStorage/OneDrive-Personal","no","mono","no","18","no","white","no","yes","768","legacy","43","43","/Users/keelyn/Library/CloudStorage/OneDrive-Personal/subject-2.csv","legacy","Lentiform Loewenfeld","3.3.12","0","s","NA","space","NA","NA","s","467","NA","31892","NA","NA","467","2","legacy","1024","2","48000","-16","experiment","HHSHH","2","even","32850","NA","NA","78003","941","NA","NA","103424","952","NA","NA","102363","103533","104001","103418","103533","Flanker Task","43","19922","44","yes","1024"
"97.77777777777777","97.77777777777777","452.1111111111111","452.1111111111111","black","legacy","legacy","legacy","0","incongruent","uniform","1","undefined","1","s","0","0","0","44","0","44","0","44","0","0","0","44","44","44","44","44","Thu Sep 22 10:02:40 2022","1500","The main experiment item","yes","FlankerTask.osexp","/Users/keelyn/Library/CloudStorage/OneDrive-Personal","no","mono","no","18","no","white","no","yes","768","legacy","44","44","/Users/keelyn/Library/CloudStorage/OneDrive-Personal/subject-2.csv","legacy","Lentiform Loewenfeld","3.3.12","0","s","NA","space","NA","NA","s","423","NA","31892","NA","NA","423","2","legacy","1024","2","48000","-16","experiment","HHSHH","2","even","32850","NA","NA","78003","941","NA","NA","105066","952","NA","NA","104006","105175","105598","105060","105175","Flanker Task","44","20345","45","yes","1024"
"97.82608695652173","97.82608695652173","455.04347826086956","455.04347826086956","black","legacy","legacy","legacy","0","incongruent","uniform","1","undefined","1","s","0","0","0","45","0","45","0","45","0","0","0","45","45","45","45","45","Thu Sep 22 10:02:40 2022","1500","The main experiment item","yes","FlankerTask.osexp","/Users/keelyn/Library/CloudStorage/OneDrive-Personal","no","mono","no","18","no","white","no","yes","768","legacy","45","45","/Users/keelyn/Library/CloudStorage/OneDrive-Personal/subject-2.csv","legacy","Lentiform Loewenfeld","3.3.12","0","s","NA","space","NA","NA","s","587","NA","31892","NA","NA","587","2","legacy","1024","2","48000","-16","experiment","HHSHH","2","even","32850","NA","NA","78003","941","NA","NA","106665","952","NA","NA","105603","106774","107362","106659","106773","Flanker Task","45","20932","46","yes","1024"
"97.87234042553192","97.87234042553192","456.468085106383","456.468085106383","black","legacy","legacy","legacy","0","incongruent","uniform","1","undefined","1","h","0","0","0","46","0","46","0","46","0","0","0","46","46","46","46","46","Thu Sep 22 10:02:40 2022","1500","The main experiment item","yes","FlankerTask.osexp","/Users/keelyn/Library/CloudStorage/OneDrive-Personal","no","mono","no","18","no","white","no","yes","768","legacy","46","46","/Users/keelyn/Library/CloudStorage/OneDrive-Personal/subject-2.csv","legacy","Lentiform Loewenfeld","3.3.12","0","h","NA","space","NA","NA","h","522","NA","31892","NA","NA","522","2","legacy","1024","2","48000","-16","experiment","SSHSS","2","even","32850","NA","NA","78003","941","NA","NA","108423","952","NA","NA","107367","108531","109053","108417","108531","Flanker Task","46","21454","47","yes","1024"
"97.91666666666667","97.91666666666667","456.6875","456.6875","black","legacy","legacy","legacy","0","congruent","uniform","1","undefined","1","h","0","0","0","47","0","47","0","47","0","0","0","47","47","47","47","47","Thu Sep 22 10:02:40 2022","1500","The main experiment item","yes","FlankerTask.osexp","/Users/keelyn/Library/CloudStorage/OneDrive-Personal","no","mono","no","18","no","white","no","yes","768","legacy","47","47","/Users/keelyn/Library/CloudStorage/OneDrive-Personal/subject-2.csv","legacy","Lentiform Loewenfeld","3.3.12","0","h","NA","space","NA","NA","h","467","NA","31892","NA","NA","467","2","legacy","1024","2","48000","-16","experiment","HHHHH","2","even","32850","NA","NA","78003","941","NA","NA","110117","952","NA","NA","109058","110226","110693","110111","110225","Flanker Task","47","21921","48","yes","1024"
"97.95918367346938","97.95918367346938","455.1020408163265","455.1020408163265","black","legacy","legacy","legacy","0","congruent","uniform","1","undefined","1","s","0","0","0","48","0","48","0","48","0","0","0","48","48","48","48","48","Thu Sep 22 10:02:40 2022","1500","The main experiment item","yes","FlankerTask.osexp","/Users/keelyn/Library/CloudStorage/OneDrive-Personal","no","mono","no","18","no","white","no","yes","768","legacy","48","48","/Users/keelyn/Library/CloudStorage/OneDrive-Personal/subject-2.csv","legacy","Lentiform Loewenfeld","3.3.12","0","s","NA","space","NA","NA","s","379","NA","31892","NA","NA","379","2","legacy","1024","2","48000","-16","experiment","SSSSS","2","even","32850","NA","NA","78003","941","NA","NA","111763","952","NA","NA","110699","111873","112253","111757","111873","Flanker Task","48","22300","49","yes","1024"
"98","98","454.42","454.42","black","legacy","legacy","legacy","0","incongruent","uniform","1","undefined","1","h","0","0","0","49","0","49","0","49","0","0","0","49","49","49","49","49","Thu Sep 22 10:02:40 2022","1500","The main experiment item","yes","FlankerTask.osexp","/Users/keelyn/Library/CloudStorage/OneDrive-Personal","no","mono","no","18","no","white","no","yes","768","legacy","49","49","/Users/keelyn/Library/CloudStorage/OneDrive-Personal/subject-2.csv","legacy","Lentiform Loewenfeld","3.3.12","0","h","NA","space","NA","NA","h","421","NA","31892","NA","NA","421","2","legacy","1024","2","48000","-16","experiment","SSHSS","2","even","32850","NA","NA","78003","941","NA","NA","113314","952","NA","NA","112258","113422","113844","113308","113422","Flanker Task","49","22721","50","yes","1024"
"98.03921568627452","98.03921568627452","453.27450980392155","453.27450980392155","black","legacy","legacy","legacy","0","congruent","uniform","1","undefined","1","h","0","0","0","50","0","50","0","50","0","0","0","50","50","50","50","50","Thu Sep 22 10:02:40 2022","1500","The main experiment item","yes","FlankerTask.osexp","/Users/keelyn/Library/CloudStorage/OneDrive-Personal","no","mono","no","18","no","white","no","yes","768","legacy","50","50","/Users/keelyn/Library/CloudStorage/OneDrive-Personal/subject-2.csv","legacy","Lentiform Loewenfeld","3.3.12","0","h","NA","space","NA","NA","h","396","NA","31892","NA","NA","396","2","legacy","1024","2","48000","-16","experiment","HHHHH","2","even","32850","NA","NA","78003","941","NA","NA","114910","952","NA","NA","113849","115019","115416","114903","115019","Flanker Task","50","23117","51","yes","1024"
"98.07692307692308","98.07692307692308","451.53846153846155","451.53846153846155","black","legacy","legacy","legacy","0","congruent","uniform","1","undefined","1","h","0","0","0","51","0","51","0","51","0","0","0","51","51","51","51","51","Thu Sep 22 10:02:40 2022","1500","The main experiment item","yes","FlankerTask.osexp","/Users/keelyn/Library/CloudStorage/OneDrive-Personal","no","mono","no","18","no","white","no","yes","768","legacy","51","51","/Users/keelyn/Library/CloudStorage/OneDrive-Personal/subject-2.csv","legacy","Lentiform Loewenfeld","3.3.12","0","h","NA","space","NA","NA","h","363","NA","31892","NA","NA","363","2","legacy","1024","2","48000","-16","experiment","HHHHH","2","even","32850","NA","NA","78003","941","NA","NA","116479","952","NA","NA","115421","116588","116951","116473","116588","Flanker Task","51","23480","52","yes","1024"
"98.11320754716981","98.11320754716981","451.7358490566038","451.7358490566038","black","legacy","legacy","legacy","0","incongruent","uniform","1","undefined","1","s","0","0","0","52","0","52","0","52","0","0","0","52","52","52","52","52","Thu Sep 22 10:02:40 2022","1500","The main experiment item","yes","FlankerTask.osexp","/Users/keelyn/Library/CloudStorage/OneDrive-Personal","no","mono","no","18","no","white","no","yes","768","legacy","52","52","/Users/keelyn/Library/CloudStorage/OneDrive-Personal/subject-2.csv","legacy","Lentiform Loewenfeld","3.3.12","0","s","NA","space","NA","NA","s","462","NA","31892","NA","NA","462","2","legacy","1024","2","48000","-16","experiment","HHSHH","2","even","32850","NA","NA","78003","941","NA","NA","118016","952","NA","NA","116956","118124","118587","118010","118124","Flanker Task","52","23942","53","yes","1024"
"98.14814814814815","98.14814814814815","451.48148148148147","451.48148148148147","black","legacy","legacy","legacy","0","congruent","uniform","1","undefined","1","s","0","0","0","53","0","53","0","53","0","0","0","53","53","53","53","53","Thu Sep 22 10:02:40 2022","1500","The main experiment item","yes","FlankerTask.osexp","/Users/keelyn/Library/CloudStorage/OneDrive-Personal","no","mono","no","18","no","white","no","yes","768","legacy","53","53","/Users/keelyn/Library/CloudStorage/OneDrive-Personal/subject-2.csv","legacy","Lentiform Loewenfeld","3.3.12","0","s","NA","space","NA","NA","s","438","NA","31892","NA","NA","438","2","legacy","1024","2","48000","-16","experiment","SSSSS","2","even","32850","NA","NA","78003","941","NA","NA","119652","952","NA","NA","118592","119761","120199","119646","119761","Flanker Task","53","24380","54","yes","1024"
"96.36363636363636","96.36363636363636","451.1818181818182","451.1818181818182","black","legacy","legacy","legacy","0","incongruent","uniform","0","undefined","0","s","0","0","0","54","0","54","0","54","0","0","0","54","54","54","54","54","Thu Sep 22 10:02:40 2022","1500","The main experiment item","yes","FlankerTask.osexp","/Users/keelyn/Library/CloudStorage/OneDrive-Personal","no","mono","no","18","no","white","no","yes","768","legacy","54","54","/Users/keelyn/Library/CloudStorage/OneDrive-Personal/subject-2.csv","legacy","Lentiform Loewenfeld","3.3.12","0","h","NA","space","NA","NA","h","435","NA","31892","NA","NA","435","2","legacy","1024","2","48000","-16","experiment","HHSHH","2","even","32850","NA","NA","78003","941","NA","NA","121267","952","NA","NA","120205","121376","121812","121261","121376","Flanker Task","53","24815","55","yes","1024"
"96.42857142857143","96.42857142857143","450.75","450.75","black","legacy","legacy","legacy","0","congruent","uniform","1","undefined","1","s","0","0","0","55","0","55","0","55","0","0","0","55","55","55","55","55","Thu Sep 22 10:02:40 2022","1500","The main experiment item","yes","FlankerTask.osexp","/Users/keelyn/Library/CloudStorage/OneDrive-Personal","no","mono","no","18","no","white","no","yes","768","legacy","55","55","/Users/keelyn/Library/CloudStorage/OneDrive-Personal/subject-2.csv","legacy","Lentiform Loewenfeld","3.3.12","0","s","NA","space","NA","NA","s","427","NA","31892","NA","NA","427","2","legacy","1024","2","48000","-16","experiment","SSSSS","2","even","32850","NA","NA","121817","941","NA","NA","123389","952","NA","NA","122329","123498","123926","123383","123498","Flanker Task","54","25242","56","yes","1024"
"96.49122807017544","96.49122807017544","451.719298245614","451.719298245614","black","legacy","legacy","legacy","0","incongruent","uniform","1","undefined","1","h","0","0","0","56","0","56","0","56","0","0","0","56","56","56","56","56","Thu Sep 22 10:02:40 2022","1500","The main experiment item","yes","FlankerTask.osexp","/Users/keelyn/Library/CloudStorage/OneDrive-Personal","no","mono","no","18","no","white","no","yes","768","legacy","56","56","/Users/keelyn/Library/CloudStorage/OneDrive-Personal/subject-2.csv","legacy","Lentiform Loewenfeld","3.3.12","0","h","NA","space","NA","NA","h","506","NA","31892","NA","NA","506","2","legacy","1024","2","48000","-16","experiment","SSHSS","2","even","32850","NA","NA","121817","941","NA","NA","124992","952","NA","NA","123931","125101","125608","124986","125101","Flanker Task","55","25748","57","yes","1024"
"96.55172413793103","96.55172413793103","452.7586206896552","452.7586206896552","black","legacy","legacy","legacy","0","incongruent","uniform","1","undefined","1","s","0","0","0","57","0","57","0","57","0","0","0","57","57","57","57","57","Thu Sep 22 10:02:40 2022","1500","The main experiment item","yes","FlankerTask.osexp","/Users/keelyn/Library/CloudStorage/OneDrive-Personal","no","mono","no","18","no","white","no","yes","768","legacy","57","57","/Users/keelyn/Library/CloudStorage/OneDrive-Personal/subject-2.csv","legacy","Lentiform Loewenfeld","3.3.12","0","s","NA","space","NA","NA","s","512","NA","31892","NA","NA","512","2","legacy","1024","2","48000","-16","experiment","HHSHH","2","even","32850","NA","NA","121817","941","NA","NA","126673","952","NA","NA","125613","126782","127295","126667","126782","Flanker Task","56","26260","58","yes","1024"
"96.61016949152543","96.61016949152543","452.3220338983051","452.3220338983051","black","legacy","legacy","legacy","0","congruent","uniform","1","undefined","1","h","0","0","0","58","0","58","0","58","0","0","0","58","58","58","58","58","Thu Sep 22 10:02:40 2022","1500","The main experiment item","yes","FlankerTask.osexp","/Users/keelyn/Library/CloudStorage/OneDrive-Personal","no","mono","no","18","no","white","no","yes","768","legacy","58","58","/Users/keelyn/Library/CloudStorage/OneDrive-Personal/subject-2.csv","legacy","Lentiform Loewenfeld","3.3.12","0","h","NA","space","NA","NA","h","427","NA","31892","NA","NA","427","2","legacy","1024","2","48000","-16","experiment","HHHHH","2","even","32850","NA","NA","121817","941","NA","NA","128368","952","NA","NA","127300","128477","128904","128361","128477","Flanker Task","57","26687","59","yes","1024"
"96.66666666666667","96.66666666666667","455.01666666666665","455.01666666666665","black","legacy","legacy","legacy","0","incongruent","uniform","1","undefined","1","h","0","0","0","59","0","59","0","59","0","0","0","59","59","59","59","59","Thu Sep 22 10:02:40 2022","1500","The main experiment item","yes","FlankerTask.osexp","/Users/keelyn/Library/CloudStorage/OneDrive-Personal","no","mono","no","18","no","white","no","yes","768","legacy","59","59","/Users/keelyn/Library/CloudStorage/OneDrive-Personal/subject-2.csv","legacy","Lentiform Loewenfeld","3.3.12","0","h","NA","space","NA","NA","h","614","NA","31892","NA","NA","614","2","legacy","1024","2","48000","-16","experiment","SSHSS","2","even","32850","NA","NA","121817","941","NA","NA","129967","952","NA","NA","128909","130076","130691","129961","130075","Flanker Task","58","27301","60","yes","1024"
"96.72131147540983","96.72131147540983","454","454","black","legacy","legacy","legacy","0","incongruent","uniform","1","undefined","1","s","0","0","0","60","0","60","0","60","0","0","0","60","60","60","60","60","Thu Sep 22 10:02:40 2022","1500","The main experiment item","yes","FlankerTask.osexp","/Users/keelyn/Library/CloudStorage/OneDrive-Personal","no","mono","no","18","no","white","no","yes","768","legacy","60","60","/Users/keelyn/Library/CloudStorage/OneDrive-Personal/subject-2.csv","legacy","Lentiform Loewenfeld","3.3.12","0","s","NA","space","NA","NA","s","393","NA","31892","NA","NA","393","2","legacy","1024","2","48000","-16","experiment","HHSHH","2","even","32850","NA","NA","121817","941","NA","NA","131758","952","NA","NA","130696","131867","132261","131752","131867","Flanker Task","59","27694","61","yes","1024"
"96.7741935483871","96.7741935483871","452.9193548387097","452.9193548387097","black","legacy","legacy","legacy","0","congruent","uniform","1","undefined","1","s","0","0","0","61","0","61","0","61","0","0","0","61","61","61","61","61","Thu Sep 22 10:02:40 2022","1500","The main experiment item","yes","FlankerTask.osexp","/Users/keelyn/Library/CloudStorage/OneDrive-Personal","no","mono","no","18","no","white","no","yes","768","legacy","61","61","/Users/keelyn/Library/CloudStorage/OneDrive-Personal/subject-2.csv","legacy","Lentiform Loewenfeld","3.3.12","0","s","NA","space","NA","NA","s","387","NA","31892","NA","NA","387","2","legacy","1024","2","48000","-16","experiment","SSSSS","2","even","32850","NA","NA","121817","941","NA","NA","133329","952","NA","NA","132266","133438","133825","133323","133438","Flanker Task","60","28081","62","yes","1024"
"96.82539682539682","96.82539682539682","453.92063492063494","453.92063492063494","black","legacy","legacy","legacy","0","incongruent","uniform","1","undefined","1","h","0","0","0","62","0","62","0","62","0","0","0","62","62","62","62","62","Thu Sep 22 10:02:40 2022","1500","The main experiment item","yes","FlankerTask.osexp","/Users/keelyn/Library/CloudStorage/OneDrive-Personal","no","mono","no","18","no","white","no","yes","768","legacy","62","62","/Users/keelyn/Library/CloudStorage/OneDrive-Personal/subject-2.csv","legacy","Lentiform Loewenfeld","3.3.12","0","h","NA","space","NA","NA","h","516","NA","31892","NA","NA","516","2","legacy","1024","2","48000","-16","experiment","SSHSS","2","even","32850","NA","NA","121817","941","NA","NA","134900","952","NA","NA","133830","135008","135525","134894","135008","Flanker Task","61","28597","63","yes","1024"
"96.875","96.875","454.578125","454.578125","black","legacy","legacy","legacy","0","incongruent","uniform","1","undefined","1","h","0","0","0","63","0","63","0","63","0","0","0","63","63","63","63","63","Thu Sep 22 10:02:40 2022","1500","The main experiment item","yes","FlankerTask.osexp","/Users/keelyn/Library/CloudStorage/OneDrive-Personal","no","mono","no","18","no","white","no","yes","768","legacy","63","63","/Users/keelyn/Library/CloudStorage/OneDrive-Personal/subject-2.csv","legacy","Lentiform Loewenfeld","3.3.12","0","h","NA","space","NA","NA","h","496","NA","31892","NA","NA","496","2","legacy","1024","2","48000","-16","experiment","SSHSS","2","even","32850","NA","NA","121817","941","NA","NA","136591","952","NA","NA","135531","136700","137197","136585","136699","Flanker Task","62","29093","64","yes","1024"
"96.92307692307692","96.92307692307692","454.3076923076923","454.3076923076923","black","legacy","legacy","legacy","0","congruent","uniform","1","undefined","1","h","0","0","0","64","0","64","0","64","0","0","0","64","64","64","64","64","Thu Sep 22 10:02:40 2022","1500","The main experiment item","yes","FlankerTask.osexp","/Users/keelyn/Library/CloudStorage/OneDrive-Personal","no","mono","no","18","no","white","no","yes","768","legacy","64","64","/Users/keelyn/Library/CloudStorage/OneDrive-Personal/subject-2.csv","legacy","Lentiform Loewenfeld","3.3.12","0","h","NA","space","NA","NA","h","437","NA","31892","NA","NA","437","2","legacy","1024","2","48000","-16","experiment","HHHHH","2","even","32850","NA","NA","121817","941","NA","NA","138262","952","NA","NA","137202","138371","138809","138256","138371","Flanker Task","63","29530","65","yes","1024"
"96.96969696969697","96.96969696969697","454.92424242424244","454.92424242424244","black","legacy","legacy","legacy","0","incongruent","uniform","1","undefined","1","h","0","0","0","65","0","65","0","65","0","0","0","65","65","65","65","65","Thu Sep 22 10:02:40 2022","1500","The main experiment item","yes","FlankerTask.osexp","/Users/keelyn/Library/CloudStorage/OneDrive-Personal","no","mono","no","18","no","white","no","yes","768","legacy","65","65","/Users/keelyn/Library/CloudStorage/OneDrive-Personal/subject-2.csv","legacy","Lentiform Loewenfeld","3.3.12","0","h","NA","space","NA","NA","h","495","NA","31892","NA","NA","495","2","legacy","1024","2","48000","-16","experiment","SSHSS","2","even","32850","NA","NA","121817","941","NA","NA","139878","952","NA","NA","138814","139987","140483","139872","139987","Flanker Task","64","30025","66","yes","1024"
"97.01492537313433","97.01492537313433","456.14925373134326","456.14925373134326","black","legacy","legacy","legacy","0","incongruent","uniform","1","undefined","1","h","0","0","0","66","0","66","0","66","0","0","0","66","66","66","66","66","Thu Sep 22 10:02:40 2022","1500","The main experiment item","yes","FlankerTask.osexp","/Users/keelyn/Library/CloudStorage/OneDrive-Personal","no","mono","no","18","no","white","no","yes","768","legacy","66","66","/Users/keelyn/Library/CloudStorage/OneDrive-Personal/subject-2.csv","legacy","Lentiform Loewenfeld","3.3.12","0","h","NA","space","NA","NA","h","537","NA","31892","NA","NA","537","2","legacy","1024","2","48000","-16","experiment","SSHSS","2","even","32850","NA","NA","121817","941","NA","NA","141549","952","NA","NA","140488","141658","142196","141543","141658","Flanker Task","65","30562","67","yes","1024"
"97.05882352941177","97.05882352941177","455.8529411764706","455.8529411764706","black","legacy","legacy","legacy","0","incongruent","uniform","1","undefined","1","h","0","0","0","67","0","67","0","67","0","0","0","67","67","67","67","67","Thu Sep 22 10:02:40 2022","1500","The main experiment item","yes","FlankerTask.osexp","/Users/keelyn/Library/CloudStorage/OneDrive-Personal","no","mono","no","18","no","white","no","yes","768","legacy","67","67","/Users/keelyn/Library/CloudStorage/OneDrive-Personal/subject-2.csv","legacy","Lentiform Loewenfeld","3.3.12","0","h","NA","space","NA","NA","h","436","NA","31892","NA","NA","436","2","legacy","1024","2","48000","-16","experiment","SSHSS","2","even","32850","NA","NA","121817","941","NA","NA","143261","952","NA","NA","142201","143369","143806","143255","143369","Flanker Task","66","30998","68","yes","1024"
"97.10144927536231","97.10144927536231","455.3188405797101","455.3188405797101","black","legacy","legacy","legacy","0","congruent","uniform","1","undefined","1","s","0","0","0","68","0","68","0","68","0","0","0","68","68","68","68","68","Thu Sep 22 10:02:40 2022","1500","The main experiment item","yes","FlankerTask.osexp","/Users/keelyn/Library/CloudStorage/OneDrive-Personal","no","mono","no","18","no","white","no","yes","768","legacy","68","68","/Users/keelyn/Library/CloudStorage/OneDrive-Personal/subject-2.csv","legacy","Lentiform Loewenfeld","3.3.12","0","s","NA","space","NA","NA","s","419","NA","31892","NA","NA","419","2","legacy","1024","2","48000","-16","experiment","SSSSS","2","even","32850","NA","NA","121817","941","NA","NA","144869","952","NA","NA","143811","144978","145398","144863","144977","Flanker Task","67","31417","69","yes","1024"
"97.14285714285714","97.14285714285714","454.27142857142854","454.27142857142854","black","legacy","legacy","legacy","0","congruent","uniform","1","undefined","1","h","0","0","0","69","0","69","0","69","0","0","0","69","69","69","69","69","Thu Sep 22 10:02:40 2022","1500","The main experiment item","yes","FlankerTask.osexp","/Users/keelyn/Library/CloudStorage/OneDrive-Personal","no","mono","no","18","no","white","no","yes","768","legacy","69","69","/Users/keelyn/Library/CloudStorage/OneDrive-Personal/subject-2.csv","legacy","Lentiform Loewenfeld","3.3.12","0","h","NA","space","NA","NA","h","382","NA","31892","NA","NA","382","2","legacy","1024","2","48000","-16","experiment","HHHHH","2","even","32850","NA","NA","121817","941","NA","NA","146464","952","NA","NA","145403","146573","146956","146457","146573","Flanker Task","68","31799","70","yes","1024"
"97.1830985915493","97.1830985915493","454.1267605633803","454.1267605633803","black","legacy","legacy","legacy","0","congruent","uniform","1","undefined","1","h","0","0","0","70","0","70","0","70","0","0","0","70","70","70","70","70","Thu Sep 22 10:02:40 2022","1500","The main experiment item","yes","FlankerTask.osexp","/Users/keelyn/Library/CloudStorage/OneDrive-Personal","no","mono","no","18","no","white","no","yes","768","legacy","70","70","/Users/keelyn/Library/CloudStorage/OneDrive-Personal/subject-2.csv","legacy","Lentiform Loewenfeld","3.3.12","0","h","NA","space","NA","NA","h","444","NA","31892","NA","NA","444","2","legacy","1024","2","48000","-16","experiment","HHHHH","2","even","32850","NA","NA","121817","941","NA","NA","148020","952","NA","NA","146961","148129","148574","148013","148129","Flanker Task","69","32243","71","yes","1024"
"97.22222222222223","97.22222222222223","454.6388888888889","454.6388888888889","black","legacy","legacy","legacy","0","congruent","uniform","1","undefined","1","s","0","0","0","71","0","71","0","71","0","0","0","71","71","71","71","71","Thu Sep 22 10:02:40 2022","1500","The main experiment item","yes","FlankerTask.osexp","/Users/keelyn/Library/CloudStorage/OneDrive-Personal","no","mono","no","18","no","white","no","yes","768","legacy","71","71","/Users/keelyn/Library/CloudStorage/OneDrive-Personal/subject-2.csv","legacy","Lentiform Loewenfeld","3.3.12","0","s","NA","space","NA","NA","s","491","NA","31892","NA","NA","491","2","legacy","1024","2","48000","-16","experiment","SSSSS","2","even","32850","NA","NA","121817","941","NA","NA","149638","952","NA","NA","148579","149746","150237","149632","149746","Flanker Task","70","32734","72","yes","1024"
"97.26027397260275","97.26027397260275","454.5342465753425","454.5342465753425","black","legacy","legacy","legacy","0","congruent","uniform","1","undefined","1","s","0","0","0","72","0","72","0","72","0","0","0","72","72","72","72","72","Thu Sep 22 10:02:40 2022","1500","The main experiment item","yes","FlankerTask.osexp","/Users/keelyn/Library/CloudStorage/OneDrive-Personal","no","mono","no","18","no","white","no","yes","768","legacy","72","72","/Users/keelyn/Library/CloudStorage/OneDrive-Personal/subject-2.csv","legacy","Lentiform Loewenfeld","3.3.12","0","s","NA","space","NA","NA","s","447","NA","31892","NA","NA","447","2","legacy","1024","2","48000","-16","experiment","SSSSS","2","even","32850","NA","NA","121817","941","NA","NA","151303","952","NA","NA","150242","151412","151860","151297","151411","Flanker Task","71","33181","73","yes","1024"
"97.29729729729729","97.29729729729729","454.7162162162162","454.7162162162162","black","legacy","legacy","legacy","0","congruent","uniform","1","undefined","1","h","0","0","0","73","0","73","0","73","0","0","0","73","73","73","73","73","Thu Sep 22 10:02:40 2022","1500","The main experiment item","yes","FlankerTask.osexp","/Users/keelyn/Library/CloudStorage/OneDrive-Personal","no","mono","no","18","no","white","no","yes","768","legacy","73","73","/Users/keelyn/Library/CloudStorage/OneDrive-Personal/subject-2.csv","legacy","Lentiform Loewenfeld","3.3.12","0","h","NA","space","NA","NA","h","468","NA","31892","NA","NA","468","2","legacy","1024","2","48000","-16","experiment","HHHHH","2","even","32850","NA","NA","121817","941","NA","NA","152922","952","NA","NA","151865","153030","153499","152916","153030","Flanker Task","72","33649","74","yes","1024"
"97.33333333333333","97.33333333333333","454.9066666666667","454.9066666666667","black","legacy","legacy","legacy","0","incongruent","uniform","1","undefined","1","h","0","0","0","74","0","74","0","74","0","0","0","74","74","74","74","74","Thu Sep 22 10:02:40 2022","1500","The main experiment item","yes","FlankerTask.osexp","/Users/keelyn/Library/CloudStorage/OneDrive-Personal","no","mono","no","18","no","white","no","yes","768","legacy","74","74","/Users/keelyn/Library/CloudStorage/OneDrive-Personal/subject-2.csv","legacy","Lentiform Loewenfeld","3.3.12","0","h","NA","space","NA","NA","h","469","NA","31892","NA","NA","469","2","legacy","1024","2","48000","-16","experiment","SSHSS","2","even","32850","NA","NA","121817","941","NA","NA","154568","952","NA","NA","153504","154677","155147","154561","154677","Flanker Task","73","34118","75","yes","1024"
"97.36842105263158","97.36842105263158","455.61842105263156","455.61842105263156","black","legacy","legacy","legacy","0","congruent","uniform","1","undefined","1","s","0","0","0","75","0","75","0","75","0","0","0","75","75","75","75","75","Thu Sep 22 10:02:40 2022","1500","The main experiment item","yes","FlankerTask.osexp","/Users/keelyn/Library/CloudStorage/OneDrive-Personal","no","mono","no","18","no","white","no","yes","768","legacy","75","75","/Users/keelyn/Library/CloudStorage/OneDrive-Personal/subject-2.csv","legacy","Lentiform Loewenfeld","3.3.12","0","s","NA","space","NA","NA","s","509","NA","31892","NA","NA","509","2","legacy","1024","2","48000","-16","experiment","SSSSS","2","even","32850","NA","NA","121817","941","NA","NA","156214","952","NA","NA","155152","156323","156833","156208","156323","Flanker Task","74","34627","76","yes","1024"
"97.40259740259741","97.40259740259741","454.8961038961039","454.8961038961039","black","legacy","legacy","legacy","0","incongruent","uniform","1","undefined","1","h","0","0","0","76","0","76","0","76","0","0","0","76","76","76","76","76","Thu Sep 22 10:02:40 2022","1500","The main experiment item","yes","FlankerTask.osexp","/Users/keelyn/Library/CloudStorage/OneDrive-Personal","no","mono","no","18","no","white","no","yes","768","legacy","76","76","/Users/keelyn/Library/CloudStorage/OneDrive-Personal/subject-2.csv","legacy","Lentiform Loewenfeld","3.3.12","0","h","NA","space","NA","NA","h","400","NA","31892","NA","NA","400","2","legacy","1024","2","48000","-16","experiment","SSHSS","2","even","32850","NA","NA","121817","941","NA","NA","157897","952","NA","NA","156838","158006","158407","157891","158006","Flanker Task","75","35027","77","yes","1024"
"97.43589743589743","97.43589743589743","454.94871794871796","454.94871794871796","black","legacy","legacy","legacy","0","congruent","uniform","1","undefined","1","s","0","0","0","77","0","77","0","77","0","0","0","77","77","77","77","77","Thu Sep 22 10:02:40 2022","1500","The main experiment item","yes","FlankerTask.osexp","/Users/keelyn/Library/CloudStorage/OneDrive-Personal","no","mono","no","18","no","white","no","yes","768","legacy","77","77","/Users/keelyn/Library/CloudStorage/OneDrive-Personal/subject-2.csv","legacy","Lentiform Loewenfeld","3.3.12","0","s","NA","space","NA","NA","s","459","NA","31892","NA","NA","459","2","legacy","1024","2","48000","-16","experiment","SSSSS","2","even","32850","NA","NA","121817","941","NA","NA","159473","952","NA","NA","158412","159582","160042","159466","159582","Flanker Task","76","35486","78","yes","1024"
"97.46835443037975","97.46835443037975","455.32911392405066","455.32911392405066","black","legacy","legacy","legacy","0","congruent","uniform","1","undefined","1","s","0","0","0","78","0","78","0","78","0","0","0","78","78","78","78","78","Thu Sep 22 10:02:40 2022","1500","The main experiment item","yes","FlankerTask.osexp","/Users/keelyn/Library/CloudStorage/OneDrive-Personal","no","mono","no","18","no","white","no","yes","768","legacy","78","78","/Users/keelyn/Library/CloudStorage/OneDrive-Personal/subject-2.csv","legacy","Lentiform Loewenfeld","3.3.12","0","s","NA","space","NA","NA","s","485","NA","31892","NA","NA","485","2","legacy","1024","2","48000","-16","experiment","SSSSS","2","even","32850","NA","NA","121817","941","NA","NA","161106","952","NA","NA","160047","161215","161701","161100","161215","Flanker Task","77","35971","79","yes","1024"
"97.5","97.5","455.725","455.725","black","legacy","legacy","legacy","0","congruent","uniform","1","undefined","1","h","0","0","0","79","0","79","0","79","0","0","0","79","79","79","79","79","Thu Sep 22 10:02:40 2022","1500","The main experiment item","yes","FlankerTask.osexp","/Users/keelyn/Library/CloudStorage/OneDrive-Personal","no","mono","no","18","no","white","no","yes","768","legacy","79","79","/Users/keelyn/Library/CloudStorage/OneDrive-Personal/subject-2.csv","legacy","Lentiform Loewenfeld","3.3.12","0","h","NA","space","NA","NA","h","487","NA","31892","NA","NA","487","2","legacy","1024","2","48000","-16","experiment","HHHHH","2","even","32850","NA","NA","121817","941","NA","NA","162769","952","NA","NA","161706","162878","163365","162763","162878","Flanker Task","78","36458","80","yes","1024"
"97.53086419753086","97.53086419753086","455.91358024691357","455.91358024691357","black","legacy","legacy","legacy","0","congruent","uniform","1","undefined","1","h","0","0","0","80","0","80","0","80","0","0","0","80","80","80","80","80","Thu Sep 22 10:02:40 2022","600","The main experiment item","yes","FlankerTask.osexp","/Users/keelyn/Library/CloudStorage/OneDrive-Personal","no","mono","no","18","no","white","no","yes","768","legacy","0","79","/Users/keelyn/Library/CloudStorage/OneDrive-Personal/subject-2.csv","legacy","Lentiform Loewenfeld","3.3.12","0","h","NA","space","space","NA","h","471","NA","31892","20322","NA","471","2","legacy","1024","2","48000","-16","experiment","HHHHH","2","even","32850","184730","NA","121817","941","NA","NA","184755","952","164407","NA","163371","184862","185334","184751","184862","Flanker Task","79","36929","81","yes","1024"
"97.5609756097561","97.5609756097561","455.5243902439024","455.5243902439024","black","legacy","legacy","legacy","0","congruent","uniform","1","undefined","1","s","0","0","0","81","0","81","0","81","0","0","0","81","81","81","81","81","Thu Sep 22 10:02:40 2022","600","The main experiment item","yes","FlankerTask.osexp","/Users/keelyn/Library/CloudStorage/OneDrive-Personal","no","mono","no","18","no","white","no","yes","768","legacy","1","79","/Users/keelyn/Library/CloudStorage/OneDrive-Personal/subject-2.csv","legacy","Lentiform Loewenfeld","3.3.12","0","s","NA","space","space","NA","s","424","NA","31892","20322","NA","424","2","legacy","1024","2","48000","-16","experiment","SSSSS","2","even","32850","184730","NA","121817","941","NA","NA","186404","952","164407","NA","185339","186513","186938","186398","186513","Flanker Task","80","37353","82","yes","1024"
"97.59036144578313","97.59036144578313","455.72289156626505","455.72289156626505","black","legacy","legacy","legacy","0","incongruent","uniform","1","undefined","1","h","0","0","0","82","0","82","0","82","0","0","0","82","82","82","82","82","Thu Sep 22 10:02:40 2022","600","The main experiment item","yes","FlankerTask.osexp","/Users/keelyn/Library/CloudStorage/OneDrive-Personal","no","mono","no","18","no","white","no","yes","768","legacy","2","79","/Users/keelyn/Library/CloudStorage/OneDrive-Personal/subject-2.csv","legacy","Lentiform Loewenfeld","3.3.12","0","h","NA","space","space","NA","h","472","NA","31892","20322","NA","472","2","legacy","1024","2","48000","-16","experiment","SSHSS","2","even","32850","184730","NA","121817","941","NA","NA","188003","952","164407","NA","186943","188112","188584","187997","188112","Flanker Task","81","37825","83","yes","1024"
"97.61904761904762","97.61904761904762","454.1904761904762","454.1904761904762","black","legacy","legacy","legacy","0","incongruent","uniform","1","undefined","1","s","0","0","0","83","0","83","0","83","0","0","0","83","83","83","83","83","Thu Sep 22 10:02:40 2022","600","The main experiment item","yes","FlankerTask.osexp","/Users/keelyn/Library/CloudStorage/OneDrive-Personal","no","mono","no","18","no","white","no","yes","768","legacy","3","79","/Users/keelyn/Library/CloudStorage/OneDrive-Personal/subject-2.csv","legacy","Lentiform Loewenfeld","3.3.12","0","s","NA","space","space","NA","s","327","NA","31892","20322","NA","327","2","legacy","1024","2","48000","-16","experiment","HHSHH","2","even","32850","184730","NA","121817","941","NA","NA","189645","952","164407","NA","188589","189753","190081","189639","189753","Flanker Task","82","38152","84","yes","1024"
"97.6470588235294","97.6470588235294","454.1058823529412","454.1058823529412","black","legacy","legacy","legacy","0","incongruent","uniform","1","undefined","1","s","0","0","0","84","0","84","0","84","0","0","0","84","84","84","84","84","Thu Sep 22 10:02:40 2022","600","The main experiment item","yes","FlankerTask.osexp","/Users/keelyn/Library/CloudStorage/OneDrive-Personal","no","mono","no","18","no","white","no","yes","768","legacy","4","79","/Users/keelyn/Library/CloudStorage/OneDrive-Personal/subject-2.csv","legacy","Lentiform Loewenfeld","3.3.12","0","s","NA","space","space","NA","s","447","NA","31892","20322","NA","447","2","legacy","1024","2","48000","-16","experiment","HHSHH","2","even","32850","184730","NA","121817","941","NA","NA","191147","952","164407","NA","190086","191256","191704","191141","191256","Flanker Task","83","38599","85","yes","1024"
"97.67441860465117","97.67441860465117","454.0813953488372","454.0813953488372","black","legacy","legacy","legacy","0","incongruent","uniform","1","undefined","1","s","0","0","0","85","0","85","0","85","0","0","0","85","85","85","85","85","Thu Sep 22 10:02:40 2022","600","The main experiment item","yes","FlankerTask.osexp","/Users/keelyn/Library/CloudStorage/OneDrive-Personal","no","mono","no","18","no","white","no","yes","768","legacy","5","79","/Users/keelyn/Library/CloudStorage/OneDrive-Personal/subject-2.csv","legacy","Lentiform Loewenfeld","3.3.12","0","s","NA","space","space","NA","s","452","NA","31892","20322","NA","452","2","legacy","1024","2","48000","-16","experiment","HHSHH","2","even","32850","184730","NA","121817","941","NA","NA","192769","952","164407","NA","191709","192877","193329","192763","192877","Flanker Task","84","39051","86","yes","1024"
"97.70114942528735","97.70114942528735","454.39080459770116","454.39080459770116","black","legacy","legacy","legacy","0","incongruent","uniform","1","undefined","1","h","0","0","0","86","0","86","0","86","0","0","0","86","86","86","86","86","Thu Sep 22 10:02:40 2022","600","The main experiment item","yes","FlankerTask.osexp","/Users/keelyn/Library/CloudStorage/OneDrive-Personal","no","mono","no","18","no","white","no","yes","768","legacy","6","79","/Users/keelyn/Library/CloudStorage/OneDrive-Personal/subject-2.csv","legacy","Lentiform Loewenfeld","3.3.12","0","h","NA","space","space","NA","h","481","NA","31892","20322","NA","481","2","legacy","1024","2","48000","-16","experiment","SSHSS","2","even","32850","184730","NA","121817","941","NA","NA","194396","952","164407","NA","193335","194505","194987","194390","194504","Flanker Task","85","39532","87","yes","1024"
"97.72727272727273","97.72727272727273","454.46590909090907","454.46590909090907","black","legacy","legacy","legacy","0","incongruent","uniform","1","undefined","1","h","0","0","0","87","0","87","0","87","0","0","0","87","87","87","87","87","Thu Sep 22 10:02:40 2022","600","The main experiment item","yes","FlankerTask.osexp","/Users/keelyn/Library/CloudStorage/OneDrive-Personal","no","mono","no","18","no","white","no","yes","768","legacy","7","79","/Users/keelyn/Library/CloudStorage/OneDrive-Personal/subject-2.csv","legacy","Lentiform Loewenfeld","3.3.12","0","h","NA","space","space","NA","h","461","NA","31892","20322","NA","461","2","legacy","1024","2","48000","-16","experiment","SSHSS","2","even","32850","184730","NA","121817","941","NA","NA","196055","952","164407","NA","194992","196164","196626","196048","196164","Flanker Task","86","39993","88","yes","1024"
"97.75280898876404","97.75280898876404","453.39325842696627","453.39325842696627","black","legacy","legacy","legacy","0","congruent","uniform","1","undefined","1","s","0","0","0","88","0","88","0","88","0","0","0","88","88","88","88","88","Thu Sep 22 10:02:40 2022","600","The main experiment item","yes","FlankerTask.osexp","/Users/keelyn/Library/CloudStorage/OneDrive-Personal","no","mono","no","18","no","white","no","yes","768","legacy","8","79","/Users/keelyn/Library/CloudStorage/OneDrive-Personal/subject-2.csv","legacy","Lentiform Loewenfeld","3.3.12","0","s","NA","space","space","NA","s","359","NA","31892","20322","NA","359","2","legacy","1024","2","48000","-16","experiment","SSSSS","2","even","32850","184730","NA","121817","941","NA","NA","197692","952","164407","NA","196631","197801","198160","197686","197801","Flanker Task","87","40352","89","yes","1024"
"97.77777777777777","97.77777777777777","452.55555555555554","452.55555555555554","black","legacy","legacy","legacy","0","congruent","uniform","1","undefined","1","s","0","0","0","89","0","89","0","89","0","0","0","89","89","89","89","89","Thu Sep 22 10:02:40 2022","600","The main experiment item","yes","FlankerTask.osexp","/Users/keelyn/Library/CloudStorage/OneDrive-Personal","no","mono","no","18","no","white","no","yes","768","legacy","9","79","/Users/keelyn/Library/CloudStorage/OneDrive-Personal/subject-2.csv","legacy","Lentiform Loewenfeld","3.3.12","0","s","NA","space","space","NA","s","378","NA","31892","20322","NA","378","2","legacy","1024","2","48000","-16","experiment","SSSSS","2","even","32850","184730","NA","121817","941","NA","NA","199226","952","164407","NA","198166","199335","199714","199219","199334","Flanker Task","88","40730","90","yes","1024"
"96.7032967032967","96.7032967032967","452","452","black","legacy","legacy","legacy","0","incongruent","uniform","0","undefined","0","h","0","0","0","90","0","90","0","90","0","0","0","90","90","90","90","90","Thu Sep 22 10:02:40 2022","600","The main experiment item","yes","FlankerTask.osexp","/Users/keelyn/Library/CloudStorage/OneDrive-Personal","no","mono","no","18","no","white","no","yes","768","legacy","10","79","/Users/keelyn/Library/CloudStorage/OneDrive-Personal/subject-2.csv","legacy","Lentiform Loewenfeld","3.3.12","0","s","NA","space","space","NA","s","402","NA","31892","20322","NA","402","2","legacy","1024","2","48000","-16","experiment","SSHSS","2","even","32850","184730","NA","121817","941","NA","NA","200777","952","164407","NA","199719","200885","201288","200771","200885","Flanker Task","88","41132","91","yes","1024"
"96.73913043478261","96.73913043478261","451.2717391304348","451.2717391304348","black","legacy","legacy","legacy","0","incongruent","uniform","1","undefined","1","h","0","0","0","91","0","91","0","91","0","0","0","91","91","91","91","91","Thu Sep 22 10:02:40 2022","600","The main experiment item","yes","FlankerTask.osexp","/Users/keelyn/Library/CloudStorage/OneDrive-Personal","no","mono","no","18","no","white","no","yes","768","legacy","11","79","/Users/keelyn/Library/CloudStorage/OneDrive-Personal/subject-2.csv","legacy","Lentiform Loewenfeld","3.3.12","0","h","NA","space","space","NA","h","385","NA","31892","20322","NA","385","2","legacy","1024","2","48000","-16","experiment","SSHSS","2","even","32850","184730","NA","201293","941","NA","NA","202863","952","164407","NA","201804","202971","203357","202857","202971","Flanker Task","89","41517","92","yes","1024"
"96.7741935483871","96.7741935483871","452.78494623655916","452.78494623655916","black","legacy","legacy","legacy","0","incongruent","uniform","1","undefined","1","s","0","0","0","92","0","92","0","92","0","0","0","92","92","92","92","92","Thu Sep 22 10:02:40 2022","600","The main experiment item","yes","FlankerTask.osexp","/Users/keelyn/Library/CloudStorage/OneDrive-Personal","no","mono","no","18","no","white","no","yes","768","legacy","12","79","/Users/keelyn/Library/CloudStorage/OneDrive-Personal/subject-2.csv","legacy","Lentiform Loewenfeld","3.3.12","0","s","NA","space","space","NA","s","592","NA","31892","20322","NA","592","2","legacy","1024","2","48000","-16","experiment","HHSHH","2","even","32850","184730","NA","201293","941","NA","NA","204420","952","164407","NA","203362","204528","205120","204415","204528","Flanker Task","90","42109","93","yes","1024"
"96.80851063829788","96.80851063829788","452.5531914893617","452.5531914893617","black","legacy","legacy","legacy","0","incongruent","uniform","1","undefined","1","h","0","0","0","93","0","93","0","93","0","0","0","93","93","93","93","93","Thu Sep 22 10:02:40 2022","600","The main experiment item","yes","FlankerTask.osexp","/Users/keelyn/Library/CloudStorage/OneDrive-Personal","no","mono","no","18","no","white","no","yes","768","legacy","13","79","/Users/keelyn/Library/CloudStorage/OneDrive-Personal/subject-2.csv","legacy","Lentiform Loewenfeld","3.3.12","0","h","NA","space","space","NA","h","431","NA","31892","20322","NA","431","2","legacy","1024","2","48000","-16","experiment","SSHSS","2","even","32850","184730","NA","201293","941","NA","NA","206185","952","164407","NA","205125","206293","206725","206179","206293","Flanker Task","91","42540","94","yes","1024"
"96.84210526315789","96.84210526315789","451.6421052631579","451.6421052631579","black","legacy","legacy","legacy","0","congruent","uniform","1","undefined","1","s","0","0","0","94","0","94","0","94","0","0","0","94","94","94","94","94","Thu Sep 22 10:02:40 2022","600","The main experiment item","yes","FlankerTask.osexp","/Users/keelyn/Library/CloudStorage/OneDrive-Personal","no","mono","no","18","no","white","no","yes","768","legacy","14","79","/Users/keelyn/Library/CloudStorage/OneDrive-Personal/subject-2.csv","legacy","Lentiform Loewenfeld","3.3.12","0","s","NA","space","space","NA","s","366","NA","31892","20322","NA","366","2","legacy","1024","2","48000","-16","experiment","SSSSS","2","even","32850","184730","NA","201293","941","NA","NA","207787","952","164407","NA","206730","207896","208263","207781","207896","Flanker Task","92","42906","95","yes","1024"
"96.875","96.875","452.5","452.5","black","legacy","legacy","legacy","0","incongruent","uniform","1","undefined","1","s","0","0","0","95","0","95","0","95","0","0","0","95","95","95","95","95","Thu Sep 22 10:02:40 2022","600","The main experiment item","yes","FlankerTask.osexp","/Users/keelyn/Library/CloudStorage/OneDrive-Personal","no","mono","no","18","no","white","no","yes","768","legacy","15","79","/Users/keelyn/Library/CloudStorage/OneDrive-Personal/subject-2.csv","legacy","Lentiform Loewenfeld","3.3.12","0","s","NA","space","space","NA","s","534","NA","31892","20322","NA","534","2","legacy","1024","2","48000","-16","experiment","HHSHH","2","even","32850","184730","NA","201293","941","NA","NA","209328","952","164407","NA","208268","209437","209971","209322","209437","Flanker Task","93","43440","96","yes","1024"
"96.90721649484536","96.90721649484536","451.6185567010309","451.6185567010309","black","legacy","legacy","legacy","0","congruent","uniform","1","undefined","1","h","0","0","0","96","0","96","0","96","0","0","0","96","96","96","96","96","Thu Sep 22 10:02:40 2022","600","The main experiment item","yes","FlankerTask.osexp","/Users/keelyn/Library/CloudStorage/OneDrive-Personal","no","mono","no","18","no","white","no","yes","768","legacy","16","79","/Users/keelyn/Library/CloudStorage/OneDrive-Personal/subject-2.csv","legacy","Lentiform Loewenfeld","3.3.12","0","h","NA","space","space","NA","h","367","NA","31892","20322","NA","367","2","legacy","1024","2","48000","-16","experiment","HHHHH","2","even","32850","184730","NA","201293","941","NA","NA","211036","952","164407","NA","209976","211145","211513","211030","211145","Flanker Task","94","43807","97","yes","1024"
"95.91836734693878","95.91836734693878","450.14285714285717","450.14285714285717","black","legacy","legacy","legacy","0","incongruent","uniform","0","undefined","0","h","0","0","0","97","0","97","0","97","0","0","0","97","97","97","97","97","Thu Sep 22 10:02:40 2022","600","The main experiment item","yes","FlankerTask.osexp","/Users/keelyn/Library/CloudStorage/OneDrive-Personal","no","mono","no","18","no","white","no","yes","768","legacy","17","79","/Users/keelyn/Library/CloudStorage/OneDrive-Personal/subject-2.csv","legacy","Lentiform Loewenfeld","3.3.12","0","s","NA","space","space","NA","s","307","NA","31892","20322","NA","307","2","legacy","1024","2","48000","-16","experiment","SSHSS","2","even","32850","184730","NA","201293","941","NA","NA","212578","952","164407","NA","211518","212687","212995","212572","212687","Flanker Task","94","44114","98","yes","1024"
"95.95959595959596","95.95959595959596","454.4343434343434","454.4343434343434","black","legacy","legacy","legacy","0","incongruent","uniform","1","undefined","1","s","0","0","0","98","0","98","0","98","0","0","0","98","98","98","98","98","Thu Sep 22 10:02:40 2022","600","The main experiment item","yes","FlankerTask.osexp","/Users/keelyn/Library/CloudStorage/OneDrive-Personal","no","mono","no","18","no","white","no","yes","768","legacy","18","79","/Users/keelyn/Library/CloudStorage/OneDrive-Personal/subject-2.csv","legacy","Lentiform Loewenfeld","3.3.12","0","s","NA","space","space","NA","s","875","NA","31892","20322","NA","875","2","legacy","1024","2","48000","-16","experiment","HHSHH","2","even","32850","184730","NA","212999","941","NA","NA","214572","952","164407","NA","213511","214681","215557","214566","214681","Flanker Task","95","44989","99","yes","1024"
"96","96","458.73","458.73","black","legacy","legacy","legacy","0","congruent","uniform","1","undefined","1","h","0","0","0","99","0","99","0","99","0","0","0","99","99","99","99","99","Thu Sep 22 10:02:40 2022","600","The main experiment item","yes","FlankerTask.osexp","/Users/keelyn/Library/CloudStorage/OneDrive-Personal","no","mono","no","18","no","white","no","yes","768","legacy","19","79","/Users/keelyn/Library/CloudStorage/OneDrive-Personal/subject-2.csv","legacy","Lentiform Loewenfeld","3.3.12","0","h","NA","space","space","NA","h","884","NA","31892","20322","NA","884","2","legacy","1024","2","48000","-16","experiment","HHHHH","2","even","32850","184730","NA","212999","941","215562","NA","217137","952","164407","NA","216073","217246","218131","217131","217246","Flanker Task","96","45873","100","yes","1024"
"96.03960396039604","96.03960396039604","457.9207920792079","457.9207920792079","black","legacy","legacy","legacy","0","incongruent","uniform","1","undefined","1","s","0","0","0","100","0","100","0","100","0","0","0","100","100","100","100","100","Thu Sep 22 10:02:40 2022","600","The main experiment item","yes","FlankerTask.osexp","/Users/keelyn/Library/CloudStorage/OneDrive-Personal","no","mono","no","18","no","white","no","yes","768","legacy","20","79","/Users/keelyn/Library/CloudStorage/OneDrive-Personal/subject-2.csv","legacy","Lentiform Loewenfeld","3.3.12","0","s","NA","space","space","NA","s","377","NA","31892","20322","NA","377","2","legacy","1024","2","48000","-16","experiment","HHSHH","2","even","32850","184730","NA","212999","941","218136","NA","219709","952","164407","NA","218647","219818","220196","219703","219817","Flanker Task","97","46250","101","yes","1024"
"96.07843137254902","96.07843137254902","457.1372549019608","457.1372549019608","black","legacy","legacy","legacy","0","congruent","uniform","1","undefined","1","s","0","0","0","101","0","101","0","101","0","0","0","101","101","101","101","101","Thu Sep 22 10:02:40 2022","600","The main experiment item","yes","FlankerTask.osexp","/Users/keelyn/Library/CloudStorage/OneDrive-Personal","no","mono","no","18","no","white","no","yes","768","legacy","21","79","/Users/keelyn/Library/CloudStorage/OneDrive-Personal/subject-2.csv","legacy","Lentiform Loewenfeld","3.3.12","0","s","NA","space","space","NA","s","378","NA","31892","20322","NA","378","2","legacy","1024","2","48000","-16","experiment","SSSSS","2","even","32850","184730","NA","212999","941","218136","NA","221258","952","164407","NA","220201","221366","221745","221252","221366","Flanker Task","98","46628","102","yes","1024"
"96.11650485436893","96.11650485436893","456.7378640776699","456.7378640776699","black","legacy","legacy","legacy","0","incongruent","uniform","1","undefined","1","h","0","0","0","102","0","102","0","102","0","0","0","102","102","102","102","102","Thu Sep 22 10:02:40 2022","600","The main experiment item","yes","FlankerTask.osexp","/Users/keelyn/Library/CloudStorage/OneDrive-Personal","no","mono","no","18","no","white","no","yes","768","legacy","22","79","/Users/keelyn/Library/CloudStorage/OneDrive-Personal/subject-2.csv","legacy","Lentiform Loewenfeld","3.3.12","0","h","NA","space","space","NA","h","416","NA","31892","20322","NA","416","2","legacy","1024","2","48000","-16","experiment","SSHSS","2","even","32850","184730","NA","212999","941","218136","NA","222812","952","164407","NA","221750","222921","223338","222805","222921","Flanker Task","99","47044","103","yes","1024"
"95.1923076923077","95.1923076923077","455.8557692307692","455.8557692307692","black","legacy","legacy","legacy","0","congruent","uniform","0","undefined","0","h","0","0","0","103","0","103","0","103","0","0","0","103","103","103","103","103","Thu Sep 22 10:02:40 2022","600","The main experiment item","yes","FlankerTask.osexp","/Users/keelyn/Library/CloudStorage/OneDrive-Personal","no","mono","no","18","no","white","no","yes","768","legacy","23","79","/Users/keelyn/Library/CloudStorage/OneDrive-Personal/subject-2.csv","legacy","Lentiform Loewenfeld","3.3.12","0","s","NA","space","space","NA","s","365","NA","31892","20322","NA","365","2","legacy","1024","2","48000","-16","experiment","HHHHH","2","even","32850","184730","NA","212999","941","218136","NA","224403","952","164407","NA","223343","224512","224878","224397","224511","Flanker Task","99","47409","104","yes","1024"
"95.23809523809524","95.23809523809524","455.51428571428573","455.51428571428573","black","legacy","legacy","legacy","0","congruent","uniform","1","undefined","1","s","0","0","0","104","0","104","0","104","0","0","0","104","104","104","104","104","Thu Sep 22 10:02:40 2022","600","The main experiment item","yes","FlankerTask.osexp","/Users/keelyn/Library/CloudStorage/OneDrive-Personal","no","mono","no","18","no","white","no","yes","768","legacy","24","79","/Users/keelyn/Library/CloudStorage/OneDrive-Personal/subject-2.csv","legacy","Lentiform Loewenfeld","3.3.12","0","s","NA","space","space","NA","s","420","NA","31892","20322","NA","420","2","legacy","1024","2","48000","-16","experiment","SSSSS","2","even","32850","184730","NA","224883","941","218136","NA","226455","952","164407","NA","225394","226564","226985","226449","226564","Flanker Task","100","47829","105","yes","1024"
"95.28301886792453","95.28301886792453","454.89622641509436","454.89622641509436","black","legacy","legacy","legacy","0","congruent","uniform","1","undefined","1","h","0","0","0","105","0","105","0","105","0","0","0","105","105","105","105","105","Thu Sep 22 10:02:40 2022","600","The main experiment item","yes","FlankerTask.osexp","/Users/keelyn/Library/CloudStorage/OneDrive-Personal","no","mono","no","18","no","white","no","yes","768","legacy","25","79","/Users/keelyn/Library/CloudStorage/OneDrive-Personal/subject-2.csv","legacy","Lentiform Loewenfeld","3.3.12","0","h","NA","space","space","NA","h","390","NA","31892","20322","NA","390","2","legacy","1024","2","48000","-16","experiment","HHHHH","2","even","32850","184730","NA","224883","941","218136","NA","228049","952","164407","NA","226990","228158","228549","228043","228158","Flanker Task","101","48219","106","yes","1024"
"95.32710280373831","95.32710280373831","454","454","black","legacy","legacy","legacy","0","incongruent","uniform","1","undefined","1","s","0","0","0","106","0","106","0","106","0","0","0","106","106","106","106","106","Thu Sep 22 10:02:40 2022","600","The main experiment item","yes","FlankerTask.osexp","/Users/keelyn/Library/CloudStorage/OneDrive-Personal","no","mono","no","18","no","white","no","yes","768","legacy","26","79","/Users/keelyn/Library/CloudStorage/OneDrive-Personal/subject-2.csv","legacy","Lentiform Loewenfeld","3.3.12","0","s","NA","space","space","NA","s","359","NA","31892","20322","NA","359","2","legacy","1024","2","48000","-16","experiment","HHSHH","2","even","32850","184730","NA","224883","941","218136","NA","229615","952","164407","NA","228554","229724","230084","229608","229724","Flanker Task","102","48578","107","yes","1024"
"95.37037037037037","95.37037037037037","453.6759259259259","453.6759259259259","black","legacy","legacy","legacy","0","congruent","uniform","1","undefined","1","h","0","0","0","107","0","107","0","107","0","0","0","107","107","107","107","107","Thu Sep 22 10:02:40 2022","600","The main experiment item","yes","FlankerTask.osexp","/Users/keelyn/Library/CloudStorage/OneDrive-Personal","no","mono","no","18","no","white","no","yes","768","legacy","27","79","/Users/keelyn/Library/CloudStorage/OneDrive-Personal/subject-2.csv","legacy","Lentiform Loewenfeld","3.3.12","0","h","NA","space","space","NA","h","419","NA","31892","20322","NA","419","2","legacy","1024","2","48000","-16","experiment","HHHHH","2","even","32850","184730","NA","224883","941","218136","NA","231144","952","164407","NA","230089","231252","231672","231138","231252","Flanker Task","103","48997","108","yes","1024"
"95.41284403669725","95.41284403669725","453.5321100917431","453.5321100917431","black","legacy","legacy","legacy","0","incongruent","uniform","1","undefined","1","s","0","0","0","108","0","108","0","108","0","0","0","108","108","108","108","108","Thu Sep 22 10:02:40 2022","600","The main experiment item","yes","FlankerTask.osexp","/Users/keelyn/Library/CloudStorage/OneDrive-Personal","no","mono","no","18","no","white","no","yes","768","legacy","28","79","/Users/keelyn/Library/CloudStorage/OneDrive-Personal/subject-2.csv","legacy","Lentiform Loewenfeld","3.3.12","0","s","NA","space","space","NA","s","438","NA","31892","20322","NA","438","2","legacy","1024","2","48000","-16","experiment","HHSHH","2","even","32850","184730","NA","224883","941","218136","NA","232732","952","164407","NA","231676","232840","233279","232726","232840","Flanker Task","104","49435","109","yes","1024"
"95.45454545454545","95.45454545454545","453.3545454545455","453.3545454545455","black","legacy","legacy","legacy","0","congruent","uniform","1","undefined","1","s","0","0","0","109","0","109","0","109","0","0","0","109","109","109","109","109","Thu Sep 22 10:02:40 2022","600","The main experiment item","yes","FlankerTask.osexp","/Users/keelyn/Library/CloudStorage/OneDrive-Personal","no","mono","no","18","no","white","no","yes","768","legacy","29","79","/Users/keelyn/Library/CloudStorage/OneDrive-Personal/subject-2.csv","legacy","Lentiform Loewenfeld","3.3.12","0","s","NA","space","space","NA","s","434","NA","31892","20322","NA","434","2","legacy","1024","2","48000","-16","experiment","SSSSS","2","even","32850","184730","NA","224883","941","218136","NA","234343","952","164407","NA","233284","234452","234887","234337","234452","Flanker Task","105","49869","110","yes","1024"
"95.49549549549549","95.49549549549549","454.35135135135135","454.35135135135135","black","legacy","legacy","legacy","0","incongruent","uniform","1","undefined","1","s","0","0","0","110","0","110","0","110","0","0","0","110","110","110","110","110","Thu Sep 22 10:02:40 2022","600","The main experiment item","yes","FlankerTask.osexp","/Users/keelyn/Library/CloudStorage/OneDrive-Personal","no","mono","no","18","no","white","no","yes","768","legacy","30","79","/Users/keelyn/Library/CloudStorage/OneDrive-Personal/subject-2.csv","legacy","Lentiform Loewenfeld","3.3.12","0","s","NA","space","space","NA","s","564","NA","31892","20322","NA","564","2","legacy","1024","2","48000","-16","experiment","HHSHH","2","even","32850","184730","NA","224883","941","218136","NA","235955","952","164407","NA","234892","236065","236630","235949","236065","Flanker Task","106","50433","111","yes","1024"
"95.53571428571429","95.53571428571429","453.94642857142856","453.94642857142856","black","legacy","legacy","legacy","0","congruent","uniform","1","undefined","1","s","0","0","0","111","0","111","0","111","0","0","0","111","111","111","111","111","Thu Sep 22 10:02:40 2022","600","The main experiment item","yes","FlankerTask.osexp","/Users/keelyn/Library/CloudStorage/OneDrive-Personal","no","mono","no","18","no","white","no","yes","768","legacy","31","79","/Users/keelyn/Library/CloudStorage/OneDrive-Personal/subject-2.csv","legacy","Lentiform Loewenfeld","3.3.12","0","s","NA","space","space","NA","s","409","NA","31892","20322","NA","409","2","legacy","1024","2","48000","-16","experiment","SSSSS","2","even","32850","184730","NA","224883","941","218136","NA","237696","952","164407","NA","236635","237805","238215","237690","237805","Flanker Task","107","50842","112","yes","1024"
"95.57522123893806","95.57522123893806","453.65486725663715","453.65486725663715","black","legacy","legacy","legacy","0","congruent","uniform","1","undefined","1","s","0","0","0","112","0","112","0","112","0","0","0","112","112","112","112","112","Thu Sep 22 10:02:40 2022","600","The main experiment item","yes","FlankerTask.osexp","/Users/keelyn/Library/CloudStorage/OneDrive-Personal","no","mono","no","18","no","white","no","yes","768","legacy","32","79","/Users/keelyn/Library/CloudStorage/OneDrive-Personal/subject-2.csv","legacy","Lentiform Loewenfeld","3.3.12","0","s","NA","space","space","NA","s","421","NA","31892","20322","NA","421","2","legacy","1024","2","48000","-16","experiment","SSSSS","2","even","32850","184730","NA","224883","941","218136","NA","239282","952","164407","NA","238220","239391","239813","239276","239390","Flanker Task","108","51263","113","yes","1024"
"94.73684210526316","94.73684210526316","452.5438596491228","452.5438596491228","black","legacy","legacy","legacy","0","incongruent","uniform","0","undefined","0","h","0","0","0","113","0","113","0","113","0","0","0","113","113","113","113","113","Thu Sep 22 10:02:40 2022","600","The main experiment item","yes","FlankerTask.osexp","/Users/keelyn/Library/CloudStorage/OneDrive-Personal","no","mono","no","18","no","white","no","yes","768","legacy","33","79","/Users/keelyn/Library/CloudStorage/OneDrive-Personal/subject-2.csv","legacy","Lentiform Loewenfeld","3.3.12","0","s","NA","space","space","NA","s","327","NA","31892","20322","NA","327","2","legacy","1024","2","48000","-16","experiment","SSHSS","2","even","32850","184730","NA","224883","941","218136","NA","240878","952","164407","NA","239818","240987","241315","240872","240986","Flanker Task","108","51590","114","yes","1024"
"94.78260869565217","94.78260869565217","452.704347826087","452.704347826087","black","legacy","legacy","legacy","0","incongruent","uniform","1","undefined","1","h","0","0","0","114","0","114","0","114","0","0","0","114","114","114","114","114","Thu Sep 22 10:02:40 2022","600","The main experiment item","yes","FlankerTask.osexp","/Users/keelyn/Library/CloudStorage/OneDrive-Personal","no","mono","no","18","no","white","no","yes","768","legacy","34","79","/Users/keelyn/Library/CloudStorage/OneDrive-Personal/subject-2.csv","legacy","Lentiform Loewenfeld","3.3.12","0","h","NA","space","space","NA","h","471","NA","31892","20322","NA","471","2","legacy","1024","2","48000","-16","experiment","SSHSS","2","even","32850","184730","NA","241320","941","218136","NA","242891","952","164407","NA","241833","243000","243472","242885","243000","Flanker Task","109","52061","115","yes","1024"
