"acc","accuracy","average_response_time","avg_rt","background","canvas_backend","clock_backend","color_backend","compensation","condition","coordinates","correct","correct_instructions1","correct_keyboard_response","correct_response","count_ISI","count_block1","count_block2","count_block3","count_error_feedback","count_experiment","count_faster","count_finish","count_fixation","count_instructions1","count_instructions2","count_instructions3","count_keyboard_response","count_logger","count_sequence","count_stimulus","datetime","deadline","description","disable_garbage_collection","experiment_file","experiment_path","font_bold","font_family","font_italic","font_size","font_underline","foreground","form_clicks","fullscreen","height","keyboard_backend","live_row","live_row_block1","logfile","mouse_backend","opensesame_codename","opensesame_version","repeat_cycle","response","response_finish","response_instructions1","response_instructions2","response_instructions3","response_keyboard_response","response_time","response_time_finish","response_time_instructions1","response_time_instructions2","response_time_instructions3","response_time_keyboard_response","round_decimals","sampler_backend","sound_buf_size","sound_channels","sound_freq","sound_sample_size","start","stimulus","subject_nr","subject_parity","time_ISI","time_block1","time_block2","time_block3","time_error_feedback","time_experiment","time_faster","time_finish","time_fixation","time_instructions1","time_instructions2","time_instructions3","time_keyboard_response","time_logger","time_sequence","time_stimulus","title","total_correct","total_response_time","total_responses","uniform_coordinates","width"
"100","100","635","635","black","legacy","legacy","legacy","0","congruent","uniform","1","undefined","1","s","0","0","0","0","0","0","0","0","0","0","0","0","0","0","0","0","Sun Sep 25 21:08:21 2022","1500","The main experiment item","yes","CS-Subject-1.osexp","C:/Users/cici_/Downloads","no","mono","no","18","no","white","no","yes","768","legacy","0","0","C:/Users/cici_/Downloads/F56-subject-4.csv","legacy","Lentiform Loewenfeld","3.3.12","0","s","NA","space","NA","NA","s","635","NA","49960","NA","NA","635","2","legacy","1024","2","48000","-16","experiment","SSSSS","4","even","NA","53802","NA","NA","NA","3834","NA","NA","53920","3841","NA","NA","54023","54659","53918","54022","CS-FlankerTask","1","635","1","yes","1024"
"100","100","633.5","633.5","black","legacy","legacy","legacy","0","congruent","uniform","1","undefined","1","h","1","0","0","0","1","0","1","0","1","0","0","0","1","1","1","1","Sun Sep 25 21:08:21 2022","1500","The main experiment item","yes","CS-Subject-1.osexp","C:/Users/cici_/Downloads","no","mono","no","18","no","white","no","yes","768","legacy","1","1","C:/Users/cici_/Downloads/F56-subject-4.csv","legacy","Lentiform Loewenfeld","3.3.12","0","h","NA","space","NA","NA","h","632","NA","49960","NA","NA","632","2","legacy","1024","2","48000","-16","experiment","HHHHH","4","even","54683","53802","NA","NA","NA","3834","NA","NA","55786","3841","NA","NA","55888","56521","55783","55888","CS-FlankerTask","2","1267","2","yes","1024"
"100","100","723.6666666666666","723.6666666666666","black","legacy","legacy","legacy","0","incongruent","uniform","1","undefined","1","s","2","0","0","0","2","0","2","0","2","0","0","0","2","2","2","2","Sun Sep 25 21:08:21 2022","1500","The main experiment item","yes","CS-Subject-1.osexp","C:/Users/cici_/Downloads","no","mono","no","18","no","white","no","yes","768","legacy","2","2","C:/Users/cici_/Downloads/F56-subject-4.csv","legacy","Lentiform Loewenfeld","3.3.12","0","s","NA","space","NA","NA","s","904","NA","49960","NA","NA","904","2","legacy","1024","2","48000","-16","experiment","HHSHH","4","even","56538","53802","NA","NA","NA","3834","NA","NA","57637","3841","NA","NA","57739","58644","57633","57739","CS-FlankerTask","3","2171","3","yes","1024"
"100","100","699.75","699.75","black","legacy","legacy","legacy","0","congruent","uniform","1","undefined","1","s","3","0","0","0","3","0","3","0","3","0","0","0","3","3","3","3","Sun Sep 25 21:08:21 2022","1500","The main experiment item","yes","CS-Subject-1.osexp","C:/Users/cici_/Downloads","no","mono","no","18","no","white","no","yes","768","legacy","3","3","C:/Users/cici_/Downloads/F56-subject-4.csv","legacy","Lentiform Loewenfeld","3.3.12","0","s","NA","space","NA","NA","s","628","NA","49960","NA","NA","628","2","legacy","1024","2","48000","-16","experiment","SSSSS","4","even","58661","53802","NA","NA","NA","3834","NA","NA","59755","3841","NA","NA","59857","60486","59751","59857","CS-FlankerTask","4","2799","4","yes","1024"
"100","100","667.8","667.8","black","legacy","legacy","legacy","0","congruent","uniform","1","undefined","1","s","4","0","0","0","4","0","4","0","4","0","0","0","4","4","4","4","Sun Sep 25 21:08:21 2022","1500","The main experiment item","yes","CS-Subject-1.osexp","C:/Users/cici_/Downloads","no","mono","no","18","no","white","no","yes","768","legacy","4","4","C:/Users/cici_/Downloads/F56-subject-4.csv","legacy","Lentiform Loewenfeld","3.3.12","0","s","NA","space","NA","NA","s","540","NA","49960","NA","NA","540","2","legacy","1024","2","48000","-16","experiment","SSSSS","4","even","60492","53802","NA","NA","NA","3834","NA","NA","61594","3841","NA","NA","61696","62236","61590","61696","CS-FlankerTask","5","3339","5","yes","1024"
"100","100","664.5","664.5","black","legacy","legacy","legacy","0","incongruent","uniform","1","undefined","1","s","5","0","0","0","5","0","5","0","5","0","0","0","5","5","5","5","Sun Sep 25 21:08:21 2022","1500","The main experiment item","yes","CS-Subject-1.osexp","C:/Users/cici_/Downloads","no","mono","no","18","no","white","no","yes","768","legacy","5","5","C:/Users/cici_/Downloads/F56-subject-4.csv","legacy","Lentiform Loewenfeld","3.3.12","0","s","NA","space","NA","NA","s","648","NA","49960","NA","NA","648","2","legacy","1024","2","48000","-16","experiment","HHSHH","4","even","62253","53802","NA","NA","NA","3834","NA","NA","63346","3841","NA","NA","63448","64097","63342","63448","CS-FlankerTask","6","3987","6","yes","1024"
"100","100","643.8571428571429","643.8571428571429","black","legacy","legacy","legacy","0","congruent","uniform","1","undefined","1","s","6","0","0","0","6","0","6","0","6","0","0","0","6","6","6","6","Sun Sep 25 21:08:21 2022","1500","The main experiment item","yes","CS-Subject-1.osexp","C:/Users/cici_/Downloads","no","mono","no","18","no","white","no","yes","768","legacy","6","6","C:/Users/cici_/Downloads/F56-subject-4.csv","legacy","Lentiform Loewenfeld","3.3.12","0","s","NA","space","NA","NA","s","520","NA","49960","NA","NA","520","2","legacy","1024","2","48000","-16","experiment","SSSSS","4","even","64114","53802","NA","NA","NA","3834","NA","NA","65214","3841","NA","NA","65316","65836","65211","65316","CS-FlankerTask","7","4507","7","yes","1024"
"100","100","664.875","664.875","black","legacy","legacy","legacy","0","incongruent","uniform","1","undefined","1","h","7","0","0","0","7","0","7","0","7","0","0","0","7","7","7","7","Sun Sep 25 21:08:21 2022","1500","The main experiment item","yes","CS-Subject-1.osexp","C:/Users/cici_/Downloads","no","mono","no","18","no","white","no","yes","768","legacy","7","7","C:/Users/cici_/Downloads/F56-subject-4.csv","legacy","Lentiform Loewenfeld","3.3.12","0","h","NA","space","NA","NA","h","812","NA","49960","NA","NA","812","2","legacy","1024","2","48000","-16","experiment","SSHSS","4","even","65854","53802","NA","NA","NA","3834","NA","NA","66953","3841","NA","NA","67055","67868","66950","67055","CS-FlankerTask","8","5319","8","yes","1024"
"100","100","651.6666666666666","651.6666666666666","black","legacy","legacy","legacy","0","congruent","uniform","1","undefined","1","s","8","0","0","0","8","0","8","0","8","0","0","0","8","8","8","8","Sun Sep 25 21:08:21 2022","1500","The main experiment item","yes","CS-Subject-1.osexp","C:/Users/cici_/Downloads","no","mono","no","18","no","white","no","yes","768","legacy","8","8","C:/Users/cici_/Downloads/F56-subject-4.csv","legacy","Lentiform Loewenfeld","3.3.12","0","s","NA","space","NA","NA","s","546","NA","49960","NA","NA","546","2","legacy","1024","2","48000","-16","experiment","SSSSS","4","even","67884","53802","NA","NA","NA","3834","NA","NA","68974","3841","NA","NA","69077","69624","68971","69077","CS-FlankerTask","9","5865","9","yes","1024"
"100","100","643.2","643.2","black","legacy","legacy","legacy","0","congruent","uniform","1","undefined","1","s","9","0","0","0","9","0","9","0","9","0","0","0","9","9","9","9","Sun Sep 25 21:08:21 2022","1500","The main experiment item","yes","CS-Subject-1.osexp","C:/Users/cici_/Downloads","no","mono","no","18","no","white","no","yes","768","legacy","9","9","C:/Users/cici_/Downloads/F56-subject-4.csv","legacy","Lentiform Loewenfeld","3.3.12","0","s","NA","space","NA","NA","s","567","NA","49960","NA","NA","567","2","legacy","1024","2","48000","-16","experiment","SSSSS","4","even","69641","53802","NA","NA","NA","3834","NA","NA","70772","3841","NA","NA","70874","71442","70768","70874","CS-FlankerTask","10","6432","10","yes","1024"
"100","100","641.0909090909091","641.0909090909091","black","legacy","legacy","legacy","0","congruent","uniform","1","undefined","1","s","10","0","0","0","10","0","10","0","10","0","0","0","10","10","10","10","Sun Sep 25 21:08:21 2022","1500","The main experiment item","yes","CS-Subject-1.osexp","C:/Users/cici_/Downloads","no","mono","no","18","no","white","no","yes","768","legacy","10","10","C:/Users/cici_/Downloads/F56-subject-4.csv","legacy","Lentiform Loewenfeld","3.3.12","0","s","NA","space","NA","NA","s","620","NA","49960","NA","NA","620","2","legacy","1024","2","48000","-16","experiment","SSSSS","4","even","71458","53802","NA","NA","NA","3834","NA","NA","72554","3841","NA","NA","72657","73278","72550","72657","CS-FlankerTask","11","7052","11","yes","1024"
"100","100","637.5833333333334","637.5833333333334","black","legacy","legacy","legacy","0","congruent","uniform","1","undefined","1","h","11","0","0","0","11","0","11","0","11","0","0","0","11","11","11","11","Sun Sep 25 21:08:21 2022","1500","The main experiment item","yes","CS-Subject-1.osexp","C:/Users/cici_/Downloads","no","mono","no","18","no","white","no","yes","768","legacy","11","11","C:/Users/cici_/Downloads/F56-subject-4.csv","legacy","Lentiform Loewenfeld","3.3.12","0","h","NA","space","NA","NA","h","599","NA","49960","NA","NA","599","2","legacy","1024","2","48000","-16","experiment","HHHHH","4","even","73285","53802","NA","NA","NA","3834","NA","NA","74384","3841","NA","NA","74486","75086","74379","74486","CS-FlankerTask","12","7651","12","yes","1024"
"100","100","645.6923076923077","645.6923076923077","black","legacy","legacy","legacy","0","congruent","uniform","1","undefined","1","h","12","0","0","0","12","0","12","0","12","0","0","0","12","12","12","12","Sun Sep 25 21:08:21 2022","1500","The main experiment item","yes","CS-Subject-1.osexp","C:/Users/cici_/Downloads","no","mono","no","18","no","white","no","yes","768","legacy","12","12","C:/Users/cici_/Downloads/F56-subject-4.csv","legacy","Lentiform Loewenfeld","3.3.12","0","h","NA","space","NA","NA","h","743","NA","49960","NA","NA","743","2","legacy","1024","2","48000","-16","experiment","HHHHH","4","even","75102","53802","NA","NA","NA","3834","NA","NA","76200","3841","NA","NA","76302","77046","76196","76302","CS-FlankerTask","13","8394","13","yes","1024"
"92.85714285714286","92.85714285714286","650.0714285714286","650.0714285714286","black","legacy","legacy","legacy","0","incongruent","uniform","0","undefined","0","h","13","0","0","0","13","0","13","0","13","0","0","0","13","13","13","13","Sun Sep 25 21:08:21 2022","1500","The main experiment item","yes","CS-Subject-1.osexp","C:/Users/cici_/Downloads","no","mono","no","18","no","white","no","yes","768","legacy","13","13","C:/Users/cici_/Downloads/F56-subject-4.csv","legacy","Lentiform Loewenfeld","3.3.12","0","s","NA","space","NA","NA","s","707","NA","49960","NA","NA","707","2","legacy","1024","2","48000","-16","experiment","SSHSS","4","even","77064","53802","NA","NA","NA","3834","NA","NA","78162","3841","NA","NA","78264","78972","78159","78264","CS-FlankerTask","13","9101","14","yes","1024"
"93.33333333333333","93.33333333333333","662.2","662.2","black","legacy","legacy","legacy","0","incongruent","uniform","1","undefined","1","s","14","0","0","0","14","0","14","0","14","0","0","0","14","14","14","14","Sun Sep 25 21:08:21 2022","1500","The main experiment item","yes","CS-Subject-1.osexp","C:/Users/cici_/Downloads","no","mono","no","18","no","white","no","yes","768","legacy","14","14","C:/Users/cici_/Downloads/F56-subject-4.csv","legacy","Lentiform Loewenfeld","3.3.12","0","s","NA","space","NA","NA","s","832","NA","49960","NA","NA","832","2","legacy","1024","2","48000","-16","experiment","HHSHH","4","even","79491","53802","NA","NA","78988","3834","NA","NA","80583","3841","NA","NA","80685","81518","80580","80685","CS-FlankerTask","14","9933","15","yes","1024"
"93.75","93.75","664.8125","664.8125","black","legacy","legacy","legacy","0","incongruent","uniform","1","undefined","1","h","15","0","0","0","15","0","15","0","15","0","0","0","15","15","15","15","Sun Sep 25 21:08:21 2022","1500","The main experiment item","yes","CS-Subject-1.osexp","C:/Users/cici_/Downloads","no","mono","no","18","no","white","no","yes","768","legacy","15","15","C:/Users/cici_/Downloads/F56-subject-4.csv","legacy","Lentiform Loewenfeld","3.3.12","0","h","NA","space","NA","NA","h","704","NA","49960","NA","NA","704","2","legacy","1024","2","48000","-16","experiment","SSHSS","4","even","81535","53802","NA","NA","78988","3834","NA","NA","82634","3841","NA","NA","82736","83440","82631","82736","CS-FlankerTask","15","10637","16","yes","1024"
"94.11764705882354","94.11764705882354","688.1764705882352","688.1764705882352","black","legacy","legacy","legacy","0","incongruent","uniform","1","undefined","1","h","16","0","0","0","16","0","16","0","16","0","0","0","16","16","16","16","Sun Sep 25 21:08:21 2022","1500","The main experiment item","yes","CS-Subject-1.osexp","C:/Users/cici_/Downloads","no","mono","no","18","no","white","no","yes","768","legacy","16","16","C:/Users/cici_/Downloads/F56-subject-4.csv","legacy","Lentiform Loewenfeld","3.3.12","0","h","NA","space","NA","NA","h","1062","NA","49960","NA","NA","1062","2","legacy","1024","2","48000","-16","experiment","SSHSS","4","even","83459","53802","NA","NA","78988","3834","NA","NA","84566","3841","NA","NA","84667","85730","84562","84667","CS-FlankerTask","16","11699","17","yes","1024"
"94.44444444444444","94.44444444444444","685.7222222222222","685.7222222222222","black","legacy","legacy","legacy","0","congruent","uniform","1","undefined","1","h","17","0","0","0","17","0","17","0","17","0","0","0","17","17","17","17","Sun Sep 25 21:08:21 2022","1500","The main experiment item","yes","CS-Subject-1.osexp","C:/Users/cici_/Downloads","no","mono","no","18","no","white","no","yes","768","legacy","17","17","C:/Users/cici_/Downloads/F56-subject-4.csv","legacy","Lentiform Loewenfeld","3.3.12","0","h","NA","space","NA","NA","h","644","NA","49960","NA","NA","644","2","legacy","1024","2","48000","-16","experiment","HHHHH","4","even","85748","53802","NA","NA","78988","3834","NA","NA","86850","3841","NA","NA","86952","87597","86847","86952","CS-FlankerTask","17","12343","18","yes","1024"
"94.73684210526316","94.73684210526316","683.8947368421053","683.8947368421053","black","legacy","legacy","legacy","0","congruent","uniform","1","undefined","1","s","18","0","0","0","18","0","18","0","18","0","0","0","18","18","18","18","Sun Sep 25 21:08:21 2022","1500","The main experiment item","yes","CS-Subject-1.osexp","C:/Users/cici_/Downloads","no","mono","no","18","no","white","no","yes","768","legacy","18","18","C:/Users/cici_/Downloads/F56-subject-4.csv","legacy","Lentiform Loewenfeld","3.3.12","0","s","NA","space","NA","NA","s","651","NA","49960","NA","NA","651","2","legacy","1024","2","48000","-16","experiment","SSSSS","4","even","87614","53802","NA","NA","78988","3834","NA","NA","88711","3841","NA","NA","88813","89464","88706","88813","CS-FlankerTask","18","12994","19","yes","1024"
"95","95","692.15","692.15","black","legacy","legacy","legacy","0","incongruent","uniform","1","undefined","1","s","19","0","0","0","19","0","19","0","19","0","0","0","19","19","19","19","Sun Sep 25 21:08:21 2022","1500","The main experiment item","yes","CS-Subject-1.osexp","C:/Users/cici_/Downloads","no","mono","no","18","no","white","no","yes","768","legacy","19","19","C:/Users/cici_/Downloads/F56-subject-4.csv","legacy","Lentiform Loewenfeld","3.3.12","0","s","NA","space","NA","NA","s","849","NA","49960","NA","NA","849","2","legacy","1024","2","48000","-16","experiment","HHSHH","4","even","89482","53802","NA","NA","78988","3834","NA","NA","90579","3841","NA","NA","90681","91530","90576","90681","CS-FlankerTask","19","13843","20","yes","1024"
"95.23809523809524","95.23809523809524","695.3809523809524","695.3809523809524","black","legacy","legacy","legacy","0","incongruent","uniform","1","undefined","1","h","20","0","0","0","20","0","20","0","20","0","0","0","20","20","20","20","Sun Sep 25 21:08:21 2022","1500","The main experiment item","yes","CS-Subject-1.osexp","C:/Users/cici_/Downloads","no","mono","no","18","no","white","no","yes","768","legacy","20","20","C:/Users/cici_/Downloads/F56-subject-4.csv","legacy","Lentiform Loewenfeld","3.3.12","0","h","NA","space","NA","NA","h","760","NA","49960","NA","NA","760","2","legacy","1024","2","48000","-16","experiment","SSHSS","4","even","91547","53802","NA","NA","78988","3834","NA","NA","92641","3841","NA","NA","92743","93504","92638","92743","CS-FlankerTask","20","14603","21","yes","1024"
"95.45454545454545","95.45454545454545","692.6818181818181","692.6818181818181","black","legacy","legacy","legacy","0","incongruent","uniform","1","undefined","1","s","21","0","0","0","21","0","21","0","21","0","0","0","21","21","21","21","Sun Sep 25 21:08:21 2022","1500","The main experiment item","yes","CS-Subject-1.osexp","C:/Users/cici_/Downloads","no","mono","no","18","no","white","no","yes","768","legacy","21","21","C:/Users/cici_/Downloads/F56-subject-4.csv","legacy","Lentiform Loewenfeld","3.3.12","0","s","NA","space","NA","NA","s","636","NA","49960","NA","NA","636","2","legacy","1024","2","48000","-16","experiment","HHSHH","4","even","93511","53802","NA","NA","78988","3834","NA","NA","94608","3841","NA","NA","94710","95347","94603","94710","CS-FlankerTask","21","15239","22","yes","1024"
"95.65217391304348","95.65217391304348","690.3478260869565","690.3478260869565","black","legacy","legacy","legacy","0","incongruent","uniform","1","undefined","1","s","22","0","0","0","22","0","22","0","22","0","0","0","22","22","22","22","Sun Sep 25 21:08:21 2022","1500","The main experiment item","yes","CS-Subject-1.osexp","C:/Users/cici_/Downloads","no","mono","no","18","no","white","no","yes","768","legacy","22","22","C:/Users/cici_/Downloads/F56-subject-4.csv","legacy","Lentiform Loewenfeld","3.3.12","0","s","NA","space","NA","NA","s","639","NA","49960","NA","NA","639","2","legacy","1024","2","48000","-16","experiment","HHSHH","4","even","95364","53802","NA","NA","78988","3834","NA","NA","96462","3841","NA","NA","96564","97205","96459","96564","CS-FlankerTask","22","15878","23","yes","1024"
"95.83333333333333","95.83333333333333","694.5416666666666","694.5416666666666","black","legacy","legacy","legacy","0","incongruent","uniform","1","undefined","1","h","23","0","0","0","23","0","23","0","23","0","0","0","23","23","23","23","Sun Sep 25 21:08:21 2022","1500","The main experiment item","yes","CS-Subject-1.osexp","C:/Users/cici_/Downloads","no","mono","no","18","no","white","no","yes","768","legacy","23","23","C:/Users/cici_/Downloads/F56-subject-4.csv","legacy","Lentiform Loewenfeld","3.3.12","0","h","NA","space","NA","NA","h","791","NA","49960","NA","NA","791","2","legacy","1024","2","48000","-16","experiment","SSHSS","4","even","97221","53802","NA","NA","78988","3834","NA","NA","98318","3841","NA","NA","98421","99213","98315","98421","CS-FlankerTask","23","16669","24","yes","1024"
"96","96","699.12","699.12","black","legacy","legacy","legacy","0","incongruent","uniform","1","undefined","1","s","24","0","0","0","24","0","24","0","24","0","0","0","24","24","24","24","Sun Sep 25 21:08:21 2022","1500","The main experiment item","yes","CS-Subject-1.osexp","C:/Users/cici_/Downloads","no","mono","no","18","no","white","no","yes","768","legacy","24","24","C:/Users/cici_/Downloads/F56-subject-4.csv","legacy","Lentiform Loewenfeld","3.3.12","0","s","NA","space","NA","NA","s","809","NA","49960","NA","NA","809","2","legacy","1024","2","48000","-16","experiment","HHSHH","4","even","99233","53802","NA","NA","78988","3834","NA","NA","100329","3841","NA","NA","100431","101241","100326","100431","CS-FlankerTask","24","17478","25","yes","1024"
"96.15384615384616","96.15384615384616","702.4230769230769","702.4230769230769","black","legacy","legacy","legacy","0","incongruent","uniform","1","undefined","1","h","25","0","0","0","25","0","25","0","25","0","0","0","25","25","25","25","Sun Sep 25 21:08:21 2022","1500","The main experiment item","yes","CS-Subject-1.osexp","C:/Users/cici_/Downloads","no","mono","no","18","no","white","no","yes","768","legacy","25","25","C:/Users/cici_/Downloads/F56-subject-4.csv","legacy","Lentiform Loewenfeld","3.3.12","0","h","NA","space","NA","NA","h","785","NA","49960","NA","NA","785","2","legacy","1024","2","48000","-16","experiment","SSHSS","4","even","101257","53802","NA","NA","78988","3834","NA","NA","102355","3841","NA","NA","102458","103244","102352","102458","CS-FlankerTask","25","18263","26","yes","1024"
"96.29629629629629","96.29629629629629","701.7777777777778","701.7777777777778","black","legacy","legacy","legacy","0","incongruent","uniform","1","undefined","1","h","26","0","0","0","26","0","26","0","26","0","0","0","26","26","26","26","Sun Sep 25 21:08:21 2022","1500","The main experiment item","yes","CS-Subject-1.osexp","C:/Users/cici_/Downloads","no","mono","no","18","no","white","no","yes","768","legacy","26","26","C:/Users/cici_/Downloads/F56-subject-4.csv","legacy","Lentiform Loewenfeld","3.3.12","0","h","NA","space","NA","NA","h","685","NA","49960","NA","NA","685","2","legacy","1024","2","48000","-16","experiment","SSHSS","4","even","103261","53802","NA","NA","78988","3834","NA","NA","104355","3841","NA","NA","104457","105143","104351","104457","CS-FlankerTask","26","18948","27","yes","1024"
"96.42857142857143","96.42857142857143","698.8571428571429","698.8571428571429","black","legacy","legacy","legacy","0","incongruent","uniform","1","undefined","1","h","27","0","0","0","27","0","27","0","27","0","0","0","27","27","27","27","Sun Sep 25 21:08:21 2022","1500","The main experiment item","yes","CS-Subject-1.osexp","C:/Users/cici_/Downloads","no","mono","no","18","no","white","no","yes","768","legacy","27","27","C:/Users/cici_/Downloads/F56-subject-4.csv","legacy","Lentiform Loewenfeld","3.3.12","0","h","NA","space","NA","NA","h","620","NA","49960","NA","NA","620","2","legacy","1024","2","48000","-16","experiment","SSHSS","4","even","105159","53802","NA","NA","78988","3834","NA","NA","106253","3841","NA","NA","106355","106976","106249","106355","CS-FlankerTask","27","19568","28","yes","1024"
"96.55172413793103","96.55172413793103","694.8275862068965","694.8275862068965","black","legacy","legacy","legacy","0","congruent","uniform","1","undefined","1","s","28","0","0","0","28","0","28","0","28","0","0","0","28","28","28","28","Sun Sep 25 21:08:21 2022","1500","The main experiment item","yes","CS-Subject-1.osexp","C:/Users/cici_/Downloads","no","mono","no","18","no","white","no","yes","768","legacy","28","28","C:/Users/cici_/Downloads/F56-subject-4.csv","legacy","Lentiform Loewenfeld","3.3.12","0","s","NA","space","NA","NA","s","582","NA","49960","NA","NA","582","2","legacy","1024","2","48000","-16","experiment","SSSSS","4","even","106993","53802","NA","NA","78988","3834","NA","NA","108087","3841","NA","NA","108190","108773","108084","108190","CS-FlankerTask","28","20150","29","yes","1024"
"96.66666666666667","96.66666666666667","687.2666666666667","687.2666666666667","black","legacy","legacy","legacy","0","congruent","uniform","1","undefined","1","s","29","0","0","0","29","0","29","0","29","0","0","0","29","29","29","29","Sun Sep 25 21:08:21 2022","1500","The main experiment item","yes","CS-Subject-1.osexp","C:/Users/cici_/Downloads","no","mono","no","18","no","white","no","yes","768","legacy","29","29","C:/Users/cici_/Downloads/F56-subject-4.csv","legacy","Lentiform Loewenfeld","3.3.12","0","s","NA","space","NA","NA","s","468","NA","49960","NA","NA","468","2","legacy","1024","2","48000","-16","experiment","SSSSS","4","even","108790","53802","NA","NA","78988","3834","NA","NA","109891","3841","NA","NA","109992","110461","109887","109992","CS-FlankerTask","29","20618","30","yes","1024"
"96.7741935483871","96.7741935483871","682.483870967742","682.483870967742","black","legacy","legacy","legacy","0","congruent","uniform","1","undefined","1","s","30","0","0","0","30","0","30","0","30","0","0","0","30","30","30","30","Sun Sep 25 21:08:21 2022","1500","The main experiment item","yes","CS-Subject-1.osexp","C:/Users/cici_/Downloads","no","mono","no","18","no","white","no","yes","768","legacy","30","30","C:/Users/cici_/Downloads/F56-subject-4.csv","legacy","Lentiform Loewenfeld","3.3.12","0","s","NA","space","NA","NA","s","539","NA","49960","NA","NA","539","2","legacy","1024","2","48000","-16","experiment","SSSSS","4","even","110479","53802","NA","NA","78988","3834","NA","NA","111577","3841","NA","NA","111679","112218","111573","111679","CS-FlankerTask","30","21157","31","yes","1024"
"96.875","96.875","674.75","674.75","black","legacy","legacy","legacy","0","congruent","uniform","1","undefined","1","s","31","0","0","0","31","0","31","0","31","0","0","0","31","31","31","31","Sun Sep 25 21:08:21 2022","1500","The main experiment item","yes","CS-Subject-1.osexp","C:/Users/cici_/Downloads","no","mono","no","18","no","white","no","yes","768","legacy","31","31","C:/Users/cici_/Downloads/F56-subject-4.csv","legacy","Lentiform Loewenfeld","3.3.12","0","s","NA","space","NA","NA","s","435","NA","49960","NA","NA","435","2","legacy","1024","2","48000","-16","experiment","SSSSS","4","even","112236","53802","NA","NA","78988","3834","NA","NA","113330","3841","NA","NA","113433","113869","113326","113432","CS-FlankerTask","31","21592","32","yes","1024"
"96.96969696969697","96.96969696969697","672.4242424242424","672.4242424242424","black","legacy","legacy","legacy","0","incongruent","uniform","1","undefined","1","s","32","0","0","0","32","0","32","0","32","0","0","0","32","32","32","32","Sun Sep 25 21:08:21 2022","1500","The main experiment item","yes","CS-Subject-1.osexp","C:/Users/cici_/Downloads","no","mono","no","18","no","white","no","yes","768","legacy","32","32","C:/Users/cici_/Downloads/F56-subject-4.csv","legacy","Lentiform Loewenfeld","3.3.12","0","s","NA","space","NA","NA","s","598","NA","49960","NA","NA","598","2","legacy","1024","2","48000","-16","experiment","HHSHH","4","even","113886","53802","NA","NA","78988","3834","NA","NA","114984","3841","NA","NA","115086","115685","114980","115086","CS-FlankerTask","32","22190","33","yes","1024"
"97.05882352941177","97.05882352941177","665.9117647058823","665.9117647058823","black","legacy","legacy","legacy","0","congruent","uniform","1","undefined","1","s","33","0","0","0","33","0","33","0","33","0","0","0","33","33","33","33","Sun Sep 25 21:08:21 2022","1500","The main experiment item","yes","CS-Subject-1.osexp","C:/Users/cici_/Downloads","no","mono","no","18","no","white","no","yes","768","legacy","33","33","C:/Users/cici_/Downloads/F56-subject-4.csv","legacy","Lentiform Loewenfeld","3.3.12","0","s","NA","space","NA","NA","s","451","NA","49960","NA","NA","451","2","legacy","1024","2","48000","-16","experiment","SSSSS","4","even","115703","53802","NA","NA","78988","3834","NA","NA","116801","3841","NA","NA","116903","117355","116797","116903","CS-FlankerTask","33","22641","34","yes","1024"
"97.14285714285714","97.14285714285714","665.8571428571429","665.8571428571429","black","legacy","legacy","legacy","0","incongruent","uniform","1","undefined","1","h","34","0","0","0","34","0","34","0","34","0","0","0","34","34","34","34","Sun Sep 25 21:08:21 2022","1500","The main experiment item","yes","CS-Subject-1.osexp","C:/Users/cici_/Downloads","no","mono","no","18","no","white","no","yes","768","legacy","34","34","C:/Users/cici_/Downloads/F56-subject-4.csv","legacy","Lentiform Loewenfeld","3.3.12","0","h","NA","space","NA","NA","h","664","NA","49960","NA","NA","664","2","legacy","1024","2","48000","-16","experiment","SSHSS","4","even","117371","53802","NA","NA","78988","3834","NA","NA","118480","3841","NA","NA","118582","119247","118477","118582","CS-FlankerTask","34","23305","35","yes","1024"
"97.22222222222223","97.22222222222223","667.0555555555555","667.0555555555555","black","legacy","legacy","legacy","0","congruent","uniform","1","undefined","1","s","35","0","0","0","35","0","35","0","35","0","0","0","35","35","35","35","Sun Sep 25 21:08:21 2022","1500","The main experiment item","yes","CS-Subject-1.osexp","C:/Users/cici_/Downloads","no","mono","no","18","no","white","no","yes","768","legacy","35","35","C:/Users/cici_/Downloads/F56-subject-4.csv","legacy","Lentiform Loewenfeld","3.3.12","0","s","NA","space","NA","NA","s","709","NA","49960","NA","NA","709","2","legacy","1024","2","48000","-16","experiment","SSSSS","4","even","119265","53802","NA","NA","78988","3834","NA","NA","120359","3841","NA","NA","120461","121171","120355","120461","CS-FlankerTask","35","24014","36","yes","1024"
"97.29729729729729","97.29729729729729","666.027027027027","666.027027027027","black","legacy","legacy","legacy","0","incongruent","uniform","1","undefined","1","s","36","0","0","0","36","0","36","0","36","0","0","0","36","36","36","36","Sun Sep 25 21:08:21 2022","1500","The main experiment item","yes","CS-Subject-1.osexp","C:/Users/cici_/Downloads","no","mono","no","18","no","white","no","yes","768","legacy","36","36","C:/Users/cici_/Downloads/F56-subject-4.csv","legacy","Lentiform Loewenfeld","3.3.12","0","s","NA","space","NA","NA","s","629","NA","49960","NA","NA","629","2","legacy","1024","2","48000","-16","experiment","HHSHH","4","even","121177","53802","NA","NA","78988","3834","NA","NA","122274","3841","NA","NA","122376","123007","122270","122376","CS-FlankerTask","36","24643","37","yes","1024"
"97.36842105263158","97.36842105263158","660.578947368421","660.578947368421","black","legacy","legacy","legacy","0","congruent","uniform","1","undefined","1","s","37","0","0","0","37","0","37","0","37","0","0","0","37","37","37","37","Sun Sep 25 21:08:21 2022","1500","The main experiment item","yes","CS-Subject-1.osexp","C:/Users/cici_/Downloads","no","mono","no","18","no","white","no","yes","768","legacy","37","37","C:/Users/cici_/Downloads/F56-subject-4.csv","legacy","Lentiform Loewenfeld","3.3.12","0","s","NA","space","NA","NA","s","459","NA","49960","NA","NA","459","2","legacy","1024","2","48000","-16","experiment","SSSSS","4","even","123024","53802","NA","NA","78988","3834","NA","NA","124122","3841","NA","NA","124224","124685","124119","124224","CS-FlankerTask","37","25102","38","yes","1024"
"97.43589743589743","97.43589743589743","657.7692307692307","657.7692307692307","black","legacy","legacy","legacy","0","congruent","uniform","1","undefined","1","h","38","0","0","0","38","0","38","0","38","0","0","0","38","38","38","38","Sun Sep 25 21:08:21 2022","1500","The main experiment item","yes","CS-Subject-1.osexp","C:/Users/cici_/Downloads","no","mono","no","18","no","white","no","yes","768","legacy","38","38","C:/Users/cici_/Downloads/F56-subject-4.csv","legacy","Lentiform Loewenfeld","3.3.12","0","h","NA","space","NA","NA","h","551","NA","49960","NA","NA","551","2","legacy","1024","2","48000","-16","experiment","HHHHH","4","even","124692","53802","NA","NA","78988","3834","NA","NA","125786","3841","NA","NA","125888","126440","125784","125888","CS-FlankerTask","38","25653","39","yes","1024"
"97.5","97.5","656.925","656.925","black","legacy","legacy","legacy","0","congruent","uniform","1","undefined","1","h","39","0","0","0","39","0","39","0","39","0","0","0","39","39","39","39","Sun Sep 25 21:08:21 2022","1500","The main experiment item","yes","CS-Subject-1.osexp","C:/Users/cici_/Downloads","no","mono","no","18","no","white","no","yes","768","legacy","39","39","C:/Users/cici_/Downloads/F56-subject-4.csv","legacy","Lentiform Loewenfeld","3.3.12","0","h","NA","space","NA","NA","h","624","NA","49960","NA","NA","624","2","legacy","1024","2","48000","-16","experiment","HHHHH","4","even","126448","53802","NA","NA","78988","3834","NA","NA","127549","3841","NA","NA","127651","128276","127546","127651","CS-FlankerTask","39","26277","40","yes","1024"
"97.5609756097561","97.5609756097561","655.0975609756098","655.0975609756098","black","legacy","legacy","legacy","0","congruent","uniform","1","undefined","1","h","40","0","0","0","40","0","40","0","40","0","0","0","40","40","40","40","Sun Sep 25 21:08:21 2022","1500","The main experiment item","yes","CS-Subject-1.osexp","C:/Users/cici_/Downloads","no","mono","no","18","no","white","no","yes","768","legacy","40","40","C:/Users/cici_/Downloads/F56-subject-4.csv","legacy","Lentiform Loewenfeld","3.3.12","0","h","NA","space","NA","NA","h","582","NA","49960","NA","NA","582","2","legacy","1024","2","48000","-16","experiment","HHHHH","4","even","128293","53802","NA","NA","78988","3834","NA","NA","129386","3841","NA","NA","129488","130071","129382","129488","CS-FlankerTask","40","26859","41","yes","1024"
"97.61904761904762","97.61904761904762","653.2619047619048","653.2619047619048","black","legacy","legacy","legacy","0","incongruent","uniform","1","undefined","1","s","41","0","0","0","41","0","41","0","41","0","0","0","41","41","41","41","Sun Sep 25 21:08:21 2022","1500","The main experiment item","yes","CS-Subject-1.osexp","C:/Users/cici_/Downloads","no","mono","no","18","no","white","no","yes","768","legacy","41","41","C:/Users/cici_/Downloads/F56-subject-4.csv","legacy","Lentiform Loewenfeld","3.3.12","0","s","NA","space","NA","NA","s","578","NA","49960","NA","NA","578","2","legacy","1024","2","48000","-16","experiment","HHSHH","4","even","130089","53802","NA","NA","78988","3834","NA","NA","131182","3841","NA","NA","131284","131863","131179","131284","CS-FlankerTask","41","27437","42","yes","1024"
"97.67441860465117","97.67441860465117","651.1395348837209","651.1395348837209","black","legacy","legacy","legacy","0","congruent","uniform","1","undefined","1","s","42","0","0","0","42","0","42","0","42","0","0","0","42","42","42","42","Sun Sep 25 21:08:21 2022","1500","The main experiment item","yes","CS-Subject-1.osexp","C:/Users/cici_/Downloads","no","mono","no","18","no","white","no","yes","768","legacy","42","42","C:/Users/cici_/Downloads/F56-subject-4.csv","legacy","Lentiform Loewenfeld","3.3.12","0","s","NA","space","NA","NA","s","562","NA","49960","NA","NA","562","2","legacy","1024","2","48000","-16","experiment","SSSSS","4","even","131881","53802","NA","NA","78988","3834","NA","NA","132975","3841","NA","NA","133077","133640","132970","133077","CS-FlankerTask","42","27999","43","yes","1024"
"97.72727272727273","97.72727272727273","651.1818181818181","651.1818181818181","black","legacy","legacy","legacy","0","incongruent","uniform","1","undefined","1","h","43","0","0","0","43","0","43","0","43","0","0","0","43","43","43","43","Sun Sep 25 21:08:21 2022","1500","The main experiment item","yes","CS-Subject-1.osexp","C:/Users/cici_/Downloads","no","mono","no","18","no","white","no","yes","768","legacy","43","43","C:/Users/cici_/Downloads/F56-subject-4.csv","legacy","Lentiform Loewenfeld","3.3.12","0","h","NA","space","NA","NA","h","653","NA","49960","NA","NA","653","2","legacy","1024","2","48000","-16","experiment","SSHSS","4","even","133657","53802","NA","NA","78988","3834","NA","NA","134754","3841","NA","NA","134856","135510","134750","134856","CS-FlankerTask","43","28652","44","yes","1024"
"97.77777777777777","97.77777777777777","649.0222222222222","649.0222222222222","black","legacy","legacy","legacy","0","incongruent","uniform","1","undefined","1","h","44","0","0","0","44","0","44","0","44","0","0","0","44","44","44","44","Sun Sep 25 21:08:21 2022","1500","The main experiment item","yes","CS-Subject-1.osexp","C:/Users/cici_/Downloads","no","mono","no","18","no","white","no","yes","768","legacy","44","44","C:/Users/cici_/Downloads/F56-subject-4.csv","legacy","Lentiform Loewenfeld","3.3.12","0","h","NA","space","NA","NA","h","554","NA","49960","NA","NA","554","2","legacy","1024","2","48000","-16","experiment","SSHSS","4","even","135526","53802","NA","NA","78988","3834","NA","NA","136622","3841","NA","NA","136724","137279","136619","136724","CS-FlankerTask","44","29206","45","yes","1024"
"97.82608695652173","97.82608695652173","648.0217391304348","648.0217391304348","black","legacy","legacy","legacy","0","congruent","uniform","1","undefined","1","h","45","0","0","0","45","0","45","0","45","0","0","0","45","45","45","45","Sun Sep 25 21:08:21 2022","1500","The main experiment item","yes","CS-Subject-1.osexp","C:/Users/cici_/Downloads","no","mono","no","18","no","white","no","yes","768","legacy","45","45","C:/Users/cici_/Downloads/F56-subject-4.csv","legacy","Lentiform Loewenfeld","3.3.12","0","h","NA","space","NA","NA","h","603","NA","49960","NA","NA","603","2","legacy","1024","2","48000","-16","experiment","HHHHH","4","even","137296","53802","NA","NA","78988","3834","NA","NA","138393","3841","NA","NA","138495","139099","138389","138495","CS-FlankerTask","45","29809","46","yes","1024"
"97.87234042553192","97.87234042553192","646.4893617021277","646.4893617021277","black","legacy","legacy","legacy","0","incongruent","uniform","1","undefined","1","s","46","0","0","0","46","0","46","0","46","0","0","0","46","46","46","46","Sun Sep 25 21:08:21 2022","1500","The main experiment item","yes","CS-Subject-1.osexp","C:/Users/cici_/Downloads","no","mono","no","18","no","white","no","yes","768","legacy","46","46","C:/Users/cici_/Downloads/F56-subject-4.csv","legacy","Lentiform Loewenfeld","3.3.12","0","s","NA","space","NA","NA","s","576","NA","49960","NA","NA","576","2","legacy","1024","2","48000","-16","experiment","HHSHH","4","even","139116","53802","NA","NA","78988","3834","NA","NA","140210","3841","NA","NA","140312","140889","140206","140312","CS-FlankerTask","46","30385","47","yes","1024"
"97.91666666666667","97.91666666666667","644.9375","644.9375","black","legacy","legacy","legacy","0","incongruent","uniform","1","undefined","1","s","47","0","0","0","47","0","47","0","47","0","0","0","47","47","47","47","Sun Sep 25 21:08:21 2022","1500","The main experiment item","yes","CS-Subject-1.osexp","C:/Users/cici_/Downloads","no","mono","no","18","no","white","no","yes","768","legacy","47","47","C:/Users/cici_/Downloads/F56-subject-4.csv","legacy","Lentiform Loewenfeld","3.3.12","0","s","NA","space","NA","NA","s","572","NA","49960","NA","NA","572","2","legacy","1024","2","48000","-16","experiment","HHSHH","4","even","140906","53802","NA","NA","78988","3834","NA","NA","142003","3841","NA","NA","142105","142678","141999","142105","CS-FlankerTask","47","30957","48","yes","1024"
"97.95918367346938","97.95918367346938","646.4489795918367","646.4489795918367","black","legacy","legacy","legacy","0","incongruent","uniform","1","undefined","1","h","48","0","0","0","48","0","48","0","48","0","0","0","48","48","48","48","Sun Sep 25 21:08:21 2022","1500","The main experiment item","yes","CS-Subject-1.osexp","C:/Users/cici_/Downloads","no","mono","no","18","no","white","no","yes","768","legacy","48","48","C:/Users/cici_/Downloads/F56-subject-4.csv","legacy","Lentiform Loewenfeld","3.3.12","0","h","NA","space","NA","NA","h","719","NA","49960","NA","NA","719","2","legacy","1024","2","48000","-16","experiment","SSHSS","4","even","142694","53802","NA","NA","78988","3834","NA","NA","143788","3841","NA","NA","143891","144611","143785","143891","CS-FlankerTask","48","31676","49","yes","1024"
"98","98","644.36","644.36","black","legacy","legacy","legacy","0","congruent","uniform","1","undefined","1","s","49","0","0","0","49","0","49","0","49","0","0","0","49","49","49","49","Sun Sep 25 21:08:21 2022","1500","The main experiment item","yes","CS-Subject-1.osexp","C:/Users/cici_/Downloads","no","mono","no","18","no","white","no","yes","768","legacy","49","49","C:/Users/cici_/Downloads/F56-subject-4.csv","legacy","Lentiform Loewenfeld","3.3.12","0","s","NA","space","NA","NA","s","542","NA","49960","NA","NA","542","2","legacy","1024","2","48000","-16","experiment","SSSSS","4","even","144618","53802","NA","NA","78988","3834","NA","NA","145712","3841","NA","NA","145814","146357","145709","145814","CS-FlankerTask","49","32218","50","yes","1024"
"98.03921568627452","98.03921568627452","642.1372549019608","642.1372549019608","black","legacy","legacy","legacy","0","congruent","uniform","1","undefined","1","h","50","0","0","0","50","0","50","0","50","0","0","0","50","50","50","50","Sun Sep 25 21:08:21 2022","1500","The main experiment item","yes","CS-Subject-1.osexp","C:/Users/cici_/Downloads","no","mono","no","18","no","white","no","yes","768","legacy","50","50","C:/Users/cici_/Downloads/F56-subject-4.csv","legacy","Lentiform Loewenfeld","3.3.12","0","h","NA","space","NA","NA","h","531","NA","49960","NA","NA","531","2","legacy","1024","2","48000","-16","experiment","HHHHH","4","even","146375","53802","NA","NA","78988","3834","NA","NA","147470","3841","NA","NA","147573","148104","147466","147573","CS-FlankerTask","50","32749","51","yes","1024"
"98.07692307692308","98.07692307692308","641.4230769230769","641.4230769230769","black","legacy","legacy","legacy","0","incongruent","uniform","1","undefined","1","s","51","0","0","0","51","0","51","0","51","0","0","0","51","51","51","51","Sun Sep 25 21:08:21 2022","1500","The main experiment item","yes","CS-Subject-1.osexp","C:/Users/cici_/Downloads","no","mono","no","18","no","white","no","yes","768","legacy","51","51","C:/Users/cici_/Downloads/F56-subject-4.csv","legacy","Lentiform Loewenfeld","3.3.12","0","s","NA","space","NA","NA","s","605","NA","49960","NA","NA","605","2","legacy","1024","2","48000","-16","experiment","HHSHH","4","even","148121","53802","NA","NA","78988","3834","NA","NA","149214","3841","NA","NA","149316","149923","149209","149316","CS-FlankerTask","51","33354","52","yes","1024"
"98.11320754716981","98.11320754716981","638.377358490566","638.377358490566","black","legacy","legacy","legacy","0","incongruent","uniform","1","undefined","1","h","52","0","0","0","52","0","52","0","52","0","0","0","52","52","52","52","Sun Sep 25 21:08:21 2022","1500","The main experiment item","yes","CS-Subject-1.osexp","C:/Users/cici_/Downloads","no","mono","no","18","no","white","no","yes","768","legacy","52","52","C:/Users/cici_/Downloads/F56-subject-4.csv","legacy","Lentiform Loewenfeld","3.3.12","0","h","NA","space","NA","NA","h","480","NA","49960","NA","NA","480","2","legacy","1024","2","48000","-16","experiment","SSHSS","4","even","149941","53802","NA","NA","78988","3834","NA","NA","151039","3841","NA","NA","151141","151623","151036","151141","CS-FlankerTask","52","33834","53","yes","1024"
"98.14814814814815","98.14814814814815","638.6481481481482","638.6481481481482","black","legacy","legacy","legacy","0","incongruent","uniform","1","undefined","1","s","53","0","0","0","53","0","53","0","53","0","0","0","53","53","53","53","Sun Sep 25 21:08:21 2022","1500","The main experiment item","yes","CS-Subject-1.osexp","C:/Users/cici_/Downloads","no","mono","no","18","no","white","no","yes","768","legacy","53","53","C:/Users/cici_/Downloads/F56-subject-4.csv","legacy","Lentiform Loewenfeld","3.3.12","0","s","NA","space","NA","NA","s","653","NA","49960","NA","NA","653","2","legacy","1024","2","48000","-16","experiment","HHSHH","4","even","151640","53802","NA","NA","78988","3834","NA","NA","152738","3841","NA","NA","152841","153495","152734","152841","CS-FlankerTask","53","34487","54","yes","1024"
"98.18181818181819","98.18181818181819","637.1636363636363","637.1636363636363","black","legacy","legacy","legacy","0","incongruent","uniform","1","undefined","1","s","54","0","0","0","54","0","54","0","54","0","0","0","54","54","54","54","Sun Sep 25 21:08:21 2022","1500","The main experiment item","yes","CS-Subject-1.osexp","C:/Users/cici_/Downloads","no","mono","no","18","no","white","no","yes","768","legacy","54","54","C:/Users/cici_/Downloads/F56-subject-4.csv","legacy","Lentiform Loewenfeld","3.3.12","0","s","NA","space","NA","NA","s","557","NA","49960","NA","NA","557","2","legacy","1024","2","48000","-16","experiment","HHSHH","4","even","153513","53802","NA","NA","78988","3834","NA","NA","154607","3841","NA","NA","154709","155266","154603","154709","CS-FlankerTask","54","35044","55","yes","1024"
"98.21428571428571","98.21428571428571","635.2142857142857","635.2142857142857","black","legacy","legacy","legacy","0","congruent","uniform","1","undefined","1","h","55","0","0","0","55","0","55","0","55","0","0","0","55","55","55","55","Sun Sep 25 21:08:21 2022","1500","The main experiment item","yes","CS-Subject-1.osexp","C:/Users/cici_/Downloads","no","mono","no","18","no","white","no","yes","768","legacy","55","55","C:/Users/cici_/Downloads/F56-subject-4.csv","legacy","Lentiform Loewenfeld","3.3.12","0","h","NA","space","NA","NA","h","528","NA","49960","NA","NA","528","2","legacy","1024","2","48000","-16","experiment","HHHHH","4","even","155273","53802","NA","NA","78988","3834","NA","NA","156383","3841","NA","NA","156485","157015","156380","156485","CS-FlankerTask","55","35572","56","yes","1024"
"98.24561403508773","98.24561403508773","637","637","black","legacy","legacy","legacy","0","congruent","uniform","1","undefined","1","h","56","0","0","0","56","0","56","0","56","0","0","0","56","56","56","56","Sun Sep 25 21:08:21 2022","1500","The main experiment item","yes","CS-Subject-1.osexp","C:/Users/cici_/Downloads","no","mono","no","18","no","white","no","yes","768","legacy","56","56","C:/Users/cici_/Downloads/F56-subject-4.csv","legacy","Lentiform Loewenfeld","3.3.12","0","h","NA","space","NA","NA","h","737","NA","49960","NA","NA","737","2","legacy","1024","2","48000","-16","experiment","HHHHH","4","even","157031","53802","NA","NA","78988","3834","NA","NA","158128","3841","NA","NA","158230","158968","158125","158230","CS-FlankerTask","56","36309","57","yes","1024"
"98.27586206896552","98.27586206896552","637.5172413793103","637.5172413793103","black","legacy","legacy","legacy","0","incongruent","uniform","1","undefined","1","h","57","0","0","0","57","0","57","0","57","0","0","0","57","57","57","57","Sun Sep 25 21:08:21 2022","1500","The main experiment item","yes","CS-Subject-1.osexp","C:/Users/cici_/Downloads","no","mono","no","18","no","white","no","yes","768","legacy","57","57","C:/Users/cici_/Downloads/F56-subject-4.csv","legacy","Lentiform Loewenfeld","3.3.12","0","h","NA","space","NA","NA","h","667","NA","49960","NA","NA","667","2","legacy","1024","2","48000","-16","experiment","SSHSS","4","even","158985","53802","NA","NA","78988","3834","NA","NA","160079","3841","NA","NA","160181","160849","160076","160181","CS-FlankerTask","57","36976","58","yes","1024"
"98.30508474576271","98.30508474576271","635.8644067796611","635.8644067796611","black","legacy","legacy","legacy","0","congruent","uniform","1","undefined","1","h","58","0","0","0","58","0","58","0","58","0","0","0","58","58","58","58","Sun Sep 25 21:08:21 2022","1500","The main experiment item","yes","CS-Subject-1.osexp","C:/Users/cici_/Downloads","no","mono","no","18","no","white","no","yes","768","legacy","58","58","C:/Users/cici_/Downloads/F56-subject-4.csv","legacy","Lentiform Loewenfeld","3.3.12","0","h","NA","space","NA","NA","h","540","NA","49960","NA","NA","540","2","legacy","1024","2","48000","-16","experiment","HHHHH","4","even","160866","53802","NA","NA","78988","3834","NA","NA","161967","3841","NA","NA","162069","162609","161963","162069","CS-FlankerTask","58","37516","59","yes","1024"
"98.33333333333333","98.33333333333333","634.1","634.1","black","legacy","legacy","legacy","0","congruent","uniform","1","undefined","1","h","59","0","0","0","59","0","59","0","59","0","0","0","59","59","59","59","Sun Sep 25 21:08:21 2022","1500","The main experiment item","yes","CS-Subject-1.osexp","C:/Users/cici_/Downloads","no","mono","no","18","no","white","no","yes","768","legacy","59","59","C:/Users/cici_/Downloads/F56-subject-4.csv","legacy","Lentiform Loewenfeld","3.3.12","0","h","NA","space","NA","NA","h","530","NA","49960","NA","NA","530","2","legacy","1024","2","48000","-16","experiment","HHHHH","4","even","162626","53802","NA","NA","78988","3834","NA","NA","163720","3841","NA","NA","163822","164353","163716","163822","CS-FlankerTask","59","38046","60","yes","1024"
"98.36065573770492","98.36065573770492","632.0819672131148","632.0819672131148","black","legacy","legacy","legacy","0","congruent","uniform","1","undefined","1","s","60","0","0","0","60","0","60","0","60","0","0","0","60","60","60","60","Sun Sep 25 21:08:21 2022","1500","The main experiment item","yes","CS-Subject-1.osexp","C:/Users/cici_/Downloads","no","mono","no","18","no","white","no","yes","768","legacy","60","60","C:/Users/cici_/Downloads/F56-subject-4.csv","legacy","Lentiform Loewenfeld","3.3.12","0","s","NA","space","NA","NA","s","511","NA","49960","NA","NA","511","2","legacy","1024","2","48000","-16","experiment","SSSSS","4","even","164360","53802","NA","NA","78988","3834","NA","NA","165456","3841","NA","NA","165558","166070","165452","165558","CS-FlankerTask","60","38557","61","yes","1024"
"98.38709677419355","98.38709677419355","630.8870967741935","630.8870967741935","black","legacy","legacy","legacy","0","incongruent","uniform","1","undefined","1","s","61","0","0","0","61","0","61","0","61","0","0","0","61","61","61","61","Sun Sep 25 21:08:21 2022","1500","The main experiment item","yes","CS-Subject-1.osexp","C:/Users/cici_/Downloads","no","mono","no","18","no","white","no","yes","768","legacy","61","61","C:/Users/cici_/Downloads/F56-subject-4.csv","legacy","Lentiform Loewenfeld","3.3.12","0","s","NA","space","NA","NA","s","558","NA","49960","NA","NA","558","2","legacy","1024","2","48000","-16","experiment","HHSHH","4","even","166087","53802","NA","NA","78988","3834","NA","NA","167185","3841","NA","NA","167287","167847","167182","167287","CS-FlankerTask","61","39115","62","yes","1024"
"98.41269841269842","98.41269841269842","629.936507936508","629.936507936508","black","legacy","legacy","legacy","0","congruent","uniform","1","undefined","1","h","62","0","0","0","62","0","62","0","62","0","0","0","62","62","62","62","Sun Sep 25 21:08:21 2022","1500","The main experiment item","yes","CS-Subject-1.osexp","C:/Users/cici_/Downloads","no","mono","no","18","no","white","no","yes","768","legacy","62","62","C:/Users/cici_/Downloads/F56-subject-4.csv","legacy","Lentiform Loewenfeld","3.3.12","0","h","NA","space","NA","NA","h","571","NA","49960","NA","NA","571","2","legacy","1024","2","48000","-16","experiment","HHHHH","4","even","167864","53802","NA","NA","78988","3834","NA","NA","168959","3841","NA","NA","169061","169635","168955","169061","CS-FlankerTask","62","39686","63","yes","1024"
"98.4375","98.4375","628.109375","628.109375","black","legacy","legacy","legacy","0","incongruent","uniform","1","undefined","1","s","63","0","0","0","63","0","63","0","63","0","0","0","63","63","63","63","Sun Sep 25 21:08:21 2022","1500","The main experiment item","yes","CS-Subject-1.osexp","C:/Users/cici_/Downloads","no","mono","no","18","no","white","no","yes","768","legacy","63","63","C:/Users/cici_/Downloads/F56-subject-4.csv","legacy","Lentiform Loewenfeld","3.3.12","0","s","NA","space","NA","NA","s","513","NA","49960","NA","NA","513","2","legacy","1024","2","48000","-16","experiment","HHSHH","4","even","169642","53802","NA","NA","78988","3834","NA","NA","170736","3841","NA","NA","170838","171352","170734","170838","CS-FlankerTask","63","40199","64","yes","1024"
"98.46153846153847","98.46153846153847","629.3538461538461","629.3538461538461","black","legacy","legacy","legacy","0","incongruent","uniform","1","undefined","1","h","64","0","0","0","64","0","64","0","64","0","0","0","64","64","64","64","Sun Sep 25 21:08:21 2022","1500","The main experiment item","yes","CS-Subject-1.osexp","C:/Users/cici_/Downloads","no","mono","no","18","no","white","no","yes","768","legacy","64","64","C:/Users/cici_/Downloads/F56-subject-4.csv","legacy","Lentiform Loewenfeld","3.3.12","0","h","NA","space","NA","NA","h","709","NA","49960","NA","NA","709","2","legacy","1024","2","48000","-16","experiment","SSHSS","4","even","171359","53802","NA","NA","78988","3834","NA","NA","172458","3841","NA","NA","172559","173269","172455","172559","CS-FlankerTask","64","40908","65","yes","1024"
"98.48484848484848","98.48484848484848","628.4242424242424","628.4242424242424","black","legacy","legacy","legacy","0","incongruent","uniform","1","undefined","1","h","65","0","0","0","65","0","65","0","65","0","0","0","65","65","65","65","Sun Sep 25 21:08:21 2022","1500","The main experiment item","yes","CS-Subject-1.osexp","C:/Users/cici_/Downloads","no","mono","no","18","no","white","no","yes","768","legacy","65","65","C:/Users/cici_/Downloads/F56-subject-4.csv","legacy","Lentiform Loewenfeld","3.3.12","0","h","NA","space","NA","NA","h","568","NA","49960","NA","NA","568","2","legacy","1024","2","48000","-16","experiment","SSHSS","4","even","173285","53802","NA","NA","78988","3834","NA","NA","174380","3841","NA","NA","174483","175052","174376","174483","CS-FlankerTask","65","41476","66","yes","1024"
"98.50746268656717","98.50746268656717","628.7313432835821","628.7313432835821","black","legacy","legacy","legacy","0","congruent","uniform","1","undefined","1","h","66","0","0","0","66","0","66","0","66","0","0","0","66","66","66","66","Sun Sep 25 21:08:21 2022","1500","The main experiment item","yes","CS-Subject-1.osexp","C:/Users/cici_/Downloads","no","mono","no","18","no","white","no","yes","768","legacy","66","66","C:/Users/cici_/Downloads/F56-subject-4.csv","legacy","Lentiform Loewenfeld","3.3.12","0","h","NA","space","NA","NA","h","649","NA","49960","NA","NA","649","2","legacy","1024","2","48000","-16","experiment","HHHHH","4","even","175069","53802","NA","NA","78988","3834","NA","NA","176164","3841","NA","NA","176266","176916","176161","176266","CS-FlankerTask","66","42125","67","yes","1024"
"98.52941176470588","98.52941176470588","628.2941176470588","628.2941176470588","black","legacy","legacy","legacy","0","congruent","uniform","1","undefined","1","h","67","0","0","0","67","0","67","0","67","0","0","0","67","67","67","67","Sun Sep 25 21:08:21 2022","1500","The main experiment item","yes","CS-Subject-1.osexp","C:/Users/cici_/Downloads","no","mono","no","18","no","white","no","yes","768","legacy","67","67","C:/Users/cici_/Downloads/F56-subject-4.csv","legacy","Lentiform Loewenfeld","3.3.12","0","h","NA","space","NA","NA","h","599","NA","49960","NA","NA","599","2","legacy","1024","2","48000","-16","experiment","HHHHH","4","even","176933","53802","NA","NA","78988","3834","NA","NA","178027","3841","NA","NA","178129","178730","178023","178129","CS-FlankerTask","67","42724","68","yes","1024"
"98.55072463768116","98.55072463768116","626.3768115942029","626.3768115942029","black","legacy","legacy","legacy","0","incongruent","uniform","1","undefined","1","s","68","0","0","0","68","0","68","0","68","0","0","0","68","68","68","68","Sun Sep 25 21:08:21 2022","1500","The main experiment item","yes","CS-Subject-1.osexp","C:/Users/cici_/Downloads","no","mono","no","18","no","white","no","yes","768","legacy","68","68","C:/Users/cici_/Downloads/F56-subject-4.csv","legacy","Lentiform Loewenfeld","3.3.12","0","s","NA","space","NA","NA","s","496","NA","49960","NA","NA","496","2","legacy","1024","2","48000","-16","experiment","HHSHH","4","even","178747","53802","NA","NA","78988","3834","NA","NA","179840","3841","NA","NA","179942","180439","179836","179942","CS-FlankerTask","68","43220","69","yes","1024"
"98.57142857142857","98.57142857142857","626.6","626.6","black","legacy","legacy","legacy","0","congruent","uniform","1","undefined","1","h","69","0","0","0","69","0","69","0","69","0","0","0","69","69","69","69","Sun Sep 25 21:08:21 2022","1500","The main experiment item","yes","CS-Subject-1.osexp","C:/Users/cici_/Downloads","no","mono","no","18","no","white","no","yes","768","legacy","69","69","C:/Users/cici_/Downloads/F56-subject-4.csv","legacy","Lentiform Loewenfeld","3.3.12","0","h","NA","space","NA","NA","h","642","NA","49960","NA","NA","642","2","legacy","1024","2","48000","-16","experiment","HHHHH","4","even","180455","53802","NA","NA","78988","3834","NA","NA","181552","3841","NA","NA","181654","182298","181548","181654","CS-FlankerTask","69","43862","70","yes","1024"
"98.59154929577464","98.59154929577464","625.2535211267606","625.2535211267606","black","legacy","legacy","legacy","0","congruent","uniform","1","undefined","1","s","70","0","0","0","70","0","70","0","70","0","0","0","70","70","70","70","Sun Sep 25 21:08:21 2022","1500","The main experiment item","yes","CS-Subject-1.osexp","C:/Users/cici_/Downloads","no","mono","no","18","no","white","no","yes","768","legacy","70","70","C:/Users/cici_/Downloads/F56-subject-4.csv","legacy","Lentiform Loewenfeld","3.3.12","0","s","NA","space","NA","NA","s","531","NA","49960","NA","NA","531","2","legacy","1024","2","48000","-16","experiment","SSSSS","4","even","182314","53802","NA","NA","78988","3834","NA","NA","183408","3841","NA","NA","183510","184042","183404","183510","CS-FlankerTask","70","44393","71","yes","1024"
"98.61111111111111","98.61111111111111","625.4861111111111","625.4861111111111","black","legacy","legacy","legacy","0","incongruent","uniform","1","undefined","1","s","71","0","0","0","71","0","71","0","71","0","0","0","71","71","71","71","Sun Sep 25 21:08:21 2022","1500","The main experiment item","yes","CS-Subject-1.osexp","C:/Users/cici_/Downloads","no","mono","no","18","no","white","no","yes","768","legacy","71","71","C:/Users/cici_/Downloads/F56-subject-4.csv","legacy","Lentiform Loewenfeld","3.3.12","0","s","NA","space","NA","NA","s","642","NA","49960","NA","NA","642","2","legacy","1024","2","48000","-16","experiment","HHSHH","4","even","184059","53802","NA","NA","78988","3834","NA","NA","185156","3841","NA","NA","185258","185901","185152","185258","CS-FlankerTask","71","45035","72","yes","1024"
"98.63013698630137","98.63013698630137","623.931506849315","623.931506849315","black","legacy","legacy","legacy","0","incongruent","uniform","1","undefined","1","h","72","0","0","0","72","0","72","0","72","0","0","0","72","72","72","72","Sun Sep 25 21:08:21 2022","1500","The main experiment item","yes","CS-Subject-1.osexp","C:/Users/cici_/Downloads","no","mono","no","18","no","white","no","yes","768","legacy","72","72","C:/Users/cici_/Downloads/F56-subject-4.csv","legacy","Lentiform Loewenfeld","3.3.12","0","h","NA","space","NA","NA","h","512","NA","49960","NA","NA","512","2","legacy","1024","2","48000","-16","experiment","SSHSS","4","even","185918","53802","NA","NA","78988","3834","NA","NA","187018","3841","NA","NA","187120","187633","187014","187120","CS-FlankerTask","72","45547","73","yes","1024"
"98.64864864864865","98.64864864864865","624.3783783783783","624.3783783783783","black","legacy","legacy","legacy","0","congruent","uniform","1","undefined","1","h","73","0","0","0","73","0","73","0","73","0","0","0","73","73","73","73","Sun Sep 25 21:08:21 2022","1500","The main experiment item","yes","CS-Subject-1.osexp","C:/Users/cici_/Downloads","no","mono","no","18","no","white","no","yes","768","legacy","73","73","C:/Users/cici_/Downloads/F56-subject-4.csv","legacy","Lentiform Loewenfeld","3.3.12","0","h","NA","space","NA","NA","h","657","NA","49960","NA","NA","657","2","legacy","1024","2","48000","-16","experiment","HHHHH","4","even","187651","53802","NA","NA","78988","3834","NA","NA","188745","3841","NA","NA","188847","189506","188740","188847","CS-FlankerTask","73","46204","74","yes","1024"
"98.66666666666667","98.66666666666667","625.3866666666667","625.3866666666667","black","legacy","legacy","legacy","0","incongruent","uniform","1","undefined","1","h","74","0","0","0","74","0","74","0","74","0","0","0","74","74","74","74","Sun Sep 25 21:08:21 2022","1500","The main experiment item","yes","CS-Subject-1.osexp","C:/Users/cici_/Downloads","no","mono","no","18","no","white","no","yes","768","legacy","74","74","C:/Users/cici_/Downloads/F56-subject-4.csv","legacy","Lentiform Loewenfeld","3.3.12","0","h","NA","space","NA","NA","h","700","NA","49960","NA","NA","700","2","legacy","1024","2","48000","-16","experiment","SSHSS","4","even","189524","53802","NA","NA","78988","3834","NA","NA","190621","3841","NA","NA","190724","191425","190618","190724","CS-FlankerTask","74","46904","75","yes","1024"
"98.6842105263158","98.6842105263158","624.0657894736842","624.0657894736842","black","legacy","legacy","legacy","0","congruent","uniform","1","undefined","1","h","75","0","0","0","75","0","75","0","75","0","0","0","75","75","75","75","Sun Sep 25 21:08:21 2022","1500","The main experiment item","yes","CS-Subject-1.osexp","C:/Users/cici_/Downloads","no","mono","no","18","no","white","no","yes","768","legacy","75","75","C:/Users/cici_/Downloads/F56-subject-4.csv","legacy","Lentiform Loewenfeld","3.3.12","0","h","NA","space","NA","NA","h","525","NA","49960","NA","NA","525","2","legacy","1024","2","48000","-16","experiment","HHHHH","4","even","191441","53802","NA","NA","78988","3834","NA","NA","192539","3841","NA","NA","192641","193168","192534","192641","CS-FlankerTask","75","47429","76","yes","1024"
"98.7012987012987","98.7012987012987","623.038961038961","623.038961038961","black","legacy","legacy","legacy","0","congruent","uniform","1","undefined","1","h","76","0","0","0","76","0","76","0","76","0","0","0","76","76","76","76","Sun Sep 25 21:08:21 2022","1500","The main experiment item","yes","CS-Subject-1.osexp","C:/Users/cici_/Downloads","no","mono","no","18","no","white","no","yes","768","legacy","76","76","C:/Users/cici_/Downloads/F56-subject-4.csv","legacy","Lentiform Loewenfeld","3.3.12","0","h","NA","space","NA","NA","h","545","NA","49960","NA","NA","545","2","legacy","1024","2","48000","-16","experiment","HHHHH","4","even","193185","53802","NA","NA","78988","3834","NA","NA","194279","3841","NA","NA","194381","194927","194275","194381","CS-FlankerTask","76","47974","77","yes","1024"
"98.71794871794872","98.71794871794872","621.5641025641025","621.5641025641025","black","legacy","legacy","legacy","0","incongruent","uniform","1","undefined","1","s","77","0","0","0","77","0","77","0","77","0","0","0","77","77","77","77","Sun Sep 25 21:08:21 2022","1500","The main experiment item","yes","CS-Subject-1.osexp","C:/Users/cici_/Downloads","no","mono","no","18","no","white","no","yes","768","legacy","77","77","C:/Users/cici_/Downloads/F56-subject-4.csv","legacy","Lentiform Loewenfeld","3.3.12","0","s","NA","space","NA","NA","s","508","NA","49960","NA","NA","508","2","legacy","1024","2","48000","-16","experiment","HHSHH","4","even","194944","53802","NA","NA","78988","3834","NA","NA","196038","3841","NA","NA","196140","196651","196035","196140","CS-FlankerTask","77","48482","78","yes","1024"
"98.73417721518987","98.73417721518987","620.2405063291139","620.2405063291139","black","legacy","legacy","legacy","0","congruent","uniform","1","undefined","1","s","78","0","0","0","78","0","78","0","78","0","0","0","78","78","78","78","Sun Sep 25 21:08:21 2022","1500","The main experiment item","yes","CS-Subject-1.osexp","C:/Users/cici_/Downloads","no","mono","no","18","no","white","no","yes","768","legacy","78","78","C:/Users/cici_/Downloads/F56-subject-4.csv","legacy","Lentiform Loewenfeld","3.3.12","0","s","NA","space","NA","NA","s","517","NA","49960","NA","NA","517","2","legacy","1024","2","48000","-16","experiment","SSSSS","4","even","196658","53802","NA","NA","78988","3834","NA","NA","197760","3841","NA","NA","197862","198380","197756","197862","CS-FlankerTask","78","48999","79","yes","1024"
"98.75","98.75","618.25","618.25","black","legacy","legacy","legacy","0","incongruent","uniform","1","undefined","1","h","79","0","0","0","79","0","79","0","79","0","0","0","79","79","79","79","Sun Sep 25 21:08:21 2022","1500","The main experiment item","yes","CS-Subject-1.osexp","C:/Users/cici_/Downloads","no","mono","no","18","no","white","no","yes","768","legacy","79","79","C:/Users/cici_/Downloads/F56-subject-4.csv","legacy","Lentiform Loewenfeld","3.3.12","0","h","NA","space","NA","NA","h","461","NA","49960","NA","NA","461","2","legacy","1024","2","48000","-16","experiment","SSHSS","4","even","198397","53802","NA","NA","78988","3834","NA","NA","199491","3841","NA","NA","199593","200056","199486","199593","CS-FlankerTask","79","49460","80","yes","1024"
"98.76543209876543","98.76543209876543","620.0123456790124","620.0123456790124","black","legacy","legacy","legacy","0","incongruent","uniform","1","undefined","1","h","80","0","0","0","80","0","80","0","80","0","0","0","80","80","80","80","Sun Sep 25 21:08:21 2022","600","The main experiment item","yes","CS-Subject-1.osexp","C:/Users/cici_/Downloads","no","mono","no","18","no","white","no","yes","768","legacy","0","79","C:/Users/cici_/Downloads/F56-subject-4.csv","legacy","Lentiform Loewenfeld","3.3.12","0","h","NA","space","s","NA","h","761","NA","49960","23574","NA","761","2","legacy","1024","2","48000","-16","experiment","SSHSS","4","even","200063","53802","224669","NA","78988","3834","NA","NA","224757","3841","201093","NA","224859","225622","224754","224859","CS-FlankerTask","80","50221","81","yes","1024"
"98.78048780487805","98.78048780487805","618.0853658536586","618.0853658536586","black","legacy","legacy","legacy","0","congruent","uniform","1","undefined","1","s","81","0","0","0","81","0","81","0","81","0","0","0","81","81","81","81","Sun Sep 25 21:08:21 2022","600","The main experiment item","yes","CS-Subject-1.osexp","C:/Users/cici_/Downloads","no","mono","no","18","no","white","no","yes","768","legacy","1","79","C:/Users/cici_/Downloads/F56-subject-4.csv","legacy","Lentiform Loewenfeld","3.3.12","0","s","NA","space","s","NA","s","462","NA","49960","23574","NA","462","2","legacy","1024","2","48000","-16","experiment","SSSSS","4","even","226141","53802","224669","NA","78988","3834","225639","NA","227238","3841","201093","NA","227340","227803","227235","227340","CS-FlankerTask","81","50683","82","yes","1024"
"98.79518072289157","98.79518072289157","615.6385542168674","615.6385542168674","black","legacy","legacy","legacy","0","incongruent","uniform","1","undefined","1","h","82","0","0","0","82","0","82","0","82","0","0","0","82","82","82","82","Sun Sep 25 21:08:21 2022","600","The main experiment item","yes","CS-Subject-1.osexp","C:/Users/cici_/Downloads","no","mono","no","18","no","white","no","yes","768","legacy","2","79","C:/Users/cici_/Downloads/F56-subject-4.csv","legacy","Lentiform Loewenfeld","3.3.12","0","h","NA","space","s","NA","h","415","NA","49960","23574","NA","415","2","legacy","1024","2","48000","-16","experiment","SSHSS","4","even","227819","53802","224669","NA","78988","3834","225639","NA","228918","3841","201093","NA","229020","229436","228915","229020","CS-FlankerTask","82","51098","83","yes","1024"
"98.80952380952381","98.80952380952381","614.9047619047619","614.9047619047619","black","legacy","legacy","legacy","0","incongruent","uniform","1","undefined","1","h","83","0","0","0","83","0","83","0","83","0","0","0","83","83","83","83","Sun Sep 25 21:08:21 2022","600","The main experiment item","yes","CS-Subject-1.osexp","C:/Users/cici_/Downloads","no","mono","no","18","no","white","no","yes","768","legacy","3","79","C:/Users/cici_/Downloads/F56-subject-4.csv","legacy","Lentiform Loewenfeld","3.3.12","0","h","NA","space","s","NA","h","554","NA","49960","23574","NA","554","2","legacy","1024","2","48000","-16","experiment","SSHSS","4","even","229452","53802","224669","NA","78988","3834","225639","NA","230552","3841","201093","NA","230655","231210","230549","230655","CS-FlankerTask","83","51652","84","yes","1024"
"98.82352941176471","98.82352941176471","612.8117647058823","612.8117647058823","black","legacy","legacy","legacy","0","congruent","uniform","1","undefined","1","s","84","0","0","0","84","0","84","0","84","0","0","0","84","84","84","84","Sun Sep 25 21:08:21 2022","600","The main experiment item","yes","CS-Subject-1.osexp","C:/Users/cici_/Downloads","no","mono","no","18","no","white","no","yes","768","legacy","4","79","C:/Users/cici_/Downloads/F56-subject-4.csv","legacy","Lentiform Loewenfeld","3.3.12","0","s","NA","space","s","NA","s","437","NA","49960","23574","NA","437","2","legacy","1024","2","48000","-16","experiment","SSSSS","4","even","231222","53802","224669","NA","78988","3834","225639","NA","232317","3841","201093","NA","232419","232858","232314","232419","CS-FlankerTask","84","52089","85","yes","1024"
"98.83720930232558","98.83720930232558","610.8372093023256","610.8372093023256","black","legacy","legacy","legacy","0","incongruent","uniform","1","undefined","1","h","85","0","0","0","85","0","85","0","85","0","0","0","85","85","85","85","Sun Sep 25 21:08:21 2022","600","The main experiment item","yes","CS-Subject-1.osexp","C:/Users/cici_/Downloads","no","mono","no","18","no","white","no","yes","768","legacy","5","79","C:/Users/cici_/Downloads/F56-subject-4.csv","legacy","Lentiform Loewenfeld","3.3.12","0","h","NA","space","s","NA","h","443","NA","49960","23574","NA","443","2","legacy","1024","2","48000","-16","experiment","SSHSS","4","even","232875","53802","224669","NA","78988","3834","225639","NA","233971","3841","201093","NA","234073","234517","233967","234073","CS-FlankerTask","85","52532","86","yes","1024"
"98.85057471264368","98.85057471264368","608.735632183908","608.735632183908","black","legacy","legacy","legacy","0","congruent","uniform","1","undefined","1","s","86","0","0","0","86","0","86","0","86","0","0","0","86","86","86","86","Sun Sep 25 21:08:21 2022","600","The main experiment item","yes","CS-Subject-1.osexp","C:/Users/cici_/Downloads","no","mono","no","18","no","white","no","yes","768","legacy","6","79","C:/Users/cici_/Downloads/F56-subject-4.csv","legacy","Lentiform Loewenfeld","3.3.12","0","s","NA","space","s","NA","s","428","NA","49960","23574","NA","428","2","legacy","1024","2","48000","-16","experiment","SSSSS","4","even","234523","53802","224669","NA","78988","3834","225639","NA","235621","3841","201093","NA","235723","236153","235617","235723","CS-FlankerTask","86","52960","87","yes","1024"
"98.86363636363636","98.86363636363636","607.75","607.75","black","legacy","legacy","legacy","0","incongruent","uniform","1","undefined","1","s","87","0","0","0","87","0","87","0","87","0","0","0","87","87","87","87","Sun Sep 25 21:08:21 2022","600","The main experiment item","yes","CS-Subject-1.osexp","C:/Users/cici_/Downloads","no","mono","no","18","no","white","no","yes","768","legacy","7","79","C:/Users/cici_/Downloads/F56-subject-4.csv","legacy","Lentiform Loewenfeld","3.3.12","0","s","NA","space","s","NA","s","522","NA","49960","23574","NA","522","2","legacy","1024","2","48000","-16","experiment","HHSHH","4","even","236170","53802","224669","NA","78988","3834","225639","NA","237269","3841","201093","NA","237372","237896","237266","237372","CS-FlankerTask","87","53482","88","yes","1024"
"98.87640449438203","98.87640449438203","606.2134831460675","606.2134831460675","black","legacy","legacy","legacy","0","congruent","uniform","1","undefined","1","s","88","0","0","0","88","0","88","0","88","0","0","0","88","88","88","88","Sun Sep 25 21:08:21 2022","600","The main experiment item","yes","CS-Subject-1.osexp","C:/Users/cici_/Downloads","no","mono","no","18","no","white","no","yes","768","legacy","8","79","C:/Users/cici_/Downloads/F56-subject-4.csv","legacy","Lentiform Loewenfeld","3.3.12","0","s","NA","space","s","NA","s","471","NA","49960","23574","NA","471","2","legacy","1024","2","48000","-16","experiment","SSSSS","4","even","237903","53802","224669","NA","78988","3834","225639","NA","239000","3841","201093","NA","239102","239574","238997","239102","CS-FlankerTask","88","53953","89","yes","1024"
"98.88888888888889","98.88888888888889","607.1111111111111","607.1111111111111","black","legacy","legacy","legacy","0","incongruent","uniform","1","undefined","1","h","89","0","0","0","89","0","89","0","89","0","0","0","89","89","89","89","Sun Sep 25 21:08:21 2022","600","The main experiment item","yes","CS-Subject-1.osexp","C:/Users/cici_/Downloads","no","mono","no","18","no","white","no","yes","768","legacy","9","79","C:/Users/cici_/Downloads/F56-subject-4.csv","legacy","Lentiform Loewenfeld","3.3.12","0","h","NA","space","s","NA","h","687","NA","49960","23574","NA","687","2","legacy","1024","2","48000","-16","experiment","SSHSS","4","even","239591","53802","224669","NA","78988","3834","225639","NA","240694","3841","201093","NA","240796","241484","240690","240796","CS-FlankerTask","89","54640","90","yes","1024"
"97.8021978021978","97.8021978021978","605.2857142857143","605.2857142857143","black","legacy","legacy","legacy","0","incongruent","uniform","0","undefined","0","s","90","0","0","0","90","0","90","0","90","0","0","0","90","90","90","90","Sun Sep 25 21:08:21 2022","600","The main experiment item","yes","CS-Subject-1.osexp","C:/Users/cici_/Downloads","no","mono","no","18","no","white","no","yes","768","legacy","10","79","C:/Users/cici_/Downloads/F56-subject-4.csv","legacy","Lentiform Loewenfeld","3.3.12","0","h","NA","space","s","NA","h","441","NA","49960","23574","NA","441","2","legacy","1024","2","48000","-16","experiment","HHSHH","4","even","242004","53802","224669","NA","78988","3834","241502","NA","243096","3841","201093","NA","243198","243640","243092","243198","CS-FlankerTask","89","55081","91","yes","1024"
"97.82608695652173","97.82608695652173","605.4130434782609","605.4130434782609","black","legacy","legacy","legacy","0","congruent","uniform","1","undefined","1","h","91","0","0","0","91","0","91","0","91","0","0","0","91","91","91","91","Sun Sep 25 21:08:21 2022","600","The main experiment item","yes","CS-Subject-1.osexp","C:/Users/cici_/Downloads","no","mono","no","18","no","white","no","yes","768","legacy","11","79","C:/Users/cici_/Downloads/F56-subject-4.csv","legacy","Lentiform Loewenfeld","3.3.12","0","h","NA","space","s","NA","h","617","NA","49960","23574","NA","617","2","legacy","1024","2","48000","-16","experiment","HHHHH","4","even","244159","53802","224669","NA","243657","3834","241502","NA","245268","3841","201093","NA","245370","245989","245265","245370","CS-FlankerTask","90","55698","92","yes","1024"
"97.84946236559139","97.84946236559139","606.5483870967741","606.5483870967741","black","legacy","legacy","legacy","0","congruent","uniform","1","undefined","1","h","92","0","0","0","92","0","92","0","92","0","0","0","92","92","92","92","Sun Sep 25 21:08:21 2022","600","The main experiment item","yes","CS-Subject-1.osexp","C:/Users/cici_/Downloads","no","mono","no","18","no","white","no","yes","768","legacy","12","79","C:/Users/cici_/Downloads/F56-subject-4.csv","legacy","Lentiform Loewenfeld","3.3.12","0","h","NA","space","s","NA","h","711","NA","49960","23574","NA","711","2","legacy","1024","2","48000","-16","experiment","HHHHH","4","even","246508","53802","224669","NA","243657","3834","246006","NA","247600","3841","201093","NA","247703","248416","247597","247703","CS-FlankerTask","91","56409","93","yes","1024"
"97.87234042553192","97.87234042553192","606.7340425531914","606.7340425531914","black","legacy","legacy","legacy","0","incongruent","uniform","1","undefined","1","h","93","0","0","0","93","0","93","0","93","0","0","0","93","93","93","93","Sun Sep 25 21:08:21 2022","600","The main experiment item","yes","CS-Subject-1.osexp","C:/Users/cici_/Downloads","no","mono","no","18","no","white","no","yes","768","legacy","13","79","C:/Users/cici_/Downloads/F56-subject-4.csv","legacy","Lentiform Loewenfeld","3.3.12","0","h","NA","space","s","NA","h","624","NA","49960","23574","NA","624","2","legacy","1024","2","48000","-16","experiment","SSHSS","4","even","248925","53802","224669","NA","243657","3834","248423","NA","250018","3841","201093","NA","250120","250746","250014","250120","CS-FlankerTask","92","57033","94","yes","1024"
"96.84210526315789","96.84210526315789","604.2105263157895","604.2105263157895","black","legacy","legacy","legacy","0","incongruent","uniform","0","undefined","0","s","94","0","0","0","94","0","94","0","94","0","0","0","94","94","94","94","Sun Sep 25 21:08:21 2022","600","The main experiment item","yes","CS-Subject-1.osexp","C:/Users/cici_/Downloads","no","mono","no","18","no","white","no","yes","768","legacy","14","79","C:/Users/cici_/Downloads/F56-subject-4.csv","legacy","Lentiform Loewenfeld","3.3.12","0","h","NA","space","s","NA","h","367","NA","49960","23574","NA","367","2","legacy","1024","2","48000","-16","experiment","HHSHH","4","even","251266","53802","224669","NA","243657","3834","250764","NA","252360","3841","201093","NA","252462","252831","252356","252462","CS-FlankerTask","92","57400","95","yes","1024"
"96.875","96.875","603.875","603.875","black","legacy","legacy","legacy","0","incongruent","uniform","1","undefined","1","h","95","0","0","0","95","0","95","0","95","0","0","0","95","95","95","95","Sun Sep 25 21:08:21 2022","600","The main experiment item","yes","CS-Subject-1.osexp","C:/Users/cici_/Downloads","no","mono","no","18","no","white","no","yes","768","legacy","15","79","C:/Users/cici_/Downloads/F56-subject-4.csv","legacy","Lentiform Loewenfeld","3.3.12","0","h","NA","space","s","NA","h","572","NA","49960","23574","NA","572","2","legacy","1024","2","48000","-16","experiment","SSHSS","4","even","253350","53802","224669","NA","252848","3834","250764","NA","254442","3841","201093","NA","254544","255119","254437","254544","CS-FlankerTask","93","57972","96","yes","1024"
"96.90721649484536","96.90721649484536","602.8556701030927","602.8556701030927","black","legacy","legacy","legacy","0","incongruent","uniform","1","undefined","1","s","96","0","0","0","96","0","96","0","96","0","0","0","96","96","96","96","Sun Sep 25 21:08:21 2022","600","The main experiment item","yes","CS-Subject-1.osexp","C:/Users/cici_/Downloads","no","mono","no","18","no","white","no","yes","768","legacy","16","79","C:/Users/cici_/Downloads/F56-subject-4.csv","legacy","Lentiform Loewenfeld","3.3.12","0","s","NA","space","s","NA","s","505","NA","49960","23574","NA","505","2","legacy","1024","2","48000","-16","experiment","HHSHH","4","even","255126","53802","224669","NA","252848","3834","250764","NA","256222","3841","201093","NA","256324","256831","256219","256324","CS-FlankerTask","94","58477","97","yes","1024"
"96.93877551020408","96.93877551020408","601.8877551020408","601.8877551020408","black","legacy","legacy","legacy","0","congruent","uniform","1","undefined","1","s","97","0","0","0","97","0","97","0","97","0","0","0","97","97","97","97","Sun Sep 25 21:08:21 2022","600","The main experiment item","yes","CS-Subject-1.osexp","C:/Users/cici_/Downloads","no","mono","no","18","no","white","no","yes","768","legacy","17","79","C:/Users/cici_/Downloads/F56-subject-4.csv","legacy","Lentiform Loewenfeld","3.3.12","0","s","NA","space","s","NA","s","508","NA","49960","23574","NA","508","2","legacy","1024","2","48000","-16","experiment","SSSSS","4","even","256850","53802","224669","NA","252848","3834","250764","NA","257954","3841","201093","NA","258056","258566","257950","258056","CS-FlankerTask","95","58985","98","yes","1024"
"96.96969696969697","96.96969696969697","600.7979797979798","600.7979797979798","black","legacy","legacy","legacy","0","incongruent","uniform","1","undefined","1","s","98","0","0","0","98","0","98","0","98","0","0","0","98","98","98","98","Sun Sep 25 21:08:21 2022","600","The main experiment item","yes","CS-Subject-1.osexp","C:/Users/cici_/Downloads","no","mono","no","18","no","white","no","yes","768","legacy","18","79","C:/Users/cici_/Downloads/F56-subject-4.csv","legacy","Lentiform Loewenfeld","3.3.12","0","s","NA","space","s","NA","s","494","NA","49960","23574","NA","494","2","legacy","1024","2","48000","-16","experiment","HHSHH","4","even","258584","53802","224669","NA","252848","3834","250764","NA","259683","3841","201093","NA","259786","260282","259680","259786","CS-FlankerTask","96","59479","99","yes","1024"
"97","97","600.5","600.5","black","legacy","legacy","legacy","0","congruent","uniform","1","undefined","1","h","99","0","0","0","99","0","99","0","99","0","0","0","99","99","99","99","Sun Sep 25 21:08:21 2022","600","The main experiment item","yes","CS-Subject-1.osexp","C:/Users/cici_/Downloads","no","mono","no","18","no","white","no","yes","768","legacy","19","79","C:/Users/cici_/Downloads/F56-subject-4.csv","legacy","Lentiform Loewenfeld","3.3.12","0","h","NA","space","s","NA","h","571","NA","49960","23574","NA","571","2","legacy","1024","2","48000","-16","experiment","HHHHH","4","even","260300","53802","224669","NA","252848","3834","250764","NA","261398","3841","201093","NA","261500","262073","261394","261500","CS-FlankerTask","97","60050","100","yes","1024"
"97.02970297029702","97.02970297029702","598.9009900990098","598.9009900990098","black","legacy","legacy","legacy","0","incongruent","uniform","1","undefined","1","h","100","0","0","0","100","0","100","0","100","0","0","0","100","100","100","100","Sun Sep 25 21:08:21 2022","600","The main experiment item","yes","CS-Subject-1.osexp","C:/Users/cici_/Downloads","no","mono","no","18","no","white","no","yes","768","legacy","20","79","C:/Users/cici_/Downloads/F56-subject-4.csv","legacy","Lentiform Loewenfeld","3.3.12","0","h","NA","space","s","NA","h","439","NA","49960","23574","NA","439","2","legacy","1024","2","48000","-16","experiment","SSHSS","4","even","262090","53802","224669","NA","252848","3834","250764","NA","263196","3841","201093","NA","263298","263738","263192","263298","CS-FlankerTask","98","60489","101","yes","1024"
"97.05882352941177","97.05882352941177","598.2647058823529","598.2647058823529","black","legacy","legacy","legacy","0","incongruent","uniform","1","undefined","1","h","101","0","0","0","101","0","101","0","101","0","0","0","101","101","101","101","Sun Sep 25 21:08:21 2022","600","The main experiment item","yes","CS-Subject-1.osexp","C:/Users/cici_/Downloads","no","mono","no","18","no","white","no","yes","768","legacy","21","79","C:/Users/cici_/Downloads/F56-subject-4.csv","legacy","Lentiform Loewenfeld","3.3.12","0","h","NA","space","s","NA","h","534","NA","49960","23574","NA","534","2","legacy","1024","2","48000","-16","experiment","SSHSS","4","even","263755","53802","224669","NA","252848","3834","250764","NA","264854","3841","201093","NA","264956","265492","264850","264956","CS-FlankerTask","99","61023","102","yes","1024"
"97.0873786407767","97.0873786407767","598.4854368932039","598.4854368932039","black","legacy","legacy","legacy","0","incongruent","uniform","1","undefined","1","s","102","0","0","0","102","0","102","0","102","0","0","0","102","102","102","102","Sun Sep 25 21:08:21 2022","600","The main experiment item","yes","CS-Subject-1.osexp","C:/Users/cici_/Downloads","no","mono","no","18","no","white","no","yes","768","legacy","22","79","C:/Users/cici_/Downloads/F56-subject-4.csv","legacy","Lentiform Loewenfeld","3.3.12","0","s","NA","space","s","NA","s","621","NA","49960","23574","NA","621","2","legacy","1024","2","48000","-16","experiment","HHSHH","4","even","265508","53802","224669","NA","252848","3834","250764","NA","266611","3841","201093","NA","266713","267336","266607","266713","CS-FlankerTask","100","61644","103","yes","1024"
"97.11538461538461","97.11538461538461","598.5961538461538","598.5961538461538","black","legacy","legacy","legacy","0","incongruent","uniform","1","undefined","1","s","103","0","0","0","103","0","103","0","103","0","0","0","103","103","103","103","Sun Sep 25 21:08:21 2022","600","The main experiment item","yes","CS-Subject-1.osexp","C:/Users/cici_/Downloads","no","mono","no","18","no","white","no","yes","768","legacy","23","79","C:/Users/cici_/Downloads/F56-subject-4.csv","legacy","Lentiform Loewenfeld","3.3.12","0","s","NA","space","s","NA","s","610","NA","49960","23574","NA","610","2","legacy","1024","2","48000","-16","experiment","HHSHH","4","even","267857","53802","224669","NA","252848","3834","267355","NA","268955","3841","201093","NA","269057","269670","268950","269057","CS-FlankerTask","101","62254","104","yes","1024"
"97.14285714285714","97.14285714285714","597.2190476190476","597.2190476190476","black","legacy","legacy","legacy","0","congruent","uniform","1","undefined","1","s","104","0","0","0","104","0","104","0","104","0","0","0","104","104","104","104","Sun Sep 25 21:08:21 2022","600","The main experiment item","yes","CS-Subject-1.osexp","C:/Users/cici_/Downloads","no","mono","no","18","no","white","no","yes","768","legacy","24","79","C:/Users/cici_/Downloads/F56-subject-4.csv","legacy","Lentiform Loewenfeld","3.3.12","0","s","NA","space","s","NA","s","454","NA","49960","23574","NA","454","2","legacy","1024","2","48000","-16","experiment","SSSSS","4","even","270179","53802","224669","NA","252848","3834","269677","NA","271283","3841","201093","NA","271385","271840","271280","271385","CS-FlankerTask","102","62708","105","yes","1024"
"97.16981132075472","97.16981132075472","597.0094339622641","597.0094339622641","black","legacy","legacy","legacy","0","incongruent","uniform","1","undefined","1","h","105","0","0","0","105","0","105","0","105","0","0","0","105","105","105","105","Sun Sep 25 21:08:21 2022","600","The main experiment item","yes","CS-Subject-1.osexp","C:/Users/cici_/Downloads","no","mono","no","18","no","white","no","yes","768","legacy","25","79","C:/Users/cici_/Downloads/F56-subject-4.csv","legacy","Lentiform Loewenfeld","3.3.12","0","h","NA","space","s","NA","h","575","NA","49960","23574","NA","575","2","legacy","1024","2","48000","-16","experiment","SSHSS","4","even","271859","53802","224669","NA","252848","3834","269677","NA","272956","3841","201093","NA","273058","273635","272953","273058","CS-FlankerTask","103","63283","106","yes","1024"
"97.19626168224299","97.19626168224299","595.3551401869158","595.3551401869158","black","legacy","legacy","legacy","0","congruent","uniform","1","undefined","1","s","106","0","0","0","106","0","106","0","106","0","0","0","106","106","106","106","Sun Sep 25 21:08:21 2022","600","The main experiment item","yes","CS-Subject-1.osexp","C:/Users/cici_/Downloads","no","mono","no","18","no","white","no","yes","768","legacy","26","79","C:/Users/cici_/Downloads/F56-subject-4.csv","legacy","Lentiform Loewenfeld","3.3.12","0","s","NA","space","s","NA","s","420","NA","49960","23574","NA","420","2","legacy","1024","2","48000","-16","experiment","SSSSS","4","even","273653","53802","224669","NA","252848","3834","269677","NA","274748","3841","201093","NA","274851","275272","274745","274851","CS-FlankerTask","104","63703","107","yes","1024"
"97.22222222222223","97.22222222222223","594.6388888888889","594.6388888888889","black","legacy","legacy","legacy","0","incongruent","uniform","1","undefined","1","s","107","0","0","0","107","0","107","0","107","0","0","0","107","107","107","107","Sun Sep 25 21:08:21 2022","600","The main experiment item","yes","CS-Subject-1.osexp","C:/Users/cici_/Downloads","no","mono","no","18","no","white","no","yes","768","legacy","27","79","C:/Users/cici_/Downloads/F56-subject-4.csv","legacy","Lentiform Loewenfeld","3.3.12","0","s","NA","space","s","NA","s","518","NA","49960","23574","NA","518","2","legacy","1024","2","48000","-16","experiment","HHSHH","4","even","275278","53802","224669","NA","252848","3834","269677","NA","276377","3841","201093","NA","276479","276999","276373","276479","CS-FlankerTask","105","64221","108","yes","1024"
"97.24770642201835","97.24770642201835","593.5045871559633","593.5045871559633","black","legacy","legacy","legacy","0","congruent","uniform","1","undefined","1","h","108","0","0","0","108","0","108","0","108","0","0","0","108","108","108","108","Sun Sep 25 21:08:21 2022","600","The main experiment item","yes","CS-Subject-1.osexp","C:/Users/cici_/Downloads","no","mono","no","18","no","white","no","yes","768","legacy","28","79","C:/Users/cici_/Downloads/F56-subject-4.csv","legacy","Lentiform Loewenfeld","3.3.12","0","h","NA","space","s","NA","h","471","NA","49960","23574","NA","471","2","legacy","1024","2","48000","-16","experiment","HHHHH","4","even","277016","53802","224669","NA","252848","3834","269677","NA","278120","3841","201093","NA","278222","278695","278117","278222","CS-FlankerTask","106","64692","109","yes","1024"
"97.27272727272727","97.27272727272727","592.4727272727273","592.4727272727273","black","legacy","legacy","legacy","0","incongruent","uniform","1","undefined","1","s","109","0","0","0","109","0","109","0","109","0","0","0","109","109","109","109","Sun Sep 25 21:08:21 2022","600","The main experiment item","yes","CS-Subject-1.osexp","C:/Users/cici_/Downloads","no","mono","no","18","no","white","no","yes","768","legacy","29","79","C:/Users/cici_/Downloads/F56-subject-4.csv","legacy","Lentiform Loewenfeld","3.3.12","0","s","NA","space","s","NA","s","480","NA","49960","23574","NA","480","2","legacy","1024","2","48000","-16","experiment","HHSHH","4","even","278711","53802","224669","NA","252848","3834","269677","NA","279806","3841","201093","NA","279908","280390","279803","279908","CS-FlankerTask","107","65172","110","yes","1024"
"97.29729729729729","97.29729729729729","591.2972972972973","591.2972972972973","black","legacy","legacy","legacy","0","congruent","uniform","1","undefined","1","s","110","0","0","0","110","0","110","0","110","0","0","0","110","110","110","110","Sun Sep 25 21:08:21 2022","600","The main experiment item","yes","CS-Subject-1.osexp","C:/Users/cici_/Downloads","no","mono","no","18","no","white","no","yes","768","legacy","30","79","C:/Users/cici_/Downloads/F56-subject-4.csv","legacy","Lentiform Loewenfeld","3.3.12","0","s","NA","space","s","NA","s","462","NA","49960","23574","NA","462","2","legacy","1024","2","48000","-16","experiment","SSSSS","4","even","280407","53802","224669","NA","252848","3834","269677","NA","281507","3841","201093","NA","281610","282074","281503","281610","CS-FlankerTask","108","65634","111","yes","1024"
"97.32142857142857","97.32142857142857","590.7767857142857","590.7767857142857","black","legacy","legacy","legacy","0","congruent","uniform","1","undefined","1","s","111","0","0","0","111","0","111","0","111","0","0","0","111","111","111","111","Sun Sep 25 21:08:21 2022","600","The main experiment item","yes","CS-Subject-1.osexp","C:/Users/cici_/Downloads","no","mono","no","18","no","white","no","yes","768","legacy","31","79","C:/Users/cici_/Downloads/F56-subject-4.csv","legacy","Lentiform Loewenfeld","3.3.12","0","s","NA","space","s","NA","s","533","NA","49960","23574","NA","533","2","legacy","1024","2","48000","-16","experiment","SSSSS","4","even","282091","53802","224669","NA","252848","3834","269677","NA","283191","3841","201093","NA","283294","283829","283187","283294","CS-FlankerTask","109","66167","112","yes","1024"
"97.34513274336283","97.34513274336283","589.8761061946902","589.8761061946902","black","legacy","legacy","legacy","0","congruent","uniform","1","undefined","1","s","112","0","0","0","112","0","112","0","112","0","0","0","112","112","112","112","Sun Sep 25 21:08:21 2022","600","The main experiment item","yes","CS-Subject-1.osexp","C:/Users/cici_/Downloads","no","mono","no","18","no","white","no","yes","768","legacy","32","79","C:/Users/cici_/Downloads/F56-subject-4.csv","legacy","Lentiform Loewenfeld","3.3.12","0","s","NA","space","s","NA","s","489","NA","49960","23574","NA","489","2","legacy","1024","2","48000","-16","experiment","SSSSS","4","even","283846","53802","224669","NA","252848","3834","269677","NA","284946","3841","201093","NA","285048","285540","284943","285048","CS-FlankerTask","110","66656","113","yes","1024"
"97.36842105263158","97.36842105263158","589.6754385964912","589.6754385964912","black","legacy","legacy","legacy","0","incongruent","uniform","1","undefined","1","s","113","0","0","0","113","0","113","0","113","0","0","0","113","113","113","113","Sun Sep 25 21:08:21 2022","600","The main experiment item","yes","CS-Subject-1.osexp","C:/Users/cici_/Downloads","no","mono","no","18","no","white","no","yes","768","legacy","33","79","C:/Users/cici_/Downloads/F56-subject-4.csv","legacy","Lentiform Loewenfeld","3.3.12","0","s","NA","space","s","NA","s","567","NA","49960","23574","NA","567","2","legacy","1024","2","48000","-16","experiment","HHSHH","4","even","285557","53802","224669","NA","252848","3834","269677","NA","286655","3841","201093","NA","286758","287327","286651","286757","CS-FlankerTask","111","67223","114","yes","1024"
"97.3913043478261","97.3913043478261","588.3217391304348","588.3217391304348","black","legacy","legacy","legacy","0","congruent","uniform","1","undefined","1","s","114","0","0","0","114","0","114","0","114","0","0","0","114","114","114","114","Sun Sep 25 21:08:21 2022","600","The main experiment item","yes","CS-Subject-1.osexp","C:/Users/cici_/Downloads","no","mono","no","18","no","white","no","yes","768","legacy","34","79","C:/Users/cici_/Downloads/F56-subject-4.csv","legacy","Lentiform Loewenfeld","3.3.12","0","s","NA","space","s","NA","s","434","NA","49960","23574","NA","434","2","legacy","1024","2","48000","-16","experiment","SSSSS","4","even","287344","53802","224669","NA","252848","3834","269677","NA","288439","3841","201093","NA","288541","288977","288435","288541","CS-FlankerTask","112","67657","115","yes","1024"
"97.41379310344827","97.41379310344827","587.1551724137931","587.1551724137931","black","legacy","legacy","legacy","0","congruent","uniform","1","undefined","1","h","115","0","0","0","115","0","115","0","115","0","0","0","115","115","115","115","Sun Sep 25 21:08:21 2022","600","The main experiment item","yes","CS-Subject-1.osexp","C:/Users/cici_/Downloads","no","mono","no","18","no","white","no","yes","768","legacy","35","79","C:/Users/cici_/Downloads/F56-subject-4.csv","legacy","Lentiform Loewenfeld","3.3.12","0","h","NA","space","s","NA","h","453","NA","49960","23574","NA","453","2","legacy","1024","2","48000","-16","experiment","HHHHH","4","even","288995","53802","224669","NA","252848","3834","269677","NA","290095","3841","201093","NA","290197","290652","290092","290197","CS-FlankerTask","113","68110","116","yes","1024"
"96.58119658119658","96.58119658119658","586.3931623931624","586.3931623931624","black","legacy","legacy","legacy","0","incongruent","uniform","0","undefined","0","h","116","0","0","0","116","0","116","0","116","0","0","0","116","116","116","116","Sun Sep 25 21:08:21 2022","600","The main experiment item","yes","CS-Subject-1.osexp","C:/Users/cici_/Downloads","no","mono","no","18","no","white","no","yes","768","legacy","36","79","C:/Users/cici_/Downloads/F56-subject-4.csv","legacy","Lentiform Loewenfeld","3.3.12","0","s","NA","space","s","NA","s","498","NA","49960","23574","NA","498","2","legacy","1024","2","48000","-16","experiment","SSHSS","4","even","290668","53802","224669","NA","252848","3834","269677","NA","291765","3841","201093","NA","291867","292367","291762","291867","CS-FlankerTask","113","68608","117","yes","1024"
"96.61016949152543","96.61016949152543","586.6101694915254","586.6101694915254","black","legacy","legacy","legacy","0","incongruent","uniform","1","undefined","1","s","117","0","0","0","117","0","117","0","117","0","0","0","117","117","117","117","Sun Sep 25 21:08:21 2022","600","The main experiment item","yes","CS-Subject-1.osexp","C:/Users/cici_/Downloads","no","mono","no","18","no","white","no","yes","768","legacy","37","79","C:/Users/cici_/Downloads/F56-subject-4.csv","legacy","Lentiform Loewenfeld","3.3.12","0","s","NA","space","s","NA","s","612","NA","49960","23574","NA","612","2","legacy","1024","2","48000","-16","experiment","HHSHH","4","even","292889","53802","224669","NA","292386","3834","269677","NA","293984","3841","201093","NA","294086","294700","293980","294086","CS-FlankerTask","114","69220","118","yes","1024"
"96.63865546218487","96.63865546218487","586.4285714285714","586.4285714285714","black","legacy","legacy","legacy","0","congruent","uniform","1","undefined","1","h","118","0","0","0","118","0","118","0","118","0","0","0","118","118","118","118","Sun Sep 25 21:08:21 2022","600","The main experiment item","yes","CS-Subject-1.osexp","C:/Users/cici_/Downloads","no","mono","no","18","no","white","no","yes","768","legacy","38","79","C:/Users/cici_/Downloads/F56-subject-4.csv","legacy","Lentiform Loewenfeld","3.3.12","0","h","NA","space","s","NA","h","565","NA","49960","23574","NA","565","2","legacy","1024","2","48000","-16","experiment","HHHHH","4","even","295220","53802","224669","NA","292386","3834","294718","NA","296314","3841","201093","NA","296416","296983","296311","296416","CS-FlankerTask","115","69785","119","yes","1024"
"96.66666666666667","96.66666666666667","585.8416666666667","585.8416666666667","black","legacy","legacy","legacy","0","congruent","uniform","1","undefined","1","h","119","0","0","0","119","0","119","0","119","0","0","0","119","119","119","119","Sun Sep 25 21:08:21 2022","600","The main experiment item","yes","CS-Subject-1.osexp","C:/Users/cici_/Downloads","no","mono","no","18","no","white","no","yes","768","legacy","39","79","C:/Users/cici_/Downloads/F56-subject-4.csv","legacy","Lentiform Loewenfeld","3.3.12","0","h","NA","space","s","NA","h","516","NA","49960","23574","NA","516","2","legacy","1024","2","48000","-16","experiment","HHHHH","4","even","296999","53802","224669","NA","292386","3834","294718","NA","298097","3841","201093","NA","298200","298719","298093","298200","CS-FlankerTask","116","70301","120","yes","1024"
"96.69421487603306","96.69421487603306","584.9669421487604","584.9669421487604","black","legacy","legacy","legacy","0","congruent","uniform","1","undefined","1","s","120","0","0","0","120","0","120","0","120","0","0","0","120","120","120","120","Sun Sep 25 21:08:21 2022","600","The main experiment item","yes","CS-Subject-1.osexp","C:/Users/cici_/Downloads","no","mono","no","18","no","white","no","yes","768","legacy","40","79","C:/Users/cici_/Downloads/F56-subject-4.csv","legacy","Lentiform Loewenfeld","3.3.12","0","s","NA","space","s","NA","s","480","NA","49960","23574","NA","480","2","legacy","1024","2","48000","-16","experiment","SSSSS","4","even","298736","53802","224669","NA","292386","3834","294718","NA","299837","3841","201093","NA","299939","300422","299834","299939","CS-FlankerTask","117","70781","121","yes","1024"
