"acc","accuracy","average_response_time","avg_rt","background","canvas_backend","clock_backend","color_backend","compensation","condition","coordinates","correct","correct_instructions1","correct_keyboard_response","correct_response","count_ISI","count_block1","count_block2","count_block3","count_errorFeedback","count_experiment","count_faster","count_finish","count_fixation","count_instructions1","count_instructions2","count_instructions3","count_keyboard_response","count_logger","count_sequence","count_stimulus","datetime","deadline","description","disable_garbage_collection","experiment_file","experiment_path","font_bold","font_family","font_italic","font_size","font_underline","foreground","form_clicks","fullscreen","height","keyboard_backend","live_row","live_row_block1","logfile","mouse_backend","opensesame_codename","opensesame_version","repeat_cycle","response","response_finish","response_instructions1","response_instructions2","response_instructions3","response_keyboard_response","response_time","response_time_finish","response_time_instructions1","response_time_instructions2","response_time_instructions3","response_time_keyboard_response","round_decimals","sampler_backend","sound_buf_size","sound_channels","sound_freq","sound_sample_size","start","stimulus","subject_nr","subject_parity","time_ISI","time_block1","time_block2","time_block3","time_errorFeedback","time_experiment","time_faster","time_finish","time_fixation","time_instructions1","time_instructions2","time_instructions3","time_keyboard_response","time_logger","time_sequence","time_stimulus","title","total_correct","total_response_time","total_responses","uniform_coordinates","width"
"100","100","562","562","black","legacy","legacy","legacy","0","congruent","uniform","1","undefined","1","s","0","0","0","0","0","0","0","0","0","0","0","0","0","0","0","0","09/25/22 18:33:22","1500","The main experiment item","yes","FlankerTask.osexp","C:\Users\casme\OneDrive\Desktop\Fall 2022","no","mono","no","18","no","white","no","yes","768","legacy","0","0","C:/Users/casme/OneDrive/Desktop/Fall 2022/IC-subject-2.csv","legacy","Lentiform Loewenfeld","3.3.12","0","s","NA","s","NA","NA","s","562","NA","7456","NA","NA","562","2","legacy","1024","2","48000","-16","experiment","SSSSS","2","even","NA","10345","NA","NA","NA","2858","NA","NA","10448","2888","NA","NA","10555","11117","10445","10553","Flanker Task","1","562","1","yes","1024"
"100","100","491.5","491.5","black","legacy","legacy","legacy","0","incongruent","uniform","1","undefined","1","h","1","0","0","0","1","0","1","0","1","0","0","0","1","1","1","1","09/25/22 18:33:22","1500","The main experiment item","yes","FlankerTask.osexp","C:\Users\casme\OneDrive\Desktop\Fall 2022","no","mono","no","18","no","white","no","yes","768","legacy","1","1","C:/Users/casme/OneDrive/Desktop/Fall 2022/IC-subject-2.csv","legacy","Lentiform Loewenfeld","3.3.12","0","h","NA","s","NA","NA","h","421","NA","7456","NA","NA","421","2","legacy","1024","2","48000","-16","experiment","SSHSS","2","even","11126","10345","NA","NA","NA","2858","NA","NA","12196","2888","NA","NA","12298","12719","12193","12298","Flanker Task","2","983","2","yes","1024"
"100","100","474.333333333","474.333333333","black","legacy","legacy","legacy","0","congruent","uniform","1","undefined","1","h","2","0","0","0","2","0","2","0","2","0","0","0","2","2","2","2","09/25/22 18:33:22","1500","The main experiment item","yes","FlankerTask.osexp","C:\Users\casme\OneDrive\Desktop\Fall 2022","no","mono","no","18","no","white","no","yes","768","legacy","2","2","C:/Users/casme/OneDrive/Desktop/Fall 2022/IC-subject-2.csv","legacy","Lentiform Loewenfeld","3.3.12","0","h","NA","s","NA","NA","h","440","NA","7456","NA","NA","440","2","legacy","1024","2","48000","-16","experiment","HHHHH","2","even","12724","10345","NA","NA","NA","2858","NA","NA","13794","2888","NA","NA","13895","14335","13792","13895","Flanker Task","3","1423","3","yes","1024"
"100","100","456.5","456.5","black","legacy","legacy","legacy","0","congruent","uniform","1","undefined","1","h","3","0","0","0","3","0","3","0","3","0","0","0","3","3","3","3","09/25/22 18:33:22","1500","The main experiment item","yes","FlankerTask.osexp","C:\Users\casme\OneDrive\Desktop\Fall 2022","no","mono","no","18","no","white","no","yes","768","legacy","3","3","C:/Users/casme/OneDrive/Desktop/Fall 2022/IC-subject-2.csv","legacy","Lentiform Loewenfeld","3.3.12","0","h","NA","s","NA","NA","h","403","NA","7456","NA","NA","403","2","legacy","1024","2","48000","-16","experiment","HHHHH","2","even","14340","10345","NA","NA","NA","2858","NA","NA","15404","2888","NA","NA","15506","15909","15402","15506","Flanker Task","4","1826","4","yes","1024"
"100","100","482","482","black","legacy","legacy","legacy","0","incongruent","uniform","1","undefined","1","h","4","0","0","0","4","0","4","0","4","0","0","0","4","4","4","4","09/25/22 18:33:22","1500","The main experiment item","yes","FlankerTask.osexp","C:\Users\casme\OneDrive\Desktop\Fall 2022","no","mono","no","18","no","white","no","yes","768","legacy","4","4","C:/Users/casme/OneDrive/Desktop/Fall 2022/IC-subject-2.csv","legacy","Lentiform Loewenfeld","3.3.12","0","h","NA","s","NA","NA","h","584","NA","7456","NA","NA","584","2","legacy","1024","2","48000","-16","experiment","SSHSS","2","even","15914","10345","NA","NA","NA","2858","NA","NA","16990","2888","NA","NA","17092","17676","16989","17092","Flanker Task","5","2410","5","yes","1024"
"100","100","507.666666667","507.666666667","black","legacy","legacy","legacy","0","congruent","uniform","1","undefined","1","h","5","0","0","0","5","0","5","0","5","0","0","0","5","5","5","5","09/25/22 18:33:22","1500","The main experiment item","yes","FlankerTask.osexp","C:\Users\casme\OneDrive\Desktop\Fall 2022","no","mono","no","18","no","white","no","yes","768","legacy","5","5","C:/Users/casme/OneDrive/Desktop/Fall 2022/IC-subject-2.csv","legacy","Lentiform Loewenfeld","3.3.12","0","h","NA","s","NA","NA","h","636","NA","7456","NA","NA","636","2","legacy","1024","2","48000","-16","experiment","HHHHH","2","even","17681","10345","NA","NA","NA","2858","NA","NA","18758","2888","NA","NA","18863","19500","18756","18862","Flanker Task","6","3046","6","yes","1024"
"100","100","514.142857143","514.142857143","black","legacy","legacy","legacy","0","incongruent","uniform","1","undefined","1","s","6","0","0","0","6","0","6","0","6","0","0","0","6","6","6","6","09/25/22 18:33:22","1500","The main experiment item","yes","FlankerTask.osexp","C:\Users\casme\OneDrive\Desktop\Fall 2022","no","mono","no","18","no","white","no","yes","768","legacy","6","6","C:/Users/casme/OneDrive/Desktop/Fall 2022/IC-subject-2.csv","legacy","Lentiform Loewenfeld","3.3.12","0","s","NA","s","NA","NA","s","553","NA","7456","NA","NA","553","2","legacy","1024","2","48000","-16","experiment","HHSHH","2","even","19504","10345","NA","NA","NA","2858","NA","NA","20563","2888","NA","NA","20664","21218","20561","20664","Flanker Task","7","3599","7","yes","1024"
"100","100","503.75","503.75","black","legacy","legacy","legacy","0","incongruent","uniform","1","undefined","1","s","7","0","0","0","7","0","7","0","7","0","0","0","7","7","7","7","09/25/22 18:33:22","1500","The main experiment item","yes","FlankerTask.osexp","C:\Users\casme\OneDrive\Desktop\Fall 2022","no","mono","no","18","no","white","no","yes","768","legacy","7","7","C:/Users/casme/OneDrive/Desktop/Fall 2022/IC-subject-2.csv","legacy","Lentiform Loewenfeld","3.3.12","0","s","NA","s","NA","NA","s","431","NA","7456","NA","NA","431","2","legacy","1024","2","48000","-16","experiment","HHSHH","2","even","21222","10345","NA","NA","NA","2858","NA","NA","22293","2888","NA","NA","22397","22829","22291","22397","Flanker Task","8","4030","8","yes","1024"
"100","100","502.666666667","502.666666667","black","legacy","legacy","legacy","0","incongruent","uniform","1","undefined","1","h","8","0","0","0","8","0","8","0","8","0","0","0","8","8","8","8","09/25/22 18:33:22","1500","The main experiment item","yes","FlankerTask.osexp","C:\Users\casme\OneDrive\Desktop\Fall 2022","no","mono","no","18","no","white","no","yes","768","legacy","8","8","C:/Users/casme/OneDrive/Desktop/Fall 2022/IC-subject-2.csv","legacy","Lentiform Loewenfeld","3.3.12","0","h","NA","s","NA","NA","h","494","NA","7456","NA","NA","494","2","legacy","1024","2","48000","-16","experiment","SSHSS","2","even","22834","10345","NA","NA","NA","2858","NA","NA","23903","2888","NA","NA","24005","24499","23901","24004","Flanker Task","9","4524","9","yes","1024"
"100","100","492.6","492.6","black","legacy","legacy","legacy","0","congruent","uniform","1","undefined","1","h","9","0","0","0","9","0","9","0","9","0","0","0","9","9","9","9","09/25/22 18:33:22","1500","The main experiment item","yes","FlankerTask.osexp","C:\Users\casme\OneDrive\Desktop\Fall 2022","no","mono","no","18","no","white","no","yes","768","legacy","9","9","C:/Users/casme/OneDrive/Desktop/Fall 2022/IC-subject-2.csv","legacy","Lentiform Loewenfeld","3.3.12","0","h","NA","s","NA","NA","h","402","NA","7456","NA","NA","402","2","legacy","1024","2","48000","-16","experiment","HHHHH","2","even","24505","10345","NA","NA","NA","2858","NA","NA","25579","2888","NA","NA","25682","26084","25577","25681","Flanker Task","10","4926","10","yes","1024"
"100","100","483.090909091","483.090909091","black","legacy","legacy","legacy","0","incongruent","uniform","1","undefined","1","s","10","0","0","0","10","0","10","0","10","0","0","0","10","10","10","10","09/25/22 18:33:22","1500","The main experiment item","yes","FlankerTask.osexp","C:\Users\casme\OneDrive\Desktop\Fall 2022","no","mono","no","18","no","white","no","yes","768","legacy","10","10","C:/Users/casme/OneDrive/Desktop/Fall 2022/IC-subject-2.csv","legacy","Lentiform Loewenfeld","3.3.12","0","s","NA","s","NA","NA","s","388","NA","7456","NA","NA","388","2","legacy","1024","2","48000","-16","experiment","HHSHH","2","even","26089","10345","NA","NA","NA","2858","NA","NA","27158","2888","NA","NA","27259","27648","27156","27259","Flanker Task","11","5314","11","yes","1024"
"100","100","475.333333333","475.333333333","black","legacy","legacy","legacy","0","congruent","uniform","1","undefined","1","h","11","0","0","0","11","0","11","0","11","0","0","0","11","11","11","11","09/25/22 18:33:22","1500","The main experiment item","yes","FlankerTask.osexp","C:\Users\casme\OneDrive\Desktop\Fall 2022","no","mono","no","18","no","white","no","yes","768","legacy","11","11","C:/Users/casme/OneDrive/Desktop/Fall 2022/IC-subject-2.csv","legacy","Lentiform Loewenfeld","3.3.12","0","h","NA","s","NA","NA","h","390","NA","7456","NA","NA","390","2","legacy","1024","2","48000","-16","experiment","HHHHH","2","even","27652","10345","NA","NA","NA","2858","NA","NA","28724","2888","NA","NA","28826","29217","28722","28826","Flanker Task","12","5704","12","yes","1024"
"100","100","479.615384615","479.615384615","black","legacy","legacy","legacy","0","incongruent","uniform","1","undefined","1","s","12","0","0","0","12","0","12","0","12","0","0","0","12","12","12","12","09/25/22 18:33:22","1500","The main experiment item","yes","FlankerTask.osexp","C:\Users\casme\OneDrive\Desktop\Fall 2022","no","mono","no","18","no","white","no","yes","768","legacy","12","12","C:/Users/casme/OneDrive/Desktop/Fall 2022/IC-subject-2.csv","legacy","Lentiform Loewenfeld","3.3.12","0","s","NA","s","NA","NA","s","531","NA","7456","NA","NA","531","2","legacy","1024","2","48000","-16","experiment","HHSHH","2","even","29221","10345","NA","NA","NA","2858","NA","NA","30286","2888","NA","NA","30388","30920","30284","30388","Flanker Task","13","6235","13","yes","1024"
"100","100","481.928571429","481.928571429","black","legacy","legacy","legacy","0","incongruent","uniform","1","undefined","1","h","13","0","0","0","13","0","13","0","13","0","0","0","13","13","13","13","09/25/22 18:33:22","1500","The main experiment item","yes","FlankerTask.osexp","C:\Users\casme\OneDrive\Desktop\Fall 2022","no","mono","no","18","no","white","no","yes","768","legacy","13","13","C:/Users/casme/OneDrive/Desktop/Fall 2022/IC-subject-2.csv","legacy","Lentiform Loewenfeld","3.3.12","0","h","NA","s","NA","NA","h","512","NA","7456","NA","NA","512","2","legacy","1024","2","48000","-16","experiment","SSHSS","2","even","30925","10345","NA","NA","NA","2858","NA","NA","31990","2888","NA","NA","32092","32604","31985","32092","Flanker Task","14","6747","14","yes","1024"
"100","100","477.533333333","477.533333333","black","legacy","legacy","legacy","0","incongruent","uniform","1","undefined","1","h","14","0","0","0","14","0","14","0","14","0","0","0","14","14","14","14","09/25/22 18:33:22","1500","The main experiment item","yes","FlankerTask.osexp","C:\Users\casme\OneDrive\Desktop\Fall 2022","no","mono","no","18","no","white","no","yes","768","legacy","14","14","C:/Users/casme/OneDrive/Desktop/Fall 2022/IC-subject-2.csv","legacy","Lentiform Loewenfeld","3.3.12","0","h","NA","s","NA","NA","h","416","NA","7456","NA","NA","416","2","legacy","1024","2","48000","-16","experiment","SSHSS","2","even","32609","10345","NA","NA","NA","2858","NA","NA","33677","2888","NA","NA","33779","34196","33674","33778","Flanker Task","15","7163","15","yes","1024"
"100","100","477.9375","477.9375","black","legacy","legacy","legacy","0","incongruent","uniform","1","undefined","1","s","15","0","0","0","15","0","15","0","15","0","0","0","15","15","15","15","09/25/22 18:33:22","1500","The main experiment item","yes","FlankerTask.osexp","C:\Users\casme\OneDrive\Desktop\Fall 2022","no","mono","no","18","no","white","no","yes","768","legacy","15","15","C:/Users/casme/OneDrive/Desktop/Fall 2022/IC-subject-2.csv","legacy","Lentiform Loewenfeld","3.3.12","0","s","NA","s","NA","NA","s","484","NA","7456","NA","NA","484","2","legacy","1024","2","48000","-16","experiment","HHSHH","2","even","34201","10345","NA","NA","NA","2858","NA","NA","35264","2888","NA","NA","35368","35852","35262","35368","Flanker Task","16","7647","16","yes","1024"
"100","100","472.352941176","472.352941176","black","legacy","legacy","legacy","0","congruent","uniform","1","undefined","1","s","16","0","0","0","16","0","16","0","16","0","0","0","16","16","16","16","09/25/22 18:33:22","1500","The main experiment item","yes","FlankerTask.osexp","C:\Users\casme\OneDrive\Desktop\Fall 2022","no","mono","no","18","no","white","no","yes","768","legacy","16","16","C:/Users/casme/OneDrive/Desktop/Fall 2022/IC-subject-2.csv","legacy","Lentiform Loewenfeld","3.3.12","0","s","NA","s","NA","NA","s","383","NA","7456","NA","NA","383","2","legacy","1024","2","48000","-16","experiment","SSSSS","2","even","35857","10345","NA","NA","NA","2858","NA","NA","36919","2888","NA","NA","37021","37405","36917","37021","Flanker Task","17","8030","17","yes","1024"
"100","100","469.944444444","469.944444444","black","legacy","legacy","legacy","0","incongruent","uniform","1","undefined","1","h","17","0","0","0","17","0","17","0","17","0","0","0","17","17","17","17","09/25/22 18:33:22","1500","The main experiment item","yes","FlankerTask.osexp","C:\Users\casme\OneDrive\Desktop\Fall 2022","no","mono","no","18","no","white","no","yes","768","legacy","17","17","C:/Users/casme/OneDrive/Desktop/Fall 2022/IC-subject-2.csv","legacy","Lentiform Loewenfeld","3.3.12","0","h","NA","s","NA","NA","h","429","NA","7456","NA","NA","429","2","legacy","1024","2","48000","-16","experiment","SSHSS","2","even","37409","10345","NA","NA","NA","2858","NA","NA","38474","2888","NA","NA","38577","39007","38473","38577","Flanker Task","18","8459","18","yes","1024"
"100","100","469.684210526","469.684210526","black","legacy","legacy","legacy","0","congruent","uniform","1","undefined","1","s","18","0","0","0","18","0","18","0","18","0","0","0","18","18","18","18","09/25/22 18:33:22","1500","The main experiment item","yes","FlankerTask.osexp","C:\Users\casme\OneDrive\Desktop\Fall 2022","no","mono","no","18","no","white","no","yes","768","legacy","18","18","C:/Users/casme/OneDrive/Desktop/Fall 2022/IC-subject-2.csv","legacy","Lentiform Loewenfeld","3.3.12","0","s","NA","s","NA","NA","s","465","NA","7456","NA","NA","465","2","legacy","1024","2","48000","-16","experiment","SSSSS","2","even","39012","10345","NA","NA","NA","2858","NA","NA","40074","2888","NA","NA","40176","40641","40072","40176","Flanker Task","19","8924","19","yes","1024"
"100","100","471.95","471.95","black","legacy","legacy","legacy","0","congruent","uniform","1","undefined","1","s","19","0","0","0","19","0","19","0","19","0","0","0","19","19","19","19","09/25/22 18:33:22","1500","The main experiment item","yes","FlankerTask.osexp","C:\Users\casme\OneDrive\Desktop\Fall 2022","no","mono","no","18","no","white","no","yes","768","legacy","19","19","C:/Users/casme/OneDrive/Desktop/Fall 2022/IC-subject-2.csv","legacy","Lentiform Loewenfeld","3.3.12","0","s","NA","s","NA","NA","s","515","NA","7456","NA","NA","515","2","legacy","1024","2","48000","-16","experiment","SSSSS","2","even","40646","10345","NA","NA","NA","2858","NA","NA","41707","2888","NA","NA","41810","42326","41704","41810","Flanker Task","20","9439","20","yes","1024"
"100","100","468.619047619","468.619047619","black","legacy","legacy","legacy","0","congruent","uniform","1","undefined","1","s","20","0","0","0","20","0","20","0","20","0","0","0","20","20","20","20","09/25/22 18:33:22","1500","The main experiment item","yes","FlankerTask.osexp","C:\Users\casme\OneDrive\Desktop\Fall 2022","no","mono","no","18","no","white","no","yes","768","legacy","20","20","C:/Users/casme/OneDrive/Desktop/Fall 2022/IC-subject-2.csv","legacy","Lentiform Loewenfeld","3.3.12","0","s","NA","s","NA","NA","s","402","NA","7456","NA","NA","402","2","legacy","1024","2","48000","-16","experiment","SSSSS","2","even","42331","10345","NA","NA","NA","2858","NA","NA","43398","2888","NA","NA","43500","43902","43395","43499","Flanker Task","21","9841","21","yes","1024"
"100","100","467.590909091","467.590909091","black","legacy","legacy","legacy","0","congruent","uniform","1","undefined","1","h","21","0","0","0","21","0","21","0","21","0","0","0","21","21","21","21","09/25/22 18:33:22","1500","The main experiment item","yes","FlankerTask.osexp","C:\Users\casme\OneDrive\Desktop\Fall 2022","no","mono","no","18","no","white","no","yes","768","legacy","21","21","C:/Users/casme/OneDrive/Desktop/Fall 2022/IC-subject-2.csv","legacy","Lentiform Loewenfeld","3.3.12","0","h","NA","s","NA","NA","h","446","NA","7456","NA","NA","446","2","legacy","1024","2","48000","-16","experiment","HHHHH","2","even","43908","10345","NA","NA","NA","2858","NA","NA","44973","2888","NA","NA","45074","45521","44971","45074","Flanker Task","22","10287","22","yes","1024"
"95.652173913","95.652173913","460.260869565","460.260869565","black","legacy","legacy","legacy","0","incongruent","uniform","0","undefined","0","s","22","0","0","0","22","0","22","0","22","0","0","0","22","22","22","22","09/25/22 18:33:22","1500","The main experiment item","yes","FlankerTask.osexp","C:\Users\casme\OneDrive\Desktop\Fall 2022","no","mono","no","18","no","white","no","yes","768","legacy","22","22","C:/Users/casme/OneDrive/Desktop/Fall 2022/IC-subject-2.csv","legacy","Lentiform Loewenfeld","3.3.12","0","h","NA","s","NA","NA","h","299","NA","7456","NA","NA","299","2","legacy","1024","2","48000","-16","experiment","HHSHH","2","even","45525","10345","NA","NA","NA","2858","NA","NA","46602","2888","NA","NA","46703","47003","46599","46703","Flanker Task","22","10586","23","yes","1024"
"95.8333333333","95.8333333333","466.25","466.25","black","legacy","legacy","legacy","0","incongruent","uniform","1","undefined","1","h","23","0","0","0","23","0","23","0","23","0","0","0","23","23","23","23","09/25/22 18:33:22","1500","The main experiment item","yes","FlankerTask.osexp","C:\Users\casme\OneDrive\Desktop\Fall 2022","no","mono","no","18","no","white","no","yes","768","legacy","23","23","C:/Users/casme/OneDrive/Desktop/Fall 2022/IC-subject-2.csv","legacy","Lentiform Loewenfeld","3.3.12","0","h","NA","s","NA","NA","h","604","NA","7456","NA","NA","604","2","legacy","1024","2","48000","-16","experiment","SSHSS","2","even","47512","10345","NA","NA","47007","2858","NA","NA","48574","2888","NA","NA","48678","49283","48572","48678","Flanker Task","23","11190","24","yes","1024"
"96","96","462.2","462.2","black","legacy","legacy","legacy","0","congruent","uniform","1","undefined","1","s","24","0","0","0","24","0","24","0","24","0","0","0","24","24","24","24","09/25/22 18:33:22","1500","The main experiment item","yes","FlankerTask.osexp","C:\Users\casme\OneDrive\Desktop\Fall 2022","no","mono","no","18","no","white","no","yes","768","legacy","24","24","C:/Users/casme/OneDrive/Desktop/Fall 2022/IC-subject-2.csv","legacy","Lentiform Loewenfeld","3.3.12","0","s","NA","s","NA","NA","s","365","NA","7456","NA","NA","365","2","legacy","1024","2","48000","-16","experiment","SSSSS","2","even","49287","10345","NA","NA","47007","2858","NA","NA","50361","2888","NA","NA","50463","50828","50358","50462","Flanker Task","24","11555","25","yes","1024"
"92.3076923077","92.3076923077","459.307692308","459.307692308","black","legacy","legacy","legacy","0","incongruent","uniform","0","undefined","0","h","25","0","0","0","25","0","25","0","25","0","0","0","25","25","25","25","09/25/22 18:33:22","1500","The main experiment item","yes","FlankerTask.osexp","C:\Users\casme\OneDrive\Desktop\Fall 2022","no","mono","no","18","no","white","no","yes","768","legacy","25","25","C:/Users/casme/OneDrive/Desktop/Fall 2022/IC-subject-2.csv","legacy","Lentiform Loewenfeld","3.3.12","0","s","NA","s","NA","NA","s","387","NA","7456","NA","NA","387","2","legacy","1024","2","48000","-16","experiment","SSHSS","2","even","50833","10345","NA","NA","47007","2858","NA","NA","51893","2888","NA","NA","51995","52383","51890","51995","Flanker Task","24","11942","26","yes","1024"
"92.5925925926","92.5925925926","462.481481481","462.481481481","black","legacy","legacy","legacy","0","congruent","uniform","1","undefined","1","s","26","0","0","0","26","0","26","0","26","0","0","0","26","26","26","26","09/25/22 18:33:22","1500","The main experiment item","yes","FlankerTask.osexp","C:\Users\casme\OneDrive\Desktop\Fall 2022","no","mono","no","18","no","white","no","yes","768","legacy","26","26","C:/Users/casme/OneDrive/Desktop/Fall 2022/IC-subject-2.csv","legacy","Lentiform Loewenfeld","3.3.12","0","s","NA","s","NA","NA","s","545","NA","7456","NA","NA","545","2","legacy","1024","2","48000","-16","experiment","SSSSS","2","even","52888","10345","NA","NA","52387","2858","NA","NA","53960","2888","NA","NA","54061","54607","53958","54061","Flanker Task","25","12487","27","yes","1024"
"92.8571428571","92.8571428571","462","462","black","legacy","legacy","legacy","0","incongruent","uniform","1","undefined","1","h","27","0","0","0","27","0","27","0","27","0","0","0","27","27","27","27","09/25/22 18:33:22","1500","The main experiment item","yes","FlankerTask.osexp","C:\Users\casme\OneDrive\Desktop\Fall 2022","no","mono","no","18","no","white","no","yes","768","legacy","27","27","C:/Users/casme/OneDrive/Desktop/Fall 2022/IC-subject-2.csv","legacy","Lentiform Loewenfeld","3.3.12","0","h","NA","s","NA","NA","h","449","NA","7456","NA","NA","449","2","legacy","1024","2","48000","-16","experiment","SSHSS","2","even","54612","10345","NA","NA","52387","2858","NA","NA","55677","2888","NA","NA","55781","56231","55675","55781","Flanker Task","26","12936","28","yes","1024"
"93.1034482759","93.1034482759","460.896551724","460.896551724","black","legacy","legacy","legacy","0","congruent","uniform","1","undefined","1","s","28","0","0","0","28","0","28","0","28","0","0","0","28","28","28","28","09/25/22 18:33:22","1500","The main experiment item","yes","FlankerTask.osexp","C:\Users\casme\OneDrive\Desktop\Fall 2022","no","mono","no","18","no","white","no","yes","768","legacy","28","28","C:/Users/casme/OneDrive/Desktop/Fall 2022/IC-subject-2.csv","legacy","Lentiform Loewenfeld","3.3.12","0","s","NA","s","NA","NA","s","430","NA","7456","NA","NA","430","2","legacy","1024","2","48000","-16","experiment","SSSSS","2","even","56241","10345","NA","NA","52387","2858","NA","NA","57304","2888","NA","NA","57409","57840","57301","57409","Flanker Task","27","13366","29","yes","1024"
"93.3333333333","93.3333333333","458.966666667","458.966666667","black","legacy","legacy","legacy","0","congruent","uniform","1","undefined","1","h","29","0","0","0","29","0","29","0","29","0","0","0","29","29","29","29","09/25/22 18:33:22","1500","The main experiment item","yes","FlankerTask.osexp","C:\Users\casme\OneDrive\Desktop\Fall 2022","no","mono","no","18","no","white","no","yes","768","legacy","29","29","C:/Users/casme/OneDrive/Desktop/Fall 2022/IC-subject-2.csv","legacy","Lentiform Loewenfeld","3.3.12","0","h","NA","s","NA","NA","h","403","NA","7456","NA","NA","403","2","legacy","1024","2","48000","-16","experiment","HHHHH","2","even","57843","10345","NA","NA","52387","2858","NA","NA","58905","2888","NA","NA","59006","59409","58903","59006","Flanker Task","28","13769","30","yes","1024"
"93.5483870968","93.5483870968","457.322580645","457.322580645","black","legacy","legacy","legacy","0","congruent","uniform","1","undefined","1","h","30","0","0","0","30","0","30","0","30","0","0","0","30","30","30","30","09/25/22 18:33:22","1500","The main experiment item","yes","FlankerTask.osexp","C:\Users\casme\OneDrive\Desktop\Fall 2022","no","mono","no","18","no","white","no","yes","768","legacy","30","30","C:/Users/casme/OneDrive/Desktop/Fall 2022/IC-subject-2.csv","legacy","Lentiform Loewenfeld","3.3.12","0","h","NA","s","NA","NA","h","408","NA","7456","NA","NA","408","2","legacy","1024","2","48000","-16","experiment","HHHHH","2","even","59422","10345","NA","NA","52387","2858","NA","NA","60482","2888","NA","NA","60587","60996","60480","60586","Flanker Task","29","14177","31","yes","1024"
"93.75","93.75","458.59375","458.59375","black","legacy","legacy","legacy","0","incongruent","uniform","1","undefined","1","h","31","0","0","0","31","0","31","0","31","0","0","0","31","31","31","31","09/25/22 18:33:22","1500","The main experiment item","yes","FlankerTask.osexp","C:\Users\casme\OneDrive\Desktop\Fall 2022","no","mono","no","18","no","white","no","yes","768","legacy","31","31","C:/Users/casme/OneDrive/Desktop/Fall 2022/IC-subject-2.csv","legacy","Lentiform Loewenfeld","3.3.12","0","h","NA","s","NA","NA","h","498","NA","7456","NA","NA","498","2","legacy","1024","2","48000","-16","experiment","SSHSS","2","even","61010","10345","NA","NA","52387","2858","NA","NA","62082","2888","NA","NA","62185","62684","62079","62185","Flanker Task","30","14675","32","yes","1024"
"93.9393939394","93.9393939394","458.757575758","458.757575758","black","legacy","legacy","legacy","0","congruent","uniform","1","undefined","1","s","32","0","0","0","32","0","32","0","32","0","0","0","32","32","32","32","09/25/22 18:33:22","1500","The main experiment item","yes","FlankerTask.osexp","C:\Users\casme\OneDrive\Desktop\Fall 2022","no","mono","no","18","no","white","no","yes","768","legacy","32","32","C:/Users/casme/OneDrive/Desktop/Fall 2022/IC-subject-2.csv","legacy","Lentiform Loewenfeld","3.3.12","0","s","NA","s","NA","NA","s","464","NA","7456","NA","NA","464","2","legacy","1024","2","48000","-16","experiment","SSSSS","2","even","62691","10345","NA","NA","52387","2858","NA","NA","63761","2888","NA","NA","63863","64328","63758","63862","Flanker Task","31","15139","33","yes","1024"
"94.1176470588","94.1176470588","458.882352941","458.882352941","black","legacy","legacy","legacy","0","incongruent","uniform","1","undefined","1","h","33","0","0","0","33","0","33","0","33","0","0","0","33","33","33","33","09/25/22 18:33:22","1500","The main experiment item","yes","FlankerTask.osexp","C:\Users\casme\OneDrive\Desktop\Fall 2022","no","mono","no","18","no","white","no","yes","768","legacy","33","33","C:/Users/casme/OneDrive/Desktop/Fall 2022/IC-subject-2.csv","legacy","Lentiform Loewenfeld","3.3.12","0","h","NA","s","NA","NA","h","463","NA","7456","NA","NA","463","2","legacy","1024","2","48000","-16","experiment","SSHSS","2","even","64334","10345","NA","NA","52387","2858","NA","NA","65411","2888","NA","NA","65513","65977","65409","65513","Flanker Task","32","15602","34","yes","1024"
"94.2857142857","94.2857142857","456.857142857","456.857142857","black","legacy","legacy","legacy","0","congruent","uniform","1","undefined","1","h","34","0","0","0","34","0","34","0","34","0","0","0","34","34","34","34","09/25/22 18:33:22","1500","The main experiment item","yes","FlankerTask.osexp","C:\Users\casme\OneDrive\Desktop\Fall 2022","no","mono","no","18","no","white","no","yes","768","legacy","34","34","C:/Users/casme/OneDrive/Desktop/Fall 2022/IC-subject-2.csv","legacy","Lentiform Loewenfeld","3.3.12","0","h","NA","s","NA","NA","h","388","NA","7456","NA","NA","388","2","legacy","1024","2","48000","-16","experiment","HHHHH","2","even","65983","10345","NA","NA","52387","2858","NA","NA","67056","2888","NA","NA","67161","67550","67054","67160","Flanker Task","33","15990","35","yes","1024"
"94.4444444444","94.4444444444","460.777777778","460.777777778","black","legacy","legacy","legacy","0","congruent","uniform","1","undefined","1","s","35","0","0","0","35","0","35","0","35","0","0","0","35","35","35","35","09/25/22 18:33:22","1500","The main experiment item","yes","FlankerTask.osexp","C:\Users\casme\OneDrive\Desktop\Fall 2022","no","mono","no","18","no","white","no","yes","768","legacy","35","35","C:/Users/casme/OneDrive/Desktop/Fall 2022/IC-subject-2.csv","legacy","Lentiform Loewenfeld","3.3.12","0","s","NA","s","NA","NA","s","598","NA","7456","NA","NA","598","2","legacy","1024","2","48000","-16","experiment","SSSSS","2","even","67556","10345","NA","NA","52387","2858","NA","NA","68614","2888","NA","NA","68715","69313","68613","68715","Flanker Task","34","16588","36","yes","1024"
"94.5945945946","94.5945945946","461.108108108","461.108108108","black","legacy","legacy","legacy","0","incongruent","uniform","1","undefined","1","h","36","0","0","0","36","0","36","0","36","0","0","0","36","36","36","36","09/25/22 18:33:22","1500","The main experiment item","yes","FlankerTask.osexp","C:\Users\casme\OneDrive\Desktop\Fall 2022","no","mono","no","18","no","white","no","yes","768","legacy","36","36","C:/Users/casme/OneDrive/Desktop/Fall 2022/IC-subject-2.csv","legacy","Lentiform Loewenfeld","3.3.12","0","h","NA","s","NA","NA","h","473","NA","7456","NA","NA","473","2","legacy","1024","2","48000","-16","experiment","SSHSS","2","even","69320","10345","NA","NA","52387","2858","NA","NA","70380","2888","NA","NA","70483","70957","70379","70482","Flanker Task","35","17061","37","yes","1024"
"94.7368421053","94.7368421053","461.710526316","461.710526316","black","legacy","legacy","legacy","0","incongruent","uniform","1","undefined","1","s","37","0","0","0","37","0","37","0","37","0","0","0","37","37","37","37","09/25/22 18:33:22","1500","The main experiment item","yes","FlankerTask.osexp","C:\Users\casme\OneDrive\Desktop\Fall 2022","no","mono","no","18","no","white","no","yes","768","legacy","37","37","C:/Users/casme/OneDrive/Desktop/Fall 2022/IC-subject-2.csv","legacy","Lentiform Loewenfeld","3.3.12","0","s","NA","s","NA","NA","s","484","NA","7456","NA","NA","484","2","legacy","1024","2","48000","-16","experiment","HHSHH","2","even","70964","10345","NA","NA","52387","2858","NA","NA","72043","2888","NA","NA","72146","72631","72039","72146","Flanker Task","36","17545","38","yes","1024"
"94.8717948718","94.8717948718","464.282051282","464.282051282","black","legacy","legacy","legacy","0","congruent","uniform","1","undefined","1","h","38","0","0","0","38","0","38","0","38","0","0","0","38","38","38","38","09/25/22 18:33:22","1500","The main experiment item","yes","FlankerTask.osexp","C:\Users\casme\OneDrive\Desktop\Fall 2022","no","mono","no","18","no","white","no","yes","768","legacy","38","38","C:/Users/casme/OneDrive/Desktop/Fall 2022/IC-subject-2.csv","legacy","Lentiform Loewenfeld","3.3.12","0","h","NA","s","NA","NA","h","562","NA","7456","NA","NA","562","2","legacy","1024","2","48000","-16","experiment","HHHHH","2","even","72638","10345","NA","NA","52387","2858","NA","NA","73710","2888","NA","NA","73812","74375","73708","73812","Flanker Task","37","18107","39","yes","1024"
"95","95","463.65","463.65","black","legacy","legacy","legacy","0","congruent","uniform","1","undefined","1","s","39","0","0","0","39","0","39","0","39","0","0","0","39","39","39","39","09/25/22 18:33:22","1500","The main experiment item","yes","FlankerTask.osexp","C:\Users\casme\OneDrive\Desktop\Fall 2022","no","mono","no","18","no","white","no","yes","768","legacy","39","39","C:/Users/casme/OneDrive/Desktop/Fall 2022/IC-subject-2.csv","legacy","Lentiform Loewenfeld","3.3.12","0","s","NA","s","NA","NA","s","439","NA","7456","NA","NA","439","2","legacy","1024","2","48000","-16","experiment","SSSSS","2","even","74382","10345","NA","NA","52387","2858","NA","NA","75451","2888","NA","NA","75553","75993","75449","75553","Flanker Task","38","18546","40","yes","1024"
"95.1219512195","95.1219512195","463.170731707","463.170731707","black","legacy","legacy","legacy","0","incongruent","uniform","1","undefined","1","h","40","0","0","0","40","0","40","0","40","0","0","0","40","40","40","40","09/25/22 18:33:22","1500","The main experiment item","yes","FlankerTask.osexp","C:\Users\casme\OneDrive\Desktop\Fall 2022","no","mono","no","18","no","white","no","yes","768","legacy","40","40","C:/Users/casme/OneDrive/Desktop/Fall 2022/IC-subject-2.csv","legacy","Lentiform Loewenfeld","3.3.12","0","h","NA","s","NA","NA","h","444","NA","7456","NA","NA","444","2","legacy","1024","2","48000","-16","experiment","SSHSS","2","even","75999","10345","NA","NA","52387","2858","NA","NA","77074","2888","NA","NA","77177","77622","77072","77177","Flanker Task","39","18990","41","yes","1024"
"92.8571428571","92.8571428571","459.452380952","459.452380952","black","legacy","legacy","legacy","0","incongruent","uniform","0","undefined","0","s","41","0","0","0","41","0","41","0","41","0","0","0","41","41","41","41","09/25/22 18:33:22","1500","The main experiment item","yes","FlankerTask.osexp","C:\Users\casme\OneDrive\Desktop\Fall 2022","no","mono","no","18","no","white","no","yes","768","legacy","41","41","C:/Users/casme/OneDrive/Desktop/Fall 2022/IC-subject-2.csv","legacy","Lentiform Loewenfeld","3.3.12","0","h","NA","s","NA","NA","h","307","NA","7456","NA","NA","307","2","legacy","1024","2","48000","-16","experiment","HHSHH","2","even","77628","10345","NA","NA","52387","2858","NA","NA","78705","2888","NA","NA","78807","79115","78702","78806","Flanker Task","39","19297","42","yes","1024"
"93.023255814","93.023255814","465.23255814","465.23255814","black","legacy","legacy","legacy","0","incongruent","uniform","1","undefined","1","s","42","0","0","0","42","0","42","0","42","0","0","0","42","42","42","42","09/25/22 18:33:22","1500","The main experiment item","yes","FlankerTask.osexp","C:\Users\casme\OneDrive\Desktop\Fall 2022","no","mono","no","18","no","white","no","yes","768","legacy","42","42","C:/Users/casme/OneDrive/Desktop/Fall 2022/IC-subject-2.csv","legacy","Lentiform Loewenfeld","3.3.12","0","s","NA","s","NA","NA","s","708","NA","7456","NA","NA","708","2","legacy","1024","2","48000","-16","experiment","HHSHH","2","even","79623","10345","NA","NA","79121","2858","NA","NA","80688","2888","NA","NA","80789","81498","80685","80789","Flanker Task","40","20005","43","yes","1024"
"93.1818181818","93.1818181818","463.454545455","463.454545455","black","legacy","legacy","legacy","0","congruent","uniform","1","undefined","1","h","43","0","0","0","43","0","43","0","43","0","0","0","43","43","43","43","09/25/22 18:33:22","1500","The main experiment item","yes","FlankerTask.osexp","C:\Users\casme\OneDrive\Desktop\Fall 2022","no","mono","no","18","no","white","no","yes","768","legacy","43","43","C:/Users/casme/OneDrive/Desktop/Fall 2022/IC-subject-2.csv","legacy","Lentiform Loewenfeld","3.3.12","0","h","NA","s","NA","NA","h","387","NA","7456","NA","NA","387","2","legacy","1024","2","48000","-16","experiment","HHHHH","2","even","81504","10345","NA","NA","79121","2858","NA","NA","82564","2888","NA","NA","82666","83054","82562","82666","Flanker Task","41","20392","44","yes","1024"
"93.3333333333","93.3333333333","461.177777778","461.177777778","black","legacy","legacy","legacy","0","congruent","uniform","1","undefined","1","h","44","0","0","0","44","0","44","0","44","0","0","0","44","44","44","44","09/25/22 18:33:22","1500","The main experiment item","yes","FlankerTask.osexp","C:\Users\casme\OneDrive\Desktop\Fall 2022","no","mono","no","18","no","white","no","yes","768","legacy","44","44","C:/Users/casme/OneDrive/Desktop/Fall 2022/IC-subject-2.csv","legacy","Lentiform Loewenfeld","3.3.12","0","h","NA","s","NA","NA","h","361","NA","7456","NA","NA","361","2","legacy","1024","2","48000","-16","experiment","HHHHH","2","even","83059","10345","NA","NA","79121","2858","NA","NA","84127","2888","NA","NA","84228","84591","84125","84228","Flanker Task","42","20753","45","yes","1024"
"93.4782608696","93.4782608696","460.217391304","460.217391304","black","legacy","legacy","legacy","0","congruent","uniform","1","undefined","1","h","45","0","0","0","45","0","45","0","45","0","0","0","45","45","45","45","09/25/22 18:33:22","1500","The main experiment item","yes","FlankerTask.osexp","C:\Users\casme\OneDrive\Desktop\Fall 2022","no","mono","no","18","no","white","no","yes","768","legacy","45","45","C:/Users/casme/OneDrive/Desktop/Fall 2022/IC-subject-2.csv","legacy","Lentiform Loewenfeld","3.3.12","0","h","NA","s","NA","NA","h","417","NA","7456","NA","NA","417","2","legacy","1024","2","48000","-16","experiment","HHHHH","2","even","84598","10345","NA","NA","79121","2858","NA","NA","85663","2888","NA","NA","85766","86184","85660","85766","Flanker Task","43","21170","46","yes","1024"
"91.4893617021","91.4893617021","459.085106383","459.085106383","black","legacy","legacy","legacy","0","incongruent","uniform","0","undefined","0","s","46","0","0","0","46","0","46","0","46","0","0","0","46","46","46","46","09/25/22 18:33:22","1500","The main experiment item","yes","FlankerTask.osexp","C:\Users\casme\OneDrive\Desktop\Fall 2022","no","mono","no","18","no","white","no","yes","768","legacy","46","46","C:/Users/casme/OneDrive/Desktop/Fall 2022/IC-subject-2.csv","legacy","Lentiform Loewenfeld","3.3.12","0","h","NA","s","NA","NA","h","407","NA","7456","NA","NA","407","2","legacy","1024","2","48000","-16","experiment","HHSHH","2","even","86190","10345","NA","NA","79121","2858","NA","NA","87253","2888","NA","NA","87355","87763","87251","87355","Flanker Task","43","21577","47","yes","1024"
"91.6666666667","91.6666666667","461.166666667","461.166666667","black","legacy","legacy","legacy","0","incongruent","uniform","1","undefined","1","h","47","0","0","0","47","0","47","0","47","0","0","0","47","47","47","47","09/25/22 18:33:22","1500","The main experiment item","yes","FlankerTask.osexp","C:\Users\casme\OneDrive\Desktop\Fall 2022","no","mono","no","18","no","white","no","yes","768","legacy","47","47","C:/Users/casme/OneDrive/Desktop/Fall 2022/IC-subject-2.csv","legacy","Lentiform Loewenfeld","3.3.12","0","h","NA","s","NA","NA","h","559","NA","7456","NA","NA","559","2","legacy","1024","2","48000","-16","experiment","SSHSS","2","even","88274","10345","NA","NA","87769","2858","NA","NA","89344","2888","NA","NA","89446","90006","89342","89445","Flanker Task","44","22136","48","yes","1024"
"91.8367346939","91.8367346939","459.530612245","459.530612245","black","legacy","legacy","legacy","0","incongruent","uniform","1","undefined","1","s","48","0","0","0","48","0","48","0","48","0","0","0","48","48","48","48","09/25/22 18:33:22","1500","The main experiment item","yes","FlankerTask.osexp","C:\Users\casme\OneDrive\Desktop\Fall 2022","no","mono","no","18","no","white","no","yes","768","legacy","48","48","C:/Users/casme/OneDrive/Desktop/Fall 2022/IC-subject-2.csv","legacy","Lentiform Loewenfeld","3.3.12","0","s","NA","s","NA","NA","s","381","NA","7456","NA","NA","381","2","legacy","1024","2","48000","-16","experiment","HHSHH","2","even","90013","10345","NA","NA","87769","2858","NA","NA","91084","2888","NA","NA","91186","91568","91082","91186","Flanker Task","45","22517","49","yes","1024"
"92","92","460.76","460.76","black","legacy","legacy","legacy","0","incongruent","uniform","1","undefined","1","h","49","0","0","0","49","0","49","0","49","0","0","0","49","49","49","49","09/25/22 18:33:22","1500","The main experiment item","yes","FlankerTask.osexp","C:\Users\casme\OneDrive\Desktop\Fall 2022","no","mono","no","18","no","white","no","yes","768","legacy","49","49","C:/Users/casme/OneDrive/Desktop/Fall 2022/IC-subject-2.csv","legacy","Lentiform Loewenfeld","3.3.12","0","h","NA","s","NA","NA","h","521","NA","7456","NA","NA","521","2","legacy","1024","2","48000","-16","experiment","SSHSS","2","even","91574","10345","NA","NA","87769","2858","NA","NA","92634","2888","NA","NA","92739","93261","92632","92738","Flanker Task","46","23038","50","yes","1024"
"92.1568627451","92.1568627451","459.352941176","459.352941176","black","legacy","legacy","legacy","0","incongruent","uniform","1","undefined","1","s","50","0","0","0","50","0","50","0","50","0","0","0","50","50","50","50","09/25/22 18:33:22","1500","The main experiment item","yes","FlankerTask.osexp","C:\Users\casme\OneDrive\Desktop\Fall 2022","no","mono","no","18","no","white","no","yes","768","legacy","50","50","C:/Users/casme/OneDrive/Desktop/Fall 2022/IC-subject-2.csv","legacy","Lentiform Loewenfeld","3.3.12","0","s","NA","s","NA","NA","s","389","NA","7456","NA","NA","389","2","legacy","1024","2","48000","-16","experiment","HHSHH","2","even","93268","10345","NA","NA","87769","2858","NA","NA","94338","2888","NA","NA","94441","94831","94336","94440","Flanker Task","47","23427","51","yes","1024"
"92.3076923077","92.3076923077","460.826923077","460.826923077","black","legacy","legacy","legacy","0","congruent","uniform","1","undefined","1","h","51","0","0","0","51","0","51","0","51","0","0","0","51","51","51","51","09/25/22 18:33:22","1500","The main experiment item","yes","FlankerTask.osexp","C:\Users\casme\OneDrive\Desktop\Fall 2022","no","mono","no","18","no","white","no","yes","768","legacy","51","51","C:/Users/casme/OneDrive/Desktop/Fall 2022/IC-subject-2.csv","legacy","Lentiform Loewenfeld","3.3.12","0","h","NA","s","NA","NA","h","536","NA","7456","NA","NA","536","2","legacy","1024","2","48000","-16","experiment","HHHHH","2","even","94838","10345","NA","NA","87769","2858","NA","NA","95907","2888","NA","NA","96008","96544","95905","96008","Flanker Task","48","23963","52","yes","1024"
"92.4528301887","92.4528301887","460.396226415","460.396226415","black","legacy","legacy","legacy","0","congruent","uniform","1","undefined","1","s","52","0","0","0","52","0","52","0","52","0","0","0","52","52","52","52","09/25/22 18:33:22","1500","The main experiment item","yes","FlankerTask.osexp","C:\Users\casme\OneDrive\Desktop\Fall 2022","no","mono","no","18","no","white","no","yes","768","legacy","52","52","C:/Users/casme/OneDrive/Desktop/Fall 2022/IC-subject-2.csv","legacy","Lentiform Loewenfeld","3.3.12","0","s","NA","s","NA","NA","s","438","NA","7456","NA","NA","438","2","legacy","1024","2","48000","-16","experiment","SSSSS","2","even","96551","10345","NA","NA","87769","2858","NA","NA","97620","2888","NA","NA","97723","98162","97618","97723","Flanker Task","49","24401","53","yes","1024"
"92.5925925926","92.5925925926","465.981481481","465.981481481","black","legacy","legacy","legacy","0","incongruent","uniform","1","undefined","1","s","53","0","0","0","53","0","53","0","53","0","0","0","53","53","53","53","09/25/22 18:33:22","1500","The main experiment item","yes","FlankerTask.osexp","C:\Users\casme\OneDrive\Desktop\Fall 2022","no","mono","no","18","no","white","no","yes","768","legacy","53","53","C:/Users/casme/OneDrive/Desktop/Fall 2022/IC-subject-2.csv","legacy","Lentiform Loewenfeld","3.3.12","0","s","NA","s","NA","NA","s","762","NA","7456","NA","NA","762","2","legacy","1024","2","48000","-16","experiment","HHSHH","2","even","98168","10345","NA","NA","87769","2858","NA","NA","99231","2888","NA","NA","99333","100096","99229","99333","Flanker Task","50","25163","54","yes","1024"
"92.7272727273","92.7272727273","464.2","464.2","black","legacy","legacy","legacy","0","congruent","uniform","1","undefined","1","s","54","0","0","0","54","0","54","0","54","0","0","0","54","54","54","54","09/25/22 18:33:22","1500","The main experiment item","yes","FlankerTask.osexp","C:\Users\casme\OneDrive\Desktop\Fall 2022","no","mono","no","18","no","white","no","yes","768","legacy","54","54","C:/Users/casme/OneDrive/Desktop/Fall 2022/IC-subject-2.csv","legacy","Lentiform Loewenfeld","3.3.12","0","s","NA","s","NA","NA","s","368","NA","7456","NA","NA","368","2","legacy","1024","2","48000","-16","experiment","SSSSS","2","even","100103","10345","NA","NA","87769","2858","NA","NA","101178","2888","NA","NA","101280","101649","101175","101280","Flanker Task","51","25531","55","yes","1024"
"92.8571428571","92.8571428571","465.267857143","465.267857143","black","legacy","legacy","legacy","0","incongruent","uniform","1","undefined","1","h","55","0","0","0","55","0","55","0","55","0","0","0","55","55","55","55","09/25/22 18:33:22","1500","The main experiment item","yes","FlankerTask.osexp","C:\Users\casme\OneDrive\Desktop\Fall 2022","no","mono","no","18","no","white","no","yes","768","legacy","55","55","C:/Users/casme/OneDrive/Desktop/Fall 2022/IC-subject-2.csv","legacy","Lentiform Loewenfeld","3.3.12","0","h","NA","s","NA","NA","h","524","NA","7456","NA","NA","524","2","legacy","1024","2","48000","-16","experiment","SSHSS","2","even","101655","10345","NA","NA","87769","2858","NA","NA","102718","2888","NA","NA","102820","103345","102716","102819","Flanker Task","52","26055","56","yes","1024"
"92.9824561404","92.9824561404","464.456140351","464.456140351","black","legacy","legacy","legacy","0","incongruent","uniform","1","undefined","1","s","56","0","0","0","56","0","56","0","56","0","0","0","56","56","56","56","09/25/22 18:33:22","1500","The main experiment item","yes","FlankerTask.osexp","C:\Users\casme\OneDrive\Desktop\Fall 2022","no","mono","no","18","no","white","no","yes","768","legacy","56","56","C:/Users/casme/OneDrive/Desktop/Fall 2022/IC-subject-2.csv","legacy","Lentiform Loewenfeld","3.3.12","0","s","NA","s","NA","NA","s","419","NA","7456","NA","NA","419","2","legacy","1024","2","48000","-16","experiment","HHSHH","2","even","103351","10345","NA","NA","87769","2858","NA","NA","104418","2888","NA","NA","104521","104941","104414","104521","Flanker Task","53","26474","57","yes","1024"
"93.1034482759","93.1034482759","464.344827586","464.344827586","black","legacy","legacy","legacy","0","congruent","uniform","1","undefined","1","h","57","0","0","0","57","0","57","0","57","0","0","0","57","57","57","57","09/25/22 18:33:22","1500","The main experiment item","yes","FlankerTask.osexp","C:\Users\casme\OneDrive\Desktop\Fall 2022","no","mono","no","18","no","white","no","yes","768","legacy","57","57","C:/Users/casme/OneDrive/Desktop/Fall 2022/IC-subject-2.csv","legacy","Lentiform Loewenfeld","3.3.12","0","h","NA","s","NA","NA","h","458","NA","7456","NA","NA","458","2","legacy","1024","2","48000","-16","experiment","HHHHH","2","even","104948","10345","NA","NA","87769","2858","NA","NA","106018","2888","NA","NA","106120","106579","106016","106119","Flanker Task","54","26932","58","yes","1024"
"93.2203389831","93.2203389831","463.033898305","463.033898305","black","legacy","legacy","legacy","0","congruent","uniform","1","undefined","1","h","58","0","0","0","58","0","58","0","58","0","0","0","58","58","58","58","09/25/22 18:33:22","1500","The main experiment item","yes","FlankerTask.osexp","C:\Users\casme\OneDrive\Desktop\Fall 2022","no","mono","no","18","no","white","no","yes","768","legacy","58","58","C:/Users/casme/OneDrive/Desktop/Fall 2022/IC-subject-2.csv","legacy","Lentiform Loewenfeld","3.3.12","0","h","NA","s","NA","NA","h","387","NA","7456","NA","NA","387","2","legacy","1024","2","48000","-16","experiment","HHHHH","2","even","106585","10345","NA","NA","87769","2858","NA","NA","107642","2888","NA","NA","107747","108135","107638","107746","Flanker Task","55","27319","59","yes","1024"
"93.3333333333","93.3333333333","462.8","462.8","black","legacy","legacy","legacy","0","congruent","uniform","1","undefined","1","s","59","0","0","0","59","0","59","0","59","0","0","0","59","59","59","59","09/25/22 18:33:22","1500","The main experiment item","yes","FlankerTask.osexp","C:\Users\casme\OneDrive\Desktop\Fall 2022","no","mono","no","18","no","white","no","yes","768","legacy","59","59","C:/Users/casme/OneDrive/Desktop/Fall 2022/IC-subject-2.csv","legacy","Lentiform Loewenfeld","3.3.12","0","s","NA","s","NA","NA","s","449","NA","7456","NA","NA","449","2","legacy","1024","2","48000","-16","experiment","SSSSS","2","even","108141","10345","NA","NA","87769","2858","NA","NA","109214","2888","NA","NA","109316","109765","109212","109316","Flanker Task","56","27768","60","yes","1024"
"93.4426229508","93.4426229508","461.639344262","461.639344262","black","legacy","legacy","legacy","0","congruent","uniform","1","undefined","1","s","60","0","0","0","60","0","60","0","60","0","0","0","60","60","60","60","09/25/22 18:33:22","1500","The main experiment item","yes","FlankerTask.osexp","C:\Users\casme\OneDrive\Desktop\Fall 2022","no","mono","no","18","no","white","no","yes","768","legacy","60","60","C:/Users/casme/OneDrive/Desktop/Fall 2022/IC-subject-2.csv","legacy","Lentiform Loewenfeld","3.3.12","0","s","NA","s","NA","NA","s","392","NA","7456","NA","NA","392","2","legacy","1024","2","48000","-16","experiment","SSSSS","2","even","109772","10345","NA","NA","87769","2858","NA","NA","110842","2888","NA","NA","110945","111338","110839","110945","Flanker Task","57","28160","61","yes","1024"
"93.5483870968","93.5483870968","461.532258065","461.532258065","black","legacy","legacy","legacy","0","congruent","uniform","1","undefined","1","h","61","0","0","0","61","0","61","0","61","0","0","0","61","61","61","61","09/25/22 18:33:22","1500","The main experiment item","yes","FlankerTask.osexp","C:\Users\casme\OneDrive\Desktop\Fall 2022","no","mono","no","18","no","white","no","yes","768","legacy","61","61","C:/Users/casme/OneDrive/Desktop/Fall 2022/IC-subject-2.csv","legacy","Lentiform Loewenfeld","3.3.12","0","h","NA","s","NA","NA","h","455","NA","7456","NA","NA","455","2","legacy","1024","2","48000","-16","experiment","HHHHH","2","even","111344","10345","NA","NA","87769","2858","NA","NA","112419","2888","NA","NA","112522","112978","112416","112522","Flanker Task","58","28615","62","yes","1024"
"93.6507936508","93.6507936508","459.857142857","459.857142857","black","legacy","legacy","legacy","0","congruent","uniform","1","undefined","1","s","62","0","0","0","62","0","62","0","62","0","0","0","62","62","62","62","09/25/22 18:33:22","1500","The main experiment item","yes","FlankerTask.osexp","C:\Users\casme\OneDrive\Desktop\Fall 2022","no","mono","no","18","no","white","no","yes","768","legacy","62","62","C:/Users/casme/OneDrive/Desktop/Fall 2022/IC-subject-2.csv","legacy","Lentiform Loewenfeld","3.3.12","0","s","NA","s","NA","NA","s","356","NA","7456","NA","NA","356","2","legacy","1024","2","48000","-16","experiment","SSSSS","2","even","112984","10345","NA","NA","87769","2858","NA","NA","114048","2888","NA","NA","114149","114506","114045","114149","Flanker Task","59","28971","63","yes","1024"
"92.1875","92.1875","461.4375","461.4375","black","legacy","legacy","legacy","0","incongruent","uniform","0","undefined","0","s","63","0","0","0","63","0","63","0","63","0","0","0","63","63","63","63","09/25/22 18:33:22","1500","The main experiment item","yes","FlankerTask.osexp","C:\Users\casme\OneDrive\Desktop\Fall 2022","no","mono","no","18","no","white","no","yes","768","legacy","63","63","C:/Users/casme/OneDrive/Desktop/Fall 2022/IC-subject-2.csv","legacy","Lentiform Loewenfeld","3.3.12","0","h","NA","s","NA","NA","h","561","NA","7456","NA","NA","561","2","legacy","1024","2","48000","-16","experiment","HHSHH","2","even","114514","10345","NA","NA","87769","2858","NA","NA","115571","2888","NA","NA","115673","116235","115569","115673","Flanker Task","59","29532","64","yes","1024"
"92.3076923077","92.3076923077","460.846153846","460.846153846","black","legacy","legacy","legacy","0","congruent","uniform","1","undefined","1","s","64","0","0","0","64","0","64","0","64","0","0","0","64","64","64","64","09/25/22 18:33:22","1500","The main experiment item","yes","FlankerTask.osexp","C:\Users\casme\OneDrive\Desktop\Fall 2022","no","mono","no","18","no","white","no","yes","768","legacy","64","64","C:/Users/casme/OneDrive/Desktop/Fall 2022/IC-subject-2.csv","legacy","Lentiform Loewenfeld","3.3.12","0","s","NA","s","NA","NA","s","423","NA","7456","NA","NA","423","2","legacy","1024","2","48000","-16","experiment","SSSSS","2","even","116745","10345","NA","NA","116241","2858","NA","NA","117808","2888","NA","NA","117909","118333","117806","117909","Flanker Task","60","29955","65","yes","1024"
"92.4242424242","92.4242424242","464.121212121","464.121212121","black","legacy","legacy","legacy","0","incongruent","uniform","1","undefined","1","h","65","0","0","0","65","0","65","0","65","0","0","0","65","65","65","65","09/25/22 18:33:22","1500","The main experiment item","yes","FlankerTask.osexp","C:\Users\casme\OneDrive\Desktop\Fall 2022","no","mono","no","18","no","white","no","yes","768","legacy","65","65","C:/Users/casme/OneDrive/Desktop/Fall 2022/IC-subject-2.csv","legacy","Lentiform Loewenfeld","3.3.12","0","h","NA","s","NA","NA","h","677","NA","7456","NA","NA","677","2","legacy","1024","2","48000","-16","experiment","SSHSS","2","even","118339","10345","NA","NA","116241","2858","NA","NA","119396","2888","NA","NA","119499","120177","119394","119499","Flanker Task","61","30632","66","yes","1024"
"91.0447761194","91.0447761194","463.492537313","463.492537313","black","legacy","legacy","legacy","0","congruent","uniform","0","undefined","0","h","66","0","0","0","66","0","66","0","66","0","0","0","66","66","66","66","09/25/22 18:33:22","1500","The main experiment item","yes","FlankerTask.osexp","C:\Users\casme\OneDrive\Desktop\Fall 2022","no","mono","no","18","no","white","no","yes","768","legacy","66","66","C:/Users/casme/OneDrive/Desktop/Fall 2022/IC-subject-2.csv","legacy","Lentiform Loewenfeld","3.3.12","0","s","NA","s","NA","NA","s","422","NA","7456","NA","NA","422","2","legacy","1024","2","48000","-16","experiment","HHHHH","2","even","120183","10345","NA","NA","116241","2858","NA","NA","121254","2888","NA","NA","121357","121780","121252","121357","Flanker Task","61","31054","67","yes","1024"
"91.1764705882","91.1764705882","470.264705882","470.264705882","black","legacy","legacy","legacy","0","congruent","uniform","1","undefined","1","s","67","0","0","0","67","0","67","0","67","0","0","0","67","67","67","67","09/25/22 18:33:22","1500","The main experiment item","yes","FlankerTask.osexp","C:\Users\casme\OneDrive\Desktop\Fall 2022","no","mono","no","18","no","white","no","yes","768","legacy","67","67","C:/Users/casme/OneDrive/Desktop/Fall 2022/IC-subject-2.csv","legacy","Lentiform Loewenfeld","3.3.12","0","s","NA","s","NA","NA","s","924","NA","7456","NA","NA","924","2","legacy","1024","2","48000","-16","experiment","SSSSS","2","even","122289","10345","NA","NA","121786","2858","NA","NA","123357","2888","NA","NA","123459","124384","123354","123459","Flanker Task","62","31978","68","yes","1024"
"89.8550724638","89.8550724638","469.028985507","469.028985507","black","legacy","legacy","legacy","0","incongruent","uniform","0","undefined","0","s","68","0","0","0","68","0","68","0","68","0","0","0","68","68","68","68","09/25/22 18:33:22","1500","The main experiment item","yes","FlankerTask.osexp","C:\Users\casme\OneDrive\Desktop\Fall 2022","no","mono","no","18","no","white","no","yes","768","legacy","68","68","C:/Users/casme/OneDrive/Desktop/Fall 2022/IC-subject-2.csv","legacy","Lentiform Loewenfeld","3.3.12","0","h","NA","s","NA","NA","h","385","NA","7456","NA","NA","385","2","legacy","1024","2","48000","-16","experiment","HHSHH","2","even","124390","10345","NA","NA","121786","2858","NA","NA","125461","2888","NA","NA","125564","125950","125459","125564","Flanker Task","62","32363","69","yes","1024"
"90","90","471.385714286","471.385714286","black","legacy","legacy","legacy","0","incongruent","uniform","1","undefined","1","s","69","0","0","0","69","0","69","0","69","0","0","0","69","69","69","69","09/25/22 18:33:22","1500","The main experiment item","yes","FlankerTask.osexp","C:\Users\casme\OneDrive\Desktop\Fall 2022","no","mono","no","18","no","white","no","yes","768","legacy","69","69","C:/Users/casme/OneDrive/Desktop/Fall 2022/IC-subject-2.csv","legacy","Lentiform Loewenfeld","3.3.12","0","s","NA","s","NA","NA","s","634","NA","7456","NA","NA","634","2","legacy","1024","2","48000","-16","experiment","HHSHH","2","even","126461","10345","NA","NA","125956","2858","NA","NA","127530","2888","NA","NA","127631","128266","127528","127631","Flanker Task","63","32997","70","yes","1024"
"90.1408450704","90.1408450704","470.126760563","470.126760563","black","legacy","legacy","legacy","0","congruent","uniform","1","undefined","1","s","70","0","0","0","70","0","70","0","70","0","0","0","70","70","70","70","09/25/22 18:33:22","1500","The main experiment item","yes","FlankerTask.osexp","C:\Users\casme\OneDrive\Desktop\Fall 2022","no","mono","no","18","no","white","no","yes","768","legacy","70","70","C:/Users/casme/OneDrive/Desktop/Fall 2022/IC-subject-2.csv","legacy","Lentiform Loewenfeld","3.3.12","0","s","NA","s","NA","NA","s","382","NA","7456","NA","NA","382","2","legacy","1024","2","48000","-16","experiment","SSSSS","2","even","128273","10345","NA","NA","125956","2858","NA","NA","129335","2888","NA","NA","129439","129824","129333","129439","Flanker Task","64","33379","71","yes","1024"
"90.2777777778","90.2777777778","473.611111111","473.611111111","black","legacy","legacy","legacy","0","incongruent","uniform","1","undefined","1","h","71","0","0","0","71","0","71","0","71","0","0","0","71","71","71","71","09/25/22 18:33:22","1500","The main experiment item","yes","FlankerTask.osexp","C:\Users\casme\OneDrive\Desktop\Fall 2022","no","mono","no","18","no","white","no","yes","768","legacy","71","71","C:/Users/casme/OneDrive/Desktop/Fall 2022/IC-subject-2.csv","legacy","Lentiform Loewenfeld","3.3.12","0","h","NA","s","NA","NA","h","721","NA","7456","NA","NA","721","2","legacy","1024","2","48000","-16","experiment","SSHSS","2","even","129831","10345","NA","NA","125956","2858","NA","NA","130919","2888","NA","NA","131021","131744","130915","131021","Flanker Task","65","34100","72","yes","1024"
"90.4109589041","90.4109589041","472.821917808","472.821917808","black","legacy","legacy","legacy","0","congruent","uniform","1","undefined","1","h","72","0","0","0","72","0","72","0","72","0","0","0","72","72","72","72","09/25/22 18:33:22","1500","The main experiment item","yes","FlankerTask.osexp","C:\Users\casme\OneDrive\Desktop\Fall 2022","no","mono","no","18","no","white","no","yes","768","legacy","72","72","C:/Users/casme/OneDrive/Desktop/Fall 2022/IC-subject-2.csv","legacy","Lentiform Loewenfeld","3.3.12","0","h","NA","s","NA","NA","h","416","NA","7456","NA","NA","416","2","legacy","1024","2","48000","-16","experiment","HHHHH","2","even","131751","10345","NA","NA","125956","2858","NA","NA","132827","2888","NA","NA","132930","133348","132825","132929","Flanker Task","66","34516","73","yes","1024"
"90.5405405405","90.5405405405","474.310810811","474.310810811","black","legacy","legacy","legacy","0","congruent","uniform","1","undefined","1","s","73","0","0","0","73","0","73","0","73","0","0","0","73","73","73","73","09/25/22 18:33:22","1500","The main experiment item","yes","FlankerTask.osexp","C:\Users\casme\OneDrive\Desktop\Fall 2022","no","mono","no","18","no","white","no","yes","768","legacy","73","73","C:/Users/casme/OneDrive/Desktop/Fall 2022/IC-subject-2.csv","legacy","Lentiform Loewenfeld","3.3.12","0","s","NA","s","NA","NA","s","583","NA","7456","NA","NA","583","2","legacy","1024","2","48000","-16","experiment","SSSSS","2","even","133357","10345","NA","NA","125956","2858","NA","NA","134440","2888","NA","NA","134542","135126","134437","134542","Flanker Task","67","35099","74","yes","1024"
"90.6666666667","90.6666666667","477.253333333","477.253333333","black","legacy","legacy","legacy","0","incongruent","uniform","1","undefined","1","s","74","0","0","0","74","0","74","0","74","0","0","0","74","74","74","74","09/25/22 18:33:22","1500","The main experiment item","yes","FlankerTask.osexp","C:\Users\casme\OneDrive\Desktop\Fall 2022","no","mono","no","18","no","white","no","yes","768","legacy","74","74","C:/Users/casme/OneDrive/Desktop/Fall 2022/IC-subject-2.csv","legacy","Lentiform Loewenfeld","3.3.12","0","s","NA","s","NA","NA","s","695","NA","7456","NA","NA","695","2","legacy","1024","2","48000","-16","experiment","HHSHH","2","even","135132","10345","NA","NA","125956","2858","NA","NA","136197","2888","NA","NA","136300","136996","136195","136300","Flanker Task","68","35794","75","yes","1024"
"90.7894736842","90.7894736842","477.355263158","477.355263158","black","legacy","legacy","legacy","0","incongruent","uniform","1","undefined","1","s","75","0","0","0","75","0","75","0","75","0","0","0","75","75","75","75","09/25/22 18:33:22","1500","The main experiment item","yes","FlankerTask.osexp","C:\Users\casme\OneDrive\Desktop\Fall 2022","no","mono","no","18","no","white","no","yes","768","legacy","75","75","C:/Users/casme/OneDrive/Desktop/Fall 2022/IC-subject-2.csv","legacy","Lentiform Loewenfeld","3.3.12","0","s","NA","s","NA","NA","s","485","NA","7456","NA","NA","485","2","legacy","1024","2","48000","-16","experiment","HHSHH","2","even","137002","10345","NA","NA","125956","2858","NA","NA","138073","2888","NA","NA","138175","138661","138071","138175","Flanker Task","69","36279","76","yes","1024"
"90.9090909091","90.9090909091","476.428571429","476.428571429","black","legacy","legacy","legacy","0","congruent","uniform","1","undefined","1","h","76","0","0","0","76","0","76","0","76","0","0","0","76","76","76","76","09/25/22 18:33:22","1500","The main experiment item","yes","FlankerTask.osexp","C:\Users\casme\OneDrive\Desktop\Fall 2022","no","mono","no","18","no","white","no","yes","768","legacy","76","76","C:/Users/casme/OneDrive/Desktop/Fall 2022/IC-subject-2.csv","legacy","Lentiform Loewenfeld","3.3.12","0","h","NA","s","NA","NA","h","406","NA","7456","NA","NA","406","2","legacy","1024","2","48000","-16","experiment","HHHHH","2","even","138668","10345","NA","NA","125956","2858","NA","NA","139735","2888","NA","NA","139837","140244","139733","139837","Flanker Task","70","36685","77","yes","1024"
"91.0256410256","91.0256410256","477.705128205","477.705128205","black","legacy","legacy","legacy","0","incongruent","uniform","1","undefined","1","h","77","0","0","0","77","0","77","0","77","0","0","0","77","77","77","77","09/25/22 18:33:22","1500","The main experiment item","yes","FlankerTask.osexp","C:\Users\casme\OneDrive\Desktop\Fall 2022","no","mono","no","18","no","white","no","yes","768","legacy","77","77","C:/Users/casme/OneDrive/Desktop/Fall 2022/IC-subject-2.csv","legacy","Lentiform Loewenfeld","3.3.12","0","h","NA","s","NA","NA","h","576","NA","7456","NA","NA","576","2","legacy","1024","2","48000","-16","experiment","SSHSS","2","even","140251","10345","NA","NA","125956","2858","NA","NA","141313","2888","NA","NA","141415","141993","141308","141414","Flanker Task","71","37261","78","yes","1024"
"91.1392405063","91.1392405063","478.240506329","478.240506329","black","legacy","legacy","legacy","0","incongruent","uniform","1","undefined","1","h","78","0","0","0","78","0","78","0","78","0","0","0","78","78","78","78","09/25/22 18:33:22","1500","The main experiment item","yes","FlankerTask.osexp","C:\Users\casme\OneDrive\Desktop\Fall 2022","no","mono","no","18","no","white","no","yes","768","legacy","78","78","C:/Users/casme/OneDrive/Desktop/Fall 2022/IC-subject-2.csv","legacy","Lentiform Loewenfeld","3.3.12","0","h","NA","s","NA","NA","h","520","NA","7456","NA","NA","520","2","legacy","1024","2","48000","-16","experiment","SSHSS","2","even","141999","10345","NA","NA","125956","2858","NA","NA","143065","2888","NA","NA","143170","143692","143063","143169","Flanker Task","72","37781","79","yes","1024"
"91.25","91.25","479.2625","479.2625","black","legacy","legacy","legacy","0","incongruent","uniform","1","undefined","1","s","79","0","0","0","79","0","79","0","79","0","0","0","79","79","79","79","09/25/22 18:33:22","1500","The main experiment item","yes","FlankerTask.osexp","C:\Users\casme\OneDrive\Desktop\Fall 2022","no","mono","no","18","no","white","no","yes","768","legacy","79","79","C:/Users/casme/OneDrive/Desktop/Fall 2022/IC-subject-2.csv","legacy","Lentiform Loewenfeld","3.3.12","0","s","NA","s","NA","NA","s","560","NA","7456","NA","NA","560","2","legacy","1024","2","48000","-16","experiment","HHSHH","2","even","143699","10345","NA","NA","125956","2858","NA","NA","144767","2888","NA","NA","144868","145429","144764","144868","Flanker Task","73","38341","80","yes","1024"
"91.3580246914","91.3580246914","482.407407407","482.407407407","black","legacy","legacy","legacy","0","congruent","uniform","1","undefined","1","s","80","0","0","0","80","0","80","0","80","0","0","0","80","80","80","80","09/25/22 18:33:22","600","The main experiment item","yes","FlankerTask.osexp","C:\Users\casme\OneDrive\Desktop\Fall 2022","no","mono","no","18","no","white","no","yes","768","legacy","0","79","C:/Users/casme/OneDrive/Desktop/Fall 2022/IC-subject-2.csv","legacy","Lentiform Loewenfeld","3.3.12","0","s","NA","s","s","NA","s","734","NA","7456","8193","NA","734","2","legacy","1024","2","48000","-16","experiment","SSSSS","2","even","145436","10345","154653","NA","125956","2858","NA","NA","154714","2888","146459","NA","154815","155550","154711","154815","Flanker Task","74","39075","81","yes","1024"
"91.4634146341","91.4634146341","481.024390244","481.024390244","black","legacy","legacy","legacy","0","congruent","uniform","1","undefined","1","h","81","0","0","0","81","0","81","0","81","0","0","0","81","81","81","81","09/25/22 18:33:22","600","The main experiment item","yes","FlankerTask.osexp","C:\Users\casme\OneDrive\Desktop\Fall 2022","no","mono","no","18","no","white","no","yes","768","legacy","1","79","C:/Users/casme/OneDrive/Desktop/Fall 2022/IC-subject-2.csv","legacy","Lentiform Loewenfeld","3.3.12","0","h","NA","s","s","NA","h","369","NA","7456","8193","NA","369","2","legacy","1024","2","48000","-16","experiment","HHHHH","2","even","156058","10345","154653","NA","125956","2858","155556","NA","157119","2888","146459","NA","157220","157590","157117","157220","Flanker Task","75","39444","82","yes","1024"
"90.3614457831","90.3614457831","480.34939759","480.34939759","black","legacy","legacy","legacy","0","incongruent","uniform","0","undefined","0","s","82","0","0","0","82","0","82","0","82","0","0","0","82","82","82","82","09/25/22 18:33:22","600","The main experiment item","yes","FlankerTask.osexp","C:\Users\casme\OneDrive\Desktop\Fall 2022","no","mono","no","18","no","white","no","yes","768","legacy","2","79","C:/Users/casme/OneDrive/Desktop/Fall 2022/IC-subject-2.csv","legacy","Lentiform Loewenfeld","3.3.12","0","h","NA","s","s","NA","h","425","NA","7456","8193","NA","425","2","legacy","1024","2","48000","-16","experiment","HHSHH","2","even","157596","10345","154653","NA","125956","2858","155556","NA","158661","2888","146459","NA","158765","159191","158659","158765","Flanker Task","75","39869","83","yes","1024"
"89.2857142857","89.2857142857","478.928571429","478.928571429","black","legacy","legacy","legacy","0","incongruent","uniform","0","undefined","0","s","83","0","0","0","83","0","83","0","83","0","0","0","83","83","83","83","09/25/22 18:33:22","600","The main experiment item","yes","FlankerTask.osexp","C:\Users\casme\OneDrive\Desktop\Fall 2022","no","mono","no","18","no","white","no","yes","768","legacy","3","79","C:/Users/casme/OneDrive/Desktop/Fall 2022/IC-subject-2.csv","legacy","Lentiform Loewenfeld","3.3.12","0","h","NA","s","s","NA","h","361","NA","7456","8193","NA","361","2","legacy","1024","2","48000","-16","experiment","HHSHH","2","even","159702","10345","154653","NA","159198","2858","155556","NA","160773","2888","146459","NA","160875","161237","160770","160874","Flanker Task","75","40230","84","yes","1024"
"89.4117647059","89.4117647059","478.776470588","478.776470588","black","legacy","legacy","legacy","0","incongruent","uniform","1","undefined","1","h","84","0","0","0","84","0","84","0","84","0","0","0","84","84","84","84","09/25/22 18:33:22","600","The main experiment item","yes","FlankerTask.osexp","C:\Users\casme\OneDrive\Desktop\Fall 2022","no","mono","no","18","no","white","no","yes","768","legacy","4","79","C:/Users/casme/OneDrive/Desktop/Fall 2022/IC-subject-2.csv","legacy","Lentiform Loewenfeld","3.3.12","0","h","NA","s","s","NA","h","466","NA","7456","8193","NA","466","2","legacy","1024","2","48000","-16","experiment","SSHSS","2","even","161749","10345","154653","NA","161244","2858","155556","NA","162819","2888","146459","NA","162921","163389","162817","162921","Flanker Task","76","40696","85","yes","1024"
"89.5348837209","89.5348837209","477.581395349","477.581395349","black","legacy","legacy","legacy","0","congruent","uniform","1","undefined","1","s","85","0","0","0","85","0","85","0","85","0","0","0","85","85","85","85","09/25/22 18:33:22","600","The main experiment item","yes","FlankerTask.osexp","C:\Users\casme\OneDrive\Desktop\Fall 2022","no","mono","no","18","no","white","no","yes","768","legacy","5","79","C:/Users/casme/OneDrive/Desktop/Fall 2022/IC-subject-2.csv","legacy","Lentiform Loewenfeld","3.3.12","0","s","NA","s","s","NA","s","376","NA","7456","8193","NA","376","2","legacy","1024","2","48000","-16","experiment","SSSSS","2","even","163393","10345","154653","NA","161244","2858","155556","NA","164450","2888","146459","NA","164551","164927","164448","164551","Flanker Task","77","41072","86","yes","1024"
"89.6551724138","89.6551724138","475.804597701","475.804597701","black","legacy","legacy","legacy","0","congruent","uniform","1","undefined","1","s","86","0","0","0","86","0","86","0","86","0","0","0","86","86","86","86","09/25/22 18:33:22","600","The main experiment item","yes","FlankerTask.osexp","C:\Users\casme\OneDrive\Desktop\Fall 2022","no","mono","no","18","no","white","no","yes","768","legacy","6","79","C:/Users/casme/OneDrive/Desktop/Fall 2022/IC-subject-2.csv","legacy","Lentiform Loewenfeld","3.3.12","0","s","NA","s","s","NA","s","323","NA","7456","8193","NA","323","2","legacy","1024","2","48000","-16","experiment","SSSSS","2","even","164933","10345","154653","NA","161244","2858","155556","NA","166002","2888","146459","NA","166104","166429","166000","166104","Flanker Task","78","41395","87","yes","1024"
"89.7727272727","89.7727272727","473.590909091","473.590909091","black","legacy","legacy","legacy","0","congruent","uniform","1","undefined","1","s","87","0","0","0","87","0","87","0","87","0","0","0","87","87","87","87","09/25/22 18:33:22","600","The main experiment item","yes","FlankerTask.osexp","C:\Users\casme\OneDrive\Desktop\Fall 2022","no","mono","no","18","no","white","no","yes","768","legacy","7","79","C:/Users/casme/OneDrive/Desktop/Fall 2022/IC-subject-2.csv","legacy","Lentiform Loewenfeld","3.3.12","0","s","NA","s","s","NA","s","281","NA","7456","8193","NA","281","2","legacy","1024","2","48000","-16","experiment","SSSSS","2","even","166435","10345","154653","NA","161244","2858","155556","NA","167499","2888","146459","NA","167603","167885","167496","167603","Flanker Task","79","41676","88","yes","1024"
"88.7640449438","88.7640449438","471.887640449","471.887640449","black","legacy","legacy","legacy","0","incongruent","uniform","0","undefined","0","h","88","0","0","0","88","0","88","0","88","0","0","0","88","88","88","88","09/25/22 18:33:22","600","The main experiment item","yes","FlankerTask.osexp","C:\Users\casme\OneDrive\Desktop\Fall 2022","no","mono","no","18","no","white","no","yes","768","legacy","8","79","C:/Users/casme/OneDrive/Desktop/Fall 2022/IC-subject-2.csv","legacy","Lentiform Loewenfeld","3.3.12","0","s","NA","s","s","NA","s","322","NA","7456","8193","NA","322","2","legacy","1024","2","48000","-16","experiment","SSHSS","2","even","167890","10345","154653","NA","161244","2858","155556","NA","168956","2888","146459","NA","169060","169383","168954","169060","Flanker Task","79","41998","89","yes","1024"
"88.8888888889","88.8888888889","471.966666667","471.966666667","black","legacy","legacy","legacy","0","incongruent","uniform","1","undefined","1","s","89","0","0","0","89","0","89","0","89","0","0","0","89","89","89","89","09/25/22 18:33:22","600","The main experiment item","yes","FlankerTask.osexp","C:\Users\casme\OneDrive\Desktop\Fall 2022","no","mono","no","18","no","white","no","yes","768","legacy","9","79","C:/Users/casme/OneDrive/Desktop/Fall 2022/IC-subject-2.csv","legacy","Lentiform Loewenfeld","3.3.12","0","s","NA","s","s","NA","s","479","NA","7456","8193","NA","479","2","legacy","1024","2","48000","-16","experiment","HHSHH","2","even","169892","10345","154653","NA","169391","2858","155556","NA","170950","2888","146459","NA","171052","171532","170948","171052","Flanker Task","80","42477","90","yes","1024"
"89.010989011","89.010989011","478.043956044","478.043956044","black","legacy","legacy","legacy","0","congruent","uniform","1","undefined","1","s","90","0","0","0","90","0","90","0","90","0","0","0","90","90","90","90","09/25/22 18:33:22","600","The main experiment item","yes","FlankerTask.osexp","C:\Users\casme\OneDrive\Desktop\Fall 2022","no","mono","no","18","no","white","no","yes","768","legacy","10","79","C:/Users/casme/OneDrive/Desktop/Fall 2022/IC-subject-2.csv","legacy","Lentiform Loewenfeld","3.3.12","0","s","NA","s","s","NA","s","1025","NA","7456","8193","NA","1025","2","legacy","1024","2","48000","-16","experiment","SSSSS","2","even","171538","10345","154653","NA","169391","2858","155556","NA","172599","2888","146459","NA","172701","173727","172596","172701","Flanker Task","81","43502","91","yes","1024"
"89.1304347826","89.1304347826","476.934782609","476.934782609","black","legacy","legacy","legacy","0","congruent","uniform","1","undefined","1","s","91","0","0","0","91","0","91","0","91","0","0","0","91","91","91","91","09/25/22 18:33:22","600","The main experiment item","yes","FlankerTask.osexp","C:\Users\casme\OneDrive\Desktop\Fall 2022","no","mono","no","18","no","white","no","yes","768","legacy","11","79","C:/Users/casme/OneDrive/Desktop/Fall 2022/IC-subject-2.csv","legacy","Lentiform Loewenfeld","3.3.12","0","s","NA","s","s","NA","s","376","NA","7456","8193","NA","376","2","legacy","1024","2","48000","-16","experiment","SSSSS","2","even","174234","10345","154653","NA","169391","2858","173733","NA","175288","2888","146459","NA","175389","175766","175286","175389","Flanker Task","82","43878","92","yes","1024"
"89.247311828","89.247311828","475.752688172","475.752688172","black","legacy","legacy","legacy","0","congruent","uniform","1","undefined","1","s","92","0","0","0","92","0","92","0","92","0","0","0","92","92","92","92","09/25/22 18:33:22","600","The main experiment item","yes","FlankerTask.osexp","C:\Users\casme\OneDrive\Desktop\Fall 2022","no","mono","no","18","no","white","no","yes","768","legacy","12","79","C:/Users/casme/OneDrive/Desktop/Fall 2022/IC-subject-2.csv","legacy","Lentiform Loewenfeld","3.3.12","0","s","NA","s","s","NA","s","367","NA","7456","8193","NA","367","2","legacy","1024","2","48000","-16","experiment","SSSSS","2","even","175771","10345","154653","NA","169391","2858","173733","NA","176827","2888","146459","NA","176929","177297","176825","176929","Flanker Task","83","44245","93","yes","1024"
"89.3617021277","89.3617021277","474.085106383","474.085106383","black","legacy","legacy","legacy","0","congruent","uniform","1","undefined","1","s","93","0","0","0","93","0","93","0","93","0","0","0","93","93","93","93","09/25/22 18:33:22","600","The main experiment item","yes","FlankerTask.osexp","C:\Users\casme\OneDrive\Desktop\Fall 2022","no","mono","no","18","no","white","no","yes","768","legacy","13","79","C:/Users/casme/OneDrive/Desktop/Fall 2022/IC-subject-2.csv","legacy","Lentiform Loewenfeld","3.3.12","0","s","NA","s","s","NA","s","319","NA","7456","8193","NA","319","2","legacy","1024","2","48000","-16","experiment","SSSSS","2","even","177304","10345","154653","NA","169391","2858","173733","NA","178372","2888","146459","NA","178474","178794","178370","178474","Flanker Task","84","44564","94","yes","1024"
"88.4210526316","88.4210526316","472.284210526","472.284210526","black","legacy","legacy","legacy","0","incongruent","uniform","0","undefined","0","h","94","0","0","0","94","0","94","0","94","0","0","0","94","94","94","94","09/25/22 18:33:22","600","The main experiment item","yes","FlankerTask.osexp","C:\Users\casme\OneDrive\Desktop\Fall 2022","no","mono","no","18","no","white","no","yes","768","legacy","14","79","C:/Users/casme/OneDrive/Desktop/Fall 2022/IC-subject-2.csv","legacy","Lentiform Loewenfeld","3.3.12","0","s","NA","s","s","NA","s","303","NA","7456","8193","NA","303","2","legacy","1024","2","48000","-16","experiment","SSHSS","2","even","178800","10345","154653","NA","169391","2858","173733","NA","179869","2888","146459","NA","179971","180275","179867","179971","Flanker Task","84","44867","95","yes","1024"
"88.5416666667","88.5416666667","471.614583333","471.614583333","black","legacy","legacy","legacy","0","incongruent","uniform","1","undefined","1","s","95","0","0","0","95","0","95","0","95","0","0","0","95","95","95","95","09/25/22 18:33:22","600","The main experiment item","yes","FlankerTask.osexp","C:\Users\casme\OneDrive\Desktop\Fall 2022","no","mono","no","18","no","white","no","yes","768","legacy","15","79","C:/Users/casme/OneDrive/Desktop/Fall 2022/IC-subject-2.csv","legacy","Lentiform Loewenfeld","3.3.12","0","s","NA","s","s","NA","s","408","NA","7456","8193","NA","408","2","legacy","1024","2","48000","-16","experiment","HHSHH","2","even","180786","10345","154653","NA","180281","2858","173733","NA","181856","2888","146459","NA","181958","182367","181854","181958","Flanker Task","85","45275","96","yes","1024"
"88.6597938144","88.6597938144","470.463917526","470.463917526","black","legacy","legacy","legacy","0","incongruent","uniform","1","undefined","1","s","96","0","0","0","96","0","96","0","96","0","0","0","96","96","96","96","09/25/22 18:33:22","600","The main experiment item","yes","FlankerTask.osexp","C:\Users\casme\OneDrive\Desktop\Fall 2022","no","mono","no","18","no","white","no","yes","768","legacy","16","79","C:/Users/casme/OneDrive/Desktop/Fall 2022/IC-subject-2.csv","legacy","Lentiform Loewenfeld","3.3.12","0","s","NA","s","s","NA","s","360","NA","7456","8193","NA","360","2","legacy","1024","2","48000","-16","experiment","HHSHH","2","even","182374","10345","154653","NA","180281","2858","173733","NA","183444","2888","146459","NA","183545","183905","183442","183545","Flanker Task","86","45635","97","yes","1024"
"87.7551020408","87.7551020408","469.316326531","469.316326531","black","legacy","legacy","legacy","0","congruent","uniform","0","undefined","0","h","97","0","0","0","97","0","97","0","97","0","0","0","97","97","97","97","09/25/22 18:33:22","600","The main experiment item","yes","FlankerTask.osexp","C:\Users\casme\OneDrive\Desktop\Fall 2022","no","mono","no","18","no","white","no","yes","768","legacy","17","79","C:/Users/casme/OneDrive/Desktop/Fall 2022/IC-subject-2.csv","legacy","Lentiform Loewenfeld","3.3.12","0","s","NA","s","s","NA","s","358","NA","7456","8193","NA","358","2","legacy","1024","2","48000","-16","experiment","HHHHH","2","even","183911","10345","154653","NA","180281","2858","173733","NA","184976","2888","146459","NA","185078","185437","184975","185078","Flanker Task","86","45993","98","yes","1024"
"87.8787878788","87.8787878788","469.858585859","469.858585859","black","legacy","legacy","legacy","0","incongruent","uniform","1","undefined","1","h","98","0","0","0","98","0","98","0","98","0","0","0","98","98","98","98","09/25/22 18:33:22","600","The main experiment item","yes","FlankerTask.osexp","C:\Users\casme\OneDrive\Desktop\Fall 2022","no","mono","no","18","no","white","no","yes","768","legacy","18","79","C:/Users/casme/OneDrive/Desktop/Fall 2022/IC-subject-2.csv","legacy","Lentiform Loewenfeld","3.3.12","0","h","NA","s","s","NA","h","523","NA","7456","8193","NA","523","2","legacy","1024","2","48000","-16","experiment","SSHSS","2","even","185948","10345","154653","NA","185443","2858","173733","NA","187015","2888","146459","NA","187117","187641","187013","187117","Flanker Task","87","46516","99","yes","1024"
"88","88","471.42","471.42","black","legacy","legacy","legacy","0","incongruent","uniform","1","undefined","1","h","99","0","0","0","99","0","99","0","99","0","0","0","99","99","99","99","09/25/22 18:33:22","600","The main experiment item","yes","FlankerTask.osexp","C:\Users\casme\OneDrive\Desktop\Fall 2022","no","mono","no","18","no","white","no","yes","768","legacy","19","79","C:/Users/casme/OneDrive/Desktop/Fall 2022/IC-subject-2.csv","legacy","Lentiform Loewenfeld","3.3.12","0","h","NA","s","s","NA","h","626","NA","7456","8193","NA","626","2","legacy","1024","2","48000","-16","experiment","SSHSS","2","even","187648","10345","154653","NA","185443","2858","173733","NA","188722","2888","146459","NA","188825","189452","188718","188825","Flanker Task","88","47142","100","yes","1024"
"88.1188118812","88.1188118812","470.98019802","470.98019802","black","legacy","legacy","legacy","0","congruent","uniform","1","undefined","1","s","100","0","0","0","100","0","100","0","100","0","0","0","100","100","100","100","09/25/22 18:33:22","600","The main experiment item","yes","FlankerTask.osexp","C:\Users\casme\OneDrive\Desktop\Fall 2022","no","mono","no","18","no","white","no","yes","768","legacy","20","79","C:/Users/casme/OneDrive/Desktop/Fall 2022/IC-subject-2.csv","legacy","Lentiform Loewenfeld","3.3.12","0","s","NA","s","s","NA","s","427","NA","7456","8193","NA","427","2","legacy","1024","2","48000","-16","experiment","SSSSS","2","even","189960","10345","154653","NA","185443","2858","189458","NA","191027","2888","146459","NA","191130","191559","191025","191130","Flanker Task","89","47569","101","yes","1024"
"87.2549019608","87.2549019608","471.107843137","471.107843137","black","legacy","legacy","legacy","0","incongruent","uniform","0","undefined","0","s","101","0","0","0","101","0","101","0","101","0","0","0","101","101","101","101","09/25/22 18:33:22","600","The main experiment item","yes","FlankerTask.osexp","C:\Users\casme\OneDrive\Desktop\Fall 2022","no","mono","no","18","no","white","no","yes","768","legacy","21","79","C:/Users/casme/OneDrive/Desktop/Fall 2022/IC-subject-2.csv","legacy","Lentiform Loewenfeld","3.3.12","0","h","NA","s","s","NA","h","484","NA","7456","8193","NA","484","2","legacy","1024","2","48000","-16","experiment","HHSHH","2","even","191565","10345","154653","NA","185443","2858","189458","NA","192621","2888","146459","NA","192722","193207","192619","192722","Flanker Task","89","48053","102","yes","1024"
"87.3786407767","87.3786407767","477.203883495","477.203883495","black","legacy","legacy","legacy","0","incongruent","uniform","1","undefined","1","h","102","0","0","0","102","0","102","0","102","0","0","0","102","102","102","102","09/25/22 18:33:22","600","The main experiment item","yes","FlankerTask.osexp","C:\Users\casme\OneDrive\Desktop\Fall 2022","no","mono","no","18","no","white","no","yes","768","legacy","22","79","C:/Users/casme/OneDrive/Desktop/Fall 2022/IC-subject-2.csv","legacy","Lentiform Loewenfeld","3.3.12","0","h","NA","s","s","NA","h","1099","NA","7456","8193","NA","1099","2","legacy","1024","2","48000","-16","experiment","SSHSS","2","even","193715","10345","154653","NA","193213","2858","189458","NA","194779","2888","146459","NA","194882","195983","194777","194882","Flanker Task","90","49152","103","yes","1024"
"87.5","87.5","476.269230769","476.269230769","black","legacy","legacy","legacy","0","congruent","uniform","1","undefined","1","h","103","0","0","0","103","0","103","0","103","0","0","0","103","103","103","103","09/25/22 18:33:22","600","The main experiment item","yes","FlankerTask.osexp","C:\Users\casme\OneDrive\Desktop\Fall 2022","no","mono","no","18","no","white","no","yes","768","legacy","23","79","C:/Users/casme/OneDrive/Desktop/Fall 2022/IC-subject-2.csv","legacy","Lentiform Loewenfeld","3.3.12","0","h","NA","s","s","NA","h","380","NA","7456","8193","NA","380","2","legacy","1024","2","48000","-16","experiment","HHHHH","2","even","196491","10345","154653","NA","193213","2858","195989","NA","197545","2888","146459","NA","197649","198030","197543","197649","Flanker Task","91","49532","104","yes","1024"
"87.619047619","87.619047619","475.438095238","475.438095238","black","legacy","legacy","legacy","0","congruent","uniform","1","undefined","1","h","104","0","0","0","104","0","104","0","104","0","0","0","104","104","104","104","09/25/22 18:33:22","600","The main experiment item","yes","FlankerTask.osexp","C:\Users\casme\OneDrive\Desktop\Fall 2022","no","mono","no","18","no","white","no","yes","768","legacy","24","79","C:/Users/casme/OneDrive/Desktop/Fall 2022/IC-subject-2.csv","legacy","Lentiform Loewenfeld","3.3.12","0","h","NA","s","s","NA","h","389","NA","7456","8193","NA","389","2","legacy","1024","2","48000","-16","experiment","HHHHH","2","even","198037","10345","154653","NA","193213","2858","195989","NA","199093","2888","146459","NA","199195","199585","199091","199195","Flanker Task","92","49921","105","yes","1024"
"87.7358490566","87.7358490566","474.91509434","474.91509434","black","legacy","legacy","legacy","0","congruent","uniform","1","undefined","1","s","105","0","0","0","105","0","105","0","105","0","0","0","105","105","105","105","09/25/22 18:33:22","600","The main experiment item","yes","FlankerTask.osexp","C:\Users\casme\OneDrive\Desktop\Fall 2022","no","mono","no","18","no","white","no","yes","768","legacy","25","79","C:/Users/casme/OneDrive/Desktop/Fall 2022/IC-subject-2.csv","legacy","Lentiform Loewenfeld","3.3.12","0","s","NA","s","s","NA","s","420","NA","7456","8193","NA","420","2","legacy","1024","2","48000","-16","experiment","SSSSS","2","even","199592","10345","154653","NA","193213","2858","195989","NA","200648","2888","146459","NA","200750","201172","200646","200750","Flanker Task","93","50341","106","yes","1024"
"87.8504672897","87.8504672897","475.168224299","475.168224299","black","legacy","legacy","legacy","0","incongruent","uniform","1","undefined","1","h","106","0","0","0","106","0","106","0","106","0","0","0","106","106","106","106","09/25/22 18:33:22","600","The main experiment item","yes","FlankerTask.osexp","C:\Users\casme\OneDrive\Desktop\Fall 2022","no","mono","no","18","no","white","no","yes","768","legacy","26","79","C:/Users/casme/OneDrive/Desktop/Fall 2022/IC-subject-2.csv","legacy","Lentiform Loewenfeld","3.3.12","0","h","NA","s","s","NA","h","502","NA","7456","8193","NA","502","2","legacy","1024","2","48000","-16","experiment","SSHSS","2","even","201178","10345","154653","NA","193213","2858","195989","NA","202244","2888","146459","NA","202347","202850","202239","202347","Flanker Task","94","50843","107","yes","1024"
"87.962962963","87.962962963","474.87962963","474.87962963","black","legacy","legacy","legacy","0","incongruent","uniform","1","undefined","1","h","107","0","0","0","107","0","107","0","107","0","0","0","107","107","107","107","09/25/22 18:33:22","600","The main experiment item","yes","FlankerTask.osexp","C:\Users\casme\OneDrive\Desktop\Fall 2022","no","mono","no","18","no","white","no","yes","768","legacy","27","79","C:/Users/casme/OneDrive/Desktop/Fall 2022/IC-subject-2.csv","legacy","Lentiform Loewenfeld","3.3.12","0","h","NA","s","s","NA","h","444","NA","7456","8193","NA","444","2","legacy","1024","2","48000","-16","experiment","SSHSS","2","even","202857","10345","154653","NA","193213","2858","195989","NA","203918","2888","146459","NA","204020","204466","203916","204020","Flanker Task","95","51287","108","yes","1024"
"88.0733944954","88.0733944954","474.853211009","474.853211009","black","legacy","legacy","legacy","0","congruent","uniform","1","undefined","1","s","108","0","0","0","108","0","108","0","108","0","0","0","108","108","108","108","09/25/22 18:33:22","600","The main experiment item","yes","FlankerTask.osexp","C:\Users\casme\OneDrive\Desktop\Fall 2022","no","mono","no","18","no","white","no","yes","768","legacy","28","79","C:/Users/casme/OneDrive/Desktop/Fall 2022/IC-subject-2.csv","legacy","Lentiform Loewenfeld","3.3.12","0","s","NA","s","s","NA","s","472","NA","7456","8193","NA","472","2","legacy","1024","2","48000","-16","experiment","SSSSS","2","even","204472","10345","154653","NA","193213","2858","195989","NA","205534","2888","146459","NA","205640","206113","205532","205639","Flanker Task","96","51759","109","yes","1024"
"88.1818181818","88.1818181818","474.472727273","474.472727273","black","legacy","legacy","legacy","0","congruent","uniform","1","undefined","1","h","109","0","0","0","109","0","109","0","109","0","0","0","109","109","109","109","09/25/22 18:33:22","600","The main experiment item","yes","FlankerTask.osexp","C:\Users\casme\OneDrive\Desktop\Fall 2022","no","mono","no","18","no","white","no","yes","768","legacy","29","79","C:/Users/casme/OneDrive/Desktop/Fall 2022/IC-subject-2.csv","legacy","Lentiform Loewenfeld","3.3.12","0","h","NA","s","s","NA","h","433","NA","7456","8193","NA","433","2","legacy","1024","2","48000","-16","experiment","HHHHH","2","even","206118","10345","154653","NA","193213","2858","195989","NA","207177","2888","146459","NA","207278","207712","207175","207278","Flanker Task","97","52192","110","yes","1024"
"88.2882882883","88.2882882883","473.675675676","473.675675676","black","legacy","legacy","legacy","0","congruent","uniform","1","undefined","1","h","110","0","0","0","110","0","110","0","110","0","0","0","110","110","110","110","09/25/22 18:33:22","600","The main experiment item","yes","FlankerTask.osexp","C:\Users\casme\OneDrive\Desktop\Fall 2022","no","mono","no","18","no","white","no","yes","768","legacy","30","79","C:/Users/casme/OneDrive/Desktop/Fall 2022/IC-subject-2.csv","legacy","Lentiform Loewenfeld","3.3.12","0","h","NA","s","s","NA","h","386","NA","7456","8193","NA","386","2","legacy","1024","2","48000","-16","experiment","HHHHH","2","even","207719","10345","154653","NA","193213","2858","195989","NA","208786","2888","146459","NA","208889","209277","208784","208888","Flanker Task","98","52578","111","yes","1024"
"88.3928571429","88.3928571429","472.508928571","472.508928571","black","legacy","legacy","legacy","0","incongruent","uniform","1","undefined","1","h","111","0","0","0","111","0","111","0","111","0","0","0","111","111","111","111","09/25/22 18:33:22","600","The main experiment item","yes","FlankerTask.osexp","C:\Users\casme\OneDrive\Desktop\Fall 2022","no","mono","no","18","no","white","no","yes","768","legacy","31","79","C:/Users/casme/OneDrive/Desktop/Fall 2022/IC-subject-2.csv","legacy","Lentiform Loewenfeld","3.3.12","0","h","NA","s","s","NA","h","343","NA","7456","8193","NA","343","2","legacy","1024","2","48000","-16","experiment","SSHSS","2","even","209284","10345","154653","NA","193213","2858","195989","NA","210338","2888","146459","NA","210440","210784","210336","210439","Flanker Task","99","52921","112","yes","1024"
"88.4955752212","88.4955752212","472.194690265","472.194690265","black","legacy","legacy","legacy","0","congruent","uniform","1","undefined","1","s","112","0","0","0","112","0","112","0","112","0","0","0","112","112","112","112","09/25/22 18:33:22","600","The main experiment item","yes","FlankerTask.osexp","C:\Users\casme\OneDrive\Desktop\Fall 2022","no","mono","no","18","no","white","no","yes","768","legacy","32","79","C:/Users/casme/OneDrive/Desktop/Fall 2022/IC-subject-2.csv","legacy","Lentiform Loewenfeld","3.3.12","0","s","NA","s","s","NA","s","437","NA","7456","8193","NA","437","2","legacy","1024","2","48000","-16","experiment","SSSSS","2","even","210790","10345","154653","NA","193213","2858","195989","NA","211845","2888","146459","NA","211947","212385","211843","211947","Flanker Task","100","53358","113","yes","1024"
"88.5964912281","88.5964912281","472.087719298","472.087719298","black","legacy","legacy","legacy","0","incongruent","uniform","1","undefined","1","h","113","0","0","0","113","0","113","0","113","0","0","0","113","113","113","113","09/25/22 18:33:22","600","The main experiment item","yes","FlankerTask.osexp","C:\Users\casme\OneDrive\Desktop\Fall 2022","no","mono","no","18","no","white","no","yes","768","legacy","33","79","C:/Users/casme/OneDrive/Desktop/Fall 2022/IC-subject-2.csv","legacy","Lentiform Loewenfeld","3.3.12","0","h","NA","s","s","NA","h","460","NA","7456","8193","NA","460","2","legacy","1024","2","48000","-16","experiment","SSHSS","2","even","212391","10345","154653","NA","193213","2858","195989","NA","213451","2888","146459","NA","213552","214013","213449","213552","Flanker Task","101","53818","114","yes","1024"
"88.6956521739","88.6956521739","471.52173913","471.52173913","black","legacy","legacy","legacy","0","incongruent","uniform","1","undefined","1","s","114","0","0","0","114","0","114","0","114","0","0","0","114","114","114","114","09/25/22 18:33:22","600","The main experiment item","yes","FlankerTask.osexp","C:\Users\casme\OneDrive\Desktop\Fall 2022","no","mono","no","18","no","white","no","yes","768","legacy","34","79","C:/Users/casme/OneDrive/Desktop/Fall 2022/IC-subject-2.csv","legacy","Lentiform Loewenfeld","3.3.12","0","s","NA","s","s","NA","s","407","NA","7456","8193","NA","407","2","legacy","1024","2","48000","-16","experiment","HHSHH","2","even","214020","10345","154653","NA","193213","2858","195989","NA","215089","2888","146459","NA","215191","215599","215086","215191","Flanker Task","102","54225","115","yes","1024"
"88.7931034483","88.7931034483","470.844827586","470.844827586","black","legacy","legacy","legacy","0","incongruent","uniform","1","undefined","1","s","115","0","0","0","115","0","115","0","115","0","0","0","115","115","115","115","09/25/22 18:33:22","600","The main experiment item","yes","FlankerTask.osexp","C:\Users\casme\OneDrive\Desktop\Fall 2022","no","mono","no","18","no","white","no","yes","768","legacy","35","79","C:/Users/casme/OneDrive/Desktop/Fall 2022/IC-subject-2.csv","legacy","Lentiform Loewenfeld","3.3.12","0","s","NA","s","s","NA","s","393","NA","7456","8193","NA","393","2","legacy","1024","2","48000","-16","experiment","HHSHH","2","even","215606","10345","154653","NA","193213","2858","195989","NA","216662","2888","146459","NA","216766","217160","216660","216765","Flanker Task","103","54618","116","yes","1024"
"88.8888888889","88.8888888889","470.803418803","470.803418803","black","legacy","legacy","legacy","0","incongruent","uniform","1","undefined","1","h","116","0","0","0","116","0","116","0","116","0","0","0","116","116","116","116","09/25/22 18:33:22","600","The main experiment item","yes","FlankerTask.osexp","C:\Users\casme\OneDrive\Desktop\Fall 2022","no","mono","no","18","no","white","no","yes","768","legacy","36","79","C:/Users/casme/OneDrive/Desktop/Fall 2022/IC-subject-2.csv","legacy","Lentiform Loewenfeld","3.3.12","0","h","NA","s","s","NA","h","466","NA","7456","8193","NA","466","2","legacy","1024","2","48000","-16","experiment","SSHSS","2","even","217167","10345","154653","NA","193213","2858","195989","NA","218223","2888","146459","NA","218325","218792","218221","218325","Flanker Task","104","55084","117","yes","1024"
"88.9830508475","88.9830508475","472","472","black","legacy","legacy","legacy","0","incongruent","uniform","1","undefined","1","h","117","0","0","0","117","0","117","0","117","0","0","0","117","117","117","117","09/25/22 18:33:22","600","The main experiment item","yes","FlankerTask.osexp","C:\Users\casme\OneDrive\Desktop\Fall 2022","no","mono","no","18","no","white","no","yes","768","legacy","37","79","C:/Users/casme/OneDrive/Desktop/Fall 2022/IC-subject-2.csv","legacy","Lentiform Loewenfeld","3.3.12","0","h","NA","s","s","NA","h","612","NA","7456","8193","NA","612","2","legacy","1024","2","48000","-16","experiment","SSHSS","2","even","218799","10345","154653","NA","193213","2858","195989","NA","219861","2888","146459","NA","219963","220577","219859","219963","Flanker Task","105","55696","118","yes","1024"
"88.2352941176","88.2352941176","470.848739496","470.848739496","black","legacy","legacy","legacy","0","incongruent","uniform","0","undefined","0","s","118","0","0","0","118","0","118","0","118","0","0","0","118","118","118","118","09/25/22 18:33:22","600","The main experiment item","yes","FlankerTask.osexp","C:\Users\casme\OneDrive\Desktop\Fall 2022","no","mono","no","18","no","white","no","yes","768","legacy","38","79","C:/Users/casme/OneDrive/Desktop/Fall 2022/IC-subject-2.csv","legacy","Lentiform Loewenfeld","3.3.12","0","h","NA","s","s","NA","h","335","NA","7456","8193","NA","335","2","legacy","1024","2","48000","-16","experiment","HHSHH","2","even","221087","10345","154653","NA","193213","2858","220583","NA","222145","2888","146459","NA","222247","222583","222143","222246","Flanker Task","105","56031","119","yes","1024"
"88.3333333333","88.3333333333","471.491666667","471.491666667","black","legacy","legacy","legacy","0","incongruent","uniform","1","undefined","1","s","119","0","0","0","119","0","119","0","119","0","0","0","119","119","119","119","09/25/22 18:33:22","600","The main experiment item","yes","FlankerTask.osexp","C:\Users\casme\OneDrive\Desktop\Fall 2022","no","mono","no","18","no","white","no","yes","768","legacy","39","79","C:/Users/casme/OneDrive/Desktop/Fall 2022/IC-subject-2.csv","legacy","Lentiform Loewenfeld","3.3.12","0","s","NA","s","s","NA","s","548","NA","7456","8193","NA","548","2","legacy","1024","2","48000","-16","experiment","HHSHH","2","even","223092","10345","154653","NA","222589","2858","220583","NA","224145","2888","146459","NA","224249","224798","224143","224249","Flanker Task","106","56579","120","yes","1024"
"88.4297520661","88.4297520661","470.603305785","470.603305785","black","legacy","legacy","legacy","0","incongruent","uniform","1","undefined","1","s","120","0","0","0","120","0","120","0","120","0","0","0","120","120","120","120","09/25/22 18:33:22","600","The main experiment item","yes","FlankerTask.osexp","C:\Users\casme\OneDrive\Desktop\Fall 2022","no","mono","no","18","no","white","no","yes","768","legacy","40","79","C:/Users/casme/OneDrive/Desktop/Fall 2022/IC-subject-2.csv","legacy","Lentiform Loewenfeld","3.3.12","0","s","NA","s","s","NA","s","364","NA","7456","8193","NA","364","2","legacy","1024","2","48000","-16","experiment","HHSHH","2","even","224804","10345","154653","NA","222589","2858","220583","NA","225877","2888","146459","NA","225981","226347","225875","225980","Flanker Task","107","56943","121","yes","1024"
