"acc","accuracy","average_response_time","avg_rt","background","canvas_backend","clock_backend","color_backend","compensation","condition","coordinates","correct","correct_instructions1","correct_keyboard_response","correct_response","count_ISI","count_block1","count_block2","count_block3","count_error_feedback","count_experiment","count_faster","count_finish","count_fixation","count_instructions1","count_instructions2","count_instructions3","count_keyboard_response","count_logger","count_sequence","count_stimulus","datetime","deadline","description","disable_garbage_collection","experiment_path","font_bold","font_family","font_italic","font_size","font_underline","foreground","form_clicks","fullscreen","height","keyboard_backend","live_row","live_row_block1","logfile","mouse_backend","opensesame_codename","opensesame_version","repeat_cycle","response","response_finish","response_instructions1","response_instructions2","response_instructions3","response_keyboard_response","response_time","response_time_finish","response_time_instructions1","response_time_instructions2","response_time_instructions3","response_time_keyboard_response","round_decimals","sampler_backend","sound_buf_size","sound_channels","sound_freq","sound_sample_size","start","stimulus","subject_nr","subject_parity","time_ISI","time_block1","time_block2","time_block3","time_error_feedback","time_experiment","time_faster","time_finish","time_fixation","time_instructions1","time_instructions2","time_instructions3","time_keyboard_response","time_logger","time_sequence","time_stimulus","title","total_correct","total_response_time","total_responses","uniform_coordinates","width"
"100","100","972","972","black","legacy","legacy","legacy","0","incongruent","uniform","1","undefined","1","s","0","0","0","0","0","0","0","0","0","0","0","0","0","0","0","0","Sun Sep 18 20:00:47 2022","1500","The main experiment item","yes","C:/Users/cici_/Downloads/CS-Subject-1.osexp","no","mono","no","18","no","white","no","yes","768","legacy","0","0","C:/Users/cici_/Downloads/YB-subject-2.csv","legacy","Lentiform Loewenfeld","3.3.12","0","s","NA","s","NA","NA","s","972","NA","38352","NA","NA","972","2","legacy","1024","2","48000","-16","experiment","HHSHH","2","even","NA","41060","NA","NA","NA","2699","NA","NA","41118","2707","NA","NA","41220","42192","41116","41219","CS-FlankerTask","1","972","1","yes","1024"
"100","100","1047.5","1047.5","black","legacy","legacy","legacy","0","congruent","uniform","1","undefined","1","s","1","0","0","0","1","0","1","0","1","0","0","0","1","1","1","1","Sun Sep 18 20:00:47 2022","1500","The main experiment item","yes","C:/Users/cici_/Downloads/CS-Subject-1.osexp","no","mono","no","18","no","white","no","yes","768","legacy","1","1","C:/Users/cici_/Downloads/YB-subject-2.csv","legacy","Lentiform Loewenfeld","3.3.12","0","s","NA","s","NA","NA","s","1123","NA","38352","NA","NA","1123","2","legacy","1024","2","48000","-16","experiment","SSSSS","2","even","42212","41060","NA","NA","NA","2699","NA","NA","43272","2707","NA","NA","43373","44496","43269","43373","CS-FlankerTask","2","2095","2","yes","1024"
"100","100","928.3333333333334","928.3333333333334","black","legacy","legacy","legacy","0","incongruent","uniform","1","undefined","1","h","2","0","0","0","2","0","2","0","2","0","0","0","2","2","2","2","Sun Sep 18 20:00:47 2022","1500","The main experiment item","yes","C:/Users/cici_/Downloads/CS-Subject-1.osexp","no","mono","no","18","no","white","no","yes","768","legacy","2","2","C:/Users/cici_/Downloads/YB-subject-2.csv","legacy","Lentiform Loewenfeld","3.3.12","0","h","NA","s","NA","NA","h","690","NA","38352","NA","NA","690","2","legacy","1024","2","48000","-16","experiment","SSHSS","2","even","44512","41060","NA","NA","NA","2699","NA","NA","45574","2707","NA","NA","45675","46366","45571","45675","CS-FlankerTask","3","2785","3","yes","1024"
"100","100","863.5","863.5","black","legacy","legacy","legacy","0","incongruent","uniform","1","undefined","1","h","3","0","0","0","3","0","3","0","3","0","0","0","3","3","3","3","Sun Sep 18 20:00:47 2022","1500","The main experiment item","yes","C:/Users/cici_/Downloads/CS-Subject-1.osexp","no","mono","no","18","no","white","no","yes","768","legacy","3","3","C:/Users/cici_/Downloads/YB-subject-2.csv","legacy","Lentiform Loewenfeld","3.3.12","0","h","NA","s","NA","NA","h","669","NA","38352","NA","NA","669","2","legacy","1024","2","48000","-16","experiment","SSHSS","2","even","46381","41060","NA","NA","NA","2699","NA","NA","47441","2707","NA","NA","47542","48211","47438","47542","CS-FlankerTask","4","3454","4","yes","1024"
"100","100","814.2","814.2","black","legacy","legacy","legacy","0","incongruent","uniform","1","undefined","1","s","4","0","0","0","4","0","4","0","4","0","0","0","4","4","4","4","Sun Sep 18 20:00:47 2022","1500","The main experiment item","yes","C:/Users/cici_/Downloads/CS-Subject-1.osexp","no","mono","no","18","no","white","no","yes","768","legacy","4","4","C:/Users/cici_/Downloads/YB-subject-2.csv","legacy","Lentiform Loewenfeld","3.3.12","0","s","NA","s","NA","NA","s","617","NA","38352","NA","NA","617","2","legacy","1024","2","48000","-16","experiment","HHSHH","2","even","48227","41060","NA","NA","NA","2699","NA","NA","49287","2707","NA","NA","49388","50005","49284","49388","CS-FlankerTask","5","4071","5","yes","1024"
"100","100","820.8333333333334","820.8333333333334","black","legacy","legacy","legacy","0","incongruent","uniform","1","undefined","1","h","5","0","0","0","5","0","5","0","5","0","0","0","5","5","5","5","Sun Sep 18 20:00:47 2022","1500","The main experiment item","yes","C:/Users/cici_/Downloads/CS-Subject-1.osexp","no","mono","no","18","no","white","no","yes","768","legacy","5","5","C:/Users/cici_/Downloads/YB-subject-2.csv","legacy","Lentiform Loewenfeld","3.3.12","0","h","NA","s","NA","NA","h","854","NA","38352","NA","NA","854","2","legacy","1024","2","48000","-16","experiment","SSHSS","2","even","50011","41060","NA","NA","NA","2699","NA","NA","51071","2707","NA","NA","51172","52027","51069","51172","CS-FlankerTask","6","4925","6","yes","1024"
"100","100","788.5714285714286","788.5714285714286","black","legacy","legacy","legacy","0","congruent","uniform","1","undefined","1","s","6","0","0","0","6","0","6","0","6","0","0","0","6","6","6","6","Sun Sep 18 20:00:47 2022","1500","The main experiment item","yes","C:/Users/cici_/Downloads/CS-Subject-1.osexp","no","mono","no","18","no","white","no","yes","768","legacy","6","6","C:/Users/cici_/Downloads/YB-subject-2.csv","legacy","Lentiform Loewenfeld","3.3.12","0","s","NA","s","NA","NA","s","595","NA","38352","NA","NA","595","2","legacy","1024","2","48000","-16","experiment","SSSSS","2","even","52032","41060","NA","NA","NA","2699","NA","NA","53091","2707","NA","NA","53192","53788","53089","53192","CS-FlankerTask","7","5520","7","yes","1024"
"100","100","755.375","755.375","black","legacy","legacy","legacy","0","incongruent","uniform","1","undefined","1","h","7","0","0","0","7","0","7","0","7","0","0","0","7","7","7","7","Sun Sep 18 20:00:47 2022","1500","The main experiment item","yes","C:/Users/cici_/Downloads/CS-Subject-1.osexp","no","mono","no","18","no","white","no","yes","768","legacy","7","7","C:/Users/cici_/Downloads/YB-subject-2.csv","legacy","Lentiform Loewenfeld","3.3.12","0","h","NA","s","NA","NA","h","523","NA","38352","NA","NA","523","2","legacy","1024","2","48000","-16","experiment","SSHSS","2","even","53803","41060","NA","NA","NA","2699","NA","NA","54862","2707","NA","NA","54963","55486","54860","54963","CS-FlankerTask","8","6043","8","yes","1024"
"100","100","721.6666666666666","721.6666666666666","black","legacy","legacy","legacy","0","incongruent","uniform","1","undefined","1","s","8","0","0","0","8","0","8","0","8","0","0","0","8","8","8","8","Sun Sep 18 20:00:47 2022","1500","The main experiment item","yes","C:/Users/cici_/Downloads/CS-Subject-1.osexp","no","mono","no","18","no","white","no","yes","768","legacy","8","8","C:/Users/cici_/Downloads/YB-subject-2.csv","legacy","Lentiform Loewenfeld","3.3.12","0","s","NA","s","NA","NA","s","452","NA","38352","NA","NA","452","2","legacy","1024","2","48000","-16","experiment","HHSHH","2","even","55501","41060","NA","NA","NA","2699","NA","NA","56597","2707","NA","NA","56700","57153","56594","56700","CS-FlankerTask","9","6495","9","yes","1024"
"100","100","713.9","713.9","black","legacy","legacy","legacy","0","incongruent","uniform","1","undefined","1","s","9","0","0","0","9","0","9","0","9","0","0","0","9","9","9","9","Sun Sep 18 20:00:47 2022","1500","The main experiment item","yes","C:/Users/cici_/Downloads/CS-Subject-1.osexp","no","mono","no","18","no","white","no","yes","768","legacy","9","9","C:/Users/cici_/Downloads/YB-subject-2.csv","legacy","Lentiform Loewenfeld","3.3.12","0","s","NA","s","NA","NA","s","644","NA","38352","NA","NA","644","2","legacy","1024","2","48000","-16","experiment","HHSHH","2","even","57170","41060","NA","NA","NA","2699","NA","NA","58273","2707","NA","NA","58375","59020","58269","58375","CS-FlankerTask","10","7139","10","yes","1024"
"100","100","704.2727272727273","704.2727272727273","black","legacy","legacy","legacy","0","congruent","uniform","1","undefined","1","h","10","0","0","0","10","0","10","0","10","0","0","0","10","10","10","10","Sun Sep 18 20:00:47 2022","1500","The main experiment item","yes","C:/Users/cici_/Downloads/CS-Subject-1.osexp","no","mono","no","18","no","white","no","yes","768","legacy","10","10","C:/Users/cici_/Downloads/YB-subject-2.csv","legacy","Lentiform Loewenfeld","3.3.12","0","h","NA","s","NA","NA","h","608","NA","38352","NA","NA","608","2","legacy","1024","2","48000","-16","experiment","HHHHH","2","even","59038","41060","NA","NA","NA","2699","NA","NA","60148","2707","NA","NA","60250","60858","60144","60250","CS-FlankerTask","11","7747","11","yes","1024"
"100","100","695.8333333333334","695.8333333333334","black","legacy","legacy","legacy","0","incongruent","uniform","1","undefined","1","h","11","0","0","0","11","0","11","0","11","0","0","0","11","11","11","11","Sun Sep 18 20:00:47 2022","1500","The main experiment item","yes","C:/Users/cici_/Downloads/CS-Subject-1.osexp","no","mono","no","18","no","white","no","yes","768","legacy","11","11","C:/Users/cici_/Downloads/YB-subject-2.csv","legacy","Lentiform Loewenfeld","3.3.12","0","h","NA","s","NA","NA","h","603","NA","38352","NA","NA","603","2","legacy","1024","2","48000","-16","experiment","SSHSS","2","even","60875","41060","NA","NA","NA","2699","NA","NA","61980","2707","NA","NA","62084","62688","61977","62084","CS-FlankerTask","12","8350","12","yes","1024"
"100","100","678.4615384615385","678.4615384615385","black","legacy","legacy","legacy","0","incongruent","uniform","1","undefined","1","s","12","0","0","0","12","0","12","0","12","0","0","0","12","12","12","12","Sun Sep 18 20:00:47 2022","1500","The main experiment item","yes","C:/Users/cici_/Downloads/CS-Subject-1.osexp","no","mono","no","18","no","white","no","yes","768","legacy","12","12","C:/Users/cici_/Downloads/YB-subject-2.csv","legacy","Lentiform Loewenfeld","3.3.12","0","s","NA","s","NA","NA","s","470","NA","38352","NA","NA","470","2","legacy","1024","2","48000","-16","experiment","HHSHH","2","even","62699","41060","NA","NA","NA","2699","NA","NA","63805","2707","NA","NA","63907","64378","63801","63907","CS-FlankerTask","13","8820","13","yes","1024"
"100","100","669.2857142857143","669.2857142857143","black","legacy","legacy","legacy","0","incongruent","uniform","1","undefined","1","s","13","0","0","0","13","0","13","0","13","0","0","0","13","13","13","13","Sun Sep 18 20:00:47 2022","1500","The main experiment item","yes","C:/Users/cici_/Downloads/CS-Subject-1.osexp","no","mono","no","18","no","white","no","yes","768","legacy","13","13","C:/Users/cici_/Downloads/YB-subject-2.csv","legacy","Lentiform Loewenfeld","3.3.12","0","s","NA","s","NA","NA","s","550","NA","38352","NA","NA","550","2","legacy","1024","2","48000","-16","experiment","HHSHH","2","even","64395","41060","NA","NA","NA","2699","NA","NA","65495","2707","NA","NA","65597","66148","65490","65597","CS-FlankerTask","14","9370","14","yes","1024"
"100","100","656.2666666666667","656.2666666666667","black","legacy","legacy","legacy","0","congruent","uniform","1","undefined","1","s","14","0","0","0","14","0","14","0","14","0","0","0","14","14","14","14","Sun Sep 18 20:00:47 2022","1500","The main experiment item","yes","C:/Users/cici_/Downloads/CS-Subject-1.osexp","no","mono","no","18","no","white","no","yes","768","legacy","14","14","C:/Users/cici_/Downloads/YB-subject-2.csv","legacy","Lentiform Loewenfeld","3.3.12","0","s","NA","s","NA","NA","s","474","NA","38352","NA","NA","474","2","legacy","1024","2","48000","-16","experiment","SSSSS","2","even","66164","41060","NA","NA","NA","2699","NA","NA","67268","2707","NA","NA","67370","67844","67263","67370","CS-FlankerTask","15","9844","15","yes","1024"
"100","100","647.75","647.75","black","legacy","legacy","legacy","0","incongruent","uniform","1","undefined","1","h","15","0","0","0","15","0","15","0","15","0","0","0","15","15","15","15","Sun Sep 18 20:00:47 2022","1500","The main experiment item","yes","C:/Users/cici_/Downloads/CS-Subject-1.osexp","no","mono","no","18","no","white","no","yes","768","legacy","15","15","C:/Users/cici_/Downloads/YB-subject-2.csv","legacy","Lentiform Loewenfeld","3.3.12","0","h","NA","s","NA","NA","h","520","NA","38352","NA","NA","520","2","legacy","1024","2","48000","-16","experiment","SSHSS","2","even","67861","41060","NA","NA","NA","2699","NA","NA","68965","2707","NA","NA","69068","69589","68960","69068","CS-FlankerTask","16","10364","16","yes","1024"
"100","100","642.3529411764706","642.3529411764706","black","legacy","legacy","legacy","0","incongruent","uniform","1","undefined","1","s","16","0","0","0","16","0","16","0","16","0","0","0","16","16","16","16","Sun Sep 18 20:00:47 2022","1500","The main experiment item","yes","C:/Users/cici_/Downloads/CS-Subject-1.osexp","no","mono","no","18","no","white","no","yes","768","legacy","16","16","C:/Users/cici_/Downloads/YB-subject-2.csv","legacy","Lentiform Loewenfeld","3.3.12","0","s","NA","s","NA","NA","s","556","NA","38352","NA","NA","556","2","legacy","1024","2","48000","-16","experiment","HHSHH","2","even","69598","41060","NA","NA","NA","2699","NA","NA","70703","2707","NA","NA","70805","71362","70700","70805","CS-FlankerTask","17","10920","17","yes","1024"
"100","100","628.1111111111111","628.1111111111111","black","legacy","legacy","legacy","0","congruent","uniform","1","undefined","1","h","17","0","0","0","17","0","17","0","17","0","0","0","17","17","17","17","Sun Sep 18 20:00:47 2022","1500","The main experiment item","yes","C:/Users/cici_/Downloads/CS-Subject-1.osexp","no","mono","no","18","no","white","no","yes","768","legacy","17","17","C:/Users/cici_/Downloads/YB-subject-2.csv","legacy","Lentiform Loewenfeld","3.3.12","0","h","NA","s","NA","NA","h","386","NA","38352","NA","NA","386","2","legacy","1024","2","48000","-16","experiment","HHHHH","2","even","71368","41060","NA","NA","NA","2699","NA","NA","72489","2707","NA","NA","72591","72978","72485","72591","CS-FlankerTask","18","11306","18","yes","1024"
"100","100","624.1578947368421","624.1578947368421","black","legacy","legacy","legacy","0","incongruent","uniform","1","undefined","1","h","18","0","0","0","18","0","18","0","18","0","0","0","18","18","18","18","Sun Sep 18 20:00:47 2022","1500","The main experiment item","yes","C:/Users/cici_/Downloads/CS-Subject-1.osexp","no","mono","no","18","no","white","no","yes","768","legacy","18","18","C:/Users/cici_/Downloads/YB-subject-2.csv","legacy","Lentiform Loewenfeld","3.3.12","0","h","NA","s","NA","NA","h","553","NA","38352","NA","NA","553","2","legacy","1024","2","48000","-16","experiment","SSHSS","2","even","72995","41060","NA","NA","NA","2699","NA","NA","74093","2707","NA","NA","74196","74749","74090","74196","CS-FlankerTask","19","11859","19","yes","1024"
"100","100","614.9","614.9","black","legacy","legacy","legacy","0","incongruent","uniform","1","undefined","1","h","19","0","0","0","19","0","19","0","19","0","0","0","19","19","19","19","Sun Sep 18 20:00:47 2022","1500","The main experiment item","yes","C:/Users/cici_/Downloads/CS-Subject-1.osexp","no","mono","no","18","no","white","no","yes","768","legacy","19","19","C:/Users/cici_/Downloads/YB-subject-2.csv","legacy","Lentiform Loewenfeld","3.3.12","0","h","NA","s","NA","NA","h","439","NA","38352","NA","NA","439","2","legacy","1024","2","48000","-16","experiment","SSHSS","2","even","74767","41060","NA","NA","NA","2699","NA","NA","75869","2707","NA","NA","75972","76412","75865","75972","CS-FlankerTask","20","12298","20","yes","1024"
"100","100","610","610","black","legacy","legacy","legacy","0","incongruent","uniform","1","undefined","1","h","20","0","0","0","20","0","20","0","20","0","0","0","20","20","20","20","Sun Sep 18 20:00:47 2022","1500","The main experiment item","yes","C:/Users/cici_/Downloads/CS-Subject-1.osexp","no","mono","no","18","no","white","no","yes","768","legacy","20","20","C:/Users/cici_/Downloads/YB-subject-2.csv","legacy","Lentiform Loewenfeld","3.3.12","0","h","NA","s","NA","NA","h","512","NA","38352","NA","NA","512","2","legacy","1024","2","48000","-16","experiment","SSHSS","2","even","76429","41060","NA","NA","NA","2699","NA","NA","77533","2707","NA","NA","77635","78148","77528","77635","CS-FlankerTask","21","12810","21","yes","1024"
"100","100","604.6818181818181","604.6818181818181","black","legacy","legacy","legacy","0","incongruent","uniform","1","undefined","1","s","21","0","0","0","21","0","21","0","21","0","0","0","21","21","21","21","Sun Sep 18 20:00:47 2022","1500","The main experiment item","yes","C:/Users/cici_/Downloads/CS-Subject-1.osexp","no","mono","no","18","no","white","no","yes","768","legacy","21","21","C:/Users/cici_/Downloads/YB-subject-2.csv","legacy","Lentiform Loewenfeld","3.3.12","0","s","NA","s","NA","NA","s","493","NA","38352","NA","NA","493","2","legacy","1024","2","48000","-16","experiment","HHSHH","2","even","78163","41060","NA","NA","NA","2699","NA","NA","79258","2707","NA","NA","79360","79855","79254","79360","CS-FlankerTask","22","13303","22","yes","1024"
"100","100","598.1304347826087","598.1304347826087","black","legacy","legacy","legacy","0","congruent","uniform","1","undefined","1","s","22","0","0","0","22","0","22","0","22","0","0","0","22","22","22","22","Sun Sep 18 20:00:47 2022","1500","The main experiment item","yes","C:/Users/cici_/Downloads/CS-Subject-1.osexp","no","mono","no","18","no","white","no","yes","768","legacy","22","22","C:/Users/cici_/Downloads/YB-subject-2.csv","legacy","Lentiform Loewenfeld","3.3.12","0","s","NA","s","NA","NA","s","454","NA","38352","NA","NA","454","2","legacy","1024","2","48000","-16","experiment","SSSSS","2","even","79864","41060","NA","NA","NA","2699","NA","NA","80970","2707","NA","NA","81072","81527","80966","81072","CS-FlankerTask","23","13757","23","yes","1024"
"100","100","596.875","596.875","black","legacy","legacy","legacy","0","incongruent","uniform","1","undefined","1","s","23","0","0","0","23","0","23","0","23","0","0","0","23","23","23","23","Sun Sep 18 20:00:47 2022","1500","The main experiment item","yes","C:/Users/cici_/Downloads/CS-Subject-1.osexp","no","mono","no","18","no","white","no","yes","768","legacy","23","23","C:/Users/cici_/Downloads/YB-subject-2.csv","legacy","Lentiform Loewenfeld","3.3.12","0","s","NA","s","NA","NA","s","568","NA","38352","NA","NA","568","2","legacy","1024","2","48000","-16","experiment","HHSHH","2","even","81543","41060","NA","NA","NA","2699","NA","NA","82645","2707","NA","NA","82747","83317","82641","82747","CS-FlankerTask","24","14325","24","yes","1024"
"100","100","592.64","592.64","black","legacy","legacy","legacy","0","congruent","uniform","1","undefined","1","h","24","0","0","0","24","0","24","0","24","0","0","0","24","24","24","24","Sun Sep 18 20:00:47 2022","1500","The main experiment item","yes","C:/Users/cici_/Downloads/CS-Subject-1.osexp","no","mono","no","18","no","white","no","yes","768","legacy","24","24","C:/Users/cici_/Downloads/YB-subject-2.csv","legacy","Lentiform Loewenfeld","3.3.12","0","h","NA","s","NA","NA","h","491","NA","38352","NA","NA","491","2","legacy","1024","2","48000","-16","experiment","HHHHH","2","even","83334","41060","NA","NA","NA","2699","NA","NA","84443","2707","NA","NA","84545","85037","84440","84545","CS-FlankerTask","25","14816","25","yes","1024"
"100","100","590.0769230769231","590.0769230769231","black","legacy","legacy","legacy","0","congruent","uniform","1","undefined","1","h","25","0","0","0","25","0","25","0","25","0","0","0","25","25","25","25","Sun Sep 18 20:00:47 2022","1500","The main experiment item","yes","C:/Users/cici_/Downloads/CS-Subject-1.osexp","no","mono","no","18","no","white","no","yes","768","legacy","25","25","C:/Users/cici_/Downloads/YB-subject-2.csv","legacy","Lentiform Loewenfeld","3.3.12","0","h","NA","s","NA","NA","h","526","NA","38352","NA","NA","526","2","legacy","1024","2","48000","-16","experiment","HHHHH","2","even","85044","41060","NA","NA","NA","2699","NA","NA","86145","2707","NA","NA","86247","86774","86140","86247","CS-FlankerTask","26","15342","26","yes","1024"
"100","100","586.3703703703703","586.3703703703703","black","legacy","legacy","legacy","0","congruent","uniform","1","undefined","1","h","26","0","0","0","26","0","26","0","26","0","0","0","26","26","26","26","Sun Sep 18 20:00:47 2022","1500","The main experiment item","yes","C:/Users/cici_/Downloads/CS-Subject-1.osexp","no","mono","no","18","no","white","no","yes","768","legacy","26","26","C:/Users/cici_/Downloads/YB-subject-2.csv","legacy","Lentiform Loewenfeld","3.3.12","0","h","NA","s","NA","NA","h","490","NA","38352","NA","NA","490","2","legacy","1024","2","48000","-16","experiment","HHHHH","2","even","86790","41060","NA","NA","NA","2699","NA","NA","87889","2707","NA","NA","87991","88482","87884","87991","CS-FlankerTask","27","15832","27","yes","1024"
"100","100","579.5357142857143","579.5357142857143","black","legacy","legacy","legacy","0","congruent","uniform","1","undefined","1","s","27","0","0","0","27","0","27","0","27","0","0","0","27","27","27","27","Sun Sep 18 20:00:47 2022","1500","The main experiment item","yes","C:/Users/cici_/Downloads/CS-Subject-1.osexp","no","mono","no","18","no","white","no","yes","768","legacy","27","27","C:/Users/cici_/Downloads/YB-subject-2.csv","legacy","Lentiform Loewenfeld","3.3.12","0","s","NA","s","NA","NA","s","395","NA","38352","NA","NA","395","2","legacy","1024","2","48000","-16","experiment","SSSSS","2","even","88497","41060","NA","NA","NA","2699","NA","NA","89614","2707","NA","NA","89717","90113","89610","89717","CS-FlankerTask","28","16227","28","yes","1024"
"100","100","579.5172413793103","579.5172413793103","black","legacy","legacy","legacy","0","incongruent","uniform","1","undefined","1","s","28","0","0","0","28","0","28","0","28","0","0","0","28","28","28","28","Sun Sep 18 20:00:47 2022","1500","The main experiment item","yes","C:/Users/cici_/Downloads/CS-Subject-1.osexp","no","mono","no","18","no","white","no","yes","768","legacy","28","28","C:/Users/cici_/Downloads/YB-subject-2.csv","legacy","Lentiform Loewenfeld","3.3.12","0","s","NA","s","NA","NA","s","579","NA","38352","NA","NA","579","2","legacy","1024","2","48000","-16","experiment","HHSHH","2","even","90120","41060","NA","NA","NA","2699","NA","NA","91237","2707","NA","NA","91339","91919","91229","91339","CS-FlankerTask","29","16806","29","yes","1024"
"100","100","574.2333333333333","574.2333333333333","black","legacy","legacy","legacy","0","congruent","uniform","1","undefined","1","h","29","0","0","0","29","0","29","0","29","0","0","0","29","29","29","29","Sun Sep 18 20:00:47 2022","1500","The main experiment item","yes","C:/Users/cici_/Downloads/CS-Subject-1.osexp","no","mono","no","18","no","white","no","yes","768","legacy","29","29","C:/Users/cici_/Downloads/YB-subject-2.csv","legacy","Lentiform Loewenfeld","3.3.12","0","h","NA","s","NA","NA","h","421","NA","38352","NA","NA","421","2","legacy","1024","2","48000","-16","experiment","HHHHH","2","even","91927","41060","NA","NA","NA","2699","NA","NA","93037","2707","NA","NA","93139","93562","93034","93139","CS-FlankerTask","30","17227","30","yes","1024"
"100","100","568.7741935483871","568.7741935483871","black","legacy","legacy","legacy","0","congruent","uniform","1","undefined","1","s","30","0","0","0","30","0","30","0","30","0","0","0","30","30","30","30","Sun Sep 18 20:00:47 2022","1500","The main experiment item","yes","C:/Users/cici_/Downloads/CS-Subject-1.osexp","no","mono","no","18","no","white","no","yes","768","legacy","30","30","C:/Users/cici_/Downloads/YB-subject-2.csv","legacy","Lentiform Loewenfeld","3.3.12","0","s","NA","s","NA","NA","s","405","NA","38352","NA","NA","405","2","legacy","1024","2","48000","-16","experiment","SSSSS","2","even","93578","41060","NA","NA","NA","2699","NA","NA","94686","2707","NA","NA","94788","95195","94682","94788","CS-FlankerTask","31","17632","31","yes","1024"
"100","100","561.71875","561.71875","black","legacy","legacy","legacy","0","congruent","uniform","1","undefined","1","h","31","0","0","0","31","0","31","0","31","0","0","0","31","31","31","31","Sun Sep 18 20:00:47 2022","1500","The main experiment item","yes","C:/Users/cici_/Downloads/CS-Subject-1.osexp","no","mono","no","18","no","white","no","yes","768","legacy","31","31","C:/Users/cici_/Downloads/YB-subject-2.csv","legacy","Lentiform Loewenfeld","3.3.12","0","h","NA","s","NA","NA","h","343","NA","38352","NA","NA","343","2","legacy","1024","2","48000","-16","experiment","HHHHH","2","even","95211","41060","NA","NA","NA","2699","NA","NA","96315","2707","NA","NA","96418","96762","96312","96418","CS-FlankerTask","32","17975","32","yes","1024"
"100","100","555.3939393939394","555.3939393939394","black","legacy","legacy","legacy","0","congruent","uniform","1","undefined","1","s","32","0","0","0","32","0","32","0","32","0","0","0","32","32","32","32","Sun Sep 18 20:00:47 2022","1500","The main experiment item","yes","C:/Users/cici_/Downloads/CS-Subject-1.osexp","no","mono","no","18","no","white","no","yes","768","legacy","32","32","C:/Users/cici_/Downloads/YB-subject-2.csv","legacy","Lentiform Loewenfeld","3.3.12","0","s","NA","s","NA","NA","s","353","NA","38352","NA","NA","353","2","legacy","1024","2","48000","-16","experiment","SSSSS","2","even","96770","41060","NA","NA","NA","2699","NA","NA","97872","2707","NA","NA","97974","98328","97867","97974","CS-FlankerTask","33","18328","33","yes","1024"
"100","100","549.8529411764706","549.8529411764706","black","legacy","legacy","legacy","0","congruent","uniform","1","undefined","1","h","33","0","0","0","33","0","33","0","33","0","0","0","33","33","33","33","Sun Sep 18 20:00:47 2022","1500","The main experiment item","yes","C:/Users/cici_/Downloads/CS-Subject-1.osexp","no","mono","no","18","no","white","no","yes","768","legacy","33","33","C:/Users/cici_/Downloads/YB-subject-2.csv","legacy","Lentiform Loewenfeld","3.3.12","0","h","NA","s","NA","NA","h","367","NA","38352","NA","NA","367","2","legacy","1024","2","48000","-16","experiment","HHHHH","2","even","98335","41060","NA","NA","NA","2699","NA","NA","99441","2707","NA","NA","99545","99914","99439","99545","CS-FlankerTask","34","18695","34","yes","1024"
"100","100","549.9714285714285","549.9714285714285","black","legacy","legacy","legacy","0","incongruent","uniform","1","undefined","1","h","34","0","0","0","34","0","34","0","34","0","0","0","34","34","34","34","Sun Sep 18 20:00:47 2022","1500","The main experiment item","yes","C:/Users/cici_/Downloads/CS-Subject-1.osexp","no","mono","no","18","no","white","no","yes","768","legacy","34","34","C:/Users/cici_/Downloads/YB-subject-2.csv","legacy","Lentiform Loewenfeld","3.3.12","0","h","NA","s","NA","NA","h","554","NA","38352","NA","NA","554","2","legacy","1024","2","48000","-16","experiment","SSHSS","2","even","99931","41060","NA","NA","NA","2699","NA","NA","101030","2707","NA","NA","101132","101688","101025","101132","CS-FlankerTask","35","19249","35","yes","1024"
"100","100","546.7777777777778","546.7777777777778","black","legacy","legacy","legacy","0","congruent","uniform","1","undefined","1","s","35","0","0","0","35","0","35","0","35","0","0","0","35","35","35","35","Sun Sep 18 20:00:47 2022","1500","The main experiment item","yes","C:/Users/cici_/Downloads/CS-Subject-1.osexp","no","mono","no","18","no","white","no","yes","768","legacy","35","35","C:/Users/cici_/Downloads/YB-subject-2.csv","legacy","Lentiform Loewenfeld","3.3.12","0","s","NA","s","NA","NA","s","435","NA","38352","NA","NA","435","2","legacy","1024","2","48000","-16","experiment","SSSSS","2","even","101696","41060","NA","NA","NA","2699","NA","NA","102803","2707","NA","NA","102905","103342","102799","102905","CS-FlankerTask","36","19684","36","yes","1024"
"100","100","543.7297297297297","543.7297297297297","black","legacy","legacy","legacy","0","congruent","uniform","1","undefined","1","s","36","0","0","0","36","0","36","0","36","0","0","0","36","36","36","36","Sun Sep 18 20:00:47 2022","1500","The main experiment item","yes","C:/Users/cici_/Downloads/CS-Subject-1.osexp","no","mono","no","18","no","white","no","yes","768","legacy","36","36","C:/Users/cici_/Downloads/YB-subject-2.csv","legacy","Lentiform Loewenfeld","3.3.12","0","s","NA","s","NA","NA","s","434","NA","38352","NA","NA","434","2","legacy","1024","2","48000","-16","experiment","SSSSS","2","even","103359","41060","NA","NA","NA","2699","NA","NA","104459","2707","NA","NA","104561","104996","104455","104561","CS-FlankerTask","37","20118","37","yes","1024"
"100","100","544.1052631578947","544.1052631578947","black","legacy","legacy","legacy","0","incongruent","uniform","1","undefined","1","h","37","0","0","0","37","0","37","0","37","0","0","0","37","37","37","37","Sun Sep 18 20:00:47 2022","1500","The main experiment item","yes","C:/Users/cici_/Downloads/CS-Subject-1.osexp","no","mono","no","18","no","white","no","yes","768","legacy","37","37","C:/Users/cici_/Downloads/YB-subject-2.csv","legacy","Lentiform Loewenfeld","3.3.12","0","h","NA","s","NA","NA","h","558","NA","38352","NA","NA","558","2","legacy","1024","2","48000","-16","experiment","SSHSS","2","even","105012","41060","NA","NA","NA","2699","NA","NA","106115","2707","NA","NA","106218","106777","106110","106218","CS-FlankerTask","38","20676","38","yes","1024"
"97.43589743589743","97.43589743589743","541.4871794871794","541.4871794871794","black","legacy","legacy","legacy","0","incongruent","uniform","0","undefined","0","s","38","0","0","0","38","0","38","0","38","0","0","0","38","38","38","38","Sun Sep 18 20:00:47 2022","1500","The main experiment item","yes","C:/Users/cici_/Downloads/CS-Subject-1.osexp","no","mono","no","18","no","white","no","yes","768","legacy","38","38","C:/Users/cici_/Downloads/YB-subject-2.csv","legacy","Lentiform Loewenfeld","3.3.12","0","h","NA","s","NA","NA","h","442","NA","38352","NA","NA","442","2","legacy","1024","2","48000","-16","experiment","HHSHH","2","even","106793","41060","NA","NA","NA","2699","NA","NA","107893","2707","NA","NA","107996","108438","107888","107996","CS-FlankerTask","38","21118","39","yes","1024"
"97.5","97.5","547.025","547.025","black","legacy","legacy","legacy","0","incongruent","uniform","1","undefined","1","h","39","0","0","0","39","0","39","0","39","0","0","0","39","39","39","39","Sun Sep 18 20:00:47 2022","1500","The main experiment item","yes","C:/Users/cici_/Downloads/CS-Subject-1.osexp","no","mono","no","18","no","white","no","yes","768","legacy","39","39","C:/Users/cici_/Downloads/YB-subject-2.csv","legacy","Lentiform Loewenfeld","3.3.12","0","h","NA","s","NA","NA","h","763","NA","38352","NA","NA","763","2","legacy","1024","2","48000","-16","experiment","SSHSS","2","even","108957","41060","NA","NA","108455","2699","NA","NA","110054","2707","NA","NA","110156","110920","110051","110156","CS-FlankerTask","39","21881","40","yes","1024"
"95.1219512195122","95.1219512195122","543.0731707317074","543.0731707317074","black","legacy","legacy","legacy","0","incongruent","uniform","0","undefined","0","h","40","0","0","0","40","0","40","0","40","0","0","0","40","40","40","40","Sun Sep 18 20:00:47 2022","1500","The main experiment item","yes","C:/Users/cici_/Downloads/CS-Subject-1.osexp","no","mono","no","18","no","white","no","yes","768","legacy","40","40","C:/Users/cici_/Downloads/YB-subject-2.csv","legacy","Lentiform Loewenfeld","3.3.12","0","s","NA","s","NA","NA","s","385","NA","38352","NA","NA","385","2","legacy","1024","2","48000","-16","experiment","SSHSS","2","even","110936","41060","NA","NA","108455","2699","NA","NA","112035","2707","NA","NA","112137","112522","112031","112137","CS-FlankerTask","39","22266","41","yes","1024"
"95.23809523809524","95.23809523809524","548.0238095238095","548.0238095238095","black","legacy","legacy","legacy","0","congruent","uniform","1","undefined","1","s","41","0","0","0","41","0","41","0","41","0","0","0","41","41","41","41","Sun Sep 18 20:00:47 2022","1500","The main experiment item","yes","C:/Users/cici_/Downloads/CS-Subject-1.osexp","no","mono","no","18","no","white","no","yes","768","legacy","41","41","C:/Users/cici_/Downloads/YB-subject-2.csv","legacy","Lentiform Loewenfeld","3.3.12","0","s","NA","s","NA","NA","s","751","NA","38352","NA","NA","751","2","legacy","1024","2","48000","-16","experiment","SSSSS","2","even","113042","41060","NA","NA","112540","2699","NA","NA","114137","2707","NA","NA","114239","114991","114133","114239","CS-FlankerTask","40","23017","42","yes","1024"
"95.34883720930233","95.34883720930233","548.8139534883721","548.8139534883721","black","legacy","legacy","legacy","0","incongruent","uniform","1","undefined","1","s","42","0","0","0","42","0","42","0","42","0","0","0","42","42","42","42","Sun Sep 18 20:00:47 2022","1500","The main experiment item","yes","C:/Users/cici_/Downloads/CS-Subject-1.osexp","no","mono","no","18","no","white","no","yes","768","legacy","42","42","C:/Users/cici_/Downloads/YB-subject-2.csv","legacy","Lentiform Loewenfeld","3.3.12","0","s","NA","s","NA","NA","s","582","NA","38352","NA","NA","582","2","legacy","1024","2","48000","-16","experiment","HHSHH","2","even","115008","41060","NA","NA","112540","2699","NA","NA","116108","2707","NA","NA","116210","116794","116104","116210","CS-FlankerTask","41","23599","43","yes","1024"
"95.45454545454545","95.45454545454545","549.0227272727273","549.0227272727273","black","legacy","legacy","legacy","0","congruent","uniform","1","undefined","1","s","43","0","0","0","43","0","43","0","43","0","0","0","43","43","43","43","Sun Sep 18 20:00:47 2022","1500","The main experiment item","yes","C:/Users/cici_/Downloads/CS-Subject-1.osexp","no","mono","no","18","no","white","no","yes","768","legacy","43","43","C:/Users/cici_/Downloads/YB-subject-2.csv","legacy","Lentiform Loewenfeld","3.3.12","0","s","NA","s","NA","NA","s","558","NA","38352","NA","NA","558","2","legacy","1024","2","48000","-16","experiment","SSSSS","2","even","116801","41060","NA","NA","112540","2699","NA","NA","117915","2707","NA","NA","118017","118576","117911","118017","CS-FlankerTask","42","24157","44","yes","1024"
"95.55555555555556","95.55555555555556","552.4444444444445","552.4444444444445","black","legacy","legacy","legacy","0","congruent","uniform","1","undefined","1","h","44","0","0","0","44","0","44","0","44","0","0","0","44","44","44","44","Sun Sep 18 20:00:47 2022","1500","The main experiment item","yes","C:/Users/cici_/Downloads/CS-Subject-1.osexp","no","mono","no","18","no","white","no","yes","768","legacy","44","44","C:/Users/cici_/Downloads/YB-subject-2.csv","legacy","Lentiform Loewenfeld","3.3.12","0","h","NA","s","NA","NA","h","703","NA","38352","NA","NA","703","2","legacy","1024","2","48000","-16","experiment","HHHHH","2","even","118593","41060","NA","NA","112540","2699","NA","NA","119689","2707","NA","NA","119791","120495","119685","119791","CS-FlankerTask","43","24860","45","yes","1024"
"95.65217391304348","95.65217391304348","550.7826086956521","550.7826086956521","black","legacy","legacy","legacy","0","congruent","uniform","1","undefined","1","s","45","0","0","0","45","0","45","0","45","0","0","0","45","45","45","45","Sun Sep 18 20:00:47 2022","1500","The main experiment item","yes","C:/Users/cici_/Downloads/CS-Subject-1.osexp","no","mono","no","18","no","white","no","yes","768","legacy","45","45","C:/Users/cici_/Downloads/YB-subject-2.csv","legacy","Lentiform Loewenfeld","3.3.12","0","s","NA","s","NA","NA","s","476","NA","38352","NA","NA","476","2","legacy","1024","2","48000","-16","experiment","SSSSS","2","even","120513","41060","NA","NA","112540","2699","NA","NA","121628","2707","NA","NA","121730","122207","121624","121730","CS-FlankerTask","44","25336","46","yes","1024"
"95.74468085106383","95.74468085106383","549.3829787234042","549.3829787234042","black","legacy","legacy","legacy","0","congruent","uniform","1","undefined","1","s","46","0","0","0","46","0","46","0","46","0","0","0","46","46","46","46","Sun Sep 18 20:00:47 2022","1500","The main experiment item","yes","C:/Users/cici_/Downloads/CS-Subject-1.osexp","no","mono","no","18","no","white","no","yes","768","legacy","46","46","C:/Users/cici_/Downloads/YB-subject-2.csv","legacy","Lentiform Loewenfeld","3.3.12","0","s","NA","s","NA","NA","s","485","NA","38352","NA","NA","485","2","legacy","1024","2","48000","-16","experiment","SSSSS","2","even","122215","41060","NA","NA","112540","2699","NA","NA","123309","2707","NA","NA","123411","123898","123305","123411","CS-FlankerTask","45","25821","47","yes","1024"
"95.83333333333333","95.83333333333333","547.0625","547.0625","black","legacy","legacy","legacy","0","congruent","uniform","1","undefined","1","h","47","0","0","0","47","0","47","0","47","0","0","0","47","47","47","47","Sun Sep 18 20:00:47 2022","1500","The main experiment item","yes","C:/Users/cici_/Downloads/CS-Subject-1.osexp","no","mono","no","18","no","white","no","yes","768","legacy","47","47","C:/Users/cici_/Downloads/YB-subject-2.csv","legacy","Lentiform Loewenfeld","3.3.12","0","h","NA","s","NA","NA","h","438","NA","38352","NA","NA","438","2","legacy","1024","2","48000","-16","experiment","HHHHH","2","even","123914","41060","NA","NA","112540","2699","NA","NA","125010","2707","NA","NA","125113","125552","125005","125113","CS-FlankerTask","46","26259","48","yes","1024"
"95.91836734693878","95.91836734693878","543.6326530612245","543.6326530612245","black","legacy","legacy","legacy","0","congruent","uniform","1","undefined","1","s","48","0","0","0","48","0","48","0","48","0","0","0","48","48","48","48","Sun Sep 18 20:00:47 2022","1500","The main experiment item","yes","C:/Users/cici_/Downloads/CS-Subject-1.osexp","no","mono","no","18","no","white","no","yes","768","legacy","48","48","C:/Users/cici_/Downloads/YB-subject-2.csv","legacy","Lentiform Loewenfeld","3.3.12","0","s","NA","s","NA","NA","s","379","NA","38352","NA","NA","379","2","legacy","1024","2","48000","-16","experiment","SSSSS","2","even","125560","41060","NA","NA","112540","2699","NA","NA","126664","2707","NA","NA","126767","127148","126660","126767","CS-FlankerTask","47","26638","49","yes","1024"
"96","96","540.54","540.54","black","legacy","legacy","legacy","0","congruent","uniform","1","undefined","1","h","49","0","0","0","49","0","49","0","49","0","0","0","49","49","49","49","Sun Sep 18 20:00:47 2022","1500","The main experiment item","yes","C:/Users/cici_/Downloads/CS-Subject-1.osexp","no","mono","no","18","no","white","no","yes","768","legacy","49","49","C:/Users/cici_/Downloads/YB-subject-2.csv","legacy","Lentiform Loewenfeld","3.3.12","0","h","NA","s","NA","NA","h","389","NA","38352","NA","NA","389","2","legacy","1024","2","48000","-16","experiment","HHHHH","2","even","127154","41060","NA","NA","112540","2699","NA","NA","128261","2707","NA","NA","128363","128753","128257","128363","CS-FlankerTask","48","27027","50","yes","1024"
"96.07843137254902","96.07843137254902","540.9215686274509","540.9215686274509","black","legacy","legacy","legacy","0","congruent","uniform","1","undefined","1","h","50","0","0","0","50","0","50","0","50","0","0","0","50","50","50","50","Sun Sep 18 20:00:47 2022","1500","The main experiment item","yes","C:/Users/cici_/Downloads/CS-Subject-1.osexp","no","mono","no","18","no","white","no","yes","768","legacy","50","50","C:/Users/cici_/Downloads/YB-subject-2.csv","legacy","Lentiform Loewenfeld","3.3.12","0","h","NA","s","NA","NA","h","560","NA","38352","NA","NA","560","2","legacy","1024","2","48000","-16","experiment","HHHHH","2","even","128771","41060","NA","NA","112540","2699","NA","NA","129875","2707","NA","NA","129977","130538","129870","129977","CS-FlankerTask","49","27587","51","yes","1024"
"96.15384615384616","96.15384615384616","539.8653846153846","539.8653846153846","black","legacy","legacy","legacy","0","congruent","uniform","1","undefined","1","s","51","0","0","0","51","0","51","0","51","0","0","0","51","51","51","51","Sun Sep 18 20:00:47 2022","1500","The main experiment item","yes","C:/Users/cici_/Downloads/CS-Subject-1.osexp","no","mono","no","18","no","white","no","yes","768","legacy","51","51","C:/Users/cici_/Downloads/YB-subject-2.csv","legacy","Lentiform Loewenfeld","3.3.12","0","s","NA","s","NA","NA","s","486","NA","38352","NA","NA","486","2","legacy","1024","2","48000","-16","experiment","SSSSS","2","even","130555","41060","NA","NA","112540","2699","NA","NA","131650","2707","NA","NA","131752","132239","131646","131752","CS-FlankerTask","50","28073","52","yes","1024"
"96.22641509433963","96.22641509433963","540.7169811320755","540.7169811320755","black","legacy","legacy","legacy","0","incongruent","uniform","1","undefined","1","s","52","0","0","0","52","0","52","0","52","0","0","0","52","52","52","52","Sun Sep 18 20:00:47 2022","1500","The main experiment item","yes","C:/Users/cici_/Downloads/CS-Subject-1.osexp","no","mono","no","18","no","white","no","yes","768","legacy","52","52","C:/Users/cici_/Downloads/YB-subject-2.csv","legacy","Lentiform Loewenfeld","3.3.12","0","s","NA","s","NA","NA","s","585","NA","38352","NA","NA","585","2","legacy","1024","2","48000","-16","experiment","HHSHH","2","even","132257","41060","NA","NA","112540","2699","NA","NA","133355","2707","NA","NA","133456","134043","133351","133456","CS-FlankerTask","51","28658","53","yes","1024"
"96.29629629629629","96.29629629629629","538.3888888888889","538.3888888888889","black","legacy","legacy","legacy","0","congruent","uniform","1","undefined","1","h","53","0","0","0","53","0","53","0","53","0","0","0","53","53","53","53","Sun Sep 18 20:00:47 2022","1500","The main experiment item","yes","C:/Users/cici_/Downloads/CS-Subject-1.osexp","no","mono","no","18","no","white","no","yes","768","legacy","53","53","C:/Users/cici_/Downloads/YB-subject-2.csv","legacy","Lentiform Loewenfeld","3.3.12","0","h","NA","s","NA","NA","h","415","NA","38352","NA","NA","415","2","legacy","1024","2","48000","-16","experiment","HHHHH","2","even","134049","41060","NA","NA","112540","2699","NA","NA","135146","2707","NA","NA","135248","135665","135143","135248","CS-FlankerTask","52","29073","54","yes","1024"
"96.36363636363636","96.36363636363636","537.4909090909091","537.4909090909091","black","legacy","legacy","legacy","0","incongruent","uniform","1","undefined","1","h","54","0","0","0","54","0","54","0","54","0","0","0","54","54","54","54","Sun Sep 18 20:00:47 2022","1500","The main experiment item","yes","C:/Users/cici_/Downloads/CS-Subject-1.osexp","no","mono","no","18","no","white","no","yes","768","legacy","54","54","C:/Users/cici_/Downloads/YB-subject-2.csv","legacy","Lentiform Loewenfeld","3.3.12","0","h","NA","s","NA","NA","h","489","NA","38352","NA","NA","489","2","legacy","1024","2","48000","-16","experiment","SSHSS","2","even","135681","41060","NA","NA","112540","2699","NA","NA","136788","2707","NA","NA","136890","137380","136783","136890","CS-FlankerTask","53","29562","55","yes","1024"
"96.42857142857143","96.42857142857143","538.0714285714286","538.0714285714286","black","legacy","legacy","legacy","0","congruent","uniform","1","undefined","1","s","55","0","0","0","55","0","55","0","55","0","0","0","55","55","55","55","Sun Sep 18 20:00:47 2022","1500","The main experiment item","yes","C:/Users/cici_/Downloads/CS-Subject-1.osexp","no","mono","no","18","no","white","no","yes","768","legacy","55","55","C:/Users/cici_/Downloads/YB-subject-2.csv","legacy","Lentiform Loewenfeld","3.3.12","0","s","NA","s","NA","NA","s","570","NA","38352","NA","NA","570","2","legacy","1024","2","48000","-16","experiment","SSSSS","2","even","137396","41060","NA","NA","112540","2699","NA","NA","138499","2707","NA","NA","138601","139172","138494","138601","CS-FlankerTask","54","30132","56","yes","1024"
"96.49122807017544","96.49122807017544","538.7368421052631","538.7368421052631","black","legacy","legacy","legacy","0","incongruent","uniform","1","undefined","1","s","56","0","0","0","56","0","56","0","56","0","0","0","56","56","56","56","Sun Sep 18 20:00:47 2022","1500","The main experiment item","yes","C:/Users/cici_/Downloads/CS-Subject-1.osexp","no","mono","no","18","no","white","no","yes","768","legacy","56","56","C:/Users/cici_/Downloads/YB-subject-2.csv","legacy","Lentiform Loewenfeld","3.3.12","0","s","NA","s","NA","NA","s","576","NA","38352","NA","NA","576","2","legacy","1024","2","48000","-16","experiment","HHSHH","2","even","139191","41060","NA","NA","112540","2699","NA","NA","140290","2707","NA","NA","140392","140971","140286","140392","CS-FlankerTask","55","30708","57","yes","1024"
"96.55172413793103","96.55172413793103","542.8965517241379","542.8965517241379","black","legacy","legacy","legacy","0","incongruent","uniform","1","undefined","1","h","57","0","0","0","57","0","57","0","57","0","0","0","57","57","57","57","Sun Sep 18 20:00:47 2022","1500","The main experiment item","yes","C:/Users/cici_/Downloads/CS-Subject-1.osexp","no","mono","no","18","no","white","no","yes","768","legacy","57","57","C:/Users/cici_/Downloads/YB-subject-2.csv","legacy","Lentiform Loewenfeld","3.3.12","0","h","NA","s","NA","NA","h","780","NA","38352","NA","NA","780","2","legacy","1024","2","48000","-16","experiment","SSHSS","2","even","140987","41060","NA","NA","112540","2699","NA","NA","142086","2707","NA","NA","142188","142968","142081","142188","CS-FlankerTask","56","31488","58","yes","1024"
"96.61016949152543","96.61016949152543","545.271186440678","545.271186440678","black","legacy","legacy","legacy","0","congruent","uniform","1","undefined","1","h","58","0","0","0","58","0","58","0","58","0","0","0","58","58","58","58","Sun Sep 18 20:00:47 2022","1500","The main experiment item","yes","C:/Users/cici_/Downloads/CS-Subject-1.osexp","no","mono","no","18","no","white","no","yes","768","legacy","58","58","C:/Users/cici_/Downloads/YB-subject-2.csv","legacy","Lentiform Loewenfeld","3.3.12","0","h","NA","s","NA","NA","h","683","NA","38352","NA","NA","683","2","legacy","1024","2","48000","-16","experiment","HHHHH","2","even","142986","41060","NA","NA","112540","2699","NA","NA","144083","2707","NA","NA","144185","144869","144078","144185","CS-FlankerTask","57","32171","59","yes","1024"
"96.66666666666667","96.66666666666667","543.95","543.95","black","legacy","legacy","legacy","0","congruent","uniform","1","undefined","1","s","59","0","0","0","59","0","59","0","59","0","0","0","59","59","59","59","Sun Sep 18 20:00:47 2022","1500","The main experiment item","yes","C:/Users/cici_/Downloads/CS-Subject-1.osexp","no","mono","no","18","no","white","no","yes","768","legacy","59","59","C:/Users/cici_/Downloads/YB-subject-2.csv","legacy","Lentiform Loewenfeld","3.3.12","0","s","NA","s","NA","NA","s","466","NA","38352","NA","NA","466","2","legacy","1024","2","48000","-16","experiment","SSSSS","2","even","144887","41060","NA","NA","112540","2699","NA","NA","145986","2707","NA","NA","146088","146555","145981","146088","CS-FlankerTask","58","32637","60","yes","1024"
"96.72131147540983","96.72131147540983","541.8360655737705","541.8360655737705","black","legacy","legacy","legacy","0","incongruent","uniform","1","undefined","1","h","60","0","0","0","60","0","60","0","60","0","0","0","60","60","60","60","Sun Sep 18 20:00:47 2022","1500","The main experiment item","yes","C:/Users/cici_/Downloads/CS-Subject-1.osexp","no","mono","no","18","no","white","no","yes","768","legacy","60","60","C:/Users/cici_/Downloads/YB-subject-2.csv","legacy","Lentiform Loewenfeld","3.3.12","0","h","NA","s","NA","NA","h","415","NA","38352","NA","NA","415","2","legacy","1024","2","48000","-16","experiment","SSHSS","2","even","146562","41060","NA","NA","112540","2699","NA","NA","147670","2707","NA","NA","147772","148189","147665","147772","CS-FlankerTask","59","33052","61","yes","1024"
"96.7741935483871","96.7741935483871","538.9516129032259","538.9516129032259","black","legacy","legacy","legacy","0","congruent","uniform","1","undefined","1","s","61","0","0","0","61","0","61","0","61","0","0","0","61","61","61","61","Sun Sep 18 20:00:47 2022","1500","The main experiment item","yes","C:/Users/cici_/Downloads/CS-Subject-1.osexp","no","mono","no","18","no","white","no","yes","768","legacy","61","61","C:/Users/cici_/Downloads/YB-subject-2.csv","legacy","Lentiform Loewenfeld","3.3.12","0","s","NA","s","NA","NA","s","363","NA","38352","NA","NA","363","2","legacy","1024","2","48000","-16","experiment","SSSSS","2","even","148196","41060","NA","NA","112540","2699","NA","NA","149307","2707","NA","NA","149410","149775","149303","149410","CS-FlankerTask","60","33415","62","yes","1024"
"95.23809523809524","95.23809523809524","537.4920634920635","537.4920634920635","black","legacy","legacy","legacy","0","incongruent","uniform","0","undefined","0","s","62","0","0","0","62","0","62","0","62","0","0","0","62","62","62","62","Sun Sep 18 20:00:47 2022","1500","The main experiment item","yes","C:/Users/cici_/Downloads/CS-Subject-1.osexp","no","mono","no","18","no","white","no","yes","768","legacy","62","62","C:/Users/cici_/Downloads/YB-subject-2.csv","legacy","Lentiform Loewenfeld","3.3.12","0","h","NA","s","NA","NA","h","447","NA","38352","NA","NA","447","2","legacy","1024","2","48000","-16","experiment","HHSHH","2","even","149781","41060","NA","NA","112540","2699","NA","NA","150884","2707","NA","NA","150986","151435","150880","150985","CS-FlankerTask","60","33862","63","yes","1024"
"95.3125","95.3125","540.359375","540.359375","black","legacy","legacy","legacy","0","congruent","uniform","1","undefined","1","h","63","0","0","0","63","0","63","0","63","0","0","0","63","63","63","63","Sun Sep 18 20:00:47 2022","1500","The main experiment item","yes","C:/Users/cici_/Downloads/CS-Subject-1.osexp","no","mono","no","18","no","white","no","yes","768","legacy","63","63","C:/Users/cici_/Downloads/YB-subject-2.csv","legacy","Lentiform Loewenfeld","3.3.12","0","h","NA","s","NA","NA","h","721","NA","38352","NA","NA","721","2","legacy","1024","2","48000","-16","experiment","HHHHH","2","even","151955","41060","NA","NA","151452","2699","NA","NA","153054","2707","NA","NA","153156","153879","153051","153156","CS-FlankerTask","61","34583","64","yes","1024"
"95.38461538461539","95.38461538461539","539.4","539.4","black","legacy","legacy","legacy","0","incongruent","uniform","1","undefined","1","s","64","0","0","0","64","0","64","0","64","0","0","0","64","64","64","64","Sun Sep 18 20:00:47 2022","1500","The main experiment item","yes","C:/Users/cici_/Downloads/CS-Subject-1.osexp","no","mono","no","18","no","white","no","yes","768","legacy","64","64","C:/Users/cici_/Downloads/YB-subject-2.csv","legacy","Lentiform Loewenfeld","3.3.12","0","s","NA","s","NA","NA","s","478","NA","38352","NA","NA","478","2","legacy","1024","2","48000","-16","experiment","HHSHH","2","even","153896","41060","NA","NA","151452","2699","NA","NA","154993","2707","NA","NA","155095","155574","154989","155095","CS-FlankerTask","62","35061","65","yes","1024"
"95.45454545454545","95.45454545454545","542.5909090909091","542.5909090909091","black","legacy","legacy","legacy","0","incongruent","uniform","1","undefined","1","h","65","0","0","0","65","0","65","0","65","0","0","0","65","65","65","65","Sun Sep 18 20:00:47 2022","1500","The main experiment item","yes","C:/Users/cici_/Downloads/CS-Subject-1.osexp","no","mono","no","18","no","white","no","yes","768","legacy","65","65","C:/Users/cici_/Downloads/YB-subject-2.csv","legacy","Lentiform Loewenfeld","3.3.12","0","h","NA","s","NA","NA","h","750","NA","38352","NA","NA","750","2","legacy","1024","2","48000","-16","experiment","SSHSS","2","even","155581","41060","NA","NA","151452","2699","NA","NA","156685","2707","NA","NA","156787","157539","156681","156787","CS-FlankerTask","63","35811","66","yes","1024"
"95.5223880597015","95.5223880597015","543.4328358208955","543.4328358208955","black","legacy","legacy","legacy","0","incongruent","uniform","1","undefined","1","h","66","0","0","0","66","0","66","0","66","0","0","0","66","66","66","66","Sun Sep 18 20:00:47 2022","1500","The main experiment item","yes","C:/Users/cici_/Downloads/CS-Subject-1.osexp","no","mono","no","18","no","white","no","yes","768","legacy","66","66","C:/Users/cici_/Downloads/YB-subject-2.csv","legacy","Lentiform Loewenfeld","3.3.12","0","h","NA","s","NA","NA","h","599","NA","38352","NA","NA","599","2","legacy","1024","2","48000","-16","experiment","SSHSS","2","even","157557","41060","NA","NA","151452","2699","NA","NA","158658","2707","NA","NA","158760","159360","158654","158760","CS-FlankerTask","64","36410","67","yes","1024"
"95.58823529411765","95.58823529411765","543.3088235294117","543.3088235294117","black","legacy","legacy","legacy","0","congruent","uniform","1","undefined","1","s","67","0","0","0","67","0","67","0","67","0","0","0","67","67","67","67","Sun Sep 18 20:00:47 2022","1500","The main experiment item","yes","C:/Users/cici_/Downloads/CS-Subject-1.osexp","no","mono","no","18","no","white","no","yes","768","legacy","67","67","C:/Users/cici_/Downloads/YB-subject-2.csv","legacy","Lentiform Loewenfeld","3.3.12","0","s","NA","s","NA","NA","s","535","NA","38352","NA","NA","535","2","legacy","1024","2","48000","-16","experiment","SSSSS","2","even","159367","41060","NA","NA","151452","2699","NA","NA","160470","2707","NA","NA","160572","161109","160466","160572","CS-FlankerTask","65","36945","68","yes","1024"
"95.65217391304348","95.65217391304348","543.7536231884058","543.7536231884058","black","legacy","legacy","legacy","0","incongruent","uniform","1","undefined","1","h","68","0","0","0","68","0","68","0","68","0","0","0","68","68","68","68","Sun Sep 18 20:00:47 2022","1500","The main experiment item","yes","C:/Users/cici_/Downloads/CS-Subject-1.osexp","no","mono","no","18","no","white","no","yes","768","legacy","68","68","C:/Users/cici_/Downloads/YB-subject-2.csv","legacy","Lentiform Loewenfeld","3.3.12","0","h","NA","s","NA","NA","h","574","NA","38352","NA","NA","574","2","legacy","1024","2","48000","-16","experiment","SSHSS","2","even","161125","41060","NA","NA","151452","2699","NA","NA","162223","2707","NA","NA","162325","162900","162218","162325","CS-FlankerTask","66","37519","69","yes","1024"
"95.71428571428571","95.71428571428571","543.3571428571429","543.3571428571429","black","legacy","legacy","legacy","0","incongruent","uniform","1","undefined","1","s","69","0","0","0","69","0","69","0","69","0","0","0","69","69","69","69","Sun Sep 18 20:00:47 2022","1500","The main experiment item","yes","C:/Users/cici_/Downloads/CS-Subject-1.osexp","no","mono","no","18","no","white","no","yes","768","legacy","69","69","C:/Users/cici_/Downloads/YB-subject-2.csv","legacy","Lentiform Loewenfeld","3.3.12","0","s","NA","s","NA","NA","s","516","NA","38352","NA","NA","516","2","legacy","1024","2","48000","-16","experiment","HHSHH","2","even","162908","41060","NA","NA","151452","2699","NA","NA","164009","2707","NA","NA","164111","164628","164005","164111","CS-FlankerTask","67","38035","70","yes","1024"
"95.77464788732394","95.77464788732394","543.4366197183099","543.4366197183099","black","legacy","legacy","legacy","0","congruent","uniform","1","undefined","1","h","70","0","0","0","70","0","70","0","70","0","0","0","70","70","70","70","Sun Sep 18 20:00:47 2022","1500","The main experiment item","yes","C:/Users/cici_/Downloads/CS-Subject-1.osexp","no","mono","no","18","no","white","no","yes","768","legacy","70","70","C:/Users/cici_/Downloads/YB-subject-2.csv","legacy","Lentiform Loewenfeld","3.3.12","0","h","NA","s","NA","NA","h","549","NA","38352","NA","NA","549","2","legacy","1024","2","48000","-16","experiment","HHHHH","2","even","164648","41060","NA","NA","151452","2699","NA","NA","165753","2707","NA","NA","165855","166406","165749","165855","CS-FlankerTask","68","38584","71","yes","1024"
"95.83333333333333","95.83333333333333","542.9722222222222","542.9722222222222","black","legacy","legacy","legacy","0","incongruent","uniform","1","undefined","1","s","71","0","0","0","71","0","71","0","71","0","0","0","71","71","71","71","Sun Sep 18 20:00:47 2022","1500","The main experiment item","yes","C:/Users/cici_/Downloads/CS-Subject-1.osexp","no","mono","no","18","no","white","no","yes","768","legacy","71","71","C:/Users/cici_/Downloads/YB-subject-2.csv","legacy","Lentiform Loewenfeld","3.3.12","0","s","NA","s","NA","NA","s","510","NA","38352","NA","NA","510","2","legacy","1024","2","48000","-16","experiment","HHSHH","2","even","166423","41060","NA","NA","151452","2699","NA","NA","167524","2707","NA","NA","167626","168137","167521","167626","CS-FlankerTask","69","39094","72","yes","1024"
"95.89041095890411","95.89041095890411","542.1506849315068","542.1506849315068","black","legacy","legacy","legacy","0","congruent","uniform","1","undefined","1","s","72","0","0","0","72","0","72","0","72","0","0","0","72","72","72","72","Sun Sep 18 20:00:47 2022","1500","The main experiment item","yes","C:/Users/cici_/Downloads/CS-Subject-1.osexp","no","mono","no","18","no","white","no","yes","768","legacy","72","72","C:/Users/cici_/Downloads/YB-subject-2.csv","legacy","Lentiform Loewenfeld","3.3.12","0","s","NA","s","NA","NA","s","483","NA","38352","NA","NA","483","2","legacy","1024","2","48000","-16","experiment","SSSSS","2","even","168143","41060","NA","NA","151452","2699","NA","NA","169241","2707","NA","NA","169343","169827","169237","169343","CS-FlankerTask","70","39577","73","yes","1024"
"95.94594594594595","95.94594594594595","540.4459459459459","540.4459459459459","black","legacy","legacy","legacy","0","incongruent","uniform","1","undefined","1","h","73","0","0","0","73","0","73","0","73","0","0","0","73","73","73","73","Sun Sep 18 20:00:47 2022","1500","The main experiment item","yes","C:/Users/cici_/Downloads/CS-Subject-1.osexp","no","mono","no","18","no","white","no","yes","768","legacy","73","73","C:/Users/cici_/Downloads/YB-subject-2.csv","legacy","Lentiform Loewenfeld","3.3.12","0","h","NA","s","NA","NA","h","416","NA","38352","NA","NA","416","2","legacy","1024","2","48000","-16","experiment","SSHSS","2","even","169843","41060","NA","NA","151452","2699","NA","NA","170942","2707","NA","NA","171043","171460","170937","171043","CS-FlankerTask","71","39993","74","yes","1024"
"96","96","539.6266666666667","539.6266666666667","black","legacy","legacy","legacy","0","congruent","uniform","1","undefined","1","h","74","0","0","0","74","0","74","0","74","0","0","0","74","74","74","74","Sun Sep 18 20:00:47 2022","1500","The main experiment item","yes","C:/Users/cici_/Downloads/CS-Subject-1.osexp","no","mono","no","18","no","white","no","yes","768","legacy","74","74","C:/Users/cici_/Downloads/YB-subject-2.csv","legacy","Lentiform Loewenfeld","3.3.12","0","h","NA","s","NA","NA","h","479","NA","38352","NA","NA","479","2","legacy","1024","2","48000","-16","experiment","HHHHH","2","even","171476","41060","NA","NA","151452","2699","NA","NA","172574","2707","NA","NA","172676","173157","172570","172676","CS-FlankerTask","72","40472","75","yes","1024"
"96.05263157894737","96.05263157894737","539.078947368421","539.078947368421","black","legacy","legacy","legacy","0","incongruent","uniform","1","undefined","1","s","75","0","0","0","75","0","75","0","75","0","0","0","75","75","75","75","Sun Sep 18 20:00:47 2022","1500","The main experiment item","yes","C:/Users/cici_/Downloads/CS-Subject-1.osexp","no","mono","no","18","no","white","no","yes","768","legacy","75","75","C:/Users/cici_/Downloads/YB-subject-2.csv","legacy","Lentiform Loewenfeld","3.3.12","0","s","NA","s","NA","NA","s","498","NA","38352","NA","NA","498","2","legacy","1024","2","48000","-16","experiment","HHSHH","2","even","173173","41060","NA","NA","151452","2699","NA","NA","174277","2707","NA","NA","174378","174877","174272","174378","CS-FlankerTask","73","40970","76","yes","1024"
"96.1038961038961","96.1038961038961","541.1298701298701","541.1298701298701","black","legacy","legacy","legacy","0","incongruent","uniform","1","undefined","1","s","76","0","0","0","76","0","76","0","76","0","0","0","76","76","76","76","Sun Sep 18 20:00:47 2022","1500","The main experiment item","yes","C:/Users/cici_/Downloads/CS-Subject-1.osexp","no","mono","no","18","no","white","no","yes","768","legacy","76","76","C:/Users/cici_/Downloads/YB-subject-2.csv","legacy","Lentiform Loewenfeld","3.3.12","0","s","NA","s","NA","NA","s","697","NA","38352","NA","NA","697","2","legacy","1024","2","48000","-16","experiment","HHSHH","2","even","174895","41060","NA","NA","151452","2699","NA","NA","175990","2707","NA","NA","176093","176792","175987","176093","CS-FlankerTask","74","41667","77","yes","1024"
"96.15384615384616","96.15384615384616","540.7948717948718","540.7948717948718","black","legacy","legacy","legacy","0","congruent","uniform","1","undefined","1","h","77","0","0","0","77","0","77","0","77","0","0","0","77","77","77","77","Sun Sep 18 20:00:47 2022","1500","The main experiment item","yes","C:/Users/cici_/Downloads/CS-Subject-1.osexp","no","mono","no","18","no","white","no","yes","768","legacy","77","77","C:/Users/cici_/Downloads/YB-subject-2.csv","legacy","Lentiform Loewenfeld","3.3.12","0","h","NA","s","NA","NA","h","515","NA","38352","NA","NA","515","2","legacy","1024","2","48000","-16","experiment","HHHHH","2","even","176808","41060","NA","NA","151452","2699","NA","NA","177903","2707","NA","NA","178005","178522","177900","178005","CS-FlankerTask","75","42182","78","yes","1024"
"96.20253164556962","96.20253164556962","543.367088607595","543.367088607595","black","legacy","legacy","legacy","0","congruent","uniform","1","undefined","1","h","78","0","0","0","78","0","78","0","78","0","0","0","78","78","78","78","Sun Sep 18 20:00:47 2022","1500","The main experiment item","yes","C:/Users/cici_/Downloads/CS-Subject-1.osexp","no","mono","no","18","no","white","no","yes","768","legacy","78","78","C:/Users/cici_/Downloads/YB-subject-2.csv","legacy","Lentiform Loewenfeld","3.3.12","0","h","NA","s","NA","NA","h","744","NA","38352","NA","NA","744","2","legacy","1024","2","48000","-16","experiment","HHHHH","2","even","178539","41060","NA","NA","151452","2699","NA","NA","179644","2707","NA","NA","179746","180492","179638","179746","CS-FlankerTask","76","42926","79","yes","1024"
"96.25","96.25","543.9125","543.9125","black","legacy","legacy","legacy","0","congruent","uniform","1","undefined","1","h","79","0","0","0","79","0","79","0","79","0","0","0","79","79","79","79","Sun Sep 18 20:00:47 2022","1500","The main experiment item","yes","C:/Users/cici_/Downloads/CS-Subject-1.osexp","no","mono","no","18","no","white","no","yes","768","legacy","79","79","C:/Users/cici_/Downloads/YB-subject-2.csv","legacy","Lentiform Loewenfeld","3.3.12","0","h","NA","s","NA","NA","h","587","NA","38352","NA","NA","587","2","legacy","1024","2","48000","-16","experiment","HHHHH","2","even","180508","41060","NA","NA","151452","2699","NA","NA","181602","2707","NA","NA","181704","182293","181598","181704","CS-FlankerTask","77","43513","80","yes","1024"
"96.29629629629629","96.29629629629629","543.716049382716","543.716049382716","black","legacy","legacy","legacy","0","congruent","uniform","1","undefined","1","s","80","0","0","0","80","0","80","0","80","0","0","0","80","80","80","80","Sun Sep 18 20:00:47 2022","600","The main experiment item","yes","C:/Users/cici_/Downloads/CS-Subject-1.osexp","no","mono","no","18","no","white","no","yes","768","legacy","0","79","C:/Users/cici_/Downloads/YB-subject-2.csv","legacy","Lentiform Loewenfeld","3.3.12","0","s","NA","s","h","NA","s","528","NA","38352","59003","NA","528","2","legacy","1024","2","48000","-16","experiment","SSSSS","2","even","182299","41060","242334","NA","151452","2699","NA","NA","242438","2707","183330","NA","242540","243070","242434","242540","CS-FlankerTask","78","44041","81","yes","1024"
"96.34146341463415","96.34146341463415","542.0365853658536","542.0365853658536","black","legacy","legacy","legacy","0","congruent","uniform","1","undefined","1","h","81","0","0","0","81","0","81","0","81","0","0","0","81","81","81","81","Sun Sep 18 20:00:47 2022","600","The main experiment item","yes","C:/Users/cici_/Downloads/CS-Subject-1.osexp","no","mono","no","18","no","white","no","yes","768","legacy","1","79","C:/Users/cici_/Downloads/YB-subject-2.csv","legacy","Lentiform Loewenfeld","3.3.12","0","h","NA","s","h","NA","h","406","NA","38352","59003","NA","406","2","legacy","1024","2","48000","-16","experiment","HHHHH","2","even","243088","41060","242334","NA","151452","2699","NA","NA","244186","2707","183330","NA","244288","244695","244183","244288","CS-FlankerTask","79","44447","82","yes","1024"
"96.3855421686747","96.3855421686747","543.566265060241","543.566265060241","black","legacy","legacy","legacy","0","incongruent","uniform","1","undefined","1","s","82","0","0","0","82","0","82","0","82","0","0","0","82","82","82","82","Sun Sep 18 20:00:47 2022","600","The main experiment item","yes","C:/Users/cici_/Downloads/CS-Subject-1.osexp","no","mono","no","18","no","white","no","yes","768","legacy","2","79","C:/Users/cici_/Downloads/YB-subject-2.csv","legacy","Lentiform Loewenfeld","3.3.12","0","s","NA","s","h","NA","s","669","NA","38352","59003","NA","669","2","legacy","1024","2","48000","-16","experiment","HHSHH","2","even","244711","41060","242334","NA","151452","2699","NA","NA","245806","2707","183330","NA","245908","246579","245802","245908","CS-FlankerTask","80","45116","83","yes","1024"
"96.42857142857143","96.42857142857143","546.6071428571429","546.6071428571429","black","legacy","legacy","legacy","0","congruent","uniform","1","undefined","1","s","83","0","0","0","83","0","83","0","83","0","0","0","83","83","83","83","Sun Sep 18 20:00:47 2022","600","The main experiment item","yes","C:/Users/cici_/Downloads/CS-Subject-1.osexp","no","mono","no","18","no","white","no","yes","768","legacy","3","79","C:/Users/cici_/Downloads/YB-subject-2.csv","legacy","Lentiform Loewenfeld","3.3.12","0","s","NA","s","h","NA","s","799","NA","38352","59003","NA","799","2","legacy","1024","2","48000","-16","experiment","SSSSS","2","even","247098","41060","242334","NA","151452","2699","246595","NA","248191","2707","183330","NA","248294","249095","248187","248293","CS-FlankerTask","81","45915","84","yes","1024"
"96.47058823529412","96.47058823529412","544.3882352941176","544.3882352941176","black","legacy","legacy","legacy","0","incongruent","uniform","1","undefined","1","h","84","0","0","0","84","0","84","0","84","0","0","0","84","84","84","84","Sun Sep 18 20:00:47 2022","600","The main experiment item","yes","C:/Users/cici_/Downloads/CS-Subject-1.osexp","no","mono","no","18","no","white","no","yes","768","legacy","4","79","C:/Users/cici_/Downloads/YB-subject-2.csv","legacy","Lentiform Loewenfeld","3.3.12","0","h","NA","s","h","NA","h","358","NA","38352","59003","NA","358","2","legacy","1024","2","48000","-16","experiment","SSHSS","2","even","249614","41060","242334","NA","151452","2699","249112","NA","250706","2707","183330","NA","250808","251167","250703","250808","CS-FlankerTask","82","46273","85","yes","1024"
"96.51162790697674","96.51162790697674","543.953488372093","543.953488372093","black","legacy","legacy","legacy","0","incongruent","uniform","1","undefined","1","h","85","0","0","0","85","0","85","0","85","0","0","0","85","85","85","85","Sun Sep 18 20:00:47 2022","600","The main experiment item","yes","C:/Users/cici_/Downloads/CS-Subject-1.osexp","no","mono","no","18","no","white","no","yes","768","legacy","5","79","C:/Users/cici_/Downloads/YB-subject-2.csv","legacy","Lentiform Loewenfeld","3.3.12","0","h","NA","s","h","NA","h","507","NA","38352","59003","NA","507","2","legacy","1024","2","48000","-16","experiment","SSHSS","2","even","251183","41060","242334","NA","151452","2699","249112","NA","252292","2707","183330","NA","252394","252902","252289","252394","CS-FlankerTask","83","46780","86","yes","1024"
"95.40229885057471","95.40229885057471","540.2413793103449","540.2413793103449","black","legacy","legacy","legacy","0","congruent","uniform","0","undefined","0","h","86","0","0","0","86","0","86","0","86","0","0","0","86","86","86","86","Sun Sep 18 20:00:47 2022","600","The main experiment item","yes","C:/Users/cici_/Downloads/CS-Subject-1.osexp","no","mono","no","18","no","white","no","yes","768","legacy","6","79","C:/Users/cici_/Downloads/YB-subject-2.csv","legacy","Lentiform Loewenfeld","3.3.12","0","s","NA","s","h","NA","s","221","NA","38352","59003","NA","221","2","legacy","1024","2","48000","-16","experiment","HHHHH","2","even","252909","41060","242334","NA","151452","2699","249112","NA","254006","2707","183330","NA","254108","254331","254002","254108","CS-FlankerTask","83","47001","87","yes","1024"
"95.45454545454545","95.45454545454545","540.1704545454545","540.1704545454545","black","legacy","legacy","legacy","0","incongruent","uniform","1","undefined","1","h","87","0","0","0","87","0","87","0","87","0","0","0","87","87","87","87","Sun Sep 18 20:00:47 2022","600","The main experiment item","yes","C:/Users/cici_/Downloads/CS-Subject-1.osexp","no","mono","no","18","no","white","no","yes","768","legacy","7","79","C:/Users/cici_/Downloads/YB-subject-2.csv","legacy","Lentiform Loewenfeld","3.3.12","0","h","NA","s","h","NA","h","534","NA","38352","59003","NA","534","2","legacy","1024","2","48000","-16","experiment","SSHSS","2","even","254851","41060","242334","NA","254348","2699","249112","NA","255949","2707","183330","NA","256051","256586","255945","256051","CS-FlankerTask","84","47535","88","yes","1024"
"95.50561797752809","95.50561797752809","539.3932584269663","539.3932584269663","black","legacy","legacy","legacy","0","congruent","uniform","1","undefined","1","h","88","0","0","0","88","0","88","0","88","0","0","0","88","88","88","88","Sun Sep 18 20:00:47 2022","600","The main experiment item","yes","C:/Users/cici_/Downloads/CS-Subject-1.osexp","no","mono","no","18","no","white","no","yes","768","legacy","8","79","C:/Users/cici_/Downloads/YB-subject-2.csv","legacy","Lentiform Loewenfeld","3.3.12","0","h","NA","s","h","NA","h","471","NA","38352","59003","NA","471","2","legacy","1024","2","48000","-16","experiment","HHHHH","2","even","256604","41060","242334","NA","254348","2699","249112","NA","257706","2707","183330","NA","257808","258281","257704","257808","CS-FlankerTask","85","48006","89","yes","1024"
"95.55555555555556","95.55555555555556","539.1","539.1","black","legacy","legacy","legacy","0","incongruent","uniform","1","undefined","1","h","89","0","0","0","89","0","89","0","89","0","0","0","89","89","89","89","Sun Sep 18 20:00:47 2022","600","The main experiment item","yes","C:/Users/cici_/Downloads/CS-Subject-1.osexp","no","mono","no","18","no","white","no","yes","768","legacy","9","79","C:/Users/cici_/Downloads/YB-subject-2.csv","legacy","Lentiform Loewenfeld","3.3.12","0","h","NA","s","h","NA","h","513","NA","38352","59003","NA","513","2","legacy","1024","2","48000","-16","experiment","SSHSS","2","even","258288","41060","242334","NA","254348","2699","249112","NA","259392","2707","183330","NA","259494","260009","259389","259494","CS-FlankerTask","86","48519","90","yes","1024"
"94.50549450549451","94.50549450549451","537.8131868131868","537.8131868131868","black","legacy","legacy","legacy","0","incongruent","uniform","0","undefined","0","s","90","0","0","0","90","0","90","0","90","0","0","0","90","90","90","90","Sun Sep 18 20:00:47 2022","600","The main experiment item","yes","C:/Users/cici_/Downloads/CS-Subject-1.osexp","no","mono","no","18","no","white","no","yes","768","legacy","10","79","C:/Users/cici_/Downloads/YB-subject-2.csv","legacy","Lentiform Loewenfeld","3.3.12","0","h","NA","s","h","NA","h","422","NA","38352","59003","NA","422","2","legacy","1024","2","48000","-16","experiment","HHSHH","2","even","260025","41060","242334","NA","254348","2699","249112","NA","261120","2707","183330","NA","261224","261647","261116","261224","CS-FlankerTask","86","48941","91","yes","1024"
"94.56521739130434","94.56521739130434","538.8913043478261","538.8913043478261","black","legacy","legacy","legacy","0","incongruent","uniform","1","undefined","1","h","91","0","0","0","91","0","91","0","91","0","0","0","91","91","91","91","Sun Sep 18 20:00:47 2022","600","The main experiment item","yes","C:/Users/cici_/Downloads/CS-Subject-1.osexp","no","mono","no","18","no","white","no","yes","768","legacy","11","79","C:/Users/cici_/Downloads/YB-subject-2.csv","legacy","Lentiform Loewenfeld","3.3.12","0","h","NA","s","h","NA","h","637","NA","38352","59003","NA","637","2","legacy","1024","2","48000","-16","experiment","SSHSS","2","even","262166","41060","242334","NA","261664","2699","249112","NA","263265","2707","183330","NA","263367","264006","263261","263367","CS-FlankerTask","87","49578","92","yes","1024"
"94.6236559139785","94.6236559139785","540.9354838709677","540.9354838709677","black","legacy","legacy","legacy","0","congruent","uniform","1","undefined","1","h","92","0","0","0","92","0","92","0","92","0","0","0","92","92","92","92","Sun Sep 18 20:00:47 2022","600","The main experiment item","yes","C:/Users/cici_/Downloads/CS-Subject-1.osexp","no","mono","no","18","no","white","no","yes","768","legacy","12","79","C:/Users/cici_/Downloads/YB-subject-2.csv","legacy","Lentiform Loewenfeld","3.3.12","0","h","NA","s","h","NA","h","729","NA","38352","59003","NA","729","2","legacy","1024","2","48000","-16","experiment","HHHHH","2","even","264524","41060","242334","NA","261664","2699","264023","NA","265618","2707","183330","NA","265720","266451","265614","265719","CS-FlankerTask","88","50307","93","yes","1024"
"94.68085106382979","94.68085106382979","541.5","541.5","black","legacy","legacy","legacy","0","congruent","uniform","1","undefined","1","s","93","0","0","0","93","0","93","0","93","0","0","0","93","93","93","93","Sun Sep 18 20:00:47 2022","600","The main experiment item","yes","C:/Users/cici_/Downloads/CS-Subject-1.osexp","no","mono","no","18","no","white","no","yes","768","legacy","13","79","C:/Users/cici_/Downloads/YB-subject-2.csv","legacy","Lentiform Loewenfeld","3.3.12","0","s","NA","s","h","NA","s","594","NA","38352","59003","NA","594","2","legacy","1024","2","48000","-16","experiment","SSSSS","2","even","266970","41060","242334","NA","261664","2699","266468","NA","268067","2707","183330","NA","268169","268764","268063","268169","CS-FlankerTask","89","50901","94","yes","1024"
"94.73684210526316","94.73684210526316","541.8","541.8","black","legacy","legacy","legacy","0","congruent","uniform","1","undefined","1","s","94","0","0","0","94","0","94","0","94","0","0","0","94","94","94","94","Sun Sep 18 20:00:47 2022","600","The main experiment item","yes","C:/Users/cici_/Downloads/CS-Subject-1.osexp","no","mono","no","18","no","white","no","yes","768","legacy","14","79","C:/Users/cici_/Downloads/YB-subject-2.csv","legacy","Lentiform Loewenfeld","3.3.12","0","s","NA","s","h","NA","s","570","NA","38352","59003","NA","570","2","legacy","1024","2","48000","-16","experiment","SSSSS","2","even","268782","41060","242334","NA","261664","2699","266468","NA","269876","2707","183330","NA","269978","270550","269872","269978","CS-FlankerTask","90","51471","95","yes","1024"
"94.79166666666667","94.79166666666667","541.0833333333334","541.0833333333334","black","legacy","legacy","legacy","0","congruent","uniform","1","undefined","1","s","95","0","0","0","95","0","95","0","95","0","0","0","95","95","95","95","Sun Sep 18 20:00:47 2022","600","The main experiment item","yes","C:/Users/cici_/Downloads/CS-Subject-1.osexp","no","mono","no","18","no","white","no","yes","768","legacy","15","79","C:/Users/cici_/Downloads/YB-subject-2.csv","legacy","Lentiform Loewenfeld","3.3.12","0","s","NA","s","h","NA","s","473","NA","38352","59003","NA","473","2","legacy","1024","2","48000","-16","experiment","SSSSS","2","even","270567","41060","242334","NA","261664","2699","266468","NA","271676","2707","183330","NA","271778","272253","271672","271778","CS-FlankerTask","91","51944","96","yes","1024"
"94.84536082474227","94.84536082474227","539.5979381443299","539.5979381443299","black","legacy","legacy","legacy","0","congruent","uniform","1","undefined","1","s","96","0","0","0","96","0","96","0","96","0","0","0","96","96","96","96","Sun Sep 18 20:00:47 2022","600","The main experiment item","yes","C:/Users/cici_/Downloads/CS-Subject-1.osexp","no","mono","no","18","no","white","no","yes","768","legacy","16","79","C:/Users/cici_/Downloads/YB-subject-2.csv","legacy","Lentiform Loewenfeld","3.3.12","0","s","NA","s","h","NA","s","397","NA","38352","59003","NA","397","2","legacy","1024","2","48000","-16","experiment","SSSSS","2","even","272259","41060","242334","NA","261664","2699","266468","NA","273357","2707","183330","NA","273459","273858","273353","273459","CS-FlankerTask","92","52341","97","yes","1024"
"94.89795918367346","94.89795918367346","537.4897959183673","537.4897959183673","black","legacy","legacy","legacy","0","congruent","uniform","1","undefined","1","s","97","0","0","0","97","0","97","0","97","0","0","0","97","97","97","97","Sun Sep 18 20:00:47 2022","600","The main experiment item","yes","C:/Users/cici_/Downloads/CS-Subject-1.osexp","no","mono","no","18","no","white","no","yes","768","legacy","17","79","C:/Users/cici_/Downloads/YB-subject-2.csv","legacy","Lentiform Loewenfeld","3.3.12","0","s","NA","s","h","NA","s","333","NA","38352","59003","NA","333","2","legacy","1024","2","48000","-16","experiment","SSSSS","2","even","273874","41060","242334","NA","261664","2699","266468","NA","274969","2707","183330","NA","275071","275406","274965","275071","CS-FlankerTask","93","52674","98","yes","1024"
"94.94949494949495","94.94949494949495","537.6363636363636","537.6363636363636","black","legacy","legacy","legacy","0","incongruent","uniform","1","undefined","1","s","98","0","0","0","98","0","98","0","98","0","0","0","98","98","98","98","Sun Sep 18 20:00:47 2022","600","The main experiment item","yes","C:/Users/cici_/Downloads/CS-Subject-1.osexp","no","mono","no","18","no","white","no","yes","768","legacy","18","79","C:/Users/cici_/Downloads/YB-subject-2.csv","legacy","Lentiform Loewenfeld","3.3.12","0","s","NA","s","h","NA","s","552","NA","38352","59003","NA","552","2","legacy","1024","2","48000","-16","experiment","HHSHH","2","even","275423","41060","242334","NA","261664","2699","266468","NA","276521","2707","183330","NA","276623","277177","276518","276623","CS-FlankerTask","94","53226","99","yes","1024"
"95","95","535.98","535.98","black","legacy","legacy","legacy","0","incongruent","uniform","1","undefined","1","h","99","0","0","0","99","0","99","0","99","0","0","0","99","99","99","99","Sun Sep 18 20:00:47 2022","600","The main experiment item","yes","C:/Users/cici_/Downloads/CS-Subject-1.osexp","no","mono","no","18","no","white","no","yes","768","legacy","19","79","C:/Users/cici_/Downloads/YB-subject-2.csv","legacy","Lentiform Loewenfeld","3.3.12","0","h","NA","s","h","NA","h","372","NA","38352","59003","NA","372","2","legacy","1024","2","48000","-16","experiment","SSHSS","2","even","277193","41060","242334","NA","261664","2699","266468","NA","278291","2707","183330","NA","278394","278768","278287","278394","CS-FlankerTask","95","53598","100","yes","1024"
"95.04950495049505","95.04950495049505","534.8811881188119","534.8811881188119","black","legacy","legacy","legacy","0","incongruent","uniform","1","undefined","1","s","100","0","0","0","100","0","100","0","100","0","0","0","100","100","100","100","Sun Sep 18 20:00:47 2022","600","The main experiment item","yes","C:/Users/cici_/Downloads/CS-Subject-1.osexp","no","mono","no","18","no","white","no","yes","768","legacy","20","79","C:/Users/cici_/Downloads/YB-subject-2.csv","legacy","Lentiform Loewenfeld","3.3.12","0","s","NA","s","h","NA","s","425","NA","38352","59003","NA","425","2","legacy","1024","2","48000","-16","experiment","HHSHH","2","even","278785","41060","242334","NA","261664","2699","266468","NA","279883","2707","183330","NA","279985","280412","279878","279985","CS-FlankerTask","96","54023","101","yes","1024"
"95.09803921568627","95.09803921568627","533.6078431372549","533.6078431372549","black","legacy","legacy","legacy","0","congruent","uniform","1","undefined","1","h","101","0","0","0","101","0","101","0","101","0","0","0","101","101","101","101","Sun Sep 18 20:00:47 2022","600","The main experiment item","yes","C:/Users/cici_/Downloads/CS-Subject-1.osexp","no","mono","no","18","no","white","no","yes","768","legacy","21","79","C:/Users/cici_/Downloads/YB-subject-2.csv","legacy","Lentiform Loewenfeld","3.3.12","0","h","NA","s","h","NA","h","405","NA","38352","59003","NA","405","2","legacy","1024","2","48000","-16","experiment","HHHHH","2","even","280428","41060","242334","NA","261664","2699","266468","NA","281529","2707","183330","NA","281631","282038","281524","281631","CS-FlankerTask","97","54428","102","yes","1024"
"95.14563106796116","95.14563106796116","533.8737864077669","533.8737864077669","black","legacy","legacy","legacy","0","congruent","uniform","1","undefined","1","h","102","0","0","0","102","0","102","0","102","0","0","0","102","102","102","102","Sun Sep 18 20:00:47 2022","600","The main experiment item","yes","C:/Users/cici_/Downloads/CS-Subject-1.osexp","no","mono","no","18","no","white","no","yes","768","legacy","22","79","C:/Users/cici_/Downloads/YB-subject-2.csv","legacy","Lentiform Loewenfeld","3.3.12","0","h","NA","s","h","NA","h","561","NA","38352","59003","NA","561","2","legacy","1024","2","48000","-16","experiment","HHHHH","2","even","282055","41060","242334","NA","261664","2699","266468","NA","283156","2707","183330","NA","283258","283821","283152","283258","CS-FlankerTask","98","54989","103","yes","1024"
"95.1923076923077","95.1923076923077","533.875","533.875","black","legacy","legacy","legacy","0","incongruent","uniform","1","undefined","1","h","103","0","0","0","103","0","103","0","103","0","0","0","103","103","103","103","Sun Sep 18 20:00:47 2022","600","The main experiment item","yes","C:/Users/cici_/Downloads/CS-Subject-1.osexp","no","mono","no","18","no","white","no","yes","768","legacy","23","79","C:/Users/cici_/Downloads/YB-subject-2.csv","legacy","Lentiform Loewenfeld","3.3.12","0","h","NA","s","h","NA","h","534","NA","38352","59003","NA","534","2","legacy","1024","2","48000","-16","experiment","SSHSS","2","even","283829","41060","242334","NA","261664","2699","266468","NA","284925","2707","183330","NA","285027","285563","284922","285027","CS-FlankerTask","99","55523","104","yes","1024"
"95.23809523809524","95.23809523809524","532.6761904761905","532.6761904761905","black","legacy","legacy","legacy","0","incongruent","uniform","1","undefined","1","s","104","0","0","0","104","0","104","0","104","0","0","0","104","104","104","104","Sun Sep 18 20:00:47 2022","600","The main experiment item","yes","C:/Users/cici_/Downloads/CS-Subject-1.osexp","no","mono","no","18","no","white","no","yes","768","legacy","24","79","C:/Users/cici_/Downloads/YB-subject-2.csv","legacy","Lentiform Loewenfeld","3.3.12","0","s","NA","s","h","NA","s","408","NA","38352","59003","NA","408","2","legacy","1024","2","48000","-16","experiment","HHSHH","2","even","285579","41060","242334","NA","261664","2699","266468","NA","286675","2707","183330","NA","286778","287188","286671","286777","CS-FlankerTask","100","55931","105","yes","1024"
"95.28301886792453","95.28301886792453","531.7735849056604","531.7735849056604","black","legacy","legacy","legacy","0","congruent","uniform","1","undefined","1","s","105","0","0","0","105","0","105","0","105","0","0","0","105","105","105","105","Sun Sep 18 20:00:47 2022","600","The main experiment item","yes","C:/Users/cici_/Downloads/CS-Subject-1.osexp","no","mono","no","18","no","white","no","yes","768","legacy","25","79","C:/Users/cici_/Downloads/YB-subject-2.csv","legacy","Lentiform Loewenfeld","3.3.12","0","s","NA","s","h","NA","s","437","NA","38352","59003","NA","437","2","legacy","1024","2","48000","-16","experiment","SSSSS","2","even","287205","41060","242334","NA","261664","2699","266468","NA","288303","2707","183330","NA","288405","288844","288297","288405","CS-FlankerTask","101","56368","106","yes","1024"
"95.32710280373831","95.32710280373831","531.4579439252336","531.4579439252336","black","legacy","legacy","legacy","0","congruent","uniform","1","undefined","1","h","106","0","0","0","106","0","106","0","106","0","0","0","106","106","106","106","Sun Sep 18 20:00:47 2022","600","The main experiment item","yes","C:/Users/cici_/Downloads/CS-Subject-1.osexp","no","mono","no","18","no","white","no","yes","768","legacy","26","79","C:/Users/cici_/Downloads/YB-subject-2.csv","legacy","Lentiform Loewenfeld","3.3.12","0","h","NA","s","h","NA","h","498","NA","38352","59003","NA","498","2","legacy","1024","2","48000","-16","experiment","HHHHH","2","even","288861","41060","242334","NA","261664","2699","266468","NA","289958","2707","183330","NA","290060","290560","289954","290060","CS-FlankerTask","102","56866","107","yes","1024"
"95.37037037037037","95.37037037037037","530.4351851851852","530.4351851851852","black","legacy","legacy","legacy","0","congruent","uniform","1","undefined","1","h","107","0","0","0","107","0","107","0","107","0","0","0","107","107","107","107","Sun Sep 18 20:00:47 2022","600","The main experiment item","yes","C:/Users/cici_/Downloads/CS-Subject-1.osexp","no","mono","no","18","no","white","no","yes","768","legacy","27","79","C:/Users/cici_/Downloads/YB-subject-2.csv","legacy","Lentiform Loewenfeld","3.3.12","0","h","NA","s","h","NA","h","421","NA","38352","59003","NA","421","2","legacy","1024","2","48000","-16","experiment","HHHHH","2","even","290567","41060","242334","NA","261664","2699","266468","NA","291659","2707","183330","NA","291761","292184","291656","291761","CS-FlankerTask","103","57287","108","yes","1024"
"95.41284403669725","95.41284403669725","529.7522935779816","529.7522935779816","black","legacy","legacy","legacy","0","incongruent","uniform","1","undefined","1","h","108","0","0","0","108","0","108","0","108","0","0","0","108","108","108","108","Sun Sep 18 20:00:47 2022","600","The main experiment item","yes","C:/Users/cici_/Downloads/CS-Subject-1.osexp","no","mono","no","18","no","white","no","yes","768","legacy","28","79","C:/Users/cici_/Downloads/YB-subject-2.csv","legacy","Lentiform Loewenfeld","3.3.12","0","h","NA","s","h","NA","h","456","NA","38352","59003","NA","456","2","legacy","1024","2","48000","-16","experiment","SSHSS","2","even","292202","41060","242334","NA","261664","2699","266468","NA","293295","2707","183330","NA","293397","293855","293292","293397","CS-FlankerTask","104","57743","109","yes","1024"
"95.45454545454545","95.45454545454545","529.0909090909091","529.0909090909091","black","legacy","legacy","legacy","0","incongruent","uniform","1","undefined","1","h","109","0","0","0","109","0","109","0","109","0","0","0","109","109","109","109","Sun Sep 18 20:00:47 2022","600","The main experiment item","yes","C:/Users/cici_/Downloads/CS-Subject-1.osexp","no","mono","no","18","no","white","no","yes","768","legacy","29","79","C:/Users/cici_/Downloads/YB-subject-2.csv","legacy","Lentiform Loewenfeld","3.3.12","0","h","NA","s","h","NA","h","457","NA","38352","59003","NA","457","2","legacy","1024","2","48000","-16","experiment","SSHSS","2","even","293872","41060","242334","NA","261664","2699","266468","NA","294971","2707","183330","NA","295073","295531","294966","295073","CS-FlankerTask","105","58200","110","yes","1024"
"95.49549549549549","95.49549549549549","527.7387387387388","527.7387387387388","black","legacy","legacy","legacy","0","congruent","uniform","1","undefined","1","h","110","0","0","0","110","0","110","0","110","0","0","0","110","110","110","110","Sun Sep 18 20:00:47 2022","600","The main experiment item","yes","C:/Users/cici_/Downloads/CS-Subject-1.osexp","no","mono","no","18","no","white","no","yes","768","legacy","30","79","C:/Users/cici_/Downloads/YB-subject-2.csv","legacy","Lentiform Loewenfeld","3.3.12","0","h","NA","s","h","NA","h","379","NA","38352","59003","NA","379","2","legacy","1024","2","48000","-16","experiment","HHHHH","2","even","295549","41060","242334","NA","261664","2699","266468","NA","296645","2707","183330","NA","296747","297129","296642","296747","CS-FlankerTask","106","58579","111","yes","1024"
"95.53571428571429","95.53571428571429","527.6607142857143","527.6607142857143","black","legacy","legacy","legacy","0","congruent","uniform","1","undefined","1","h","111","0","0","0","111","0","111","0","111","0","0","0","111","111","111","111","Sun Sep 18 20:00:47 2022","600","The main experiment item","yes","C:/Users/cici_/Downloads/CS-Subject-1.osexp","no","mono","no","18","no","white","no","yes","768","legacy","31","79","C:/Users/cici_/Downloads/YB-subject-2.csv","legacy","Lentiform Loewenfeld","3.3.12","0","h","NA","s","h","NA","h","519","NA","38352","59003","NA","519","2","legacy","1024","2","48000","-16","experiment","HHHHH","2","even","297146","41060","242334","NA","261664","2699","266468","NA","298244","2707","183330","NA","298346","298867","298239","298346","CS-FlankerTask","107","59098","112","yes","1024"
"95.57522123893806","95.57522123893806","526.8849557522124","526.8849557522124","black","legacy","legacy","legacy","0","incongruent","uniform","1","undefined","1","s","112","0","0","0","112","0","112","0","112","0","0","0","112","112","112","112","Sun Sep 18 20:00:47 2022","600","The main experiment item","yes","C:/Users/cici_/Downloads/CS-Subject-1.osexp","no","mono","no","18","no","white","no","yes","768","legacy","32","79","C:/Users/cici_/Downloads/YB-subject-2.csv","legacy","Lentiform Loewenfeld","3.3.12","0","s","NA","s","h","NA","s","440","NA","38352","59003","NA","440","2","legacy","1024","2","48000","-16","experiment","HHSHH","2","even","298885","41060","242334","NA","261664","2699","266468","NA","299990","2707","183330","NA","300093","300536","299987","300093","CS-FlankerTask","108","59538","113","yes","1024"
"95.6140350877193","95.6140350877193","527.3333333333334","527.3333333333334","black","legacy","legacy","legacy","0","incongruent","uniform","1","undefined","1","h","113","0","0","0","113","0","113","0","113","0","0","0","113","113","113","113","Sun Sep 18 20:00:47 2022","600","The main experiment item","yes","C:/Users/cici_/Downloads/CS-Subject-1.osexp","no","mono","no","18","no","white","no","yes","768","legacy","33","79","C:/Users/cici_/Downloads/YB-subject-2.csv","legacy","Lentiform Loewenfeld","3.3.12","0","h","NA","s","h","NA","h","578","NA","38352","59003","NA","578","2","legacy","1024","2","48000","-16","experiment","SSHSS","2","even","300551","41060","242334","NA","261664","2699","266468","NA","301652","2707","183330","NA","301755","302335","301648","301755","CS-FlankerTask","109","60116","114","yes","1024"
"95.65217391304348","95.65217391304348","526.8869565217391","526.8869565217391","black","legacy","legacy","legacy","0","incongruent","uniform","1","undefined","1","s","114","0","0","0","114","0","114","0","114","0","0","0","114","114","114","114","Sun Sep 18 20:00:47 2022","600","The main experiment item","yes","C:/Users/cici_/Downloads/CS-Subject-1.osexp","no","mono","no","18","no","white","no","yes","768","legacy","34","79","C:/Users/cici_/Downloads/YB-subject-2.csv","legacy","Lentiform Loewenfeld","3.3.12","0","s","NA","s","h","NA","s","476","NA","38352","59003","NA","476","2","legacy","1024","2","48000","-16","experiment","HHSHH","2","even","302353","41060","242334","NA","261664","2699","266468","NA","303457","2707","183330","NA","303559","304038","303452","303559","CS-FlankerTask","110","60592","115","yes","1024"
"95.6896551724138","95.6896551724138","526.8448275862069","526.8448275862069","black","legacy","legacy","legacy","0","congruent","uniform","1","undefined","1","s","115","0","0","0","115","0","115","0","115","0","0","0","115","115","115","115","Sun Sep 18 20:00:47 2022","600","The main experiment item","yes","C:/Users/cici_/Downloads/CS-Subject-1.osexp","no","mono","no","18","no","white","no","yes","768","legacy","35","79","C:/Users/cici_/Downloads/YB-subject-2.csv","legacy","Lentiform Loewenfeld","3.3.12","0","s","NA","s","h","NA","s","522","NA","38352","59003","NA","522","2","legacy","1024","2","48000","-16","experiment","SSSSS","2","even","304054","41060","242334","NA","261664","2699","266468","NA","305157","2707","183330","NA","305259","305783","305152","305259","CS-FlankerTask","111","61114","116","yes","1024"
"95.72649572649573","95.72649572649573","527.6410256410256","527.6410256410256","black","legacy","legacy","legacy","0","incongruent","uniform","1","undefined","1","h","116","0","0","0","116","0","116","0","116","0","0","0","116","116","116","116","Sun Sep 18 20:00:47 2022","600","The main experiment item","yes","C:/Users/cici_/Downloads/CS-Subject-1.osexp","no","mono","no","18","no","white","no","yes","768","legacy","36","79","C:/Users/cici_/Downloads/YB-subject-2.csv","legacy","Lentiform Loewenfeld","3.3.12","0","h","NA","s","h","NA","h","620","NA","38352","59003","NA","620","2","legacy","1024","2","48000","-16","experiment","SSHSS","2","even","305799","41060","242334","NA","261664","2699","266468","NA","306901","2707","183330","NA","307004","307626","306898","307004","CS-FlankerTask","112","61734","117","yes","1024"
"95.76271186440678","95.76271186440678","528.6101694915254","528.6101694915254","black","legacy","legacy","legacy","0","congruent","uniform","1","undefined","1","h","117","0","0","0","117","0","117","0","117","0","0","0","117","117","117","117","Sun Sep 18 20:00:47 2022","600","The main experiment item","yes","C:/Users/cici_/Downloads/CS-Subject-1.osexp","no","mono","no","18","no","white","no","yes","768","legacy","37","79","C:/Users/cici_/Downloads/YB-subject-2.csv","legacy","Lentiform Loewenfeld","3.3.12","0","h","NA","s","h","NA","h","642","NA","38352","59003","NA","642","2","legacy","1024","2","48000","-16","experiment","HHHHH","2","even","308146","41060","242334","NA","261664","2699","307644","NA","309244","2707","183330","NA","309346","309990","309241","309346","CS-FlankerTask","113","62376","118","yes","1024"
"95.7983193277311","95.7983193277311","528.6722689075631","528.6722689075631","black","legacy","legacy","legacy","0","congruent","uniform","1","undefined","1","h","118","0","0","0","118","0","118","0","118","0","0","0","118","118","118","118","Sun Sep 18 20:00:47 2022","600","The main experiment item","yes","C:/Users/cici_/Downloads/CS-Subject-1.osexp","no","mono","no","18","no","white","no","yes","768","legacy","38","79","C:/Users/cici_/Downloads/YB-subject-2.csv","legacy","Lentiform Loewenfeld","3.3.12","0","h","NA","s","h","NA","h","536","NA","38352","59003","NA","536","2","legacy","1024","2","48000","-16","experiment","HHHHH","2","even","310508","41060","242334","NA","261664","2699","310006","NA","311607","2707","183330","NA","311709","312248","311602","311709","CS-FlankerTask","114","62912","119","yes","1024"
"95.83333333333333","95.83333333333333","528.9","528.9","black","legacy","legacy","legacy","0","incongruent","uniform","1","undefined","1","s","119","0","0","0","119","0","119","0","119","0","0","0","119","119","119","119","Sun Sep 18 20:00:47 2022","600","The main experiment item","yes","C:/Users/cici_/Downloads/CS-Subject-1.osexp","no","mono","no","18","no","white","no","yes","768","legacy","39","79","C:/Users/cici_/Downloads/YB-subject-2.csv","legacy","Lentiform Loewenfeld","3.3.12","0","s","NA","s","h","NA","s","556","NA","38352","59003","NA","556","2","legacy","1024","2","48000","-16","experiment","HHSHH","2","even","312264","41060","242334","NA","261664","2699","310006","NA","313380","2707","183330","NA","313482","314040","313376","313482","CS-FlankerTask","115","63468","120","yes","1024"
"95.86776859504133","95.86776859504133","529.00826446281","529.00826446281","black","legacy","legacy","legacy","0","incongruent","uniform","1","undefined","1","s","120","0","0","0","120","0","120","0","120","0","0","0","120","120","120","120","Sun Sep 18 20:00:47 2022","600","The main experiment item","yes","C:/Users/cici_/Downloads/CS-Subject-1.osexp","no","mono","no","18","no","white","no","yes","768","legacy","40","79","C:/Users/cici_/Downloads/YB-subject-2.csv","legacy","Lentiform Loewenfeld","3.3.12","0","s","NA","s","h","NA","s","542","NA","38352","59003","NA","542","2","legacy","1024","2","48000","-16","experiment","HHSHH","2","even","314055","41060","242334","NA","261664","2699","310006","NA","315157","2707","183330","NA","315259","315804","315152","315259","CS-FlankerTask","116","64010","121","yes","1024"
"95.90163934426229","95.90163934426229","528.7704918032787","528.7704918032787","black","legacy","legacy","legacy","0","congruent","uniform","1","undefined","1","s","121","0","0","0","121","0","121","0","121","0","0","0","121","121","121","121","Sun Sep 18 20:00:47 2022","600","The main experiment item","yes","C:/Users/cici_/Downloads/CS-Subject-1.osexp","no","mono","no","18","no","white","no","yes","768","legacy","41","79","C:/Users/cici_/Downloads/YB-subject-2.csv","legacy","Lentiform Loewenfeld","3.3.12","0","s","NA","s","h","NA","s","500","NA","38352","59003","NA","500","2","legacy","1024","2","48000","-16","experiment","SSSSS","2","even","315820","41060","242334","NA","261664","2699","310006","NA","316916","2707","183330","NA","317018","317520","316911","317018","CS-FlankerTask","117","64510","122","yes","1024"
"95.9349593495935","95.9349593495935","529.1056910569106","529.1056910569106","black","legacy","legacy","legacy","0","incongruent","uniform","1","undefined","1","h","122","0","0","0","122","0","122","0","122","0","0","0","122","122","122","122","Sun Sep 18 20:00:47 2022","600","The main experiment item","yes","C:/Users/cici_/Downloads/CS-Subject-1.osexp","no","mono","no","18","no","white","no","yes","768","legacy","42","79","C:/Users/cici_/Downloads/YB-subject-2.csv","legacy","Lentiform Loewenfeld","3.3.12","0","h","NA","s","h","NA","h","570","NA","38352","59003","NA","570","2","legacy","1024","2","48000","-16","experiment","SSHSS","2","even","317536","41060","242334","NA","261664","2699","310006","NA","318636","2707","183330","NA","318739","319311","318632","318739","CS-FlankerTask","118","65080","123","yes","1024"
