"acc","accuracy","average_response_time","avg_rt","background","canvas_backend","clock_backend","color_backend","compensation","condition","coordinates","correct","correct_Instruction1","correct_keyboard_response","correct_response","count_Block1","count_Block2","count_Block3","count_Instruction1","count_errorfeedback","count_experiment","count_faster","count_finish","count_fixation","count_instructions2","count_instructions2_1","count_instructions3","count_instructions3_1","count_isi","count_keyboard_response","count_logger","count_new_sketchpad_1","count_sequence","count_sketchpad","count_stimulus","count_welcome","datetime","deadline","description","disable_garbage_collection","experiment_file","experiment_path","font_bold","font_family","font_italic","font_size","font_underline","foreground","form_clicks","fullscreen","height","keyboard_backend","live_row","live_row_Block1","logfile","mouse_backend","opensesame_codename","opensesame_version","repeat_cycle","response","response_Instruction1","response_finish","response_instructions2","response_instructions2_1","response_instructions3","response_instructions3_1","response_keyboard_response","response_new_sketchpad_1","response_sketchpad","response_time","response_time_Instruction1","response_time_finish","response_time_instructions2","response_time_instructions2_1","response_time_instructions3","response_time_instructions3_1","response_time_keyboard_response","response_time_new_sketchpad_1","response_time_sketchpad","response_time_welcome","response_welcome","round_decimals","sampler_backend","sound_buf_size","sound_channels","sound_freq","sound_sample_size","start","stimulus","subject_nr","subject_parity","time_Block1","time_Block2","time_Block3","time_Instruction1","time_errorfeedback","time_experiment","time_faster","time_finish","time_fixation","time_instructions2","time_instructions2_1","time_instructions3","time_instructions3_1","time_isi","time_keyboard_response","time_logger","time_new_sketchpad_1","time_sequence","time_sketchpad","time_stimulus","time_welcome","title","total_correct","total_response_time","total_responses","uniform_coordinates","width"
"100","100","1360","1360","black","legacy","legacy","legacy","0","incongruent","uniform","1","undefined","1","s","0","0","0","0","0","0","0","0","0","NA","0","NA","0","0","0","0","NA","0","NA","0","NA","09/21/22 18:46:26","1500","The main experiment item","yes","FlankerTask.osexp","C:\Users\olasa\OneDrive\Desktop","no","mono","no","18","no","white","no","yes","768","legacy","0","0","C:/Users/olasa/OneDrive/Desktop/OL-subject-4.csv","legacy","Lentiform Loewenfeld","3.3.12","0","s","s","NA","NA","NA","NA","NA","s","NA","NA","1360","25512","NA","NA","NA","NA","NA","1360","NA","NA","NA","NA","2","legacy","1024","2","48000","-16","experiment","HHSHH","4","even","28763","NA","NA","3249","NA","3244","NA","NA","28861","NA","NA","NA","NA","NA","28963","30324","NA","28860","NA","28962","NA","Flanker Task","1","1360","1","yes","1024"
"100","100","1153.5","1153.5","black","legacy","legacy","legacy","0","congruent","uniform","1","undefined","1","s","0","0","0","0","1","0","1","0","1","NA","0","NA","0","1","1","1","NA","1","NA","1","NA","09/21/22 18:46:26","1500","The main experiment item","yes","FlankerTask.osexp","C:\Users\olasa\OneDrive\Desktop","no","mono","no","18","no","white","no","yes","768","legacy","1","1","C:/Users/olasa/OneDrive/Desktop/OL-subject-4.csv","legacy","Lentiform Loewenfeld","3.3.12","0","s","s","NA","NA","NA","NA","NA","s","NA","NA","947","25512","NA","NA","NA","NA","NA","947","NA","NA","NA","NA","2","legacy","1024","2","48000","-16","experiment","SSSSS","4","even","28763","NA","NA","3249","NA","3244","NA","NA","31386","NA","NA","NA","NA","30331","31488","32435","NA","31383","NA","31488","NA","Flanker Task","2","2307","2","yes","1024"
"100","100","1015.66666667","1015.66666667","black","legacy","legacy","legacy","0","incongruent","uniform","1","undefined","1","h","0","0","0","0","2","0","2","0","2","NA","0","NA","0","2","2","2","NA","2","NA","2","NA","09/21/22 18:46:26","1500","The main experiment item","yes","FlankerTask.osexp","C:\Users\olasa\OneDrive\Desktop","no","mono","no","18","no","white","no","yes","768","legacy","2","2","C:/Users/olasa/OneDrive/Desktop/OL-subject-4.csv","legacy","Lentiform Loewenfeld","3.3.12","0","h","s","NA","NA","NA","NA","NA","h","NA","NA","740","25512","NA","NA","NA","NA","NA","740","NA","NA","NA","NA","2","legacy","1024","2","48000","-16","experiment","SSHSS","4","even","28763","NA","NA","3249","NA","3244","NA","NA","33508","NA","NA","NA","NA","32440","33612","34352","NA","33507","NA","33612","NA","Flanker Task","3","3047","3","yes","1024"
"100","100","902","902","black","legacy","legacy","legacy","0","incongruent","uniform","1","undefined","1","h","0","0","0","0","3","0","3","0","3","NA","0","NA","0","3","3","3","NA","3","NA","3","NA","09/21/22 18:46:26","1500","The main experiment item","yes","FlankerTask.osexp","C:\Users\olasa\OneDrive\Desktop","no","mono","no","18","no","white","no","yes","768","legacy","3","3","C:/Users/olasa/OneDrive/Desktop/OL-subject-4.csv","legacy","Lentiform Loewenfeld","3.3.12","0","h","s","NA","NA","NA","NA","NA","h","NA","NA","561","25512","NA","NA","NA","NA","NA","561","NA","NA","NA","NA","2","legacy","1024","2","48000","-16","experiment","SSHSS","4","even","28763","NA","NA","3249","NA","3244","NA","NA","35423","NA","NA","NA","NA","34357","35526","36087","NA","35421","NA","35526","NA","Flanker Task","4","3608","4","yes","1024"
"100","100","862","862","black","legacy","legacy","legacy","0","incongruent","uniform","1","undefined","1","s","0","0","0","0","4","0","4","0","4","NA","0","NA","0","4","4","4","NA","4","NA","4","NA","09/21/22 18:46:26","1500","The main experiment item","yes","FlankerTask.osexp","C:\Users\olasa\OneDrive\Desktop","no","mono","no","18","no","white","no","yes","768","legacy","4","4","C:/Users/olasa/OneDrive/Desktop/OL-subject-4.csv","legacy","Lentiform Loewenfeld","3.3.12","0","s","s","NA","NA","NA","NA","NA","s","NA","NA","702","25512","NA","NA","NA","NA","NA","702","NA","NA","NA","NA","2","legacy","1024","2","48000","-16","experiment","HHSHH","4","even","28763","NA","NA","3249","NA","3244","NA","NA","37155","NA","NA","NA","NA","36096","37258","37961","NA","37152","NA","37258","NA","Flanker Task","5","4310","5","yes","1024"
"100","100","817.333333333","817.333333333","black","legacy","legacy","legacy","0","incongruent","uniform","1","undefined","1","h","0","0","0","0","5","0","5","0","5","NA","0","NA","0","5","5","5","NA","5","NA","5","NA","09/21/22 18:46:26","1500","The main experiment item","yes","FlankerTask.osexp","C:\Users\olasa\OneDrive\Desktop","no","mono","no","18","no","white","no","yes","768","legacy","5","5","C:/Users/olasa/OneDrive/Desktop/OL-subject-4.csv","legacy","Lentiform Loewenfeld","3.3.12","0","h","s","NA","NA","NA","NA","NA","h","NA","NA","594","25512","NA","NA","NA","NA","NA","594","NA","NA","NA","NA","2","legacy","1024","2","48000","-16","experiment","SSHSS","4","even","28763","NA","NA","3249","NA","3244","NA","NA","39064","NA","NA","NA","NA","37992","39168","39763","NA","39061","NA","39168","NA","Flanker Task","6","4904","6","yes","1024"
"100","100","779.142857143","779.142857143","black","legacy","legacy","legacy","0","congruent","uniform","1","undefined","1","s","0","0","0","0","6","0","6","0","6","NA","0","NA","0","6","6","6","NA","6","NA","6","NA","09/21/22 18:46:26","1500","The main experiment item","yes","FlankerTask.osexp","C:\Users\olasa\OneDrive\Desktop","no","mono","no","18","no","white","no","yes","768","legacy","6","6","C:/Users/olasa/OneDrive/Desktop/OL-subject-4.csv","legacy","Lentiform Loewenfeld","3.3.12","0","s","s","NA","NA","NA","NA","NA","s","NA","NA","550","25512","NA","NA","NA","NA","NA","550","NA","NA","NA","NA","2","legacy","1024","2","48000","-16","experiment","SSSSS","4","even","28763","NA","NA","3249","NA","3244","NA","NA","40855","NA","NA","NA","NA","39793","40956","41507","NA","40853","NA","40956","NA","Flanker Task","7","5454","7","yes","1024"
"100","100","743.5","743.5","black","legacy","legacy","legacy","0","congruent","uniform","1","undefined","1","h","0","0","0","0","7","0","7","0","7","NA","0","NA","0","7","7","7","NA","7","NA","7","NA","09/21/22 18:46:26","1500","The main experiment item","yes","FlankerTask.osexp","C:\Users\olasa\OneDrive\Desktop","no","mono","no","18","no","white","no","yes","768","legacy","7","7","C:/Users/olasa/OneDrive/Desktop/OL-subject-4.csv","legacy","Lentiform Loewenfeld","3.3.12","0","h","s","NA","NA","NA","NA","NA","h","NA","NA","494","25512","NA","NA","NA","NA","NA","494","NA","NA","NA","NA","2","legacy","1024","2","48000","-16","experiment","HHHHH","4","even","28763","NA","NA","3249","NA","3244","NA","NA","42599","NA","NA","NA","NA","41515","42701","43196","NA","42596","NA","42701","NA","Flanker Task","8","5948","8","yes","1024"
"100","100","733.777777778","733.777777778","black","legacy","legacy","legacy","0","congruent","uniform","1","undefined","1","h","0","0","0","0","8","0","8","0","8","NA","0","NA","0","8","8","8","NA","8","NA","8","NA","09/21/22 18:46:26","1500","The main experiment item","yes","FlankerTask.osexp","C:\Users\olasa\OneDrive\Desktop","no","mono","no","18","no","white","no","yes","768","legacy","8","8","C:/Users/olasa/OneDrive/Desktop/OL-subject-4.csv","legacy","Lentiform Loewenfeld","3.3.12","0","h","s","NA","NA","NA","NA","NA","h","NA","NA","656","25512","NA","NA","NA","NA","NA","656","NA","NA","NA","NA","2","legacy","1024","2","48000","-16","experiment","HHHHH","4","even","28763","NA","NA","3249","NA","3244","NA","NA","44265","NA","NA","NA","NA","43206","44368","45025","NA","44264","NA","44367","NA","Flanker Task","9","6604","9","yes","1024"
"100","100","705.3","705.3","black","legacy","legacy","legacy","0","congruent","uniform","1","undefined","1","h","0","0","0","0","9","0","9","0","9","NA","0","NA","0","9","9","9","NA","9","NA","9","NA","09/21/22 18:46:26","1500","The main experiment item","yes","FlankerTask.osexp","C:\Users\olasa\OneDrive\Desktop","no","mono","no","18","no","white","no","yes","768","legacy","9","9","C:/Users/olasa/OneDrive/Desktop/OL-subject-4.csv","legacy","Lentiform Loewenfeld","3.3.12","0","h","s","NA","NA","NA","NA","NA","h","NA","NA","449","25512","NA","NA","NA","NA","NA","449","NA","NA","NA","NA","2","legacy","1024","2","48000","-16","experiment","HHHHH","4","even","28763","NA","NA","3249","NA","3244","NA","NA","46105","NA","NA","NA","NA","45034","46208","46658","NA","46102","NA","46207","NA","Flanker Task","10","7053","10","yes","1024"
"100","100","691.909090909","691.909090909","black","legacy","legacy","legacy","0","incongruent","uniform","1","undefined","1","s","0","0","0","0","10","0","10","0","10","NA","0","NA","0","10","10","10","NA","10","NA","10","NA","09/21/22 18:46:26","1500","The main experiment item","yes","FlankerTask.osexp","C:\Users\olasa\OneDrive\Desktop","no","mono","no","18","no","white","no","yes","768","legacy","10","10","C:/Users/olasa/OneDrive/Desktop/OL-subject-4.csv","legacy","Lentiform Loewenfeld","3.3.12","0","s","s","NA","NA","NA","NA","NA","s","NA","NA","558","25512","NA","NA","NA","NA","NA","558","NA","NA","NA","NA","2","legacy","1024","2","48000","-16","experiment","HHSHH","4","even","28763","NA","NA","3249","NA","3244","NA","NA","47730","NA","NA","NA","NA","46663","47832","48390","NA","47728","NA","47832","NA","Flanker Task","11","7611","11","yes","1024"
"100","100","678.666666667","678.666666667","black","legacy","legacy","legacy","0","congruent","uniform","1","undefined","1","h","0","0","0","0","11","0","11","0","11","NA","0","NA","0","11","11","11","NA","11","NA","11","NA","09/21/22 18:46:26","1500","The main experiment item","yes","FlankerTask.osexp","C:\Users\olasa\OneDrive\Desktop","no","mono","no","18","no","white","no","yes","768","legacy","11","11","C:/Users/olasa/OneDrive/Desktop/OL-subject-4.csv","legacy","Lentiform Loewenfeld","3.3.12","0","h","s","NA","NA","NA","NA","NA","h","NA","NA","533","25512","NA","NA","NA","NA","NA","533","NA","NA","NA","NA","2","legacy","1024","2","48000","-16","experiment","HHHHH","4","even","28763","NA","NA","3249","NA","3244","NA","NA","49512","NA","NA","NA","NA","48421","49615","50149","NA","49509","NA","49615","NA","Flanker Task","12","8144","12","yes","1024"
"100","100","662.923076923","662.923076923","black","legacy","legacy","legacy","0","congruent","uniform","1","undefined","1","s","0","0","0","0","12","0","12","0","12","NA","0","NA","0","12","12","12","NA","12","NA","12","NA","09/21/22 18:46:26","1500","The main experiment item","yes","FlankerTask.osexp","C:\Users\olasa\OneDrive\Desktop","no","mono","no","18","no","white","no","yes","768","legacy","12","12","C:/Users/olasa/OneDrive/Desktop/OL-subject-4.csv","legacy","Lentiform Loewenfeld","3.3.12","0","s","s","NA","NA","NA","NA","NA","s","NA","NA","474","25512","NA","NA","NA","NA","NA","474","NA","NA","NA","NA","2","legacy","1024","2","48000","-16","experiment","SSSSS","4","even","28763","NA","NA","3249","NA","3244","NA","NA","51233","NA","NA","NA","NA","50160","51336","51811","NA","51231","NA","51336","NA","Flanker Task","13","8618","13","yes","1024"
"100","100","656","656","black","legacy","legacy","legacy","0","incongruent","uniform","1","undefined","1","h","0","0","0","0","13","0","13","0","13","NA","0","NA","0","13","13","13","NA","13","NA","13","NA","09/21/22 18:46:26","1500","The main experiment item","yes","FlankerTask.osexp","C:\Users\olasa\OneDrive\Desktop","no","mono","no","18","no","white","no","yes","768","legacy","13","13","C:/Users/olasa/OneDrive/Desktop/OL-subject-4.csv","legacy","Lentiform Loewenfeld","3.3.12","0","h","s","NA","NA","NA","NA","NA","h","NA","NA","566","25512","NA","NA","NA","NA","NA","566","NA","NA","NA","NA","2","legacy","1024","2","48000","-16","experiment","SSHSS","4","even","28763","NA","NA","3249","NA","3244","NA","NA","52893","NA","NA","NA","NA","51821","52997","53564","NA","52892","NA","52997","NA","Flanker Task","14","9184","14","yes","1024"
"100","100","653.666666667","653.666666667","black","legacy","legacy","legacy","0","congruent","uniform","1","undefined","1","s","0","0","0","0","14","0","14","0","14","NA","0","NA","0","14","14","14","NA","14","NA","14","NA","09/21/22 18:46:26","1500","The main experiment item","yes","FlankerTask.osexp","C:\Users\olasa\OneDrive\Desktop","no","mono","no","18","no","white","no","yes","768","legacy","14","14","C:/Users/olasa/OneDrive/Desktop/OL-subject-4.csv","legacy","Lentiform Loewenfeld","3.3.12","0","s","s","NA","NA","NA","NA","NA","s","NA","NA","621","25512","NA","NA","NA","NA","NA","621","NA","NA","NA","NA","2","legacy","1024","2","48000","-16","experiment","SSSSS","4","even","28763","NA","NA","3249","NA","3244","NA","NA","54656","NA","NA","NA","NA","53573","54759","55381","NA","54653","NA","54759","NA","Flanker Task","15","9805","15","yes","1024"
"100","100","655","655","black","legacy","legacy","legacy","0","incongruent","uniform","1","undefined","1","h","0","0","0","0","15","0","15","0","15","NA","0","NA","0","15","15","15","NA","15","NA","15","NA","09/21/22 18:46:26","1500","The main experiment item","yes","FlankerTask.osexp","C:\Users\olasa\OneDrive\Desktop","no","mono","no","18","no","white","no","yes","768","legacy","15","15","C:/Users/olasa/OneDrive/Desktop/OL-subject-4.csv","legacy","Lentiform Loewenfeld","3.3.12","0","h","s","NA","NA","NA","NA","NA","h","NA","NA","675","25512","NA","NA","NA","NA","NA","675","NA","NA","NA","NA","2","legacy","1024","2","48000","-16","experiment","SSHSS","4","even","28763","NA","NA","3249","NA","3244","NA","NA","56443","NA","NA","NA","NA","55389","56546","57222","NA","56441","NA","56546","NA","Flanker Task","16","10480","16","yes","1024"
"100","100","648.764705882","648.764705882","black","legacy","legacy","legacy","0","incongruent","uniform","1","undefined","1","h","0","0","0","0","16","0","16","0","16","NA","0","NA","0","16","16","16","NA","16","NA","16","NA","09/21/22 18:46:26","1500","The main experiment item","yes","FlankerTask.osexp","C:\Users\olasa\OneDrive\Desktop","no","mono","no","18","no","white","no","yes","768","legacy","16","16","C:/Users/olasa/OneDrive/Desktop/OL-subject-4.csv","legacy","Lentiform Loewenfeld","3.3.12","0","h","s","NA","NA","NA","NA","NA","h","NA","NA","549","25512","NA","NA","NA","NA","NA","549","NA","NA","NA","NA","2","legacy","1024","2","48000","-16","experiment","SSHSS","4","even","28763","NA","NA","3249","NA","3244","NA","NA","58304","NA","NA","NA","NA","57232","58407","58956","NA","58302","NA","58407","NA","Flanker Task","17","11029","17","yes","1024"
"100","100","638.333333333","638.333333333","black","legacy","legacy","legacy","0","incongruent","uniform","1","undefined","1","h","0","0","0","0","17","0","17","0","17","NA","0","NA","0","17","17","17","NA","17","NA","17","NA","09/21/22 18:46:26","1500","The main experiment item","yes","FlankerTask.osexp","C:\Users\olasa\OneDrive\Desktop","no","mono","no","18","no","white","no","yes","768","legacy","17","17","C:/Users/olasa/OneDrive/Desktop/OL-subject-4.csv","legacy","Lentiform Loewenfeld","3.3.12","0","h","s","NA","NA","NA","NA","NA","h","NA","NA","461","25512","NA","NA","NA","NA","NA","461","NA","NA","NA","NA","2","legacy","1024","2","48000","-16","experiment","SSHSS","4","even","28763","NA","NA","3249","NA","3244","NA","NA","60056","NA","NA","NA","NA","58960","60158","60621","NA","60053","NA","60158","NA","Flanker Task","18","11490","18","yes","1024"
"100","100","633","633","black","legacy","legacy","legacy","0","incongruent","uniform","1","undefined","1","h","0","0","0","0","18","0","18","0","18","NA","0","NA","0","18","18","18","NA","18","NA","18","NA","09/21/22 18:46:26","1500","The main experiment item","yes","FlankerTask.osexp","C:\Users\olasa\OneDrive\Desktop","no","mono","no","18","no","white","no","yes","768","legacy","18","18","C:/Users/olasa/OneDrive/Desktop/OL-subject-4.csv","legacy","Lentiform Loewenfeld","3.3.12","0","h","s","NA","NA","NA","NA","NA","h","NA","NA","537","25512","NA","NA","NA","NA","NA","537","NA","NA","NA","NA","2","legacy","1024","2","48000","-16","experiment","SSHSS","4","even","28763","NA","NA","3249","NA","3244","NA","NA","61705","NA","NA","NA","NA","60634","61808","62345","NA","61702","NA","61808","NA","Flanker Task","19","12027","19","yes","1024"
"100","100","636.5","636.5","black","legacy","legacy","legacy","0","incongruent","uniform","1","undefined","1","s","0","0","0","0","19","0","19","0","19","NA","0","NA","0","19","19","19","NA","19","NA","19","NA","09/21/22 18:46:26","1500","The main experiment item","yes","FlankerTask.osexp","C:\Users\olasa\OneDrive\Desktop","no","mono","no","18","no","white","no","yes","768","legacy","19","19","C:/Users/olasa/OneDrive/Desktop/OL-subject-4.csv","legacy","Lentiform Loewenfeld","3.3.12","0","s","s","NA","NA","NA","NA","NA","s","NA","NA","703","25512","NA","NA","NA","NA","NA","703","NA","NA","NA","NA","2","legacy","1024","2","48000","-16","experiment","HHSHH","4","even","28763","NA","NA","3249","NA","3244","NA","NA","63444","NA","NA","NA","NA","62375","63545","64249","NA","63442","NA","63545","NA","Flanker Task","20","12730","20","yes","1024"
"100","100","634.714285714","634.714285714","black","legacy","legacy","legacy","0","incongruent","uniform","1","undefined","1","s","0","0","0","0","20","0","20","0","20","NA","0","NA","0","20","20","20","NA","20","NA","20","NA","09/21/22 18:46:26","1500","The main experiment item","yes","FlankerTask.osexp","C:\Users\olasa\OneDrive\Desktop","no","mono","no","18","no","white","no","yes","768","legacy","20","20","C:/Users/olasa/OneDrive/Desktop/OL-subject-4.csv","legacy","Lentiform Loewenfeld","3.3.12","0","s","s","NA","NA","NA","NA","NA","s","NA","NA","599","25512","NA","NA","NA","NA","NA","599","NA","NA","NA","NA","2","legacy","1024","2","48000","-16","experiment","HHSHH","4","even","28763","NA","NA","3249","NA","3244","NA","NA","65330","NA","NA","NA","NA","64258","65432","66031","NA","65328","NA","65432","NA","Flanker Task","21","13329","21","yes","1024"
"100","100","638.863636364","638.863636364","black","legacy","legacy","legacy","0","incongruent","uniform","1","undefined","1","s","0","0","0","0","21","0","21","0","21","NA","0","NA","0","21","21","21","NA","21","NA","21","NA","09/21/22 18:46:26","1500","The main experiment item","yes","FlankerTask.osexp","C:\Users\olasa\OneDrive\Desktop","no","mono","no","18","no","white","no","yes","768","legacy","21","21","C:/Users/olasa/OneDrive/Desktop/OL-subject-4.csv","legacy","Lentiform Loewenfeld","3.3.12","0","s","s","NA","NA","NA","NA","NA","s","NA","NA","726","25512","NA","NA","NA","NA","NA","726","NA","NA","NA","NA","2","legacy","1024","2","48000","-16","experiment","HHSHH","4","even","28763","NA","NA","3249","NA","3244","NA","NA","67097","NA","NA","NA","NA","66040","67198","67925","NA","67095","NA","67198","NA","Flanker Task","22","14055","22","yes","1024"
"100","100","638.304347826","638.304347826","black","legacy","legacy","legacy","0","incongruent","uniform","1","undefined","1","s","0","0","0","0","22","0","22","0","22","NA","0","NA","0","22","22","22","NA","22","NA","22","NA","09/21/22 18:46:26","1500","The main experiment item","yes","FlankerTask.osexp","C:\Users\olasa\OneDrive\Desktop","no","mono","no","18","no","white","no","yes","768","legacy","22","22","C:/Users/olasa/OneDrive/Desktop/OL-subject-4.csv","legacy","Lentiform Loewenfeld","3.3.12","0","s","s","NA","NA","NA","NA","NA","s","NA","NA","626","25512","NA","NA","NA","NA","NA","626","NA","NA","NA","NA","2","legacy","1024","2","48000","-16","experiment","HHSHH","4","even","28763","NA","NA","3249","NA","3244","NA","NA","69003","NA","NA","NA","NA","67933","69106","69733","NA","69001","NA","69106","NA","Flanker Task","23","14681","23","yes","1024"
"100","100","647.041666667","647.041666667","black","legacy","legacy","legacy","0","congruent","uniform","1","undefined","1","s","0","0","0","0","23","0","23","0","23","NA","0","NA","0","23","23","23","NA","23","NA","23","NA","09/21/22 18:46:26","1500","The main experiment item","yes","FlankerTask.osexp","C:\Users\olasa\OneDrive\Desktop","no","mono","no","18","no","white","no","yes","768","legacy","23","23","C:/Users/olasa/OneDrive/Desktop/OL-subject-4.csv","legacy","Lentiform Loewenfeld","3.3.12","0","s","s","NA","NA","NA","NA","NA","s","NA","NA","848","25512","NA","NA","NA","NA","NA","848","NA","NA","NA","NA","2","legacy","1024","2","48000","-16","experiment","SSSSS","4","even","28763","NA","NA","3249","NA","3244","NA","NA","70838","NA","NA","NA","NA","69742","70941","71790","NA","70835","NA","70941","NA","Flanker Task","24","15529","24","yes","1024"
"100","100","649.08","649.08","black","legacy","legacy","legacy","0","incongruent","uniform","1","undefined","1","s","0","0","0","0","24","0","24","0","24","NA","0","NA","0","24","24","24","NA","24","NA","24","NA","09/21/22 18:46:26","1500","The main experiment item","yes","FlankerTask.osexp","C:\Users\olasa\OneDrive\Desktop","no","mono","no","18","no","white","no","yes","768","legacy","24","24","C:/Users/olasa/OneDrive/Desktop/OL-subject-4.csv","legacy","Lentiform Loewenfeld","3.3.12","0","s","s","NA","NA","NA","NA","NA","s","NA","NA","698","25512","NA","NA","NA","NA","NA","698","NA","NA","NA","NA","2","legacy","1024","2","48000","-16","experiment","HHSHH","4","even","28763","NA","NA","3249","NA","3244","NA","NA","72872","NA","NA","NA","NA","71799","72975","73674","NA","72870","NA","72975","NA","Flanker Task","25","16227","25","yes","1024"
"100","100","650.807692308","650.807692308","black","legacy","legacy","legacy","0","incongruent","uniform","1","undefined","1","h","0","0","0","0","25","0","25","0","25","NA","0","NA","0","25","25","25","NA","25","NA","25","NA","09/21/22 18:46:26","1500","The main experiment item","yes","FlankerTask.osexp","C:\Users\olasa\OneDrive\Desktop","no","mono","no","18","no","white","no","yes","768","legacy","25","25","C:/Users/olasa/OneDrive/Desktop/OL-subject-4.csv","legacy","Lentiform Loewenfeld","3.3.12","0","h","s","NA","NA","NA","NA","NA","h","NA","NA","694","25512","NA","NA","NA","NA","NA","694","NA","NA","NA","NA","2","legacy","1024","2","48000","-16","experiment","SSHSS","4","even","28763","NA","NA","3249","NA","3244","NA","NA","74744","NA","NA","NA","NA","73683","74846","75540","NA","74741","NA","74845","NA","Flanker Task","26","16921","26","yes","1024"
"100","100","652.62962963","652.62962963","black","legacy","legacy","legacy","0","congruent","uniform","1","undefined","1","s","0","0","0","0","26","0","26","0","26","NA","0","NA","0","26","26","26","NA","26","NA","26","NA","09/21/22 18:46:26","1500","The main experiment item","yes","FlankerTask.osexp","C:\Users\olasa\OneDrive\Desktop","no","mono","no","18","no","white","no","yes","768","legacy","26","26","C:/Users/olasa/OneDrive/Desktop/OL-subject-4.csv","legacy","Lentiform Loewenfeld","3.3.12","0","s","s","NA","NA","NA","NA","NA","s","NA","NA","700","25512","NA","NA","NA","NA","NA","700","NA","NA","NA","NA","2","legacy","1024","2","48000","-16","experiment","SSSSS","4","even","28763","NA","NA","3249","NA","3244","NA","NA","76620","NA","NA","NA","NA","75548","76724","77425","NA","76619","NA","76724","NA","Flanker Task","27","17621","27","yes","1024"
"100","100","654.678571429","654.678571429","black","legacy","legacy","legacy","0","congruent","uniform","1","undefined","1","h","0","0","0","0","27","0","27","0","27","NA","0","NA","0","27","27","27","NA","27","NA","27","NA","09/21/22 18:46:26","1500","The main experiment item","yes","FlankerTask.osexp","C:\Users\olasa\OneDrive\Desktop","no","mono","no","18","no","white","no","yes","768","legacy","27","27","C:/Users/olasa/OneDrive/Desktop/OL-subject-4.csv","legacy","Lentiform Loewenfeld","3.3.12","0","h","s","NA","NA","NA","NA","NA","h","NA","NA","710","25512","NA","NA","NA","NA","NA","710","NA","NA","NA","NA","2","legacy","1024","2","48000","-16","experiment","HHHHH","4","even","28763","NA","NA","3249","NA","3244","NA","NA","78525","NA","NA","NA","NA","77455","78628","79339","NA","78524","NA","78628","NA","Flanker Task","28","18331","28","yes","1024"
"100","100","654.862068966","654.862068966","black","legacy","legacy","legacy","0","congruent","uniform","1","undefined","1","h","0","0","0","0","28","0","28","0","28","NA","0","NA","0","28","28","28","NA","28","NA","28","NA","09/21/22 18:46:26","1500","The main experiment item","yes","FlankerTask.osexp","C:\Users\olasa\OneDrive\Desktop","no","mono","no","18","no","white","no","yes","768","legacy","28","28","C:/Users/olasa/OneDrive/Desktop/OL-subject-4.csv","legacy","Lentiform Loewenfeld","3.3.12","0","h","s","NA","NA","NA","NA","NA","h","NA","NA","660","25512","NA","NA","NA","NA","NA","660","NA","NA","NA","NA","2","legacy","1024","2","48000","-16","experiment","HHHHH","4","even","28763","NA","NA","3249","NA","3244","NA","NA","80442","NA","NA","NA","NA","79348","80544","81205","NA","80440","NA","80544","NA","Flanker Task","29","18991","29","yes","1024"
"100","100","653.333333333","653.333333333","black","legacy","legacy","legacy","0","congruent","uniform","1","undefined","1","h","0","0","0","0","29","0","29","0","29","NA","0","NA","0","29","29","29","NA","29","NA","29","NA","09/21/22 18:46:26","1500","The main experiment item","yes","FlankerTask.osexp","C:\Users\olasa\OneDrive\Desktop","no","mono","no","18","no","white","no","yes","768","legacy","29","29","C:/Users/olasa/OneDrive/Desktop/OL-subject-4.csv","legacy","Lentiform Loewenfeld","3.3.12","0","h","s","NA","NA","NA","NA","NA","h","NA","NA","609","25512","NA","NA","NA","NA","NA","609","NA","NA","NA","NA","2","legacy","1024","2","48000","-16","experiment","HHHHH","4","even","28763","NA","NA","3249","NA","3244","NA","NA","82282","NA","NA","NA","NA","81211","82385","82995","NA","82281","NA","82385","NA","Flanker Task","30","19600","30","yes","1024"
"100","100","661.741935484","661.741935484","black","legacy","legacy","legacy","0","incongruent","uniform","1","undefined","1","h","0","0","0","0","30","0","30","0","30","NA","0","NA","0","30","30","30","NA","30","NA","30","NA","09/21/22 18:46:26","1500","The main experiment item","yes","FlankerTask.osexp","C:\Users\olasa\OneDrive\Desktop","no","mono","no","18","no","white","no","yes","768","legacy","30","30","C:/Users/olasa/OneDrive/Desktop/OL-subject-4.csv","legacy","Lentiform Loewenfeld","3.3.12","0","h","s","NA","NA","NA","NA","NA","h","NA","NA","914","25512","NA","NA","NA","NA","NA","914","NA","NA","NA","NA","2","legacy","1024","2","48000","-16","experiment","SSHSS","4","even","28763","NA","NA","3249","NA","3244","NA","NA","84082","NA","NA","NA","NA","83024","84184","85099","NA","84080","NA","84184","NA","Flanker Task","31","20514","31","yes","1024"
"100","100","660.78125","660.78125","black","legacy","legacy","legacy","0","incongruent","uniform","1","undefined","1","s","0","0","0","0","31","0","31","0","31","NA","0","NA","0","31","31","31","NA","31","NA","31","NA","09/21/22 18:46:26","1500","The main experiment item","yes","FlankerTask.osexp","C:\Users\olasa\OneDrive\Desktop","no","mono","no","18","no","white","no","yes","768","legacy","31","31","C:/Users/olasa/OneDrive/Desktop/OL-subject-4.csv","legacy","Lentiform Loewenfeld","3.3.12","0","s","s","NA","NA","NA","NA","NA","s","NA","NA","631","25512","NA","NA","NA","NA","NA","631","NA","NA","NA","NA","2","legacy","1024","2","48000","-16","experiment","HHSHH","4","even","28763","NA","NA","3249","NA","3244","NA","NA","86199","NA","NA","NA","NA","85108","86302","86936","NA","86196","NA","86302","NA","Flanker Task","32","21145","32","yes","1024"
"100","100","661.787878788","661.787878788","black","legacy","legacy","legacy","0","congruent","uniform","1","undefined","1","h","0","0","0","0","32","0","32","0","32","NA","0","NA","0","32","32","32","NA","32","NA","32","NA","09/21/22 18:46:26","1500","The main experiment item","yes","FlankerTask.osexp","C:\Users\olasa\OneDrive\Desktop","no","mono","no","18","no","white","no","yes","768","legacy","32","32","C:/Users/olasa/OneDrive/Desktop/OL-subject-4.csv","legacy","Lentiform Loewenfeld","3.3.12","0","h","s","NA","NA","NA","NA","NA","h","NA","NA","694","25512","NA","NA","NA","NA","NA","694","NA","NA","NA","NA","2","legacy","1024","2","48000","-16","experiment","HHHHH","4","even","28763","NA","NA","3249","NA","3244","NA","NA","88041","NA","NA","NA","NA","86967","88144","88839","NA","88039","NA","88144","NA","Flanker Task","33","21839","33","yes","1024"
"100","100","661","661","black","legacy","legacy","legacy","0","congruent","uniform","1","undefined","1","h","0","0","0","0","33","0","33","0","33","NA","0","NA","0","33","33","33","NA","33","NA","33","NA","09/21/22 18:46:26","1500","The main experiment item","yes","FlankerTask.osexp","C:\Users\olasa\OneDrive\Desktop","no","mono","no","18","no","white","no","yes","768","legacy","33","33","C:/Users/olasa/OneDrive/Desktop/OL-subject-4.csv","legacy","Lentiform Loewenfeld","3.3.12","0","h","s","NA","NA","NA","NA","NA","h","NA","NA","635","25512","NA","NA","NA","NA","NA","635","NA","NA","NA","NA","2","legacy","1024","2","48000","-16","experiment","HHHHH","4","even","28763","NA","NA","3249","NA","3244","NA","NA","89944","NA","NA","NA","NA","88845","90046","90683","NA","89940","NA","90046","NA","Flanker Task","34","22474","34","yes","1024"
"100","100","662.2","662.2","black","legacy","legacy","legacy","0","congruent","uniform","1","undefined","1","h","0","0","0","0","34","0","34","0","34","NA","0","NA","0","34","34","34","NA","34","NA","34","NA","09/21/22 18:46:26","1500","The main experiment item","yes","FlankerTask.osexp","C:\Users\olasa\OneDrive\Desktop","no","mono","no","18","no","white","no","yes","768","legacy","34","34","C:/Users/olasa/OneDrive/Desktop/OL-subject-4.csv","legacy","Lentiform Loewenfeld","3.3.12","0","h","s","NA","NA","NA","NA","NA","h","NA","NA","703","25512","NA","NA","NA","NA","NA","703","NA","NA","NA","NA","2","legacy","1024","2","48000","-16","experiment","HHHHH","4","even","28763","NA","NA","3249","NA","3244","NA","NA","91784","NA","NA","NA","NA","90715","91887","92591","NA","91783","NA","91887","NA","Flanker Task","35","23177","35","yes","1024"
"100","100","663.166666667","663.166666667","black","legacy","legacy","legacy","0","incongruent","uniform","1","undefined","1","s","0","0","0","0","35","0","35","0","35","NA","0","NA","0","35","35","35","NA","35","NA","35","NA","09/21/22 18:46:26","1500","The main experiment item","yes","FlankerTask.osexp","C:\Users\olasa\OneDrive\Desktop","no","mono","no","18","no","white","no","yes","768","legacy","35","35","C:/Users/olasa/OneDrive/Desktop/OL-subject-4.csv","legacy","Lentiform Loewenfeld","3.3.12","0","s","s","NA","NA","NA","NA","NA","s","NA","NA","697","25512","NA","NA","NA","NA","NA","697","NA","NA","NA","NA","2","legacy","1024","2","48000","-16","experiment","HHSHH","4","even","28763","NA","NA","3249","NA","3244","NA","NA","93655","NA","NA","NA","NA","92600","93758","94455","NA","93653","NA","93758","NA","Flanker Task","36","23874","36","yes","1024"
"100","100","665.162162162","665.162162162","black","legacy","legacy","legacy","0","congruent","uniform","1","undefined","1","s","0","0","0","0","36","0","36","0","36","NA","0","NA","0","36","36","36","NA","36","NA","36","NA","09/21/22 18:46:26","1500","The main experiment item","yes","FlankerTask.osexp","C:\Users\olasa\OneDrive\Desktop","no","mono","no","18","no","white","no","yes","768","legacy","36","36","C:/Users/olasa/OneDrive/Desktop/OL-subject-4.csv","legacy","Lentiform Loewenfeld","3.3.12","0","s","s","NA","NA","NA","NA","NA","s","NA","NA","737","25512","NA","NA","NA","NA","NA","737","NA","NA","NA","NA","2","legacy","1024","2","48000","-16","experiment","SSSSS","4","even","28763","NA","NA","3249","NA","3244","NA","NA","95538","NA","NA","NA","NA","94466","95641","96382","NA","95536","NA","95641","NA","Flanker Task","37","24611","37","yes","1024"
"100","100","666.421052632","666.421052632","black","legacy","legacy","legacy","0","congruent","uniform","1","undefined","1","h","0","0","0","0","37","0","37","0","37","NA","0","NA","0","37","37","37","NA","37","NA","37","NA","09/21/22 18:46:26","1500","The main experiment item","yes","FlankerTask.osexp","C:\Users\olasa\OneDrive\Desktop","no","mono","no","18","no","white","no","yes","768","legacy","37","37","C:/Users/olasa/OneDrive/Desktop/OL-subject-4.csv","legacy","Lentiform Loewenfeld","3.3.12","0","h","s","NA","NA","NA","NA","NA","h","NA","NA","713","25512","NA","NA","NA","NA","NA","713","NA","NA","NA","NA","2","legacy","1024","2","48000","-16","experiment","HHHHH","4","even","28763","NA","NA","3249","NA","3244","NA","NA","97501","NA","NA","NA","NA","96410","97604","98318","NA","97499","NA","97604","NA","Flanker Task","38","25324","38","yes","1024"
"100","100","666.769230769","666.769230769","black","legacy","legacy","legacy","0","incongruent","uniform","1","undefined","1","s","0","0","0","0","38","0","38","0","38","NA","0","NA","0","38","38","38","NA","38","NA","38","NA","09/21/22 18:46:26","1500","The main experiment item","yes","FlankerTask.osexp","C:\Users\olasa\OneDrive\Desktop","no","mono","no","18","no","white","no","yes","768","legacy","38","38","C:/Users/olasa/OneDrive/Desktop/OL-subject-4.csv","legacy","Lentiform Loewenfeld","3.3.12","0","s","s","NA","NA","NA","NA","NA","s","NA","NA","680","25512","NA","NA","NA","NA","NA","680","NA","NA","NA","NA","2","legacy","1024","2","48000","-16","experiment","HHSHH","4","even","28763","NA","NA","3249","NA","3244","NA","NA","99398","NA","NA","NA","NA","98326","99500","100182","NA","99397","NA","99500","NA","Flanker Task","39","26004","39","yes","1024"
"100","100","667.35","667.35","black","legacy","legacy","legacy","0","congruent","uniform","1","undefined","1","h","0","0","0","0","39","0","39","0","39","NA","0","NA","0","39","39","39","NA","39","NA","39","NA","09/21/22 18:46:26","1500","The main experiment item","yes","FlankerTask.osexp","C:\Users\olasa\OneDrive\Desktop","no","mono","no","18","no","white","no","yes","768","legacy","39","39","C:/Users/olasa/OneDrive/Desktop/OL-subject-4.csv","legacy","Lentiform Loewenfeld","3.3.12","0","h","s","NA","NA","NA","NA","NA","h","NA","NA","690","25512","NA","NA","NA","NA","NA","690","NA","NA","NA","NA","2","legacy","1024","2","48000","-16","experiment","HHHHH","4","even","28763","NA","NA","3249","NA","3244","NA","NA","101285","NA","NA","NA","NA","100192","101389","102080","NA","101283","NA","101389","NA","Flanker Task","40","26694","40","yes","1024"
"100","100","667.512195122","667.512195122","black","legacy","legacy","legacy","0","congruent","uniform","1","undefined","1","s","0","0","0","0","40","0","40","0","40","NA","0","NA","0","40","40","40","NA","40","NA","40","NA","09/21/22 18:46:26","1500","The main experiment item","yes","FlankerTask.osexp","C:\Users\olasa\OneDrive\Desktop","no","mono","no","18","no","white","no","yes","768","legacy","40","40","C:/Users/olasa/OneDrive/Desktop/OL-subject-4.csv","legacy","Lentiform Loewenfeld","3.3.12","0","s","s","NA","NA","NA","NA","NA","s","NA","NA","674","25512","NA","NA","NA","NA","NA","674","NA","NA","NA","NA","2","legacy","1024","2","48000","-16","experiment","SSSSS","4","even","28763","NA","NA","3249","NA","3244","NA","NA","103146","NA","NA","NA","NA","102090","103247","103923","NA","103143","NA","103247","NA","Flanker Task","41","27368","41","yes","1024"
"100","100","667.071428571","667.071428571","black","legacy","legacy","legacy","0","congruent","uniform","1","undefined","1","h","0","0","0","0","41","0","41","0","41","NA","0","NA","0","41","41","41","NA","41","NA","41","NA","09/21/22 18:46:26","1500","The main experiment item","yes","FlankerTask.osexp","C:\Users\olasa\OneDrive\Desktop","no","mono","no","18","no","white","no","yes","768","legacy","41","41","C:/Users/olasa/OneDrive/Desktop/OL-subject-4.csv","legacy","Lentiform Loewenfeld","3.3.12","0","h","s","NA","NA","NA","NA","NA","h","NA","NA","649","25512","NA","NA","NA","NA","NA","649","NA","NA","NA","NA","2","legacy","1024","2","48000","-16","experiment","HHHHH","4","even","28763","NA","NA","3249","NA","3244","NA","NA","104999","NA","NA","NA","NA","103928","105102","105752","NA","104998","NA","105102","NA","Flanker Task","42","28017","42","yes","1024"
"100","100","668.558139535","668.558139535","black","legacy","legacy","legacy","0","congruent","uniform","1","undefined","1","s","0","0","0","0","42","0","42","0","42","NA","0","NA","0","42","42","42","NA","42","NA","42","NA","09/21/22 18:46:26","1500","The main experiment item","yes","FlankerTask.osexp","C:\Users\olasa\OneDrive\Desktop","no","mono","no","18","no","white","no","yes","768","legacy","42","42","C:/Users/olasa/OneDrive/Desktop/OL-subject-4.csv","legacy","Lentiform Loewenfeld","3.3.12","0","s","s","NA","NA","NA","NA","NA","s","NA","NA","731","25512","NA","NA","NA","NA","NA","731","NA","NA","NA","NA","2","legacy","1024","2","48000","-16","experiment","SSSSS","4","even","28763","NA","NA","3249","NA","3244","NA","NA","106827","NA","NA","NA","NA","105761","106929","107661","NA","106825","NA","106929","NA","Flanker Task","43","28748","43","yes","1024"
"100","100","667.931818182","667.931818182","black","legacy","legacy","legacy","0","congruent","uniform","1","undefined","1","s","0","0","0","0","43","0","43","0","43","NA","0","NA","0","43","43","43","NA","43","NA","43","NA","09/21/22 18:46:26","1500","The main experiment item","yes","FlankerTask.osexp","C:\Users\olasa\OneDrive\Desktop","no","mono","no","18","no","white","no","yes","768","legacy","43","43","C:/Users/olasa/OneDrive/Desktop/OL-subject-4.csv","legacy","Lentiform Loewenfeld","3.3.12","0","s","s","NA","NA","NA","NA","NA","s","NA","NA","641","25512","NA","NA","NA","NA","NA","641","NA","NA","NA","NA","2","legacy","1024","2","48000","-16","experiment","SSSSS","4","even","28763","NA","NA","3249","NA","3244","NA","NA","108733","NA","NA","NA","NA","107665","108836","109478","NA","108731","NA","108836","NA","Flanker Task","44","29389","44","yes","1024"
"100","100","664.977777778","664.977777778","black","legacy","legacy","legacy","0","congruent","uniform","1","undefined","1","s","0","0","0","0","44","0","44","0","44","NA","0","NA","0","44","44","44","NA","44","NA","44","NA","09/21/22 18:46:26","1500","The main experiment item","yes","FlankerTask.osexp","C:\Users\olasa\OneDrive\Desktop","no","mono","no","18","no","white","no","yes","768","legacy","44","44","C:/Users/olasa/OneDrive/Desktop/OL-subject-4.csv","legacy","Lentiform Loewenfeld","3.3.12","0","s","s","NA","NA","NA","NA","NA","s","NA","NA","535","25512","NA","NA","NA","NA","NA","535","NA","NA","NA","NA","2","legacy","1024","2","48000","-16","experiment","SSSSS","4","even","28763","NA","NA","3249","NA","3244","NA","NA","110584","NA","NA","NA","NA","109486","110687","111225","NA","110581","NA","110687","NA","Flanker Task","45","29924","45","yes","1024"
"100","100","662.130434783","662.130434783","black","legacy","legacy","legacy","0","congruent","uniform","1","undefined","1","s","0","0","0","0","45","0","45","0","45","NA","0","NA","0","45","45","45","NA","45","NA","45","NA","09/21/22 18:46:26","1500","The main experiment item","yes","FlankerTask.osexp","C:\Users\olasa\OneDrive\Desktop","no","mono","no","18","no","white","no","yes","768","legacy","45","45","C:/Users/olasa/OneDrive/Desktop/OL-subject-4.csv","legacy","Lentiform Loewenfeld","3.3.12","0","s","s","NA","NA","NA","NA","NA","s","NA","NA","534","25512","NA","NA","NA","NA","NA","534","NA","NA","NA","NA","2","legacy","1024","2","48000","-16","experiment","SSSSS","4","even","28763","NA","NA","3249","NA","3244","NA","NA","112325","NA","NA","NA","NA","111253","112428","112962","NA","112322","NA","112428","NA","Flanker Task","46","30458","46","yes","1024"
"100","100","660.659574468","660.659574468","black","legacy","legacy","legacy","0","congruent","uniform","1","undefined","1","s","0","0","0","0","46","0","46","0","46","NA","0","NA","0","46","46","46","NA","46","NA","46","NA","09/21/22 18:46:26","1500","The main experiment item","yes","FlankerTask.osexp","C:\Users\olasa\OneDrive\Desktop","no","mono","no","18","no","white","no","yes","768","legacy","46","46","C:/Users/olasa/OneDrive/Desktop/OL-subject-4.csv","legacy","Lentiform Loewenfeld","3.3.12","0","s","s","NA","NA","NA","NA","NA","s","NA","NA","593","25512","NA","NA","NA","NA","NA","593","NA","NA","NA","NA","2","legacy","1024","2","48000","-16","experiment","SSSSS","4","even","28763","NA","NA","3249","NA","3244","NA","NA","114045","NA","NA","NA","NA","112972","114148","114742","NA","114043","NA","114148","NA","Flanker Task","47","31051","47","yes","1024"
"100","100","658.625","658.625","black","legacy","legacy","legacy","0","congruent","uniform","1","undefined","1","h","0","0","0","0","47","0","47","0","47","NA","0","NA","0","47","47","47","NA","47","NA","47","NA","09/21/22 18:46:26","1500","The main experiment item","yes","FlankerTask.osexp","C:\Users\olasa\OneDrive\Desktop","no","mono","no","18","no","white","no","yes","768","legacy","47","47","C:/Users/olasa/OneDrive/Desktop/OL-subject-4.csv","legacy","Lentiform Loewenfeld","3.3.12","0","h","s","NA","NA","NA","NA","NA","h","NA","NA","563","25512","NA","NA","NA","NA","NA","563","NA","NA","NA","NA","2","legacy","1024","2","48000","-16","experiment","HHHHH","4","even","28763","NA","NA","3249","NA","3244","NA","NA","115843","NA","NA","NA","NA","114772","115946","116510","NA","115840","NA","115946","NA","Flanker Task","48","31614","48","yes","1024"
"100","100","657.571428571","657.571428571","black","legacy","legacy","legacy","0","congruent","uniform","1","undefined","1","s","0","0","0","0","48","0","48","0","48","NA","0","NA","0","48","48","48","NA","48","NA","48","NA","09/21/22 18:46:26","1500","The main experiment item","yes","FlankerTask.osexp","C:\Users\olasa\OneDrive\Desktop","no","mono","no","18","no","white","no","yes","768","legacy","48","48","C:/Users/olasa/OneDrive/Desktop/OL-subject-4.csv","legacy","Lentiform Loewenfeld","3.3.12","0","s","s","NA","NA","NA","NA","NA","s","NA","NA","607","25512","NA","NA","NA","NA","NA","607","NA","NA","NA","NA","2","legacy","1024","2","48000","-16","experiment","SSSSS","4","even","28763","NA","NA","3249","NA","3244","NA","NA","117588","NA","NA","NA","NA","116518","117690","118298","NA","117586","NA","117690","NA","Flanker Task","49","32221","49","yes","1024"
"100","100","657.72","657.72","black","legacy","legacy","legacy","0","congruent","uniform","1","undefined","1","h","0","0","0","0","49","0","49","0","49","NA","0","NA","0","49","49","49","NA","49","NA","49","NA","09/21/22 18:46:26","1500","The main experiment item","yes","FlankerTask.osexp","C:\Users\olasa\OneDrive\Desktop","no","mono","no","18","no","white","no","yes","768","legacy","49","49","C:/Users/olasa/OneDrive/Desktop/OL-subject-4.csv","legacy","Lentiform Loewenfeld","3.3.12","0","h","s","NA","NA","NA","NA","NA","h","NA","NA","665","25512","NA","NA","NA","NA","NA","665","NA","NA","NA","NA","2","legacy","1024","2","48000","-16","experiment","HHHHH","4","even","28763","NA","NA","3249","NA","3244","NA","NA","119370","NA","NA","NA","NA","118307","119473","120139","NA","119369","NA","119473","NA","Flanker Task","50","32886","50","yes","1024"
"100","100","657.431372549","657.431372549","black","legacy","legacy","legacy","0","congruent","uniform","1","undefined","1","s","0","0","0","0","50","0","50","0","50","NA","0","NA","0","50","50","50","NA","50","NA","50","NA","09/21/22 18:46:26","1500","The main experiment item","yes","FlankerTask.osexp","C:\Users\olasa\OneDrive\Desktop","no","mono","no","18","no","white","no","yes","768","legacy","50","50","C:/Users/olasa/OneDrive/Desktop/OL-subject-4.csv","legacy","Lentiform Loewenfeld","3.3.12","0","s","s","NA","NA","NA","NA","NA","s","NA","NA","643","25512","NA","NA","NA","NA","NA","643","NA","NA","NA","NA","2","legacy","1024","2","48000","-16","experiment","SSSSS","4","even","28763","NA","NA","3249","NA","3244","NA","NA","121263","NA","NA","NA","NA","120169","121366","122011","NA","121261","NA","121366","NA","Flanker Task","51","33529","51","yes","1024"
"100","100","661.846153846","661.846153846","black","legacy","legacy","legacy","0","congruent","uniform","1","undefined","1","h","0","0","0","0","51","0","51","0","51","NA","0","NA","0","51","51","51","NA","51","NA","51","NA","09/21/22 18:46:26","1500","The main experiment item","yes","FlankerTask.osexp","C:\Users\olasa\OneDrive\Desktop","no","mono","no","18","no","white","no","yes","768","legacy","51","51","C:/Users/olasa/OneDrive/Desktop/OL-subject-4.csv","legacy","Lentiform Loewenfeld","3.3.12","0","h","s","NA","NA","NA","NA","NA","h","NA","NA","887","25512","NA","NA","NA","NA","NA","887","NA","NA","NA","NA","2","legacy","1024","2","48000","-16","experiment","HHHHH","4","even","28763","NA","NA","3249","NA","3244","NA","NA","123114","NA","NA","NA","NA","122042","123217","124105","NA","123112","NA","123217","NA","Flanker Task","52","34416","52","yes","1024"
"100","100","659.735849057","659.735849057","black","legacy","legacy","legacy","0","incongruent","uniform","1","undefined","1","h","0","0","0","0","52","0","52","0","52","NA","0","NA","0","52","52","52","NA","52","NA","52","NA","09/21/22 18:46:26","1500","The main experiment item","yes","FlankerTask.osexp","C:\Users\olasa\OneDrive\Desktop","no","mono","no","18","no","white","no","yes","768","legacy","52","52","C:/Users/olasa/OneDrive/Desktop/OL-subject-4.csv","legacy","Lentiform Loewenfeld","3.3.12","0","h","s","NA","NA","NA","NA","NA","h","NA","NA","550","25512","NA","NA","NA","NA","NA","550","NA","NA","NA","NA","2","legacy","1024","2","48000","-16","experiment","SSHSS","4","even","28763","NA","NA","3249","NA","3244","NA","NA","125190","NA","NA","NA","NA","124114","125291","125842","NA","125188","NA","125291","NA","Flanker Task","53","34966","53","yes","1024"
"100","100","657.592592593","657.592592593","black","legacy","legacy","legacy","0","incongruent","uniform","1","undefined","1","h","0","0","0","0","53","0","53","0","53","NA","0","NA","0","53","53","53","NA","53","NA","53","NA","09/21/22 18:46:26","1500","The main experiment item","yes","FlankerTask.osexp","C:\Users\olasa\OneDrive\Desktop","no","mono","no","18","no","white","no","yes","768","legacy","53","53","C:/Users/olasa/OneDrive/Desktop/OL-subject-4.csv","legacy","Lentiform Loewenfeld","3.3.12","0","h","s","NA","NA","NA","NA","NA","h","NA","NA","544","25512","NA","NA","NA","NA","NA","544","NA","NA","NA","NA","2","legacy","1024","2","48000","-16","experiment","SSHSS","4","even","28763","NA","NA","3249","NA","3244","NA","NA","126924","NA","NA","NA","NA","125852","127027","127572","NA","126921","NA","127027","NA","Flanker Task","54","35510","54","yes","1024"
"100","100","656.090909091","656.090909091","black","legacy","legacy","legacy","0","incongruent","uniform","1","undefined","1","h","0","0","0","0","54","0","54","0","54","NA","0","NA","0","54","54","54","NA","54","NA","54","NA","09/21/22 18:46:26","1500","The main experiment item","yes","FlankerTask.osexp","C:\Users\olasa\OneDrive\Desktop","no","mono","no","18","no","white","no","yes","768","legacy","54","54","C:/Users/olasa/OneDrive/Desktop/OL-subject-4.csv","legacy","Lentiform Loewenfeld","3.3.12","0","h","s","NA","NA","NA","NA","NA","h","NA","NA","575","25512","NA","NA","NA","NA","NA","575","NA","NA","NA","NA","2","legacy","1024","2","48000","-16","experiment","SSHSS","4","even","28763","NA","NA","3249","NA","3244","NA","NA","128655","NA","NA","NA","NA","127582","128758","129336","NA","128651","NA","128758","NA","Flanker Task","55","36085","55","yes","1024"
"100","100","656.553571429","656.553571429","black","legacy","legacy","legacy","0","incongruent","uniform","1","undefined","1","s","0","0","0","0","55","0","55","0","55","NA","0","NA","0","55","55","55","NA","55","NA","55","NA","09/21/22 18:46:26","1500","The main experiment item","yes","FlankerTask.osexp","C:\Users\olasa\OneDrive\Desktop","no","mono","no","18","no","white","no","yes","768","legacy","55","55","C:/Users/olasa/OneDrive/Desktop/OL-subject-4.csv","legacy","Lentiform Loewenfeld","3.3.12","0","s","s","NA","NA","NA","NA","NA","s","NA","NA","682","25512","NA","NA","NA","NA","NA","682","NA","NA","NA","NA","2","legacy","1024","2","48000","-16","experiment","HHSHH","4","even","28763","NA","NA","3249","NA","3244","NA","NA","130421","NA","NA","NA","NA","129345","130524","131207","NA","130419","NA","130524","NA","Flanker Task","56","36767","56","yes","1024"
"100","100","656.035087719","656.035087719","black","legacy","legacy","legacy","0","congruent","uniform","1","undefined","1","h","0","0","0","0","56","0","56","0","56","NA","0","NA","0","56","56","56","NA","56","NA","56","NA","09/21/22 18:46:26","1500","The main experiment item","yes","FlankerTask.osexp","C:\Users\olasa\OneDrive\Desktop","no","mono","no","18","no","white","no","yes","768","legacy","56","56","C:/Users/olasa/OneDrive/Desktop/OL-subject-4.csv","legacy","Lentiform Loewenfeld","3.3.12","0","h","s","NA","NA","NA","NA","NA","h","NA","NA","627","25512","NA","NA","NA","NA","NA","627","NA","NA","NA","NA","2","legacy","1024","2","48000","-16","experiment","HHHHH","4","even","28763","NA","NA","3249","NA","3244","NA","NA","132288","NA","NA","NA","NA","131211","132391","133019","NA","132287","NA","132391","NA","Flanker Task","57","37394","57","yes","1024"
"100","100","654.431034483","654.431034483","black","legacy","legacy","legacy","0","incongruent","uniform","1","undefined","1","h","0","0","0","0","57","0","57","0","57","NA","0","NA","0","57","57","57","NA","57","NA","57","NA","09/21/22 18:46:26","1500","The main experiment item","yes","FlankerTask.osexp","C:\Users\olasa\OneDrive\Desktop","no","mono","no","18","no","white","no","yes","768","legacy","57","57","C:/Users/olasa/OneDrive/Desktop/OL-subject-4.csv","legacy","Lentiform Loewenfeld","3.3.12","0","h","s","NA","NA","NA","NA","NA","h","NA","NA","563","25512","NA","NA","NA","NA","NA","563","NA","NA","NA","NA","2","legacy","1024","2","48000","-16","experiment","SSHSS","4","even","28763","NA","NA","3249","NA","3244","NA","NA","134119","NA","NA","NA","NA","133050","134222","134786","NA","134118","NA","134222","NA","Flanker Task","58","37957","58","yes","1024"
"100","100","650.610169492","650.610169492","black","legacy","legacy","legacy","0","congruent","uniform","1","undefined","1","s","0","0","0","0","58","0","58","0","58","NA","0","NA","0","58","58","58","NA","58","NA","58","NA","09/21/22 18:46:26","1500","The main experiment item","yes","FlankerTask.osexp","C:\Users\olasa\OneDrive\Desktop","no","mono","no","18","no","white","no","yes","768","legacy","58","58","C:/Users/olasa/OneDrive/Desktop/OL-subject-4.csv","legacy","Lentiform Loewenfeld","3.3.12","0","s","s","NA","NA","NA","NA","NA","s","NA","NA","429","25512","NA","NA","NA","NA","NA","429","NA","NA","NA","NA","2","legacy","1024","2","48000","-16","experiment","SSSSS","4","even","28763","NA","NA","3249","NA","3244","NA","NA","135865","NA","NA","NA","NA","134795","135968","136399","NA","135863","NA","135968","NA","Flanker Task","59","38386","59","yes","1024"
"100","100","648.183333333","648.183333333","black","legacy","legacy","legacy","0","incongruent","uniform","1","undefined","1","h","0","0","0","0","59","0","59","0","59","NA","0","NA","0","59","59","59","NA","59","NA","59","NA","09/21/22 18:46:26","1500","The main experiment item","yes","FlankerTask.osexp","C:\Users\olasa\OneDrive\Desktop","no","mono","no","18","no","white","no","yes","768","legacy","59","59","C:/Users/olasa/OneDrive/Desktop/OL-subject-4.csv","legacy","Lentiform Loewenfeld","3.3.12","0","h","s","NA","NA","NA","NA","NA","h","NA","NA","505","25512","NA","NA","NA","NA","NA","505","NA","NA","NA","NA","2","legacy","1024","2","48000","-16","experiment","SSHSS","4","even","28763","NA","NA","3249","NA","3244","NA","NA","137491","NA","NA","NA","NA","136428","137594","138100","NA","137490","NA","137594","NA","Flanker Task","60","38891","60","yes","1024"
"100","100","646.754098361","646.754098361","black","legacy","legacy","legacy","0","congruent","uniform","1","undefined","1","h","0","0","0","0","60","0","60","0","60","NA","0","NA","0","60","60","60","NA","60","NA","60","NA","09/21/22 18:46:26","1500","The main experiment item","yes","FlankerTask.osexp","C:\Users\olasa\OneDrive\Desktop","no","mono","no","18","no","white","no","yes","768","legacy","60","60","C:/Users/olasa/OneDrive/Desktop/OL-subject-4.csv","legacy","Lentiform Loewenfeld","3.3.12","0","h","s","NA","NA","NA","NA","NA","h","NA","NA","561","25512","NA","NA","NA","NA","NA","561","NA","NA","NA","NA","2","legacy","1024","2","48000","-16","experiment","HHHHH","4","even","28763","NA","NA","3249","NA","3244","NA","NA","139180","NA","NA","NA","NA","138109","139283","139847","NA","139178","NA","139283","NA","Flanker Task","61","39452","61","yes","1024"
"100","100","644.516129032","644.516129032","black","legacy","legacy","legacy","0","congruent","uniform","1","undefined","1","h","0","0","0","0","61","0","61","0","61","NA","0","NA","0","61","61","61","NA","61","NA","61","NA","09/21/22 18:46:26","1500","The main experiment item","yes","FlankerTask.osexp","C:\Users\olasa\OneDrive\Desktop","no","mono","no","18","no","white","no","yes","768","legacy","61","61","C:/Users/olasa/OneDrive/Desktop/OL-subject-4.csv","legacy","Lentiform Loewenfeld","3.3.12","0","h","s","NA","NA","NA","NA","NA","h","NA","NA","508","25512","NA","NA","NA","NA","NA","508","NA","NA","NA","NA","2","legacy","1024","2","48000","-16","experiment","HHHHH","4","even","28763","NA","NA","3249","NA","3244","NA","NA","140953","NA","NA","NA","NA","139876","141056","141565","NA","140952","NA","141056","NA","Flanker Task","62","39960","62","yes","1024"
"100","100","643.904761905","643.904761905","black","legacy","legacy","legacy","0","incongruent","uniform","1","undefined","1","h","0","0","0","0","62","0","62","0","62","NA","0","NA","0","62","62","62","NA","62","NA","62","NA","09/21/22 18:46:26","1500","The main experiment item","yes","FlankerTask.osexp","C:\Users\olasa\OneDrive\Desktop","no","mono","no","18","no","white","no","yes","768","legacy","62","62","C:/Users/olasa/OneDrive/Desktop/OL-subject-4.csv","legacy","Lentiform Loewenfeld","3.3.12","0","h","s","NA","NA","NA","NA","NA","h","NA","NA","606","25512","NA","NA","NA","NA","NA","606","NA","NA","NA","NA","2","legacy","1024","2","48000","-16","experiment","SSHSS","4","even","28763","NA","NA","3249","NA","3244","NA","NA","142670","NA","NA","NA","NA","141596","142771","143378","NA","142668","NA","142771","NA","Flanker Task","63","40566","63","yes","1024"
"100","100","643.453125","643.453125","black","legacy","legacy","legacy","0","incongruent","uniform","1","undefined","1","s","0","0","0","0","63","0","63","0","63","NA","0","NA","0","63","63","63","NA","63","NA","63","NA","09/21/22 18:46:26","1500","The main experiment item","yes","FlankerTask.osexp","C:\Users\olasa\OneDrive\Desktop","no","mono","no","18","no","white","no","yes","768","legacy","63","63","C:/Users/olasa/OneDrive/Desktop/OL-subject-4.csv","legacy","Lentiform Loewenfeld","3.3.12","0","s","s","NA","NA","NA","NA","NA","s","NA","NA","615","25512","NA","NA","NA","NA","NA","615","NA","NA","NA","NA","2","legacy","1024","2","48000","-16","experiment","HHSHH","4","even","28763","NA","NA","3249","NA","3244","NA","NA","144457","NA","NA","NA","NA","143387","144561","145177","NA","144455","NA","144561","NA","Flanker Task","64","41181","64","yes","1024"
"100","100","642.907692308","642.907692308","black","legacy","legacy","legacy","0","incongruent","uniform","1","undefined","1","s","0","0","0","0","64","0","64","0","64","NA","0","NA","0","64","64","64","NA","64","NA","64","NA","09/21/22 18:46:26","1500","The main experiment item","yes","FlankerTask.osexp","C:\Users\olasa\OneDrive\Desktop","no","mono","no","18","no","white","no","yes","768","legacy","64","64","C:/Users/olasa/OneDrive/Desktop/OL-subject-4.csv","legacy","Lentiform Loewenfeld","3.3.12","0","s","s","NA","NA","NA","NA","NA","s","NA","NA","608","25512","NA","NA","NA","NA","NA","608","NA","NA","NA","NA","2","legacy","1024","2","48000","-16","experiment","HHSHH","4","even","28763","NA","NA","3249","NA","3244","NA","NA","146253","NA","NA","NA","NA","145182","146356","146965","NA","146250","NA","146356","NA","Flanker Task","65","41789","65","yes","1024"
"100","100","644.272727273","644.272727273","black","legacy","legacy","legacy","0","incongruent","uniform","1","undefined","1","s","0","0","0","0","65","0","65","0","65","NA","0","NA","0","65","65","65","NA","65","NA","65","NA","09/21/22 18:46:26","1500","The main experiment item","yes","FlankerTask.osexp","C:\Users\olasa\OneDrive\Desktop","no","mono","no","18","no","white","no","yes","768","legacy","65","65","C:/Users/olasa/OneDrive/Desktop/OL-subject-4.csv","legacy","Lentiform Loewenfeld","3.3.12","0","s","s","NA","NA","NA","NA","NA","s","NA","NA","733","25512","NA","NA","NA","NA","NA","733","NA","NA","NA","NA","2","legacy","1024","2","48000","-16","experiment","HHSHH","4","even","28763","NA","NA","3249","NA","3244","NA","NA","148068","NA","NA","NA","NA","146995","148171","148905","NA","148066","NA","148171","NA","Flanker Task","66","42522","66","yes","1024"
"100","100","643.388059701","643.388059701","black","legacy","legacy","legacy","0","incongruent","uniform","1","undefined","1","h","0","0","0","0","66","0","66","0","66","NA","0","NA","0","66","66","66","NA","66","NA","66","NA","09/21/22 18:46:26","1500","The main experiment item","yes","FlankerTask.osexp","C:\Users\olasa\OneDrive\Desktop","no","mono","no","18","no","white","no","yes","768","legacy","66","66","C:/Users/olasa/OneDrive/Desktop/OL-subject-4.csv","legacy","Lentiform Loewenfeld","3.3.12","0","h","s","NA","NA","NA","NA","NA","h","NA","NA","585","25512","NA","NA","NA","NA","NA","585","NA","NA","NA","NA","2","legacy","1024","2","48000","-16","experiment","SSHSS","4","even","28763","NA","NA","3249","NA","3244","NA","NA","150010","NA","NA","NA","NA","148910","150111","150697","NA","150007","NA","150111","NA","Flanker Task","67","43107","67","yes","1024"
"100","100","645.455882353","645.455882353","black","legacy","legacy","legacy","0","congruent","uniform","1","undefined","1","s","0","0","0","0","67","0","67","0","67","NA","0","NA","0","67","67","67","NA","67","NA","67","NA","09/21/22 18:46:26","1500","The main experiment item","yes","FlankerTask.osexp","C:\Users\olasa\OneDrive\Desktop","no","mono","no","18","no","white","no","yes","768","legacy","67","67","C:/Users/olasa/OneDrive/Desktop/OL-subject-4.csv","legacy","Lentiform Loewenfeld","3.3.12","0","s","s","NA","NA","NA","NA","NA","s","NA","NA","784","25512","NA","NA","NA","NA","NA","784","NA","NA","NA","NA","2","legacy","1024","2","48000","-16","experiment","SSSSS","4","even","28763","NA","NA","3249","NA","3244","NA","NA","151800","NA","NA","NA","NA","150727","151903","152688","NA","151798","NA","151903","NA","Flanker Task","68","43891","68","yes","1024"
"100","100","644.739130435","644.739130435","black","legacy","legacy","legacy","0","congruent","uniform","1","undefined","1","s","0","0","0","0","68","0","68","0","68","NA","0","NA","0","68","68","68","NA","68","NA","68","NA","09/21/22 18:46:26","1500","The main experiment item","yes","FlankerTask.osexp","C:\Users\olasa\OneDrive\Desktop","no","mono","no","18","no","white","no","yes","768","legacy","68","68","C:/Users/olasa/OneDrive/Desktop/OL-subject-4.csv","legacy","Lentiform Loewenfeld","3.3.12","0","s","s","NA","NA","NA","NA","NA","s","NA","NA","596","25512","NA","NA","NA","NA","NA","596","NA","NA","NA","NA","2","legacy","1024","2","48000","-16","experiment","SSSSS","4","even","28763","NA","NA","3249","NA","3244","NA","NA","153767","NA","NA","NA","NA","152697","153869","154466","NA","153765","NA","153869","NA","Flanker Task","69","44487","69","yes","1024"
"100","100","645.328571429","645.328571429","black","legacy","legacy","legacy","0","congruent","uniform","1","undefined","1","s","0","0","0","0","69","0","69","0","69","NA","0","NA","0","69","69","69","NA","69","NA","69","NA","09/21/22 18:46:26","1500","The main experiment item","yes","FlankerTask.osexp","C:\Users\olasa\OneDrive\Desktop","no","mono","no","18","no","white","no","yes","768","legacy","69","69","C:/Users/olasa/OneDrive/Desktop/OL-subject-4.csv","legacy","Lentiform Loewenfeld","3.3.12","0","s","s","NA","NA","NA","NA","NA","s","NA","NA","686","25512","NA","NA","NA","NA","NA","686","NA","NA","NA","NA","2","legacy","1024","2","48000","-16","experiment","SSSSS","4","even","28763","NA","NA","3249","NA","3244","NA","NA","155550","NA","NA","NA","NA","154476","155653","156340","NA","155548","NA","155653","NA","Flanker Task","70","45173","70","yes","1024"
"100","100","644.591549296","644.591549296","black","legacy","legacy","legacy","0","incongruent","uniform","1","undefined","1","h","0","0","0","0","70","0","70","0","70","NA","0","NA","0","70","70","70","NA","70","NA","70","NA","09/21/22 18:46:26","1500","The main experiment item","yes","FlankerTask.osexp","C:\Users\olasa\OneDrive\Desktop","no","mono","no","18","no","white","no","yes","768","legacy","70","70","C:/Users/olasa/OneDrive/Desktop/OL-subject-4.csv","legacy","Lentiform Loewenfeld","3.3.12","0","h","s","NA","NA","NA","NA","NA","h","NA","NA","593","25512","NA","NA","NA","NA","NA","593","NA","NA","NA","NA","2","legacy","1024","2","48000","-16","experiment","SSHSS","4","even","28763","NA","NA","3249","NA","3244","NA","NA","157419","NA","NA","NA","NA","156348","157522","158116","NA","157417","NA","157522","NA","Flanker Task","71","45766","71","yes","1024"
"100","100","645.486111111","645.486111111","black","legacy","legacy","legacy","0","congruent","uniform","1","undefined","1","s","0","0","0","0","71","0","71","0","71","NA","0","NA","0","71","71","71","NA","71","NA","71","NA","09/21/22 18:46:26","1500","The main experiment item","yes","FlankerTask.osexp","C:\Users\olasa\OneDrive\Desktop","no","mono","no","18","no","white","no","yes","768","legacy","71","71","C:/Users/olasa/OneDrive/Desktop/OL-subject-4.csv","legacy","Lentiform Loewenfeld","3.3.12","0","s","s","NA","NA","NA","NA","NA","s","NA","NA","709","25512","NA","NA","NA","NA","NA","709","NA","NA","NA","NA","2","legacy","1024","2","48000","-16","experiment","SSSSS","4","even","28763","NA","NA","3249","NA","3244","NA","NA","159197","NA","NA","NA","NA","158125","159300","160011","NA","159195","NA","159300","NA","Flanker Task","72","46475","72","yes","1024"
"100","100","644.465753425","644.465753425","black","legacy","legacy","legacy","0","incongruent","uniform","1","undefined","1","h","0","0","0","0","72","0","72","0","72","NA","0","NA","0","72","72","72","NA","72","NA","72","NA","09/21/22 18:46:26","1500","The main experiment item","yes","FlankerTask.osexp","C:\Users\olasa\OneDrive\Desktop","no","mono","no","18","no","white","no","yes","768","legacy","72","72","C:/Users/olasa/OneDrive/Desktop/OL-subject-4.csv","legacy","Lentiform Loewenfeld","3.3.12","0","h","s","NA","NA","NA","NA","NA","h","NA","NA","571","25512","NA","NA","NA","NA","NA","571","NA","NA","NA","NA","2","legacy","1024","2","48000","-16","experiment","SSHSS","4","even","28763","NA","NA","3249","NA","3244","NA","NA","161116","NA","NA","NA","NA","160019","161218","161790","NA","161114","NA","161218","NA","Flanker Task","73","47046","73","yes","1024"
"100","100","643.067567568","643.067567568","black","legacy","legacy","legacy","0","incongruent","uniform","1","undefined","1","h","0","0","0","0","73","0","73","0","73","NA","0","NA","0","73","73","73","NA","73","NA","73","NA","09/21/22 18:46:26","1500","The main experiment item","yes","FlankerTask.osexp","C:\Users\olasa\OneDrive\Desktop","no","mono","no","18","no","white","no","yes","768","legacy","73","73","C:/Users/olasa/OneDrive/Desktop/OL-subject-4.csv","legacy","Lentiform Loewenfeld","3.3.12","0","h","s","NA","NA","NA","NA","NA","h","NA","NA","541","25512","NA","NA","NA","NA","NA","541","NA","NA","NA","NA","2","legacy","1024","2","48000","-16","experiment","SSHSS","4","even","28763","NA","NA","3249","NA","3244","NA","NA","162862","NA","NA","NA","NA","161799","162965","163507","NA","162860","NA","162965","NA","Flanker Task","74","47587","74","yes","1024"
"100","100","642.173333333","642.173333333","black","legacy","legacy","legacy","0","incongruent","uniform","1","undefined","1","s","0","0","0","0","74","0","74","0","74","NA","0","NA","0","74","74","74","NA","74","NA","74","NA","09/21/22 18:46:26","1500","The main experiment item","yes","FlankerTask.osexp","C:\Users\olasa\OneDrive\Desktop","no","mono","no","18","no","white","no","yes","768","legacy","74","74","C:/Users/olasa/OneDrive/Desktop/OL-subject-4.csv","legacy","Lentiform Loewenfeld","3.3.12","0","s","s","NA","NA","NA","NA","NA","s","NA","NA","576","25512","NA","NA","NA","NA","NA","576","NA","NA","NA","NA","2","legacy","1024","2","48000","-16","experiment","HHSHH","4","even","28763","NA","NA","3249","NA","3244","NA","NA","164586","NA","NA","NA","NA","163511","164689","165268","NA","164584","NA","164689","NA","Flanker Task","75","48163","75","yes","1024"
"100","100","644.013157895","644.013157895","black","legacy","legacy","legacy","0","incongruent","uniform","1","undefined","1","s","0","0","0","0","75","0","75","0","75","NA","0","NA","0","75","75","75","NA","75","NA","75","NA","09/21/22 18:46:26","1500","The main experiment item","yes","FlankerTask.osexp","C:\Users\olasa\OneDrive\Desktop","no","mono","no","18","no","white","no","yes","768","legacy","75","75","C:/Users/olasa/OneDrive/Desktop/OL-subject-4.csv","legacy","Lentiform Loewenfeld","3.3.12","0","s","s","NA","NA","NA","NA","NA","s","NA","NA","782","25512","NA","NA","NA","NA","NA","782","NA","NA","NA","NA","2","legacy","1024","2","48000","-16","experiment","HHSHH","4","even","28763","NA","NA","3249","NA","3244","NA","NA","166343","NA","NA","NA","NA","165272","166446","167229","NA","166341","NA","166446","NA","Flanker Task","76","48945","76","yes","1024"
"100","100","643.298701299","643.298701299","black","legacy","legacy","legacy","0","incongruent","uniform","1","undefined","1","s","0","0","0","0","76","0","76","0","76","NA","0","NA","0","76","76","76","NA","76","NA","76","NA","09/21/22 18:46:26","1500","The main experiment item","yes","FlankerTask.osexp","C:\Users\olasa\OneDrive\Desktop","no","mono","no","18","no","white","no","yes","768","legacy","76","76","C:/Users/olasa/OneDrive/Desktop/OL-subject-4.csv","legacy","Lentiform Loewenfeld","3.3.12","0","s","s","NA","NA","NA","NA","NA","s","NA","NA","589","25512","NA","NA","NA","NA","NA","589","NA","NA","NA","NA","2","legacy","1024","2","48000","-16","experiment","HHSHH","4","even","28763","NA","NA","3249","NA","3244","NA","NA","168332","NA","NA","NA","NA","167259","168434","169025","NA","168330","NA","168434","NA","Flanker Task","77","49534","77","yes","1024"
"100","100","643.307692308","643.307692308","black","legacy","legacy","legacy","0","incongruent","uniform","1","undefined","1","s","0","0","0","0","77","0","77","0","77","NA","0","NA","0","77","77","77","NA","77","NA","77","NA","09/21/22 18:46:26","1500","The main experiment item","yes","FlankerTask.osexp","C:\Users\olasa\OneDrive\Desktop","no","mono","no","18","no","white","no","yes","768","legacy","77","77","C:/Users/olasa/OneDrive/Desktop/OL-subject-4.csv","legacy","Lentiform Loewenfeld","3.3.12","0","s","s","NA","NA","NA","NA","NA","s","NA","NA","644","25512","NA","NA","NA","NA","NA","644","NA","NA","NA","NA","2","legacy","1024","2","48000","-16","experiment","HHSHH","4","even","28763","NA","NA","3249","NA","3244","NA","NA","170134","NA","NA","NA","NA","169055","170237","170882","NA","170131","NA","170237","NA","Flanker Task","78","50178","78","yes","1024"
"100","100","641.253164557","641.253164557","black","legacy","legacy","legacy","0","congruent","uniform","1","undefined","1","h","0","0","0","0","78","0","78","0","78","NA","0","NA","0","78","78","78","NA","78","NA","78","NA","09/21/22 18:46:26","1500","The main experiment item","yes","FlankerTask.osexp","C:\Users\olasa\OneDrive\Desktop","no","mono","no","18","no","white","no","yes","768","legacy","78","78","C:/Users/olasa/OneDrive/Desktop/OL-subject-4.csv","legacy","Lentiform Loewenfeld","3.3.12","0","h","s","NA","NA","NA","NA","NA","h","NA","NA","481","25512","NA","NA","NA","NA","NA","481","NA","NA","NA","NA","2","legacy","1024","2","48000","-16","experiment","HHHHH","4","even","28763","NA","NA","3249","NA","3244","NA","NA","171963","NA","NA","NA","NA","170890","172066","172549","NA","171961","NA","172066","NA","Flanker Task","79","50659","79","yes","1024"
"100","100","640.3625","640.3625","black","legacy","legacy","legacy","0","incongruent","uniform","1","undefined","1","s","0","0","0","0","79","0","79","0","79","NA","0","NA","0","79","79","79","NA","79","NA","79","NA","09/21/22 18:46:26","1500","The main experiment item","yes","FlankerTask.osexp","C:\Users\olasa\OneDrive\Desktop","no","mono","no","18","no","white","no","yes","768","legacy","79","79","C:/Users/olasa/OneDrive/Desktop/OL-subject-4.csv","legacy","Lentiform Loewenfeld","3.3.12","0","s","s","NA","NA","NA","NA","NA","s","NA","NA","570","25512","NA","NA","NA","NA","NA","570","NA","NA","NA","NA","2","legacy","1024","2","48000","-16","experiment","HHSHH","4","even","28763","NA","NA","3249","NA","3244","NA","NA","173650","NA","NA","NA","NA","172578","173753","174324","NA","173648","NA","173753","NA","Flanker Task","80","51229","80","yes","1024"
"100","100","640.543209877","640.543209877","black","legacy","legacy","legacy","0","incongruent","uniform","1","undefined","1","s","0","0","0","0","80","0","80","0","80","NA","0","NA","0","80","80","80","NA","80","NA","80","NA","09/21/22 18:46:26","600","The main experiment item","yes","FlankerTask.osexp","C:\Users\olasa\OneDrive\Desktop","no","mono","no","18","no","white","no","yes","768","legacy","0","79","C:/Users/olasa/OneDrive/Desktop/OL-subject-4.csv","legacy","Lentiform Loewenfeld","3.3.12","0","s","s","NA","NA","h","NA","NA","s","NA","NA","655","25512","NA","NA","21041","NA","NA","655","NA","NA","NA","NA","2","legacy","1024","2","48000","-16","experiment","HHSHH","4","even","28763","196391","NA","3249","NA","3244","NA","NA","196451","NA","175349","NA","NA","174329","196554","197210","NA","196450","NA","196553","NA","Flanker Task","81","51884","81","yes","1024"
"100","100","637.890243902","637.890243902","black","legacy","legacy","legacy","0","congruent","uniform","1","undefined","1","s","0","0","0","0","81","0","81","0","81","NA","0","NA","0","81","81","81","NA","81","NA","81","NA","09/21/22 18:46:26","600","The main experiment item","yes","FlankerTask.osexp","C:\Users\olasa\OneDrive\Desktop","no","mono","no","18","no","white","no","yes","768","legacy","1","79","C:/Users/olasa/OneDrive/Desktop/OL-subject-4.csv","legacy","Lentiform Loewenfeld","3.3.12","0","s","s","NA","NA","h","NA","NA","s","NA","NA","423","25512","NA","NA","21041","NA","NA","423","NA","NA","NA","NA","2","legacy","1024","2","48000","-16","experiment","SSSSS","4","even","28763","196391","NA","3249","NA","3244","197240","NA","198812","NA","175349","NA","NA","197742","198915","199339","NA","198810","NA","198915","NA","Flanker Task","82","52307","82","yes","1024"
"100","100","636.746987952","636.746987952","black","legacy","legacy","legacy","0","incongruent","uniform","1","undefined","1","h","0","0","0","0","82","0","82","0","82","NA","0","NA","0","82","82","82","NA","82","NA","82","NA","09/21/22 18:46:26","600","The main experiment item","yes","FlankerTask.osexp","C:\Users\olasa\OneDrive\Desktop","no","mono","no","18","no","white","no","yes","768","legacy","2","79","C:/Users/olasa/OneDrive/Desktop/OL-subject-4.csv","legacy","Lentiform Loewenfeld","3.3.12","0","h","s","NA","NA","h","NA","NA","h","NA","NA","543","25512","NA","NA","21041","NA","NA","543","NA","NA","NA","NA","2","legacy","1024","2","48000","-16","experiment","SSHSS","4","even","28763","196391","NA","3249","NA","3244","197240","NA","200425","NA","175349","NA","NA","199346","200527","201071","NA","200421","NA","200527","NA","Flanker Task","83","52850","83","yes","1024"
"100","100","633.25","633.25","black","legacy","legacy","legacy","0","congruent","uniform","1","undefined","1","h","0","0","0","0","83","0","83","0","83","NA","0","NA","0","83","83","83","NA","83","NA","83","NA","09/21/22 18:46:26","600","The main experiment item","yes","FlankerTask.osexp","C:\Users\olasa\OneDrive\Desktop","no","mono","no","18","no","white","no","yes","768","legacy","3","79","C:/Users/olasa/OneDrive/Desktop/OL-subject-4.csv","legacy","Lentiform Loewenfeld","3.3.12","0","h","s","NA","NA","h","NA","NA","h","NA","NA","343","25512","NA","NA","21041","NA","NA","343","NA","NA","NA","NA","2","legacy","1024","2","48000","-16","experiment","HHHHH","4","even","28763","196391","NA","3249","NA","3244","197240","NA","202170","NA","175349","NA","NA","201101","202273","202617","NA","202169","NA","202273","NA","Flanker Task","84","53193","84","yes","1024"
"100","100","630.176470588","630.176470588","black","legacy","legacy","legacy","0","incongruent","uniform","1","undefined","1","s","0","0","0","0","84","0","84","0","84","NA","0","NA","0","84","84","84","NA","84","NA","84","NA","09/21/22 18:46:26","600","The main experiment item","yes","FlankerTask.osexp","C:\Users\olasa\OneDrive\Desktop","no","mono","no","18","no","white","no","yes","768","legacy","4","79","C:/Users/olasa/OneDrive/Desktop/OL-subject-4.csv","legacy","Lentiform Loewenfeld","3.3.12","0","s","s","NA","NA","h","NA","NA","s","NA","NA","372","25512","NA","NA","21041","NA","NA","372","NA","NA","NA","NA","2","legacy","1024","2","48000","-16","experiment","HHSHH","4","even","28763","196391","NA","3249","NA","3244","197240","NA","203719","NA","175349","NA","NA","202647","203821","204197","NA","203718","NA","203821","NA","Flanker Task","85","53565","85","yes","1024"
"100","100","628.372093023","628.372093023","black","legacy","legacy","legacy","0","congruent","uniform","1","undefined","1","s","0","0","0","0","85","0","85","0","85","NA","0","NA","0","85","85","85","NA","85","NA","85","NA","09/21/22 18:46:26","600","The main experiment item","yes","FlankerTask.osexp","C:\Users\olasa\OneDrive\Desktop","no","mono","no","18","no","white","no","yes","768","legacy","5","79","C:/Users/olasa/OneDrive/Desktop/OL-subject-4.csv","legacy","Lentiform Loewenfeld","3.3.12","0","s","s","NA","NA","h","NA","NA","s","NA","NA","475","25512","NA","NA","21041","NA","NA","475","NA","NA","NA","NA","2","legacy","1024","2","48000","-16","experiment","SSSSS","4","even","28763","196391","NA","3249","NA","3244","197240","NA","205297","NA","175349","NA","NA","204226","205400","205876","NA","205296","NA","205399","NA","Flanker Task","86","54040","86","yes","1024"
"100","100","625.264367816","625.264367816","black","legacy","legacy","legacy","0","congruent","uniform","1","undefined","1","s","0","0","0","0","86","0","86","0","86","NA","0","NA","0","86","86","86","NA","86","NA","86","NA","09/21/22 18:46:26","600","The main experiment item","yes","FlankerTask.osexp","C:\Users\olasa\OneDrive\Desktop","no","mono","no","18","no","white","no","yes","768","legacy","6","79","C:/Users/olasa/OneDrive/Desktop/OL-subject-4.csv","legacy","Lentiform Loewenfeld","3.3.12","0","s","s","NA","NA","h","NA","NA","s","NA","NA","358","25512","NA","NA","21041","NA","NA","358","NA","NA","NA","NA","2","legacy","1024","2","48000","-16","experiment","SSSSS","4","even","28763","196391","NA","3249","NA","3244","197240","NA","206976","NA","175349","NA","NA","205906","207079","207439","NA","206974","NA","207079","NA","Flanker Task","87","54398","87","yes","1024"
"100","100","622.261363636","622.261363636","black","legacy","legacy","legacy","0","incongruent","uniform","1","undefined","1","s","0","0","0","0","87","0","87","0","87","NA","0","NA","0","87","87","87","NA","87","NA","87","NA","09/21/22 18:46:26","600","The main experiment item","yes","FlankerTask.osexp","C:\Users\olasa\OneDrive\Desktop","no","mono","no","18","no","white","no","yes","768","legacy","7","79","C:/Users/olasa/OneDrive/Desktop/OL-subject-4.csv","legacy","Lentiform Loewenfeld","3.3.12","0","s","s","NA","NA","h","NA","NA","s","NA","NA","361","25512","NA","NA","21041","NA","NA","361","NA","NA","NA","NA","2","legacy","1024","2","48000","-16","experiment","HHSHH","4","even","28763","196391","NA","3249","NA","3244","197240","NA","208537","NA","175349","NA","NA","207449","208639","209001","NA","208532","NA","208639","NA","Flanker Task","88","54759","88","yes","1024"
"100","100","620.786516854","620.786516854","black","legacy","legacy","legacy","0","congruent","uniform","1","undefined","1","h","0","0","0","0","88","0","88","0","88","NA","0","NA","0","88","88","88","NA","88","NA","88","NA","09/21/22 18:46:26","600","The main experiment item","yes","FlankerTask.osexp","C:\Users\olasa\OneDrive\Desktop","no","mono","no","18","no","white","no","yes","768","legacy","8","79","C:/Users/olasa/OneDrive/Desktop/OL-subject-4.csv","legacy","Lentiform Loewenfeld","3.3.12","0","h","s","NA","NA","h","NA","NA","h","NA","NA","491","25512","NA","NA","21041","NA","NA","491","NA","NA","NA","NA","2","legacy","1024","2","48000","-16","experiment","HHHHH","4","even","28763","196391","NA","3249","NA","3244","197240","NA","210084","NA","175349","NA","NA","209010","210187","210679","NA","210082","NA","210187","NA","Flanker Task","89","55250","89","yes","1024"
"100","100","619.044444444","619.044444444","black","legacy","legacy","legacy","0","incongruent","uniform","1","undefined","1","h","0","0","0","0","89","0","89","0","89","NA","0","NA","0","89","89","89","NA","89","NA","89","NA","09/21/22 18:46:26","600","The main experiment item","yes","FlankerTask.osexp","C:\Users\olasa\OneDrive\Desktop","no","mono","no","18","no","white","no","yes","768","legacy","9","79","C:/Users/olasa/OneDrive/Desktop/OL-subject-4.csv","legacy","Lentiform Loewenfeld","3.3.12","0","h","s","NA","NA","h","NA","NA","h","NA","NA","464","25512","NA","NA","21041","NA","NA","464","NA","NA","NA","NA","2","legacy","1024","2","48000","-16","experiment","SSHSS","4","even","28763","196391","NA","3249","NA","3244","197240","NA","211751","NA","175349","NA","NA","210687","211854","212319","NA","211749","NA","211854","NA","Flanker Task","90","55714","90","yes","1024"
"100","100","616.615384615","616.615384615","black","legacy","legacy","legacy","0","congruent","uniform","1","undefined","1","s","0","0","0","0","90","0","90","0","90","NA","0","NA","0","90","90","90","NA","90","NA","90","NA","09/21/22 18:46:26","600","The main experiment item","yes","FlankerTask.osexp","C:\Users\olasa\OneDrive\Desktop","no","mono","no","18","no","white","no","yes","768","legacy","10","79","C:/Users/olasa/OneDrive/Desktop/OL-subject-4.csv","legacy","Lentiform Loewenfeld","3.3.12","0","s","s","NA","NA","h","NA","NA","s","NA","NA","398","25512","NA","NA","21041","NA","NA","398","NA","NA","NA","NA","2","legacy","1024","2","48000","-16","experiment","SSSSS","4","even","28763","196391","NA","3249","NA","3244","197240","NA","213398","NA","175349","NA","NA","212328","213501","213900","NA","213396","NA","213501","NA","Flanker Task","91","56112","91","yes","1024"
"100","100","617.315217391","617.315217391","black","legacy","legacy","legacy","0","incongruent","uniform","1","undefined","1","h","0","0","0","0","91","0","91","0","91","NA","0","NA","0","91","91","91","NA","91","NA","91","NA","09/21/22 18:46:26","600","The main experiment item","yes","FlankerTask.osexp","C:\Users\olasa\OneDrive\Desktop","no","mono","no","18","no","white","no","yes","768","legacy","11","79","C:/Users/olasa/OneDrive/Desktop/OL-subject-4.csv","legacy","Lentiform Loewenfeld","3.3.12","0","h","s","NA","NA","h","NA","NA","h","NA","NA","681","25512","NA","NA","21041","NA","NA","681","NA","NA","NA","NA","2","legacy","1024","2","48000","-16","experiment","SSHSS","4","even","28763","196391","NA","3249","NA","3244","197240","NA","214972","NA","175349","NA","NA","213909","215074","215756","NA","214968","NA","215073","NA","Flanker Task","92","56793","92","yes","1024"
"100","100","615.172043011","615.172043011","black","legacy","legacy","legacy","0","congruent","uniform","1","undefined","1","s","0","0","0","0","92","0","92","0","92","NA","0","NA","0","92","92","92","NA","92","NA","92","NA","09/21/22 18:46:26","600","The main experiment item","yes","FlankerTask.osexp","C:\Users\olasa\OneDrive\Desktop","no","mono","no","18","no","white","no","yes","768","legacy","12","79","C:/Users/olasa/OneDrive/Desktop/OL-subject-4.csv","legacy","Lentiform Loewenfeld","3.3.12","0","s","s","NA","NA","h","NA","NA","s","NA","NA","418","25512","NA","NA","21041","NA","NA","418","NA","NA","NA","NA","2","legacy","1024","2","48000","-16","experiment","SSSSS","4","even","28763","196391","NA","3249","NA","3244","215765","NA","217339","NA","175349","NA","NA","216269","217443","217864","NA","217338","NA","217443","NA","Flanker Task","93","57211","93","yes","1024"
"100","100","612.893617021","612.893617021","black","legacy","legacy","legacy","0","congruent","uniform","1","undefined","1","s","0","0","0","0","93","0","93","0","93","NA","0","NA","0","93","93","93","NA","93","NA","93","NA","09/21/22 18:46:26","600","The main experiment item","yes","FlankerTask.osexp","C:\Users\olasa\OneDrive\Desktop","no","mono","no","18","no","white","no","yes","768","legacy","13","79","C:/Users/olasa/OneDrive/Desktop/OL-subject-4.csv","legacy","Lentiform Loewenfeld","3.3.12","0","s","s","NA","NA","h","NA","NA","s","NA","NA","401","25512","NA","NA","21041","NA","NA","401","NA","NA","NA","NA","2","legacy","1024","2","48000","-16","experiment","SSSSS","4","even","28763","196391","NA","3249","NA","3244","215765","NA","218946","NA","175349","NA","NA","217874","219049","219451","NA","218944","NA","219049","NA","Flanker Task","94","57612","94","yes","1024"
"100","100","612.505263158","612.505263158","black","legacy","legacy","legacy","0","incongruent","uniform","1","undefined","1","h","0","0","0","0","94","0","94","0","94","NA","0","NA","0","94","94","94","NA","94","NA","94","NA","09/21/22 18:46:26","600","The main experiment item","yes","FlankerTask.osexp","C:\Users\olasa\OneDrive\Desktop","no","mono","no","18","no","white","no","yes","768","legacy","14","79","C:/Users/olasa/OneDrive/Desktop/OL-subject-4.csv","legacy","Lentiform Loewenfeld","3.3.12","0","h","s","NA","NA","h","NA","NA","h","NA","NA","576","25512","NA","NA","21041","NA","NA","576","NA","NA","NA","NA","2","legacy","1024","2","48000","-16","experiment","SSHSS","4","even","28763","196391","NA","3249","NA","3244","215765","NA","220552","NA","175349","NA","NA","219455","220655","221232","NA","220550","NA","220655","NA","Flanker Task","95","58188","95","yes","1024"
"100","100","610.177083333","610.177083333","black","legacy","legacy","legacy","0","incongruent","uniform","1","undefined","1","h","0","0","0","0","95","0","95","0","95","NA","0","NA","0","95","95","95","NA","95","NA","95","NA","09/21/22 18:46:26","600","The main experiment item","yes","FlankerTask.osexp","C:\Users\olasa\OneDrive\Desktop","no","mono","no","18","no","white","no","yes","768","legacy","15","79","C:/Users/olasa/OneDrive/Desktop/OL-subject-4.csv","legacy","Lentiform Loewenfeld","3.3.12","0","h","s","NA","NA","h","NA","NA","h","NA","NA","389","25512","NA","NA","21041","NA","NA","389","NA","NA","NA","NA","2","legacy","1024","2","48000","-16","experiment","SSHSS","4","even","28763","196391","NA","3249","NA","3244","215765","NA","222306","NA","175349","NA","NA","221241","222409","222799","NA","222304","NA","222409","NA","Flanker Task","96","58577","96","yes","1024"
"98.9690721649","98.9690721649","607.731958763","607.731958763","black","legacy","legacy","legacy","0","incongruent","uniform","0","undefined","0","s","0","0","0","0","96","0","96","0","96","NA","0","NA","0","96","96","96","NA","96","NA","96","NA","09/21/22 18:46:26","600","The main experiment item","yes","FlankerTask.osexp","C:\Users\olasa\OneDrive\Desktop","no","mono","no","18","no","white","no","yes","768","legacy","16","79","C:/Users/olasa/OneDrive/Desktop/OL-subject-4.csv","legacy","Lentiform Loewenfeld","3.3.12","0","h","s","NA","NA","h","NA","NA","h","NA","NA","373","25512","NA","NA","21041","NA","NA","373","NA","NA","NA","NA","2","legacy","1024","2","48000","-16","experiment","HHSHH","4","even","28763","196391","NA","3249","NA","3244","215765","NA","223860","NA","175349","NA","NA","222808","223961","224338","NA","223858","NA","223961","NA","Flanker Task","96","58950","97","yes","1024"
"98.9795918367","98.9795918367","607.734693878","607.734693878","black","legacy","legacy","legacy","0","incongruent","uniform","1","undefined","1","h","0","0","0","0","97","0","97","0","97","NA","0","NA","0","97","97","97","NA","97","NA","97","NA","09/21/22 18:46:26","600","The main experiment item","yes","FlankerTask.osexp","C:\Users\olasa\OneDrive\Desktop","no","mono","no","18","no","white","no","yes","768","legacy","17","79","C:/Users/olasa/OneDrive/Desktop/OL-subject-4.csv","legacy","Lentiform Loewenfeld","3.3.12","0","h","s","NA","NA","h","NA","NA","h","NA","NA","608","25512","NA","NA","21041","NA","NA","608","NA","NA","NA","NA","2","legacy","1024","2","48000","-16","experiment","SSHSS","4","even","28763","196391","NA","3249","224344","3244","215765","NA","225918","NA","175349","NA","NA","224847","226021","226630","NA","225917","NA","226021","NA","Flanker Task","97","59558","98","yes","1024"
"98.9898989899","98.9898989899","605.353535354","605.353535354","black","legacy","legacy","legacy","0","congruent","uniform","1","undefined","1","h","0","0","0","0","98","0","98","0","98","NA","0","NA","0","98","98","98","NA","98","NA","98","NA","09/21/22 18:46:26","600","The main experiment item","yes","FlankerTask.osexp","C:\Users\olasa\OneDrive\Desktop","no","mono","no","18","no","white","no","yes","768","legacy","18","79","C:/Users/olasa/OneDrive/Desktop/OL-subject-4.csv","legacy","Lentiform Loewenfeld","3.3.12","0","h","s","NA","NA","h","NA","NA","h","NA","NA","372","25512","NA","NA","21041","NA","NA","372","NA","NA","NA","NA","2","legacy","1024","2","48000","-16","experiment","HHHHH","4","even","28763","196391","NA","3249","224344","3244","226634","NA","228207","NA","175349","NA","NA","227137","228310","228685","NA","228205","NA","228310","NA","Flanker Task","98","59930","99","yes","1024"
"98","98","602.89","602.89","black","legacy","legacy","legacy","0","incongruent","uniform","0","undefined","0","s","0","0","0","0","99","0","99","0","99","NA","0","NA","0","99","99","99","NA","99","NA","99","NA","09/21/22 18:46:26","600","The main experiment item","yes","FlankerTask.osexp","C:\Users\olasa\OneDrive\Desktop","no","mono","no","18","no","white","no","yes","768","legacy","19","79","C:/Users/olasa/OneDrive/Desktop/OL-subject-4.csv","legacy","Lentiform Loewenfeld","3.3.12","0","h","s","NA","NA","h","NA","NA","h","NA","NA","359","25512","NA","NA","21041","NA","NA","359","NA","NA","NA","NA","2","legacy","1024","2","48000","-16","experiment","HHSHH","4","even","28763","196391","NA","3249","224344","3244","226634","NA","229763","NA","175349","NA","NA","228693","229866","230227","NA","229761","NA","229866","NA","Flanker Task","98","60289","100","yes","1024"
"98.0198019802","98.0198019802","602.069306931","602.069306931","black","legacy","legacy","legacy","0","incongruent","uniform","1","undefined","1","h","0","0","0","0","100","0","100","0","100","NA","0","NA","0","100","100","100","NA","100","NA","100","NA","09/21/22 18:46:26","600","The main experiment item","yes","FlankerTask.osexp","C:\Users\olasa\OneDrive\Desktop","no","mono","no","18","no","white","no","yes","768","legacy","20","79","C:/Users/olasa/OneDrive/Desktop/OL-subject-4.csv","legacy","Lentiform Loewenfeld","3.3.12","0","h","s","NA","NA","h","NA","NA","h","NA","NA","520","25512","NA","NA","21041","NA","NA","520","NA","NA","NA","NA","2","legacy","1024","2","48000","-16","experiment","SSHSS","4","even","28763","196391","NA","3249","230237","3244","226634","NA","231837","NA","175349","NA","NA","230740","231940","232461","NA","231834","NA","231940","NA","Flanker Task","99","60809","101","yes","1024"
"97.0588235294","97.0588235294","600.37254902","600.37254902","black","legacy","legacy","legacy","0","congruent","uniform","0","undefined","0","h","0","0","0","0","101","0","101","0","101","NA","0","NA","0","101","101","101","NA","101","NA","101","NA","09/21/22 18:46:26","600","The main experiment item","yes","FlankerTask.osexp","C:\Users\olasa\OneDrive\Desktop","no","mono","no","18","no","white","no","yes","768","legacy","21","79","C:/Users/olasa/OneDrive/Desktop/OL-subject-4.csv","legacy","Lentiform Loewenfeld","3.3.12","0","s","s","NA","NA","h","NA","NA","s","NA","NA","429","25512","NA","NA","21041","NA","NA","429","NA","NA","NA","NA","2","legacy","1024","2","48000","-16","experiment","HHHHH","4","even","28763","196391","NA","3249","230237","3244","226634","NA","233544","NA","175349","NA","NA","232471","233648","234079","NA","233542","NA","233648","NA","Flanker Task","99","61238","102","yes","1024"
"97.0873786408","97.0873786408","599.825242718","599.825242718","black","legacy","legacy","legacy","0","congruent","uniform","1","undefined","1","h","0","0","0","0","102","0","102","0","102","NA","0","NA","0","102","102","102","NA","102","NA","102","NA","09/21/22 18:46:26","600","The main experiment item","yes","FlankerTask.osexp","C:\Users\olasa\OneDrive\Desktop","no","mono","no","18","no","white","no","yes","768","legacy","22","79","C:/Users/olasa/OneDrive/Desktop/OL-subject-4.csv","legacy","Lentiform Loewenfeld","3.3.12","0","h","s","NA","NA","h","NA","NA","h","NA","NA","544","25512","NA","NA","21041","NA","NA","544","NA","NA","NA","NA","2","legacy","1024","2","48000","-16","experiment","HHHHH","4","even","28763","196391","NA","3249","234108","3244","226634","NA","235683","NA","175349","NA","NA","234611","235786","236332","NA","235682","NA","235786","NA","Flanker Task","100","61782","103","yes","1024"
"97.1153846154","97.1153846154","598.605769231","598.605769231","black","legacy","legacy","legacy","0","congruent","uniform","1","undefined","1","h","0","0","0","0","103","0","103","0","103","NA","0","NA","0","103","103","103","NA","103","NA","103","NA","09/21/22 18:46:26","600","The main experiment item","yes","FlankerTask.osexp","C:\Users\olasa\OneDrive\Desktop","no","mono","no","18","no","white","no","yes","768","legacy","23","79","C:/Users/olasa/OneDrive/Desktop/OL-subject-4.csv","legacy","Lentiform Loewenfeld","3.3.12","0","h","s","NA","NA","h","NA","NA","h","NA","NA","473","25512","NA","NA","21041","NA","NA","473","NA","NA","NA","NA","2","legacy","1024","2","48000","-16","experiment","HHHHH","4","even","28763","196391","NA","3249","234108","3244","226634","NA","237407","NA","175349","NA","NA","236341","237508","237983","NA","237405","NA","237508","NA","Flanker Task","101","62255","104","yes","1024"
"97.1428571429","97.1428571429","597.2","597.2","black","legacy","legacy","legacy","0","congruent","uniform","1","undefined","1","s","0","0","0","0","104","0","104","0","104","NA","0","NA","0","104","104","104","NA","104","NA","104","NA","09/21/22 18:46:26","600","The main experiment item","yes","FlankerTask.osexp","C:\Users\olasa\OneDrive\Desktop","no","mono","no","18","no","white","no","yes","768","legacy","24","79","C:/Users/olasa/OneDrive/Desktop/OL-subject-4.csv","legacy","Lentiform Loewenfeld","3.3.12","0","s","s","NA","NA","h","NA","NA","s","NA","NA","451","25512","NA","NA","21041","NA","NA","451","NA","NA","NA","NA","2","legacy","1024","2","48000","-16","experiment","SSSSS","4","even","28763","196391","NA","3249","234108","3244","226634","NA","239064","NA","175349","NA","NA","237992","239167","239619","NA","239061","NA","239166","NA","Flanker Task","102","62706","105","yes","1024"
"97.1698113208","97.1698113208","595.528301887","595.528301887","black","legacy","legacy","legacy","0","congruent","uniform","1","undefined","1","h","0","0","0","0","105","0","105","0","105","NA","0","NA","0","105","105","105","NA","105","NA","105","NA","09/21/22 18:46:26","600","The main experiment item","yes","FlankerTask.osexp","C:\Users\olasa\OneDrive\Desktop","no","mono","no","18","no","white","no","yes","768","legacy","25","79","C:/Users/olasa/OneDrive/Desktop/OL-subject-4.csv","legacy","Lentiform Loewenfeld","3.3.12","0","h","s","NA","NA","h","NA","NA","h","NA","NA","420","25512","NA","NA","21041","NA","NA","420","NA","NA","NA","NA","2","legacy","1024","2","48000","-16","experiment","HHHHH","4","even","28763","196391","NA","3249","234108","3244","226634","NA","240725","NA","175349","NA","NA","239648","240828","241250","NA","240723","NA","240828","NA","Flanker Task","103","63126","106","yes","1024"
"97.1962616822","97.1962616822","594.897196262","594.897196262","black","legacy","legacy","legacy","0","incongruent","uniform","1","undefined","1","h","0","0","0","0","106","0","106","0","106","NA","0","NA","0","106","106","106","NA","106","NA","106","NA","09/21/22 18:46:26","600","The main experiment item","yes","FlankerTask.osexp","C:\Users\olasa\OneDrive\Desktop","no","mono","no","18","no","white","no","yes","768","legacy","26","79","C:/Users/olasa/OneDrive/Desktop/OL-subject-4.csv","legacy","Lentiform Loewenfeld","3.3.12","0","h","s","NA","NA","h","NA","NA","h","NA","NA","528","25512","NA","NA","21041","NA","NA","528","NA","NA","NA","NA","2","legacy","1024","2","48000","-16","experiment","SSHSS","4","even","28763","196391","NA","3249","234108","3244","226634","NA","242361","NA","175349","NA","NA","241279","242464","242994","NA","242358","NA","242464","NA","Flanker Task","104","63654","107","yes","1024"
"97.2222222222","97.2222222222","594.361111111","594.361111111","black","legacy","legacy","legacy","0","incongruent","uniform","1","undefined","1","h","0","0","0","0","107","0","107","0","107","NA","0","NA","0","107","107","107","NA","107","NA","107","NA","09/21/22 18:46:26","600","The main experiment item","yes","FlankerTask.osexp","C:\Users\olasa\OneDrive\Desktop","no","mono","no","18","no","white","no","yes","768","legacy","27","79","C:/Users/olasa/OneDrive/Desktop/OL-subject-4.csv","legacy","Lentiform Loewenfeld","3.3.12","0","h","s","NA","NA","h","NA","NA","h","NA","NA","537","25512","NA","NA","21041","NA","NA","537","NA","NA","NA","NA","2","legacy","1024","2","48000","-16","experiment","SSHSS","4","even","28763","196391","NA","3249","234108","3244","226634","NA","244065","NA","175349","NA","NA","242997","244168","244709","NA","244063","NA","244168","NA","Flanker Task","105","64191","108","yes","1024"
"97.247706422","97.247706422","592.431192661","592.431192661","black","legacy","legacy","legacy","0","incongruent","uniform","1","undefined","1","s","0","0","0","0","108","0","108","0","108","NA","0","NA","0","108","108","108","NA","108","NA","108","NA","09/21/22 18:46:26","600","The main experiment item","yes","FlankerTask.osexp","C:\Users\olasa\OneDrive\Desktop","no","mono","no","18","no","white","no","yes","768","legacy","28","79","C:/Users/olasa/OneDrive/Desktop/OL-subject-4.csv","legacy","Lentiform Loewenfeld","3.3.12","0","s","s","NA","NA","h","NA","NA","s","NA","NA","384","25512","NA","NA","21041","NA","NA","384","NA","NA","NA","NA","2","legacy","1024","2","48000","-16","experiment","HHSHH","4","even","28763","196391","NA","3249","234108","3244","226634","NA","245788","NA","175349","NA","NA","244718","245891","246276","NA","245786","NA","245891","NA","Flanker Task","106","64575","109","yes","1024"
"97.2727272727","97.2727272727","592.372727273","592.372727273","black","legacy","legacy","legacy","0","congruent","uniform","1","undefined","1","h","0","0","0","0","109","0","109","0","109","NA","0","NA","0","109","109","109","NA","109","NA","109","NA","09/21/22 18:46:26","600","The main experiment item","yes","FlankerTask.osexp","C:\Users\olasa\OneDrive\Desktop","no","mono","no","18","no","white","no","yes","768","legacy","29","79","C:/Users/olasa/OneDrive/Desktop/OL-subject-4.csv","legacy","Lentiform Loewenfeld","3.3.12","0","h","s","NA","NA","h","NA","NA","h","NA","NA","586","25512","NA","NA","21041","NA","NA","586","NA","NA","NA","NA","2","legacy","1024","2","48000","-16","experiment","HHHHH","4","even","28763","196391","NA","3249","234108","3244","226634","NA","247379","NA","175349","NA","NA","246307","247482","248071","NA","247377","NA","247482","NA","Flanker Task","107","65161","110","yes","1024"
"97.2972972973","97.2972972973","591.54954955","591.54954955","black","legacy","legacy","legacy","0","congruent","uniform","1","undefined","1","h","0","0","0","0","110","0","110","0","110","NA","0","NA","0","110","110","110","NA","110","NA","110","NA","09/21/22 18:46:26","600","The main experiment item","yes","FlankerTask.osexp","C:\Users\olasa\OneDrive\Desktop","no","mono","no","18","no","white","no","yes","768","legacy","30","79","C:/Users/olasa/OneDrive/Desktop/OL-subject-4.csv","legacy","Lentiform Loewenfeld","3.3.12","0","h","s","NA","NA","h","NA","NA","h","NA","NA","501","25512","NA","NA","21041","NA","NA","501","NA","NA","NA","NA","2","legacy","1024","2","48000","-16","experiment","HHHHH","4","even","28763","196391","NA","3249","234108","3244","226634","NA","249147","NA","175349","NA","NA","248077","249250","249753","NA","249144","NA","249250","NA","Flanker Task","108","65662","111","yes","1024"
