"acc","accuracy","average_response_time","avg_rt","background","canvas_backend","clock_backend","color_backend","compensation","condition","coordinates","correct","correct_Instructions1","correct_keyboard_response","correct_response","count_Block1","count_Block2","count_Block3","count_Instructions1","count_Instructions2","count_Instructions3","count_error_feedback","count_experiment","count_faster","count_fixation","count_isi","count_keyboard_response","count_logger","count_new_sketchpad_2","count_sequence","count_stimulus","datetime","deadline","description","disable_garbage_collection","experiment_file","experiment_path","font_bold","font_family","font_italic","font_size","font_underline","foreground","form_clicks","fullscreen","height","keyboard_backend","live_row","live_row_Block1","logfile","mouse_backend","opensesame_codename","opensesame_version","psychopy_waitblanking","repeat_cycle","response","response_Instructions1","response_Instructions2","response_Instructions3","response_keyboard_response","response_new_sketchpad_2","response_time","response_time_Instructions1","response_time_Instructions2","response_time_Instructions3","response_time_keyboard_response","response_time_new_sketchpad_2","round_decimals","sampler_backend","sound_buf_size","sound_channels","sound_freq","sound_sample_size","start","stimulus","subject_nr","subject_parity","time_Block1","time_Block2","time_Block3","time_Instructions1","time_Instructions2","time_Instructions3","time_error_feedback","time_experiment","time_faster","time_fixation","time_isi","time_keyboard_response","time_logger","time_new_sketchpad_2","time_sequence","time_stimulus","title","total_correct","total_response_time","total_responses","uniform_coordinates","width"
"100","100","428","428","black","legacy","legacy","legacy","0","incongruent","uniform","1","undefined","1","h","0","0","0","0","0","0","0","0","0","0","0","0","0","0","0","0","Fri Sep 23 19:24:31 2022","1500","The main experiment item","yes","lab_2.1.osexp","C:\Users\joey.knofczynski\Downloads","no","mono","no","18","no","white","no","yes","768","legacy","0","0","C:/Users/joey.knofczynski/Downloads/subject-3.csv","legacy","Lentiform Loewenfeld","3.3.12","yes","0","h","h","NA","NA","h","NA","428","1855","NA","NA","428","NA","2","legacy","1024","2","48000","-16","experiment","SSHSS","3","odd","4081","NA","NA","2225","NA","NA","NA","2217","NA","4136","NA","4238","4666","NA","4133","4237","Lab 2.1","1","428","1","yes","1024"
"100","100","461.5","461.5","black","legacy","legacy","legacy","0","congruent","uniform","1","undefined","1","s","0","0","0","0","0","0","1","0","1","1","1","1","1","0","1","1","Fri Sep 23 19:24:31 2022","1500","The main experiment item","yes","lab_2.1.osexp","C:\Users\joey.knofczynski\Downloads","no","mono","no","18","no","white","no","yes","768","legacy","1","1","C:/Users/joey.knofczynski/Downloads/subject-3.csv","legacy","Lentiform Loewenfeld","3.3.12","yes","0","s","h","NA","NA","s","NA","495","1855","NA","NA","495","NA","2","legacy","1024","2","48000","-16","experiment","SSSSS","3","odd","4081","NA","NA","2225","NA","NA","NA","2217","NA","5727","4672","5829","6324","NA","5722","5829","Lab 2.1","2","923","2","yes","1024"
"100","100","443","443","black","legacy","legacy","legacy","0","congruent","uniform","1","undefined","1","h","0","0","0","0","0","0","2","0","2","2","2","2","2","0","2","2","Fri Sep 23 19:24:31 2022","1500","The main experiment item","yes","lab_2.1.osexp","C:\Users\joey.knofczynski\Downloads","no","mono","no","18","no","white","no","yes","768","legacy","2","2","C:/Users/joey.knofczynski/Downloads/subject-3.csv","legacy","Lentiform Loewenfeld","3.3.12","yes","0","h","h","NA","NA","h","NA","406","1855","NA","NA","406","NA","2","legacy","1024","2","48000","-16","experiment","HHHHH","3","odd","4081","NA","NA","2225","NA","NA","NA","2217","NA","7391","6329","7493","7899","NA","7388","7493","Lab 2.1","3","1329","3","yes","1024"
"100","100","456","456","black","legacy","legacy","legacy","0","incongruent","uniform","1","undefined","1","s","0","0","0","0","0","0","3","0","3","3","3","3","3","0","3","3","Fri Sep 23 19:24:31 2022","1500","The main experiment item","yes","lab_2.1.osexp","C:\Users\joey.knofczynski\Downloads","no","mono","no","18","no","white","no","yes","768","legacy","3","3","C:/Users/joey.knofczynski/Downloads/subject-3.csv","legacy","Lentiform Loewenfeld","3.3.12","yes","0","s","h","NA","NA","s","NA","495","1855","NA","NA","495","NA","2","legacy","1024","2","48000","-16","experiment","HHSHH","3","odd","4081","NA","NA","2225","NA","NA","NA","2217","NA","8960","7903","9061","9556","NA","8958","9061","Lab 2.1","4","1824","4","yes","1024"
"100","100","459.6","459.6","black","legacy","legacy","legacy","0","incongruent","uniform","1","undefined","1","s","0","0","0","0","0","0","4","0","4","4","4","4","4","0","4","4","Fri Sep 23 19:24:31 2022","1500","The main experiment item","yes","lab_2.1.osexp","C:\Users\joey.knofczynski\Downloads","no","mono","no","18","no","white","no","yes","768","legacy","4","4","C:/Users/joey.knofczynski/Downloads/subject-3.csv","legacy","Lentiform Loewenfeld","3.3.12","yes","0","s","h","NA","NA","s","NA","474","1855","NA","NA","474","NA","2","legacy","1024","2","48000","-16","experiment","HHSHH","3","odd","4081","NA","NA","2225","NA","NA","NA","2217","NA","10616","9560","10718","11192","NA","10613","10718","Lab 2.1","5","2298","5","yes","1024"
"100","100","465.8333333333333","465.8333333333333","black","legacy","legacy","legacy","0","congruent","uniform","1","undefined","1","s","0","0","0","0","0","0","5","0","5","5","5","5","5","0","5","5","Fri Sep 23 19:24:31 2022","1500","The main experiment item","yes","lab_2.1.osexp","C:\Users\joey.knofczynski\Downloads","no","mono","no","18","no","white","no","yes","768","legacy","5","5","C:/Users/joey.knofczynski/Downloads/subject-3.csv","legacy","Lentiform Loewenfeld","3.3.12","yes","0","s","h","NA","NA","s","NA","497","1855","NA","NA","497","NA","2","legacy","1024","2","48000","-16","experiment","SSSSS","3","odd","4081","NA","NA","2225","NA","NA","NA","2217","NA","12248","11196","12350","12848","NA","12245","12350","Lab 2.1","6","2795","6","yes","1024"
"100","100","461.14285714285717","461.14285714285717","black","legacy","legacy","legacy","0","incongruent","uniform","1","undefined","1","s","0","0","0","0","0","0","6","0","6","6","6","6","6","0","6","6","Fri Sep 23 19:24:31 2022","1500","The main experiment item","yes","lab_2.1.osexp","C:\Users\joey.knofczynski\Downloads","no","mono","no","18","no","white","no","yes","768","legacy","6","6","C:/Users/joey.knofczynski/Downloads/subject-3.csv","legacy","Lentiform Loewenfeld","3.3.12","yes","0","s","h","NA","NA","s","NA","433","1855","NA","NA","433","NA","2","legacy","1024","2","48000","-16","experiment","HHSHH","3","odd","4081","NA","NA","2225","NA","NA","NA","2217","NA","13907","12851","14009","14442","NA","13905","14009","Lab 2.1","7","3228","7","yes","1024"
"100","100","456.875","456.875","black","legacy","legacy","legacy","0","incongruent","uniform","1","undefined","1","h","0","0","0","0","0","0","7","0","7","7","7","7","7","0","7","7","Fri Sep 23 19:24:31 2022","1500","The main experiment item","yes","lab_2.1.osexp","C:\Users\joey.knofczynski\Downloads","no","mono","no","18","no","white","no","yes","768","legacy","7","7","C:/Users/joey.knofczynski/Downloads/subject-3.csv","legacy","Lentiform Loewenfeld","3.3.12","yes","0","h","h","NA","NA","h","NA","427","1855","NA","NA","427","NA","2","legacy","1024","2","48000","-16","experiment","SSHSS","3","odd","4081","NA","NA","2225","NA","NA","NA","2217","NA","15501","14446","15603","16031","NA","15497","15603","Lab 2.1","8","3655","8","yes","1024"
"100","100","445","445","black","legacy","legacy","legacy","0","incongruent","uniform","1","undefined","1","s","0","0","0","0","0","0","8","0","8","8","8","8","8","0","8","8","Fri Sep 23 19:24:31 2022","1500","The main experiment item","yes","lab_2.1.osexp","C:\Users\joey.knofczynski\Downloads","no","mono","no","18","no","white","no","yes","768","legacy","8","8","C:/Users/joey.knofczynski/Downloads/subject-3.csv","legacy","Lentiform Loewenfeld","3.3.12","yes","0","s","h","NA","NA","s","NA","350","1855","NA","NA","350","NA","2","legacy","1024","2","48000","-16","experiment","HHSHH","3","odd","4081","NA","NA","2225","NA","NA","NA","2217","NA","17092","16036","17193","17543","NA","17088","17193","Lab 2.1","9","4005","9","yes","1024"
"100","100","451.8","451.8","black","legacy","legacy","legacy","0","congruent","uniform","1","undefined","1","s","0","0","0","0","0","0","9","0","9","9","9","9","9","0","9","9","Fri Sep 23 19:24:31 2022","1500","The main experiment item","yes","lab_2.1.osexp","C:\Users\joey.knofczynski\Downloads","no","mono","no","18","no","white","no","yes","768","legacy","9","9","C:/Users/joey.knofczynski/Downloads/subject-3.csv","legacy","Lentiform Loewenfeld","3.3.12","yes","0","s","h","NA","NA","s","NA","513","1855","NA","NA","513","NA","2","legacy","1024","2","48000","-16","experiment","SSSSS","3","odd","4081","NA","NA","2225","NA","NA","NA","2217","NA","18604","17547","18707","19220","NA","18600","18707","Lab 2.1","10","4518","10","yes","1024"
"100","100","459.3636363636364","459.3636363636364","black","legacy","legacy","legacy","0","incongruent","uniform","1","undefined","1","s","0","0","0","0","0","0","10","0","10","10","10","10","10","0","10","10","Fri Sep 23 19:24:31 2022","1500","The main experiment item","yes","lab_2.1.osexp","C:\Users\joey.knofczynski\Downloads","no","mono","no","18","no","white","no","yes","768","legacy","10","10","C:/Users/joey.knofczynski/Downloads/subject-3.csv","legacy","Lentiform Loewenfeld","3.3.12","yes","0","s","h","NA","NA","s","NA","535","1855","NA","NA","535","NA","2","legacy","1024","2","48000","-16","experiment","HHSHH","3","odd","4081","NA","NA","2225","NA","NA","NA","2217","NA","20279","19225","20381","20916","NA","20277","20381","Lab 2.1","11","5053","11","yes","1024"
"100","100","456.9166666666667","456.9166666666667","black","legacy","legacy","legacy","0","congruent","uniform","1","undefined","1","s","0","0","0","0","0","0","11","0","11","11","11","11","11","0","11","11","Fri Sep 23 19:24:31 2022","1500","The main experiment item","yes","lab_2.1.osexp","C:\Users\joey.knofczynski\Downloads","no","mono","no","18","no","white","no","yes","768","legacy","11","11","C:/Users/joey.knofczynski/Downloads/subject-3.csv","legacy","Lentiform Loewenfeld","3.3.12","yes","0","s","h","NA","NA","s","NA","430","1855","NA","NA","430","NA","2","legacy","1024","2","48000","-16","experiment","SSSSS","3","odd","4081","NA","NA","2225","NA","NA","NA","2217","NA","21977","20920","22078","22509","NA","21975","22078","Lab 2.1","12","5483","12","yes","1024"
"100","100","464.61538461538464","464.61538461538464","black","legacy","legacy","legacy","0","incongruent","uniform","1","undefined","1","h","0","0","0","0","0","0","12","0","12","12","12","12","12","0","12","12","Fri Sep 23 19:24:31 2022","1500","The main experiment item","yes","lab_2.1.osexp","C:\Users\joey.knofczynski\Downloads","no","mono","no","18","no","white","no","yes","768","legacy","12","12","C:/Users/joey.knofczynski/Downloads/subject-3.csv","legacy","Lentiform Loewenfeld","3.3.12","yes","0","h","h","NA","NA","h","NA","557","1855","NA","NA","557","NA","2","legacy","1024","2","48000","-16","experiment","SSHSS","3","odd","4081","NA","NA","2225","NA","NA","NA","2217","NA","23568","22512","23670","24227","NA","23564","23670","Lab 2.1","13","6040","13","yes","1024"
"100","100","464.35714285714283","464.35714285714283","black","legacy","legacy","legacy","0","congruent","uniform","1","undefined","1","s","0","0","0","0","0","0","13","0","13","13","13","13","13","0","13","13","Fri Sep 23 19:24:31 2022","1500","The main experiment item","yes","lab_2.1.osexp","C:\Users\joey.knofczynski\Downloads","no","mono","no","18","no","white","no","yes","768","legacy","13","13","C:/Users/joey.knofczynski/Downloads/subject-3.csv","legacy","Lentiform Loewenfeld","3.3.12","yes","0","s","h","NA","NA","s","NA","461","1855","NA","NA","461","NA","2","legacy","1024","2","48000","-16","experiment","SSSSS","3","odd","4081","NA","NA","2225","NA","NA","NA","2217","NA","25286","24231","25388","25850","NA","25283","25388","Lab 2.1","14","6501","14","yes","1024"
"100","100","461.06666666666666","461.06666666666666","black","legacy","legacy","legacy","0","congruent","uniform","1","undefined","1","h","0","0","0","0","0","0","14","0","14","14","14","14","14","0","14","14","Fri Sep 23 19:24:31 2022","1500","The main experiment item","yes","lab_2.1.osexp","C:\Users\joey.knofczynski\Downloads","no","mono","no","18","no","white","no","yes","768","legacy","14","14","C:/Users/joey.knofczynski/Downloads/subject-3.csv","legacy","Lentiform Loewenfeld","3.3.12","yes","0","h","h","NA","NA","h","NA","415","1855","NA","NA","415","NA","2","legacy","1024","2","48000","-16","experiment","HHHHH","3","odd","4081","NA","NA","2225","NA","NA","NA","2217","NA","26910","25854","27013","27428","NA","26907","27013","Lab 2.1","15","6916","15","yes","1024"
"100","100","461.6875","461.6875","black","legacy","legacy","legacy","0","incongruent","uniform","1","undefined","1","s","0","0","0","0","0","0","15","0","15","15","15","15","15","0","15","15","Fri Sep 23 19:24:31 2022","1500","The main experiment item","yes","lab_2.1.osexp","C:\Users\joey.knofczynski\Downloads","no","mono","no","18","no","white","no","yes","768","legacy","15","15","C:/Users/joey.knofczynski/Downloads/subject-3.csv","legacy","Lentiform Loewenfeld","3.3.12","yes","0","s","h","NA","NA","s","NA","471","1855","NA","NA","471","NA","2","legacy","1024","2","48000","-16","experiment","HHSHH","3","odd","4081","NA","NA","2225","NA","NA","NA","2217","NA","28493","27433","28595","29067","NA","28490","28595","Lab 2.1","16","7387","16","yes","1024"
"100","100","460.7647058823529","460.7647058823529","black","legacy","legacy","legacy","0","congruent","uniform","1","undefined","1","h","0","0","0","0","0","0","16","0","16","16","16","16","16","0","16","16","Fri Sep 23 19:24:31 2022","1500","The main experiment item","yes","lab_2.1.osexp","C:\Users\joey.knofczynski\Downloads","no","mono","no","18","no","white","no","yes","768","legacy","16","16","C:/Users/joey.knofczynski/Downloads/subject-3.csv","legacy","Lentiform Loewenfeld","3.3.12","yes","0","h","h","NA","NA","h","NA","446","1855","NA","NA","446","NA","2","legacy","1024","2","48000","-16","experiment","HHHHH","3","odd","4081","NA","NA","2225","NA","NA","NA","2217","NA","30126","29071","30229","30676","NA","30123","30227","Lab 2.1","17","7833","17","yes","1024"
"100","100","454.44444444444446","454.44444444444446","black","legacy","legacy","legacy","0","congruent","uniform","1","undefined","1","s","0","0","0","0","0","0","17","0","17","17","17","17","17","0","17","17","Fri Sep 23 19:24:31 2022","1500","The main experiment item","yes","lab_2.1.osexp","C:\Users\joey.knofczynski\Downloads","no","mono","no","18","no","white","no","yes","768","legacy","17","17","C:/Users/joey.knofczynski/Downloads/subject-3.csv","legacy","Lentiform Loewenfeld","3.3.12","yes","0","s","h","NA","NA","s","NA","347","1855","NA","NA","347","NA","2","legacy","1024","2","48000","-16","experiment","SSSSS","3","odd","4081","NA","NA","2225","NA","NA","NA","2217","NA","31737","30681","31840","32188","NA","31732","31840","Lab 2.1","18","8180","18","yes","1024"
"100","100","454.7368421052632","454.7368421052632","black","legacy","legacy","legacy","0","incongruent","uniform","1","undefined","1","s","0","0","0","0","0","0","18","0","18","18","18","18","18","0","18","18","Fri Sep 23 19:24:31 2022","1500","The main experiment item","yes","lab_2.1.osexp","C:\Users\joey.knofczynski\Downloads","no","mono","no","18","no","white","no","yes","768","legacy","18","18","C:/Users/joey.knofczynski/Downloads/subject-3.csv","legacy","Lentiform Loewenfeld","3.3.12","yes","0","s","h","NA","NA","s","NA","460","1855","NA","NA","460","NA","2","legacy","1024","2","48000","-16","experiment","HHSHH","3","odd","4081","NA","NA","2225","NA","NA","NA","2217","NA","33246","32192","33347","33808","NA","33243","33347","Lab 2.1","19","8640","19","yes","1024"
"100","100","451.75","451.75","black","legacy","legacy","legacy","0","congruent","uniform","1","undefined","1","s","0","0","0","0","0","0","19","0","19","19","19","19","19","0","19","19","Fri Sep 23 19:24:31 2022","1500","The main experiment item","yes","lab_2.1.osexp","C:\Users\joey.knofczynski\Downloads","no","mono","no","18","no","white","no","yes","768","legacy","19","19","C:/Users/joey.knofczynski/Downloads/subject-3.csv","legacy","Lentiform Loewenfeld","3.3.12","yes","0","s","h","NA","NA","s","NA","395","1855","NA","NA","395","NA","2","legacy","1024","2","48000","-16","experiment","SSSSS","3","odd","4081","NA","NA","2225","NA","NA","NA","2217","NA","34867","33813","34968","35364","NA","34863","34968","Lab 2.1","20","9035","20","yes","1024"
"100","100","452.8095238095238","452.8095238095238","black","legacy","legacy","legacy","0","congruent","uniform","1","undefined","1","s","0","0","0","0","0","0","20","0","20","20","20","20","20","0","20","20","Fri Sep 23 19:24:31 2022","1500","The main experiment item","yes","lab_2.1.osexp","C:\Users\joey.knofczynski\Downloads","no","mono","no","18","no","white","no","yes","768","legacy","20","20","C:/Users/joey.knofczynski/Downloads/subject-3.csv","legacy","Lentiform Loewenfeld","3.3.12","yes","0","s","h","NA","NA","s","NA","474","1855","NA","NA","474","NA","2","legacy","1024","2","48000","-16","experiment","SSSSS","3","odd","4081","NA","NA","2225","NA","NA","NA","2217","NA","36422","35369","36525","37000","NA","36419","36524","Lab 2.1","21","9509","21","yes","1024"
"100","100","448.95454545454544","448.95454545454544","black","legacy","legacy","legacy","0","congruent","uniform","1","undefined","1","h","0","0","0","0","0","0","21","0","21","21","21","21","21","0","21","21","Fri Sep 23 19:24:31 2022","1500","The main experiment item","yes","lab_2.1.osexp","C:\Users\joey.knofczynski\Downloads","no","mono","no","18","no","white","no","yes","768","legacy","21","21","C:/Users/joey.knofczynski/Downloads/subject-3.csv","legacy","Lentiform Loewenfeld","3.3.12","yes","0","h","h","NA","NA","h","NA","368","1855","NA","NA","368","NA","2","legacy","1024","2","48000","-16","experiment","HHHHH","3","odd","4081","NA","NA","2225","NA","NA","NA","2217","NA","38058","37004","38160","38529","NA","38055","38160","Lab 2.1","22","9877","22","yes","1024"
"100","100","446.3478260869565","446.3478260869565","black","legacy","legacy","legacy","0","congruent","uniform","1","undefined","1","s","0","0","0","0","0","0","22","0","22","22","22","22","22","0","22","22","Fri Sep 23 19:24:31 2022","1500","The main experiment item","yes","lab_2.1.osexp","C:\Users\joey.knofczynski\Downloads","no","mono","no","18","no","white","no","yes","768","legacy","22","22","C:/Users/joey.knofczynski/Downloads/subject-3.csv","legacy","Lentiform Loewenfeld","3.3.12","yes","0","s","h","NA","NA","s","NA","389","1855","NA","NA","389","NA","2","legacy","1024","2","48000","-16","experiment","SSSSS","3","odd","4081","NA","NA","2225","NA","NA","NA","2217","NA","39587","38533","39689","40079","NA","39583","39689","Lab 2.1","23","10266","23","yes","1024"
"95.83333333333333","95.83333333333333","444.4583333333333","444.4583333333333","black","legacy","legacy","legacy","0","incongruent","uniform","0","undefined","0","h","0","0","0","0","0","0","23","0","23","23","23","23","23","0","23","23","Fri Sep 23 19:24:31 2022","1500","The main experiment item","yes","lab_2.1.osexp","C:\Users\joey.knofczynski\Downloads","no","mono","no","18","no","white","no","yes","768","legacy","23","23","C:/Users/joey.knofczynski/Downloads/subject-3.csv","legacy","Lentiform Loewenfeld","3.3.12","yes","0","s","h","NA","NA","s","NA","401","1855","NA","NA","401","NA","2","legacy","1024","2","48000","-16","experiment","SSHSS","3","odd","4081","NA","NA","2225","NA","NA","NA","2217","NA","41138","40083","41240","41641","NA","41135","41240","Lab 2.1","23","10667","24","yes","1024"
"96","96","454.72","454.72","black","legacy","legacy","legacy","0","incongruent","uniform","1","undefined","1","s","0","0","0","0","0","0","24","0","24","24","24","24","24","0","24","24","Fri Sep 23 19:24:31 2022","1500","The main experiment item","yes","lab_2.1.osexp","C:\Users\joey.knofczynski\Downloads","no","mono","no","18","no","white","no","yes","768","legacy","24","24","C:/Users/joey.knofczynski/Downloads/subject-3.csv","legacy","Lentiform Loewenfeld","3.3.12","yes","0","s","h","NA","NA","s","NA","701","1855","NA","NA","701","NA","2","legacy","1024","2","48000","-16","experiment","HHSHH","3","odd","4081","NA","NA","2225","NA","NA","41645","2217","NA","43199","42146","43300","44001","NA","43197","43300","Lab 2.1","24","11368","25","yes","1024"
"96.15384615384616","96.15384615384616","463.8076923076923","463.8076923076923","black","legacy","legacy","legacy","0","incongruent","uniform","1","undefined","1","s","0","0","0","0","0","0","25","0","25","25","25","25","25","0","25","25","Fri Sep 23 19:24:31 2022","1500","The main experiment item","yes","lab_2.1.osexp","C:\Users\joey.knofczynski\Downloads","no","mono","no","18","no","white","no","yes","768","legacy","25","25","C:/Users/joey.knofczynski/Downloads/subject-3.csv","legacy","Lentiform Loewenfeld","3.3.12","yes","0","s","h","NA","NA","s","NA","691","1855","NA","NA","691","NA","2","legacy","1024","2","48000","-16","experiment","HHSHH","3","odd","4081","NA","NA","2225","NA","NA","41645","2217","NA","45059","44006","45161","45852","NA","45055","45161","Lab 2.1","25","12059","26","yes","1024"
"96.29629629629629","96.29629629629629","473.48148148148147","473.48148148148147","black","legacy","legacy","legacy","0","incongruent","uniform","1","undefined","1","h","0","0","0","0","0","0","26","0","26","26","26","26","26","0","26","26","Fri Sep 23 19:24:31 2022","1500","The main experiment item","yes","lab_2.1.osexp","C:\Users\joey.knofczynski\Downloads","no","mono","no","18","no","white","no","yes","768","legacy","26","26","C:/Users/joey.knofczynski/Downloads/subject-3.csv","legacy","Lentiform Loewenfeld","3.3.12","yes","0","h","h","NA","NA","h","NA","725","1855","NA","NA","725","NA","2","legacy","1024","2","48000","-16","experiment","SSHSS","3","odd","4081","NA","NA","2225","NA","NA","41645","2217","NA","46911","45856","47012","47737","NA","46908","47012","Lab 2.1","26","12784","27","yes","1024"
"96.42857142857143","96.42857142857143","476.57142857142856","476.57142857142856","black","legacy","legacy","legacy","0","incongruent","uniform","1","undefined","1","h","0","0","0","0","0","0","27","0","27","27","27","27","27","0","27","27","Fri Sep 23 19:24:31 2022","1500","The main experiment item","yes","lab_2.1.osexp","C:\Users\joey.knofczynski\Downloads","no","mono","no","18","no","white","no","yes","768","legacy","27","27","C:/Users/joey.knofczynski/Downloads/subject-3.csv","legacy","Lentiform Loewenfeld","3.3.12","yes","0","h","h","NA","NA","h","NA","560","1855","NA","NA","560","NA","2","legacy","1024","2","48000","-16","experiment","SSHSS","3","odd","4081","NA","NA","2225","NA","NA","41645","2217","NA","48807","47741","48910","49470","NA","48804","48910","Lab 2.1","27","13344","28","yes","1024"
"96.55172413793103","96.55172413793103","481.41379310344826","481.41379310344826","black","legacy","legacy","legacy","0","incongruent","uniform","1","undefined","1","h","0","0","0","0","0","0","28","0","28","28","28","28","28","0","28","28","Fri Sep 23 19:24:31 2022","1500","The main experiment item","yes","lab_2.1.osexp","C:\Users\joey.knofczynski\Downloads","no","mono","no","18","no","white","no","yes","768","legacy","28","28","C:/Users/joey.knofczynski/Downloads/subject-3.csv","legacy","Lentiform Loewenfeld","3.3.12","yes","0","h","h","NA","NA","h","NA","617","1855","NA","NA","617","NA","2","legacy","1024","2","48000","-16","experiment","SSHSS","3","odd","4081","NA","NA","2225","NA","NA","41645","2217","NA","50529","49475","50631","51249","NA","50526","50631","Lab 2.1","28","13961","29","yes","1024"
"96.66666666666667","96.66666666666667","480.4","480.4","black","legacy","legacy","legacy","0","incongruent","uniform","1","undefined","1","s","0","0","0","0","0","0","29","0","29","29","29","29","29","0","29","29","Fri Sep 23 19:24:31 2022","1500","The main experiment item","yes","lab_2.1.osexp","C:\Users\joey.knofczynski\Downloads","no","mono","no","18","no","white","no","yes","768","legacy","29","29","C:/Users/joey.knofczynski/Downloads/subject-3.csv","legacy","Lentiform Loewenfeld","3.3.12","yes","0","s","h","NA","NA","s","NA","451","1855","NA","NA","451","NA","2","legacy","1024","2","48000","-16","experiment","HHSHH","3","odd","4081","NA","NA","2225","NA","NA","41645","2217","NA","52306","51253","52408","52860","NA","52303","52408","Lab 2.1","29","14412","30","yes","1024"
"96.7741935483871","96.7741935483871","482.19354838709677","482.19354838709677","black","legacy","legacy","legacy","0","congruent","uniform","1","undefined","1","h","0","0","0","0","0","0","30","0","30","30","30","30","30","0","30","30","Fri Sep 23 19:24:31 2022","1500","The main experiment item","yes","lab_2.1.osexp","C:\Users\joey.knofczynski\Downloads","no","mono","no","18","no","white","no","yes","768","legacy","30","30","C:/Users/joey.knofczynski/Downloads/subject-3.csv","legacy","Lentiform Loewenfeld","3.3.12","yes","0","h","h","NA","NA","h","NA","536","1855","NA","NA","536","NA","2","legacy","1024","2","48000","-16","experiment","HHHHH","3","odd","4081","NA","NA","2225","NA","NA","41645","2217","NA","53921","52864","54025","54561","NA","53918","54024","Lab 2.1","30","14948","31","yes","1024"
"96.875","96.875","483.09375","483.09375","black","legacy","legacy","legacy","0","congruent","uniform","1","undefined","1","h","0","0","0","0","0","0","31","0","31","31","31","31","31","0","31","31","Fri Sep 23 19:24:31 2022","1500","The main experiment item","yes","lab_2.1.osexp","C:\Users\joey.knofczynski\Downloads","no","mono","no","18","no","white","no","yes","768","legacy","31","31","C:/Users/joey.knofczynski/Downloads/subject-3.csv","legacy","Lentiform Loewenfeld","3.3.12","yes","0","h","h","NA","NA","h","NA","511","1855","NA","NA","511","NA","2","legacy","1024","2","48000","-16","experiment","HHHHH","3","odd","4081","NA","NA","2225","NA","NA","41645","2217","NA","55619","54565","55721","56233","NA","55616","55721","Lab 2.1","31","15459","32","yes","1024"
"96.96969696969697","96.96969696969697","486.3333333333333","486.3333333333333","black","legacy","legacy","legacy","0","incongruent","uniform","1","undefined","1","h","0","0","0","0","0","0","32","0","32","32","32","32","32","0","32","32","Fri Sep 23 19:24:31 2022","1500","The main experiment item","yes","lab_2.1.osexp","C:\Users\joey.knofczynski\Downloads","no","mono","no","18","no","white","no","yes","768","legacy","32","32","C:/Users/joey.knofczynski/Downloads/subject-3.csv","legacy","Lentiform Loewenfeld","3.3.12","yes","0","h","h","NA","NA","h","NA","590","1855","NA","NA","590","NA","2","legacy","1024","2","48000","-16","experiment","SSHSS","3","odd","4081","NA","NA","2225","NA","NA","41645","2217","NA","57290","56238","57391","57982","NA","57287","57391","Lab 2.1","32","16049","33","yes","1024"
"97.05882352941177","97.05882352941177","490.8529411764706","490.8529411764706","black","legacy","legacy","legacy","0","congruent","uniform","1","undefined","1","s","0","0","0","0","0","0","33","0","33","33","33","33","33","0","33","33","Fri Sep 23 19:24:31 2022","1500","The main experiment item","yes","lab_2.1.osexp","C:\Users\joey.knofczynski\Downloads","no","mono","no","18","no","white","no","yes","768","legacy","33","33","C:/Users/joey.knofczynski/Downloads/subject-3.csv","legacy","Lentiform Loewenfeld","3.3.12","yes","0","s","h","NA","NA","s","NA","640","1855","NA","NA","640","NA","2","legacy","1024","2","48000","-16","experiment","SSSSS","3","odd","4081","NA","NA","2225","NA","NA","41645","2217","NA","59040","57987","59141","59781","NA","59037","59141","Lab 2.1","33","16689","34","yes","1024"
"97.14285714285714","97.14285714285714","495.6","495.6","black","legacy","legacy","legacy","0","incongruent","uniform","1","undefined","1","s","0","0","0","0","0","0","34","0","34","34","34","34","34","0","34","34","Fri Sep 23 19:24:31 2022","1500","The main experiment item","yes","lab_2.1.osexp","C:\Users\joey.knofczynski\Downloads","no","mono","no","18","no","white","no","yes","768","legacy","34","34","C:/Users/joey.knofczynski/Downloads/subject-3.csv","legacy","Lentiform Loewenfeld","3.3.12","yes","0","s","h","NA","NA","s","NA","657","1855","NA","NA","657","NA","2","legacy","1024","2","48000","-16","experiment","HHSHH","3","odd","4081","NA","NA","2225","NA","NA","41645","2217","NA","60839","59786","60940","61598","NA","60836","60940","Lab 2.1","34","17346","35","yes","1024"
"97.22222222222223","97.22222222222223","504.5833333333333","504.5833333333333","black","legacy","legacy","legacy","0","incongruent","uniform","1","undefined","1","h","0","0","0","0","0","0","35","0","35","35","35","35","35","0","35","35","Fri Sep 23 19:24:31 2022","1500","The main experiment item","yes","lab_2.1.osexp","C:\Users\joey.knofczynski\Downloads","no","mono","no","18","no","white","no","yes","768","legacy","35","35","C:/Users/joey.knofczynski/Downloads/subject-3.csv","legacy","Lentiform Loewenfeld","3.3.12","yes","0","h","h","NA","NA","h","NA","819","1855","NA","NA","819","NA","2","legacy","1024","2","48000","-16","experiment","SSHSS","3","odd","4081","NA","NA","2225","NA","NA","41645","2217","NA","62656","61602","62757","63577","NA","62653","62757","Lab 2.1","35","18165","36","yes","1024"
"97.29729729729729","97.29729729729729","512.1081081081081","512.1081081081081","black","legacy","legacy","legacy","0","congruent","uniform","1","undefined","1","s","0","0","0","0","0","0","36","0","36","36","36","36","36","0","36","36","Fri Sep 23 19:24:31 2022","1500","The main experiment item","yes","lab_2.1.osexp","C:\Users\joey.knofczynski\Downloads","no","mono","no","18","no","white","no","yes","768","legacy","36","36","C:/Users/joey.knofczynski/Downloads/subject-3.csv","legacy","Lentiform Loewenfeld","3.3.12","yes","0","s","h","NA","NA","s","NA","783","1855","NA","NA","783","NA","2","legacy","1024","2","48000","-16","experiment","SSSSS","3","odd","4081","NA","NA","2225","NA","NA","41645","2217","NA","64634","63581","64735","65518","NA","64631","64735","Lab 2.1","36","18948","37","yes","1024"
"97.36842105263158","97.36842105263158","518.3157894736842","518.3157894736842","black","legacy","legacy","legacy","0","incongruent","uniform","1","undefined","1","s","0","0","0","0","0","0","37","0","37","37","37","37","37","0","37","37","Fri Sep 23 19:24:31 2022","1500","The main experiment item","yes","lab_2.1.osexp","C:\Users\joey.knofczynski\Downloads","no","mono","no","18","no","white","no","yes","768","legacy","37","37","C:/Users/joey.knofczynski/Downloads/subject-3.csv","legacy","Lentiform Loewenfeld","3.3.12","yes","0","s","h","NA","NA","s","NA","748","1855","NA","NA","748","NA","2","legacy","1024","2","48000","-16","experiment","HHSHH","3","odd","4081","NA","NA","2225","NA","NA","41645","2217","NA","66577","65523","66679","67428","NA","66574","66678","Lab 2.1","37","19696","38","yes","1024"
"97.43589743589743","97.43589743589743","518.3076923076923","518.3076923076923","black","legacy","legacy","legacy","0","congruent","uniform","1","undefined","1","h","0","0","0","0","0","0","38","0","38","38","38","38","38","0","38","38","Fri Sep 23 19:24:31 2022","1500","The main experiment item","yes","lab_2.1.osexp","C:\Users\joey.knofczynski\Downloads","no","mono","no","18","no","white","no","yes","768","legacy","38","38","C:/Users/joey.knofczynski/Downloads/subject-3.csv","legacy","Lentiform Loewenfeld","3.3.12","yes","0","h","h","NA","NA","h","NA","518","1855","NA","NA","518","NA","2","legacy","1024","2","48000","-16","experiment","HHHHH","3","odd","4081","NA","NA","2225","NA","NA","41645","2217","NA","68489","67432","68591","69109","NA","68486","68591","Lab 2.1","38","20214","39","yes","1024"
"95","95","515.725","515.725","black","legacy","legacy","legacy","0","incongruent","uniform","0","undefined","0","h","0","0","0","0","0","0","39","0","39","39","39","39","39","0","39","39","Fri Sep 23 19:24:31 2022","1500","The main experiment item","yes","lab_2.1.osexp","C:\Users\joey.knofczynski\Downloads","no","mono","no","18","no","white","no","yes","768","legacy","39","39","C:/Users/joey.knofczynski/Downloads/subject-3.csv","legacy","Lentiform Loewenfeld","3.3.12","yes","0","s","h","NA","NA","s","NA","415","1855","NA","NA","415","NA","2","legacy","1024","2","48000","-16","experiment","SSHSS","3","odd","4081","NA","NA","2225","NA","NA","41645","2217","NA","70167","69114","70269","70685","NA","70164","70269","Lab 2.1","38","20629","40","yes","1024"
"95.1219512195122","95.1219512195122","515.5121951219512","515.5121951219512","black","legacy","legacy","legacy","0","congruent","uniform","1","undefined","1","h","0","0","0","0","0","0","40","0","40","40","40","40","40","0","40","40","Fri Sep 23 19:24:31 2022","1500","The main experiment item","yes","lab_2.1.osexp","C:\Users\joey.knofczynski\Downloads","no","mono","no","18","no","white","no","yes","768","legacy","40","40","C:/Users/joey.knofczynski/Downloads/subject-3.csv","legacy","Lentiform Loewenfeld","3.3.12","yes","0","h","h","NA","NA","h","NA","507","1855","NA","NA","507","NA","2","legacy","1024","2","48000","-16","experiment","HHHHH","3","odd","4081","NA","NA","2225","NA","NA","70689","2217","NA","72243","71190","72346","72853","NA","72240","72345","Lab 2.1","39","21136","41","yes","1024"
"95.23809523809524","95.23809523809524","517.5","517.5","black","legacy","legacy","legacy","0","congruent","uniform","1","undefined","1","s","0","0","0","0","0","0","41","0","41","41","41","41","41","0","41","41","Fri Sep 23 19:24:31 2022","1500","The main experiment item","yes","lab_2.1.osexp","C:\Users\joey.knofczynski\Downloads","no","mono","no","18","no","white","no","yes","768","legacy","41","41","C:/Users/joey.knofczynski/Downloads/subject-3.csv","legacy","Lentiform Loewenfeld","3.3.12","yes","0","s","h","NA","NA","s","NA","599","1855","NA","NA","599","NA","2","legacy","1024","2","48000","-16","experiment","SSSSS","3","odd","4081","NA","NA","2225","NA","NA","70689","2217","NA","73913","72858","74015","74615","NA","73910","74015","Lab 2.1","40","21735","42","yes","1024"
"95.34883720930233","95.34883720930233","520.4651162790698","520.4651162790698","black","legacy","legacy","legacy","0","incongruent","uniform","1","undefined","1","s","0","0","0","0","0","0","42","0","42","42","42","42","42","0","42","42","Fri Sep 23 19:24:31 2022","1500","The main experiment item","yes","lab_2.1.osexp","C:\Users\joey.knofczynski\Downloads","no","mono","no","18","no","white","no","yes","768","legacy","42","42","C:/Users/joey.knofczynski/Downloads/subject-3.csv","legacy","Lentiform Loewenfeld","3.3.12","yes","0","s","h","NA","NA","s","NA","645","1855","NA","NA","645","NA","2","legacy","1024","2","48000","-16","experiment","HHSHH","3","odd","4081","NA","NA","2225","NA","NA","70689","2217","NA","75672","74619","75773","76419","NA","75669","75773","Lab 2.1","41","22380","43","yes","1024"
"93.18181818181819","93.18181818181819","516.8863636363636","516.8863636363636","black","legacy","legacy","legacy","0","incongruent","uniform","0","undefined","0","h","0","0","0","0","0","0","43","0","43","43","43","43","43","0","43","43","Fri Sep 23 19:24:31 2022","1500","The main experiment item","yes","lab_2.1.osexp","C:\Users\joey.knofczynski\Downloads","no","mono","no","18","no","white","no","yes","768","legacy","43","43","C:/Users/joey.knofczynski/Downloads/subject-3.csv","legacy","Lentiform Loewenfeld","3.3.12","yes","0","s","h","NA","NA","s","NA","363","1855","NA","NA","363","NA","2","legacy","1024","2","48000","-16","experiment","SSHSS","3","odd","4081","NA","NA","2225","NA","NA","70689","2217","NA","77477","76423","77579","77942","NA","77474","77579","Lab 2.1","41","22743","44","yes","1024"
"93.33333333333333","93.33333333333333","519","519","black","legacy","legacy","legacy","0","congruent","uniform","1","undefined","1","s","0","0","0","0","0","0","44","0","44","44","44","44","44","0","44","44","Fri Sep 23 19:24:31 2022","1500","The main experiment item","yes","lab_2.1.osexp","C:\Users\joey.knofczynski\Downloads","no","mono","no","18","no","white","no","yes","768","legacy","44","44","C:/Users/joey.knofczynski/Downloads/subject-3.csv","legacy","Lentiform Loewenfeld","3.3.12","yes","0","s","h","NA","NA","s","NA","612","1855","NA","NA","612","NA","2","legacy","1024","2","48000","-16","experiment","SSSSS","3","odd","4081","NA","NA","2225","NA","NA","77947","2217","NA","79503","78448","79605","80218","NA","79501","79605","Lab 2.1","42","23355","45","yes","1024"
"93.47826086956522","93.47826086956522","518.695652173913","518.695652173913","black","legacy","legacy","legacy","0","congruent","uniform","1","undefined","1","h","0","0","0","0","0","0","45","0","45","45","45","45","45","0","45","45","Fri Sep 23 19:24:31 2022","1500","The main experiment item","yes","lab_2.1.osexp","C:\Users\joey.knofczynski\Downloads","no","mono","no","18","no","white","no","yes","768","legacy","45","45","C:/Users/joey.knofczynski/Downloads/subject-3.csv","legacy","Lentiform Loewenfeld","3.3.12","yes","0","h","h","NA","NA","h","NA","505","1855","NA","NA","505","NA","2","legacy","1024","2","48000","-16","experiment","HHHHH","3","odd","4081","NA","NA","2225","NA","NA","77947","2217","NA","81274","80222","81375","81881","NA","81271","81375","Lab 2.1","43","23860","46","yes","1024"
"93.61702127659575","93.61702127659575","520","520","black","legacy","legacy","legacy","0","congruent","uniform","1","undefined","1","h","0","0","0","0","0","0","46","0","46","46","46","46","46","0","46","46","Fri Sep 23 19:24:31 2022","1500","The main experiment item","yes","lab_2.1.osexp","C:\Users\joey.knofczynski\Downloads","no","mono","no","18","no","white","no","yes","768","legacy","46","46","C:/Users/joey.knofczynski/Downloads/subject-3.csv","legacy","Lentiform Loewenfeld","3.3.12","yes","0","h","h","NA","NA","h","NA","580","1855","NA","NA","580","NA","2","legacy","1024","2","48000","-16","experiment","HHHHH","3","odd","4081","NA","NA","2225","NA","NA","77947","2217","NA","82938","81884","83039","83620","NA","82935","83039","Lab 2.1","44","24440","47","yes","1024"
"93.75","93.75","522.625","522.625","black","legacy","legacy","legacy","0","incongruent","uniform","1","undefined","1","h","0","0","0","0","0","0","47","0","47","47","47","47","47","0","47","47","Fri Sep 23 19:24:31 2022","1500","The main experiment item","yes","lab_2.1.osexp","C:\Users\joey.knofczynski\Downloads","no","mono","no","18","no","white","no","yes","768","legacy","47","47","C:/Users/joey.knofczynski/Downloads/subject-3.csv","legacy","Lentiform Loewenfeld","3.3.12","yes","0","h","h","NA","NA","h","NA","646","1855","NA","NA","646","NA","2","legacy","1024","2","48000","-16","experiment","SSHSS","3","odd","4081","NA","NA","2225","NA","NA","77947","2217","NA","84683","83624","84784","85431","NA","84680","84784","Lab 2.1","45","25086","48","yes","1024"
"93.87755102040816","93.87755102040816","523.5918367346939","523.5918367346939","black","legacy","legacy","legacy","0","congruent","uniform","1","undefined","1","s","0","0","0","0","0","0","48","0","48","48","48","48","48","0","48","48","Fri Sep 23 19:24:31 2022","1500","The main experiment item","yes","lab_2.1.osexp","C:\Users\joey.knofczynski\Downloads","no","mono","no","18","no","white","no","yes","768","legacy","48","48","C:/Users/joey.knofczynski/Downloads/subject-3.csv","legacy","Lentiform Loewenfeld","3.3.12","yes","0","s","h","NA","NA","s","NA","570","1855","NA","NA","570","NA","2","legacy","1024","2","48000","-16","experiment","SSSSS","3","odd","4081","NA","NA","2225","NA","NA","77947","2217","NA","86492","85436","86594","87164","NA","86490","86594","Lab 2.1","46","25656","49","yes","1024"
"94","94","522.92","522.92","black","legacy","legacy","legacy","0","congruent","uniform","1","undefined","1","s","0","0","0","0","0","0","49","0","49","49","49","49","49","0","49","49","Fri Sep 23 19:24:31 2022","1500","The main experiment item","yes","lab_2.1.osexp","C:\Users\joey.knofczynski\Downloads","no","mono","no","18","no","white","no","yes","768","legacy","49","49","C:/Users/joey.knofczynski/Downloads/subject-3.csv","legacy","Lentiform Loewenfeld","3.3.12","yes","0","s","h","NA","NA","s","NA","490","1855","NA","NA","490","NA","2","legacy","1024","2","48000","-16","experiment","SSSSS","3","odd","4081","NA","NA","2225","NA","NA","77947","2217","NA","88225","87169","88326","88817","NA","88222","88326","Lab 2.1","47","26146","50","yes","1024"
"94.11764705882354","94.11764705882354","525.5686274509804","525.5686274509804","black","legacy","legacy","legacy","0","incongruent","uniform","1","undefined","1","s","0","0","0","0","0","0","50","0","50","50","50","50","50","0","50","50","Fri Sep 23 19:24:31 2022","1500","The main experiment item","yes","lab_2.1.osexp","C:\Users\joey.knofczynski\Downloads","no","mono","no","18","no","white","no","yes","768","legacy","50","50","C:/Users/joey.knofczynski/Downloads/subject-3.csv","legacy","Lentiform Loewenfeld","3.3.12","yes","0","s","h","NA","NA","s","NA","658","1855","NA","NA","658","NA","2","legacy","1024","2","48000","-16","experiment","HHSHH","3","odd","4081","NA","NA","2225","NA","NA","77947","2217","NA","89875","88821","89976","90635","NA","89871","89976","Lab 2.1","48","26804","51","yes","1024"
"94.23076923076923","94.23076923076923","525.2884615384615","525.2884615384615","black","legacy","legacy","legacy","0","congruent","uniform","1","undefined","1","h","0","0","0","0","0","0","51","0","51","51","51","51","51","0","51","51","Fri Sep 23 19:24:31 2022","1500","The main experiment item","yes","lab_2.1.osexp","C:\Users\joey.knofczynski\Downloads","no","mono","no","18","no","white","no","yes","768","legacy","51","51","C:/Users/joey.knofczynski/Downloads/subject-3.csv","legacy","Lentiform Loewenfeld","3.3.12","yes","0","h","h","NA","NA","h","NA","511","1855","NA","NA","511","NA","2","legacy","1024","2","48000","-16","experiment","HHHHH","3","odd","4081","NA","NA","2225","NA","NA","77947","2217","NA","91692","90639","91794","92306","NA","91690","91794","Lab 2.1","49","27315","52","yes","1024"
"94.33962264150944","94.33962264150944","524.4716981132076","524.4716981132076","black","legacy","legacy","legacy","0","congruent","uniform","1","undefined","1","s","0","0","0","0","0","0","52","0","52","52","52","52","52","0","52","52","Fri Sep 23 19:24:31 2022","1500","The main experiment item","yes","lab_2.1.osexp","C:\Users\joey.knofczynski\Downloads","no","mono","no","18","no","white","no","yes","768","legacy","52","52","C:/Users/joey.knofczynski/Downloads/subject-3.csv","legacy","Lentiform Loewenfeld","3.3.12","yes","0","s","h","NA","NA","s","NA","482","1855","NA","NA","482","NA","2","legacy","1024","2","48000","-16","experiment","SSSSS","3","odd","4081","NA","NA","2225","NA","NA","77947","2217","NA","93364","92310","93466","93949","NA","93361","93466","Lab 2.1","50","27797","53","yes","1024"
"94.44444444444444","94.44444444444444","525.6111111111111","525.6111111111111","black","legacy","legacy","legacy","0","incongruent","uniform","1","undefined","1","h","0","0","0","0","0","0","53","0","53","53","53","53","53","0","53","53","Fri Sep 23 19:24:31 2022","1500","The main experiment item","yes","lab_2.1.osexp","C:\Users\joey.knofczynski\Downloads","no","mono","no","18","no","white","no","yes","768","legacy","53","53","C:/Users/joey.knofczynski/Downloads/subject-3.csv","legacy","Lentiform Loewenfeld","3.3.12","yes","0","h","h","NA","NA","h","NA","586","1855","NA","NA","586","NA","2","legacy","1024","2","48000","-16","experiment","SSHSS","3","odd","4081","NA","NA","2225","NA","NA","77947","2217","NA","95011","93954","95113","95700","NA","95008","95113","Lab 2.1","51","28383","54","yes","1024"
"94.54545454545455","94.54545454545455","524.7454545454545","524.7454545454545","black","legacy","legacy","legacy","0","congruent","uniform","1","undefined","1","h","0","0","0","0","0","0","54","0","54","54","54","54","54","0","54","54","Fri Sep 23 19:24:31 2022","1500","The main experiment item","yes","lab_2.1.osexp","C:\Users\joey.knofczynski\Downloads","no","mono","no","18","no","white","no","yes","768","legacy","54","54","C:/Users/joey.knofczynski/Downloads/subject-3.csv","legacy","Lentiform Loewenfeld","3.3.12","yes","0","h","h","NA","NA","h","NA","478","1855","NA","NA","478","NA","2","legacy","1024","2","48000","-16","experiment","HHHHH","3","odd","4081","NA","NA","2225","NA","NA","77947","2217","NA","96759","95704","96861","97340","NA","96756","96860","Lab 2.1","52","28861","55","yes","1024"
"94.64285714285714","94.64285714285714","525.7142857142857","525.7142857142857","black","legacy","legacy","legacy","0","incongruent","uniform","1","undefined","1","h","0","0","0","0","0","0","55","0","55","55","55","55","55","0","55","55","Fri Sep 23 19:24:31 2022","1500","The main experiment item","yes","lab_2.1.osexp","C:\Users\joey.knofczynski\Downloads","no","mono","no","18","no","white","no","yes","768","legacy","55","55","C:/Users/joey.knofczynski/Downloads/subject-3.csv","legacy","Lentiform Loewenfeld","3.3.12","yes","0","h","h","NA","NA","h","NA","579","1855","NA","NA","579","NA","2","legacy","1024","2","48000","-16","experiment","SSHSS","3","odd","4081","NA","NA","2225","NA","NA","77947","2217","NA","98407","97344","98509","99089","NA","98402","98509","Lab 2.1","53","29440","56","yes","1024"
"94.73684210526316","94.73684210526316","530.5087719298245","530.5087719298245","black","legacy","legacy","legacy","0","congruent","uniform","1","undefined","1","h","0","0","0","0","0","0","56","0","56","56","56","56","56","0","56","56","Fri Sep 23 19:24:31 2022","1500","The main experiment item","yes","lab_2.1.osexp","C:\Users\joey.knofczynski\Downloads","no","mono","no","18","no","white","no","yes","768","legacy","56","56","C:/Users/joey.knofczynski/Downloads/subject-3.csv","legacy","Lentiform Loewenfeld","3.3.12","yes","0","h","h","NA","NA","h","NA","799","1855","NA","NA","799","NA","2","legacy","1024","2","48000","-16","experiment","HHHHH","3","odd","4081","NA","NA","2225","NA","NA","77947","2217","NA","100147","99092","100248","101048","NA","100144","100248","Lab 2.1","54","30239","57","yes","1024"
"94.82758620689656","94.82758620689656","532.4655172413793","532.4655172413793","black","legacy","legacy","legacy","0","incongruent","uniform","1","undefined","1","s","0","0","0","0","0","0","57","0","57","57","57","57","57","0","57","57","Fri Sep 23 19:24:31 2022","1500","The main experiment item","yes","lab_2.1.osexp","C:\Users\joey.knofczynski\Downloads","no","mono","no","18","no","white","no","yes","768","legacy","57","57","C:/Users/joey.knofczynski/Downloads/subject-3.csv","legacy","Lentiform Loewenfeld","3.3.12","yes","0","s","h","NA","NA","s","NA","644","1855","NA","NA","644","NA","2","legacy","1024","2","48000","-16","experiment","HHSHH","3","odd","4081","NA","NA","2225","NA","NA","77947","2217","NA","102104","101052","102205","102850","NA","102102","102205","Lab 2.1","55","30883","58","yes","1024"
"94.91525423728814","94.91525423728814","533.3389830508474","533.3389830508474","black","legacy","legacy","legacy","0","incongruent","uniform","1","undefined","1","s","0","0","0","0","0","0","58","0","58","58","58","58","58","0","58","58","Fri Sep 23 19:24:31 2022","1500","The main experiment item","yes","lab_2.1.osexp","C:\Users\joey.knofczynski\Downloads","no","mono","no","18","no","white","no","yes","768","legacy","58","58","C:/Users/joey.knofczynski/Downloads/subject-3.csv","legacy","Lentiform Loewenfeld","3.3.12","yes","0","s","h","NA","NA","s","NA","584","1855","NA","NA","584","NA","2","legacy","1024","2","48000","-16","experiment","HHSHH","3","odd","4081","NA","NA","2225","NA","NA","77947","2217","NA","103914","102854","104015","104600","NA","103911","104015","Lab 2.1","56","31467","59","yes","1024"
"95","95","534.1333333333333","534.1333333333333","black","legacy","legacy","legacy","0","congruent","uniform","1","undefined","1","h","0","0","0","0","0","0","59","0","59","59","59","59","59","0","59","59","Fri Sep 23 19:24:31 2022","1500","The main experiment item","yes","lab_2.1.osexp","C:\Users\joey.knofczynski\Downloads","no","mono","no","18","no","white","no","yes","768","legacy","59","59","C:/Users/joey.knofczynski/Downloads/subject-3.csv","legacy","Lentiform Loewenfeld","3.3.12","yes","0","h","h","NA","NA","h","NA","581","1855","NA","NA","581","NA","2","legacy","1024","2","48000","-16","experiment","HHHHH","3","odd","4081","NA","NA","2225","NA","NA","77947","2217","NA","105664","104605","105767","106349","NA","105661","105767","Lab 2.1","57","32048","60","yes","1024"
"95.08196721311475","95.08196721311475","534.983606557377","534.983606557377","black","legacy","legacy","legacy","0","incongruent","uniform","1","undefined","1","h","0","0","0","0","0","0","60","0","60","60","60","60","60","0","60","60","Fri Sep 23 19:24:31 2022","1500","The main experiment item","yes","lab_2.1.osexp","C:\Users\joey.knofczynski\Downloads","no","mono","no","18","no","white","no","yes","768","legacy","60","60","C:/Users/joey.knofczynski/Downloads/subject-3.csv","legacy","Lentiform Loewenfeld","3.3.12","yes","0","h","h","NA","NA","h","NA","586","1855","NA","NA","586","NA","2","legacy","1024","2","48000","-16","experiment","SSHSS","3","odd","4081","NA","NA","2225","NA","NA","77947","2217","NA","107409","106354","107511","108098","NA","107407","107510","Lab 2.1","58","32634","61","yes","1024"
"95.16129032258064","95.16129032258064","538.4516129032259","538.4516129032259","black","legacy","legacy","legacy","0","congruent","uniform","1","undefined","1","h","0","0","0","0","0","0","61","0","61","61","61","61","61","0","61","61","Fri Sep 23 19:24:31 2022","1500","The main experiment item","yes","lab_2.1.osexp","C:\Users\joey.knofczynski\Downloads","no","mono","no","18","no","white","no","yes","768","legacy","61","61","C:/Users/joey.knofczynski/Downloads/subject-3.csv","legacy","Lentiform Loewenfeld","3.3.12","yes","0","h","h","NA","NA","h","NA","750","1855","NA","NA","750","NA","2","legacy","1024","2","48000","-16","experiment","HHHHH","3","odd","4081","NA","NA","2225","NA","NA","77947","2217","NA","109157","108102","109259","110010","NA","109152","109259","Lab 2.1","59","33384","62","yes","1024"
"95.23809523809524","95.23809523809524","538.6031746031746","538.6031746031746","black","legacy","legacy","legacy","0","incongruent","uniform","1","undefined","1","s","0","0","0","0","0","0","62","0","62","62","62","62","62","0","62","62","Fri Sep 23 19:24:31 2022","1500","The main experiment item","yes","lab_2.1.osexp","C:\Users\joey.knofczynski\Downloads","no","mono","no","18","no","white","no","yes","768","legacy","62","62","C:/Users/joey.knofczynski/Downloads/subject-3.csv","legacy","Lentiform Loewenfeld","3.3.12","yes","0","s","h","NA","NA","s","NA","548","1855","NA","NA","548","NA","2","legacy","1024","2","48000","-16","experiment","HHSHH","3","odd","4081","NA","NA","2225","NA","NA","77947","2217","NA","111069","110014","111171","111720","NA","111065","111170","Lab 2.1","60","33932","63","yes","1024"
"95.3125","95.3125","539.265625","539.265625","black","legacy","legacy","legacy","0","incongruent","uniform","1","undefined","1","s","0","0","0","0","0","0","63","0","63","63","63","63","63","0","63","63","Fri Sep 23 19:24:31 2022","1500","The main experiment item","yes","lab_2.1.osexp","C:\Users\joey.knofczynski\Downloads","no","mono","no","18","no","white","no","yes","768","legacy","63","63","C:/Users/joey.knofczynski/Downloads/subject-3.csv","legacy","Lentiform Loewenfeld","3.3.12","yes","0","s","h","NA","NA","s","NA","581","1855","NA","NA","581","NA","2","legacy","1024","2","48000","-16","experiment","HHSHH","3","odd","4081","NA","NA","2225","NA","NA","77947","2217","NA","112776","111724","112878","113459","NA","112773","112878","Lab 2.1","61","34513","64","yes","1024"
"95.38461538461539","95.38461538461539","540.1076923076923","540.1076923076923","black","legacy","legacy","legacy","0","incongruent","uniform","1","undefined","1","s","0","0","0","0","0","0","64","0","64","64","64","64","64","0","64","64","Fri Sep 23 19:24:31 2022","1500","The main experiment item","yes","lab_2.1.osexp","C:\Users\joey.knofczynski\Downloads","no","mono","no","18","no","white","no","yes","768","legacy","64","64","C:/Users/joey.knofczynski/Downloads/subject-3.csv","legacy","Lentiform Loewenfeld","3.3.12","yes","0","s","h","NA","NA","s","NA","594","1855","NA","NA","594","NA","2","legacy","1024","2","48000","-16","experiment","HHSHH","3","odd","4081","NA","NA","2225","NA","NA","77947","2217","NA","114517","113463","114619","115214","NA","114513","114618","Lab 2.1","62","35107","65","yes","1024"
"95.45454545454545","95.45454545454545","542.060606060606","542.060606060606","black","legacy","legacy","legacy","0","incongruent","uniform","1","undefined","1","h","0","0","0","0","0","0","65","0","65","65","65","65","65","0","65","65","Fri Sep 23 19:24:31 2022","1500","The main experiment item","yes","lab_2.1.osexp","C:\Users\joey.knofczynski\Downloads","no","mono","no","18","no","white","no","yes","768","legacy","65","65","C:/Users/joey.knofczynski/Downloads/subject-3.csv","legacy","Lentiform Loewenfeld","3.3.12","yes","0","h","h","NA","NA","h","NA","669","1855","NA","NA","669","NA","2","legacy","1024","2","48000","-16","experiment","SSHSS","3","odd","4081","NA","NA","2225","NA","NA","77947","2217","NA","116271","115218","116373","117044","NA","116268","116373","Lab 2.1","63","35776","66","yes","1024"
"95.5223880597015","95.5223880597015","546.2686567164179","546.2686567164179","black","legacy","legacy","legacy","0","incongruent","uniform","1","undefined","1","h","0","0","0","0","0","0","66","0","66","66","66","66","66","0","66","66","Fri Sep 23 19:24:31 2022","1500","The main experiment item","yes","lab_2.1.osexp","C:\Users\joey.knofczynski\Downloads","no","mono","no","18","no","white","no","yes","768","legacy","66","66","C:/Users/joey.knofczynski/Downloads/subject-3.csv","legacy","Lentiform Loewenfeld","3.3.12","yes","0","h","h","NA","NA","h","NA","824","1855","NA","NA","824","NA","2","legacy","1024","2","48000","-16","experiment","SSHSS","3","odd","4081","NA","NA","2225","NA","NA","77947","2217","NA","118104","117048","118205","119030","NA","118100","118205","Lab 2.1","64","36600","67","yes","1024"
"95.58823529411765","95.58823529411765","546.8529411764706","546.8529411764706","black","legacy","legacy","legacy","0","congruent","uniform","1","undefined","1","h","0","0","0","0","0","0","67","0","67","67","67","67","67","0","67","67","Fri Sep 23 19:24:31 2022","1500","The main experiment item","yes","lab_2.1.osexp","C:\Users\joey.knofczynski\Downloads","no","mono","no","18","no","white","no","yes","768","legacy","67","67","C:/Users/joey.knofczynski/Downloads/subject-3.csv","legacy","Lentiform Loewenfeld","3.3.12","yes","0","h","h","NA","NA","h","NA","586","1855","NA","NA","586","NA","2","legacy","1024","2","48000","-16","experiment","HHHHH","3","odd","4081","NA","NA","2225","NA","NA","77947","2217","NA","120087","119034","120189","120775","NA","120084","120189","Lab 2.1","65","37186","68","yes","1024"
"95.65217391304348","95.65217391304348","559.9130434782609","559.9130434782609","black","legacy","legacy","legacy","0","congruent","uniform","1","undefined","1","s","0","0","0","0","0","0","68","0","68","68","68","68","68","0","68","68","Fri Sep 23 19:24:31 2022","1500","The main experiment item","yes","lab_2.1.osexp","C:\Users\joey.knofczynski\Downloads","no","mono","no","18","no","white","no","yes","768","legacy","68","68","C:/Users/joey.knofczynski/Downloads/subject-3.csv","legacy","Lentiform Loewenfeld","3.3.12","yes","0","s","h","NA","NA","s","NA","1448","1855","NA","NA","1448","NA","2","legacy","1024","2","48000","-16","experiment","SSSSS","3","odd","4081","NA","NA","2225","NA","NA","77947","2217","NA","121832","120779","121934","123383","NA","121830","121933","Lab 2.1","66","38634","69","yes","1024"
"95.71428571428571","95.71428571428571","566.8571428571429","566.8571428571429","black","legacy","legacy","legacy","0","incongruent","uniform","1","undefined","1","s","0","0","0","0","0","0","69","0","69","69","69","69","69","0","69","69","Fri Sep 23 19:24:31 2022","1500","The main experiment item","yes","lab_2.1.osexp","C:\Users\joey.knofczynski\Downloads","no","mono","no","18","no","white","no","yes","768","legacy","69","69","C:/Users/joey.knofczynski/Downloads/subject-3.csv","legacy","Lentiform Loewenfeld","3.3.12","yes","0","s","h","NA","NA","s","NA","1046","1855","NA","NA","1046","NA","2","legacy","1024","2","48000","-16","experiment","HHSHH","3","odd","4081","NA","NA","2225","NA","NA","77947","2217","NA","124441","123387","124542","125589","NA","124438","124542","Lab 2.1","67","39680","70","yes","1024"
"95.77464788732394","95.77464788732394","568.7605633802817","568.7605633802817","black","legacy","legacy","legacy","0","congruent","uniform","1","undefined","1","h","0","0","0","0","0","0","70","0","70","70","70","70","70","0","70","70","Fri Sep 23 19:24:31 2022","1500","The main experiment item","yes","lab_2.1.osexp","C:\Users\joey.knofczynski\Downloads","no","mono","no","18","no","white","no","yes","768","legacy","70","70","C:/Users/joey.knofczynski/Downloads/subject-3.csv","legacy","Lentiform Loewenfeld","3.3.12","yes","0","h","h","NA","NA","h","NA","702","1855","NA","NA","702","NA","2","legacy","1024","2","48000","-16","experiment","HHHHH","3","odd","4081","NA","NA","2225","NA","NA","77947","2217","NA","126649","125593","126750","127453","NA","126644","126750","Lab 2.1","68","40382","71","yes","1024"
"95.83333333333333","95.83333333333333","578.8055555555555","578.8055555555555","black","legacy","legacy","legacy","0","incongruent","uniform","1","undefined","1","h","0","0","0","0","0","0","71","0","71","71","71","71","71","0","71","71","Fri Sep 23 19:24:31 2022","1500","The main experiment item","yes","lab_2.1.osexp","C:\Users\joey.knofczynski\Downloads","no","mono","no","18","no","white","no","yes","768","legacy","71","71","C:/Users/joey.knofczynski/Downloads/subject-3.csv","legacy","Lentiform Loewenfeld","3.3.12","yes","0","h","h","NA","NA","h","NA","1292","1855","NA","NA","1292","NA","2","legacy","1024","2","48000","-16","experiment","SSHSS","3","odd","4081","NA","NA","2225","NA","NA","77947","2217","NA","128510","127458","128612","129904","NA","128507","128612","Lab 2.1","69","41674","72","yes","1024"
"95.89041095890411","95.89041095890411","579.2328767123288","579.2328767123288","black","legacy","legacy","legacy","0","congruent","uniform","1","undefined","1","s","0","0","0","0","0","0","72","0","72","72","72","72","72","0","72","72","Fri Sep 23 19:24:31 2022","1500","The main experiment item","yes","lab_2.1.osexp","C:\Users\joey.knofczynski\Downloads","no","mono","no","18","no","white","no","yes","768","legacy","72","72","C:/Users/joey.knofczynski/Downloads/subject-3.csv","legacy","Lentiform Loewenfeld","3.3.12","yes","0","s","h","NA","NA","s","NA","610","1855","NA","NA","610","NA","2","legacy","1024","2","48000","-16","experiment","SSSSS","3","odd","4081","NA","NA","2225","NA","NA","77947","2217","NA","130967","129909","131069","131680","NA","130963","131069","Lab 2.1","70","42284","73","yes","1024"
"95.94594594594595","95.94594594594595","579.7702702702703","579.7702702702703","black","legacy","legacy","legacy","0","congruent","uniform","1","undefined","1","s","0","0","0","0","0","0","73","0","73","73","73","73","73","0","73","73","Fri Sep 23 19:24:31 2022","1500","The main experiment item","yes","lab_2.1.osexp","C:\Users\joey.knofczynski\Downloads","no","mono","no","18","no","white","no","yes","768","legacy","73","73","C:/Users/joey.knofczynski/Downloads/subject-3.csv","legacy","Lentiform Loewenfeld","3.3.12","yes","0","s","h","NA","NA","s","NA","619","1855","NA","NA","619","NA","2","legacy","1024","2","48000","-16","experiment","SSSSS","3","odd","4081","NA","NA","2225","NA","NA","77947","2217","NA","132739","131684","132840","133460","NA","132736","132840","Lab 2.1","71","42903","74","yes","1024"
"96","96","585.9733333333334","585.9733333333334","black","legacy","legacy","legacy","0","incongruent","uniform","1","undefined","1","h","0","0","0","0","0","0","74","0","74","74","74","74","74","0","74","74","Fri Sep 23 19:24:31 2022","1500","The main experiment item","yes","lab_2.1.osexp","C:\Users\joey.knofczynski\Downloads","no","mono","no","18","no","white","no","yes","768","legacy","74","74","C:/Users/joey.knofczynski/Downloads/subject-3.csv","legacy","Lentiform Loewenfeld","3.3.12","yes","0","h","h","NA","NA","h","NA","1045","1855","NA","NA","1045","NA","2","legacy","1024","2","48000","-16","experiment","SSHSS","3","odd","4081","NA","NA","2225","NA","NA","77947","2217","NA","134518","133464","134619","135665","NA","134515","134619","Lab 2.1","72","43948","75","yes","1024"
"96.05263157894737","96.05263157894737","585.8947368421053","585.8947368421053","black","legacy","legacy","legacy","0","congruent","uniform","1","undefined","1","s","0","0","0","0","0","0","75","0","75","75","75","75","75","0","75","75","Fri Sep 23 19:24:31 2022","1500","The main experiment item","yes","lab_2.1.osexp","C:\Users\joey.knofczynski\Downloads","no","mono","no","18","no","white","no","yes","768","legacy","75","75","C:/Users/joey.knofczynski/Downloads/subject-3.csv","legacy","Lentiform Loewenfeld","3.3.12","yes","0","s","h","NA","NA","s","NA","580","1855","NA","NA","580","NA","2","legacy","1024","2","48000","-16","experiment","SSSSS","3","odd","4081","NA","NA","2225","NA","NA","77947","2217","NA","136723","135669","136825","137406","NA","136720","136824","Lab 2.1","73","44528","76","yes","1024"
"96.1038961038961","96.1038961038961","585.7012987012987","585.7012987012987","black","legacy","legacy","legacy","0","incongruent","uniform","1","undefined","1","h","0","0","0","0","0","0","76","0","76","76","76","76","76","0","76","76","Fri Sep 23 19:24:31 2022","1500","The main experiment item","yes","lab_2.1.osexp","C:\Users\joey.knofczynski\Downloads","no","mono","no","18","no","white","no","yes","768","legacy","76","76","C:/Users/joey.knofczynski/Downloads/subject-3.csv","legacy","Lentiform Loewenfeld","3.3.12","yes","0","h","h","NA","NA","h","NA","571","1855","NA","NA","571","NA","2","legacy","1024","2","48000","-16","experiment","SSHSS","3","odd","4081","NA","NA","2225","NA","NA","77947","2217","NA","138465","137410","138567","139139","NA","138462","138567","Lab 2.1","74","45099","77","yes","1024"
"96.15384615384616","96.15384615384616","585.9102564102565","585.9102564102565","black","legacy","legacy","legacy","0","congruent","uniform","1","undefined","1","h","0","0","0","0","0","0","77","0","77","77","77","77","77","0","77","77","Fri Sep 23 19:24:31 2022","1500","The main experiment item","yes","lab_2.1.osexp","C:\Users\joey.knofczynski\Downloads","no","mono","no","18","no","white","no","yes","768","legacy","77","77","C:/Users/joey.knofczynski/Downloads/subject-3.csv","legacy","Lentiform Loewenfeld","3.3.12","yes","0","h","h","NA","NA","h","NA","602","1855","NA","NA","602","NA","2","legacy","1024","2","48000","-16","experiment","HHHHH","3","odd","4081","NA","NA","2225","NA","NA","77947","2217","NA","140199","139143","140301","140904","NA","140195","140301","Lab 2.1","75","45701","78","yes","1024"
"96.20253164556962","96.20253164556962","584.8607594936709","584.8607594936709","black","legacy","legacy","legacy","0","congruent","uniform","1","undefined","1","h","0","0","0","0","0","0","78","0","78","78","78","78","78","0","78","78","Fri Sep 23 19:24:31 2022","1500","The main experiment item","yes","lab_2.1.osexp","C:\Users\joey.knofczynski\Downloads","no","mono","no","18","no","white","no","yes","768","legacy","78","78","C:/Users/joey.knofczynski/Downloads/subject-3.csv","legacy","Lentiform Loewenfeld","3.3.12","yes","0","h","h","NA","NA","h","NA","503","1855","NA","NA","503","NA","2","legacy","1024","2","48000","-16","experiment","HHHHH","3","odd","4081","NA","NA","2225","NA","NA","77947","2217","NA","141965","140908","142067","142571","NA","141962","142067","Lab 2.1","76","46204","79","yes","1024"
"96.25","96.25","584.6125","584.6125","black","legacy","legacy","legacy","0","congruent","uniform","1","undefined","1","h","0","0","0","0","0","0","79","0","79","79","79","79","79","0","79","79","Fri Sep 23 19:24:31 2022","1500","The main experiment item","yes","lab_2.1.osexp","C:\Users\joey.knofczynski\Downloads","no","mono","no","18","no","white","no","yes","768","legacy","79","79","C:/Users/joey.knofczynski/Downloads/subject-3.csv","legacy","Lentiform Loewenfeld","3.3.12","yes","0","h","h","NA","NA","h","NA","565","1855","NA","NA","565","NA","2","legacy","1024","2","48000","-16","experiment","HHHHH","3","odd","4081","NA","NA","2225","NA","NA","77947","2217","NA","143629","142575","143731","144297","NA","143626","143731","Lab 2.1","77","46769","80","yes","1024"
"96.29629629629629","96.29629629629629","587.2098765432099","587.2098765432099","black","legacy","legacy","legacy","0","congruent","uniform","1","undefined","1","s","0","0","0","0","0","0","80","0","80","80","80","80","80","0","80","80","Fri Sep 23 19:24:31 2022","600","The main experiment item","yes","lab_2.1.osexp","C:\Users\joey.knofczynski\Downloads","no","mono","no","18","no","white","no","yes","768","legacy","0","79","C:/Users/joey.knofczynski/Downloads/subject-3.csv","legacy","Lentiform Loewenfeld","3.3.12","yes","0","s","h","h","NA","s","NA","795","1855","1103","NA","795","NA","2","legacy","1024","2","48000","-16","experiment","SSSSS","3","odd","4081","146423","NA","2225","145319","NA","77947","2217","NA","146463","144301","146567","147363","NA","146460","146567","Lab 2.1","78","47564","81","yes","1024"
"96.34146341463415","96.34146341463415","585.0975609756098","585.0975609756098","black","legacy","legacy","legacy","0","congruent","uniform","1","undefined","1","h","0","0","0","0","0","0","81","0","81","81","81","81","81","0","81","81","Fri Sep 23 19:24:31 2022","600","The main experiment item","yes","lab_2.1.osexp","C:\Users\joey.knofczynski\Downloads","no","mono","no","18","no","white","no","yes","768","legacy","1","79","C:/Users/joey.knofczynski/Downloads/subject-3.csv","legacy","Lentiform Loewenfeld","3.3.12","yes","0","h","h","h","NA","h","NA","414","1855","1103","NA","414","NA","2","legacy","1024","2","48000","-16","experiment","HHHHH","3","odd","4081","146423","NA","2225","145319","NA","77947","2217","147367","148922","147869","149024","149439","NA","148918","149024","Lab 2.1","79","47978","82","yes","1024"
"96.3855421686747","96.3855421686747","585.5060240963855","585.5060240963855","black","legacy","legacy","legacy","0","incongruent","uniform","1","undefined","1","h","0","0","0","0","0","0","82","0","82","82","82","82","82","0","82","82","Fri Sep 23 19:24:31 2022","600","The main experiment item","yes","lab_2.1.osexp","C:\Users\joey.knofczynski\Downloads","no","mono","no","18","no","white","no","yes","768","legacy","2","79","C:/Users/joey.knofczynski/Downloads/subject-3.csv","legacy","Lentiform Loewenfeld","3.3.12","yes","0","h","h","h","NA","h","NA","619","1855","1103","NA","619","NA","2","legacy","1024","2","48000","-16","experiment","SSHSS","3","odd","4081","146423","NA","2225","145319","NA","77947","2217","147367","150498","149444","150600","151220","NA","150495","150600","Lab 2.1","80","48597","83","yes","1024"
"96.42857142857143","96.42857142857143","582.9761904761905","582.9761904761905","black","legacy","legacy","legacy","0","congruent","uniform","1","undefined","1","h","0","0","0","0","0","0","83","0","83","83","83","83","83","0","83","83","Fri Sep 23 19:24:31 2022","600","The main experiment item","yes","lab_2.1.osexp","C:\Users\joey.knofczynski\Downloads","no","mono","no","18","no","white","no","yes","768","legacy","3","79","C:/Users/joey.knofczynski/Downloads/subject-3.csv","legacy","Lentiform Loewenfeld","3.3.12","yes","0","h","h","h","NA","h","NA","373","1855","1103","NA","373","NA","2","legacy","1024","2","48000","-16","experiment","HHHHH","3","odd","4081","146423","NA","2225","145319","NA","77947","2217","151224","152777","151725","152879","153252","NA","152774","152879","Lab 2.1","81","48970","84","yes","1024"
"95.29411764705883","95.29411764705883","579.964705882353","579.964705882353","black","legacy","legacy","legacy","0","incongruent","uniform","0","undefined","0","h","0","0","0","0","0","0","84","0","84","84","84","84","84","0","84","84","Fri Sep 23 19:24:31 2022","600","The main experiment item","yes","lab_2.1.osexp","C:\Users\joey.knofczynski\Downloads","no","mono","no","18","no","white","no","yes","768","legacy","4","79","C:/Users/joey.knofczynski/Downloads/subject-3.csv","legacy","Lentiform Loewenfeld","3.3.12","yes","0","s","h","h","NA","s","NA","327","1855","1103","NA","327","NA","2","legacy","1024","2","48000","-16","experiment","SSHSS","3","odd","4081","146423","NA","2225","145319","NA","77947","2217","151224","154316","153256","154417","154745","NA","154312","154417","Lab 2.1","81","49297","85","yes","1024"
"95.34883720930233","95.34883720930233","577.3023255813954","577.3023255813954","black","legacy","legacy","legacy","0","congruent","uniform","1","undefined","1","h","0","0","0","0","0","0","85","0","85","85","85","85","85","0","85","85","Fri Sep 23 19:24:31 2022","600","The main experiment item","yes","lab_2.1.osexp","C:\Users\joey.knofczynski\Downloads","no","mono","no","18","no","white","no","yes","768","legacy","5","79","C:/Users/joey.knofczynski/Downloads/subject-3.csv","legacy","Lentiform Loewenfeld","3.3.12","yes","0","h","h","h","NA","h","NA","351","1855","1103","NA","351","NA","2","legacy","1024","2","48000","-16","experiment","HHHHH","3","odd","4081","146423","NA","2225","145319","NA","154749","2217","151224","156306","155251","156407","156760","NA","156303","156407","Lab 2.1","82","49648","86","yes","1024"
"95.40229885057471","95.40229885057471","576.1149425287356","576.1149425287356","black","legacy","legacy","legacy","0","incongruent","uniform","1","undefined","1","s","0","0","0","0","0","0","86","0","86","86","86","86","86","0","86","86","Fri Sep 23 19:24:31 2022","600","The main experiment item","yes","lab_2.1.osexp","C:\Users\joey.knofczynski\Downloads","no","mono","no","18","no","white","no","yes","768","legacy","6","79","C:/Users/joey.knofczynski/Downloads/subject-3.csv","legacy","Lentiform Loewenfeld","3.3.12","yes","0","s","h","h","NA","s","NA","474","1855","1103","NA","474","NA","2","legacy","1024","2","48000","-16","experiment","HHSHH","3","odd","4081","146423","NA","2225","145319","NA","154749","2217","151224","157818","156764","157919","158394","NA","157814","157919","Lab 2.1","83","50122","87","yes","1024"
"95.45454545454545","95.45454545454545","574.3409090909091","574.3409090909091","black","legacy","legacy","legacy","0","congruent","uniform","1","undefined","1","h","0","0","0","0","0","0","87","0","87","87","87","87","87","0","87","87","Fri Sep 23 19:24:31 2022","600","The main experiment item","yes","lab_2.1.osexp","C:\Users\joey.knofczynski\Downloads","no","mono","no","18","no","white","no","yes","768","legacy","7","79","C:/Users/joey.knofczynski/Downloads/subject-3.csv","legacy","Lentiform Loewenfeld","3.3.12","yes","0","h","h","h","NA","h","NA","420","1855","1103","NA","420","NA","2","legacy","1024","2","48000","-16","experiment","HHHHH","3","odd","4081","146423","NA","2225","145319","NA","154749","2217","151224","159452","158398","159553","159974","NA","159448","159553","Lab 2.1","84","50542","88","yes","1024"
"95.50561797752809","95.50561797752809","573.2921348314607","573.2921348314607","black","legacy","legacy","legacy","0","incongruent","uniform","1","undefined","1","h","0","0","0","0","0","0","88","0","88","88","88","88","88","0","88","88","Fri Sep 23 19:24:31 2022","600","The main experiment item","yes","lab_2.1.osexp","C:\Users\joey.knofczynski\Downloads","no","mono","no","18","no","white","no","yes","768","legacy","8","79","C:/Users/joey.knofczynski/Downloads/subject-3.csv","legacy","Lentiform Loewenfeld","3.3.12","yes","0","h","h","h","NA","h","NA","481","1855","1103","NA","481","NA","2","legacy","1024","2","48000","-16","experiment","SSHSS","3","odd","4081","146423","NA","2225","145319","NA","154749","2217","151224","161032","159978","161133","161616","NA","161029","161133","Lab 2.1","85","51023","89","yes","1024"
"95.55555555555556","95.55555555555556","571.9444444444445","571.9444444444445","black","legacy","legacy","legacy","0","congruent","uniform","1","undefined","1","s","0","0","0","0","0","0","89","0","89","89","89","89","89","0","89","89","Fri Sep 23 19:24:31 2022","600","The main experiment item","yes","lab_2.1.osexp","C:\Users\joey.knofczynski\Downloads","no","mono","no","18","no","white","no","yes","768","legacy","9","79","C:/Users/joey.knofczynski/Downloads/subject-3.csv","legacy","Lentiform Loewenfeld","3.3.12","yes","0","s","h","h","NA","s","NA","452","1855","1103","NA","452","NA","2","legacy","1024","2","48000","-16","experiment","SSSSS","3","odd","4081","146423","NA","2225","145319","NA","154749","2217","151224","162673","161620","162775","163228","NA","162670","162774","Lab 2.1","86","51475","90","yes","1024"
"95.6043956043956","95.6043956043956","570.2417582417582","570.2417582417582","black","legacy","legacy","legacy","0","congruent","uniform","1","undefined","1","s","0","0","0","0","0","0","90","0","90","90","90","90","90","0","90","90","Fri Sep 23 19:24:31 2022","600","The main experiment item","yes","lab_2.1.osexp","C:\Users\joey.knofczynski\Downloads","no","mono","no","18","no","white","no","yes","768","legacy","10","79","C:/Users/joey.knofczynski/Downloads/subject-3.csv","legacy","Lentiform Loewenfeld","3.3.12","yes","0","s","h","h","NA","s","NA","417","1855","1103","NA","417","NA","2","legacy","1024","2","48000","-16","experiment","SSSSS","3","odd","4081","146423","NA","2225","145319","NA","154749","2217","151224","164288","163232","164389","164807","NA","164284","164389","Lab 2.1","87","51892","91","yes","1024"
"95.65217391304348","95.65217391304348","569.9347826086956","569.9347826086956","black","legacy","legacy","legacy","0","incongruent","uniform","1","undefined","1","s","0","0","0","0","0","0","91","0","91","91","91","91","91","0","91","91","Fri Sep 23 19:24:31 2022","600","The main experiment item","yes","lab_2.1.osexp","C:\Users\joey.knofczynski\Downloads","no","mono","no","18","no","white","no","yes","768","legacy","11","79","C:/Users/joey.knofczynski/Downloads/subject-3.csv","legacy","Lentiform Loewenfeld","3.3.12","yes","0","s","h","h","NA","s","NA","542","1855","1103","NA","542","NA","2","legacy","1024","2","48000","-16","experiment","HHSHH","3","odd","4081","146423","NA","2225","145319","NA","154749","2217","151224","165865","164811","165968","166511","NA","165863","165967","Lab 2.1","88","52434","92","yes","1024"
"95.6989247311828","95.6989247311828","568.483870967742","568.483870967742","black","legacy","legacy","legacy","0","incongruent","uniform","1","undefined","1","s","0","0","0","0","0","0","92","0","92","92","92","92","92","0","92","92","Fri Sep 23 19:24:31 2022","600","The main experiment item","yes","lab_2.1.osexp","C:\Users\joey.knofczynski\Downloads","no","mono","no","18","no","white","no","yes","768","legacy","12","79","C:/Users/joey.knofczynski/Downloads/subject-3.csv","legacy","Lentiform Loewenfeld","3.3.12","yes","0","s","h","h","NA","s","NA","435","1855","1103","NA","435","NA","2","legacy","1024","2","48000","-16","experiment","HHSHH","3","odd","4081","146423","NA","2225","145319","NA","154749","2217","151224","167569","166515","167671","168107","NA","167567","167671","Lab 2.1","89","52869","93","yes","1024"
"95.74468085106383","95.74468085106383","567.436170212766","567.436170212766","black","legacy","legacy","legacy","0","incongruent","uniform","1","undefined","1","s","0","0","0","0","0","0","93","0","93","93","93","93","93","0","93","93","Fri Sep 23 19:24:31 2022","600","The main experiment item","yes","lab_2.1.osexp","C:\Users\joey.knofczynski\Downloads","no","mono","no","18","no","white","no","yes","768","legacy","13","79","C:/Users/joey.knofczynski/Downloads/subject-3.csv","legacy","Lentiform Loewenfeld","3.3.12","yes","0","s","h","h","NA","s","NA","470","1855","1103","NA","470","NA","2","legacy","1024","2","48000","-16","experiment","HHSHH","3","odd","4081","146423","NA","2225","145319","NA","154749","2217","151224","169169","168112","169270","169741","NA","169164","169270","Lab 2.1","90","53339","94","yes","1024"
"95.78947368421052","95.78947368421052","565.5894736842105","565.5894736842105","black","legacy","legacy","legacy","0","congruent","uniform","1","undefined","1","s","0","0","0","0","0","0","94","0","94","94","94","94","94","0","94","94","Fri Sep 23 19:24:31 2022","600","The main experiment item","yes","lab_2.1.osexp","C:\Users\joey.knofczynski\Downloads","no","mono","no","18","no","white","no","yes","768","legacy","14","79","C:/Users/joey.knofczynski/Downloads/subject-3.csv","legacy","Lentiform Loewenfeld","3.3.12","yes","0","s","h","h","NA","s","NA","392","1855","1103","NA","392","NA","2","legacy","1024","2","48000","-16","experiment","SSSSS","3","odd","4081","146423","NA","2225","145319","NA","154749","2217","151224","170799","169745","170901","171294","NA","170796","170901","Lab 2.1","91","53731","95","yes","1024"
"95.83333333333333","95.83333333333333","564.2604166666666","564.2604166666666","black","legacy","legacy","legacy","0","congruent","uniform","1","undefined","1","s","0","0","0","0","0","0","95","0","95","95","95","95","95","0","95","95","Fri Sep 23 19:24:31 2022","600","The main experiment item","yes","lab_2.1.osexp","C:\Users\joey.knofczynski\Downloads","no","mono","no","18","no","white","no","yes","768","legacy","15","79","C:/Users/joey.knofczynski/Downloads/subject-3.csv","legacy","Lentiform Loewenfeld","3.3.12","yes","0","s","h","h","NA","s","NA","438","1855","1103","NA","438","NA","2","legacy","1024","2","48000","-16","experiment","SSSSS","3","odd","4081","146423","NA","2225","145319","NA","154749","2217","151224","172354","171298","172455","172894","NA","172350","172455","Lab 2.1","92","54169","96","yes","1024"
"95.87628865979381","95.87628865979381","564.1855670103092","564.1855670103092","black","legacy","legacy","legacy","0","congruent","uniform","1","undefined","1","h","0","0","0","0","0","0","96","0","96","96","96","96","96","0","96","96","Fri Sep 23 19:24:31 2022","600","The main experiment item","yes","lab_2.1.osexp","C:\Users\joey.knofczynski\Downloads","no","mono","no","18","no","white","no","yes","768","legacy","16","79","C:/Users/joey.knofczynski/Downloads/subject-3.csv","legacy","Lentiform Loewenfeld","3.3.12","yes","0","h","h","h","NA","h","NA","557","1855","1103","NA","557","NA","2","legacy","1024","2","48000","-16","experiment","HHHHH","3","odd","4081","146423","NA","2225","145319","NA","154749","2217","151224","173953","172898","174055","174613","NA","173950","174055","Lab 2.1","93","54726","97","yes","1024"
"95.91836734693878","95.91836734693878","564.6632653061224","564.6632653061224","black","legacy","legacy","legacy","0","incongruent","uniform","1","undefined","1","s","0","0","0","0","0","0","97","0","97","97","97","97","97","0","97","97","Fri Sep 23 19:24:31 2022","600","The main experiment item","yes","lab_2.1.osexp","C:\Users\joey.knofczynski\Downloads","no","mono","no","18","no","white","no","yes","768","legacy","17","79","C:/Users/joey.knofczynski/Downloads/subject-3.csv","legacy","Lentiform Loewenfeld","3.3.12","yes","0","s","h","h","NA","s","NA","611","1855","1103","NA","611","NA","2","legacy","1024","2","48000","-16","experiment","HHSHH","3","odd","4081","146423","NA","2225","145319","NA","154749","2217","151224","175674","174618","175776","176388","NA","175669","175776","Lab 2.1","94","55337","98","yes","1024"
"95.95959595959596","95.95959595959596","563.3232323232323","563.3232323232323","black","legacy","legacy","legacy","0","congruent","uniform","1","undefined","1","s","0","0","0","0","0","0","98","0","98","98","98","98","98","0","98","98","Fri Sep 23 19:24:31 2022","600","The main experiment item","yes","lab_2.1.osexp","C:\Users\joey.knofczynski\Downloads","no","mono","no","18","no","white","no","yes","768","legacy","18","79","C:/Users/joey.knofczynski/Downloads/subject-3.csv","legacy","Lentiform Loewenfeld","3.3.12","yes","0","s","h","h","NA","s","NA","432","1855","1103","NA","432","NA","2","legacy","1024","2","48000","-16","experiment","SSSSS","3","odd","4081","146423","NA","2225","145319","NA","154749","2217","176393","177948","176895","178049","178482","NA","177945","178049","Lab 2.1","95","55769","99","yes","1024"
"96","96","564.45","564.45","black","legacy","legacy","legacy","0","congruent","uniform","1","undefined","1","s","0","0","0","0","0","0","99","0","99","99","99","99","99","0","99","99","Fri Sep 23 19:24:31 2022","600","The main experiment item","yes","lab_2.1.osexp","C:\Users\joey.knofczynski\Downloads","no","mono","no","18","no","white","no","yes","768","legacy","19","79","C:/Users/joey.knofczynski/Downloads/subject-3.csv","legacy","Lentiform Loewenfeld","3.3.12","yes","0","s","h","h","NA","s","NA","676","1855","1103","NA","676","NA","2","legacy","1024","2","48000","-16","experiment","SSSSS","3","odd","4081","146423","NA","2225","145319","NA","154749","2217","176393","179539","178486","179641","180318","NA","179537","179641","Lab 2.1","96","56445","100","yes","1024"
"96.03960396039604","96.03960396039604","563.7326732673267","563.7326732673267","black","legacy","legacy","legacy","0","incongruent","uniform","1","undefined","1","h","0","0","0","0","0","0","100","0","100","100","100","100","100","0","100","100","Fri Sep 23 19:24:31 2022","600","The main experiment item","yes","lab_2.1.osexp","C:\Users\joey.knofczynski\Downloads","no","mono","no","18","no","white","no","yes","768","legacy","20","79","C:/Users/joey.knofczynski/Downloads/subject-3.csv","legacy","Lentiform Loewenfeld","3.3.12","yes","0","h","h","h","NA","h","NA","492","1855","1103","NA","492","NA","2","legacy","1024","2","48000","-16","experiment","SSHSS","3","odd","4081","146423","NA","2225","145319","NA","154749","2217","180322","181875","180823","181977","182471","NA","181872","181977","Lab 2.1","97","56937","101","yes","1024"
"96.07843137254902","96.07843137254902","562.5098039215686","562.5098039215686","black","legacy","legacy","legacy","0","congruent","uniform","1","undefined","1","h","0","0","0","0","0","0","101","0","101","101","101","101","101","0","101","101","Fri Sep 23 19:24:31 2022","600","The main experiment item","yes","lab_2.1.osexp","C:\Users\joey.knofczynski\Downloads","no","mono","no","18","no","white","no","yes","768","legacy","21","79","C:/Users/joey.knofczynski/Downloads/subject-3.csv","legacy","Lentiform Loewenfeld","3.3.12","yes","0","h","h","h","NA","h","NA","439","1855","1103","NA","439","NA","2","legacy","1024","2","48000","-16","experiment","HHHHH","3","odd","4081","146423","NA","2225","145319","NA","154749","2217","180322","183528","182475","183630","184070","NA","183526","183630","Lab 2.1","98","57376","102","yes","1024"
"96.11650485436893","96.11650485436893","562.2233009708738","562.2233009708738","black","legacy","legacy","legacy","0","incongruent","uniform","1","undefined","1","h","0","0","0","0","0","0","102","0","102","102","102","102","102","0","102","102","Fri Sep 23 19:24:31 2022","600","The main experiment item","yes","lab_2.1.osexp","C:\Users\joey.knofczynski\Downloads","no","mono","no","18","no","white","no","yes","768","legacy","22","79","C:/Users/joey.knofczynski/Downloads/subject-3.csv","legacy","Lentiform Loewenfeld","3.3.12","yes","0","h","h","h","NA","h","NA","533","1855","1103","NA","533","NA","2","legacy","1024","2","48000","-16","experiment","SSHSS","3","odd","4081","146423","NA","2225","145319","NA","154749","2217","180322","185132","184074","185234","185768","NA","185129","185234","Lab 2.1","99","57909","103","yes","1024"
"96.15384615384616","96.15384615384616","562.9519230769231","562.9519230769231","black","legacy","legacy","legacy","0","incongruent","uniform","1","undefined","1","h","0","0","0","0","0","0","103","0","103","103","103","103","103","0","103","103","Fri Sep 23 19:24:31 2022","600","The main experiment item","yes","lab_2.1.osexp","C:\Users\joey.knofczynski\Downloads","no","mono","no","18","no","white","no","yes","768","legacy","23","79","C:/Users/joey.knofczynski/Downloads/subject-3.csv","legacy","Lentiform Loewenfeld","3.3.12","yes","0","h","h","h","NA","h","NA","638","1855","1103","NA","638","NA","2","legacy","1024","2","48000","-16","experiment","SSHSS","3","odd","4081","146423","NA","2225","145319","NA","154749","2217","180322","186828","185773","186929","187568","NA","186824","186929","Lab 2.1","100","58547","104","yes","1024"
"96.19047619047619","96.19047619047619","561.9428571428572","561.9428571428572","black","legacy","legacy","legacy","0","incongruent","uniform","1","undefined","1","h","0","0","0","0","0","0","104","0","104","104","104","104","104","0","104","104","Fri Sep 23 19:24:31 2022","600","The main experiment item","yes","lab_2.1.osexp","C:\Users\joey.knofczynski\Downloads","no","mono","no","18","no","white","no","yes","768","legacy","24","79","C:/Users/joey.knofczynski/Downloads/subject-3.csv","legacy","Lentiform Loewenfeld","3.3.12","yes","0","h","h","h","NA","h","NA","457","1855","1103","NA","457","NA","2","legacy","1024","2","48000","-16","experiment","SSHSS","3","odd","4081","146423","NA","2225","145319","NA","154749","2217","187572","189127","188073","189230","189688","NA","189125","189230","Lab 2.1","101","59004","105","yes","1024"
"96.22641509433963","96.22641509433963","560.0566037735849","560.0566037735849","black","legacy","legacy","legacy","0","congruent","uniform","1","undefined","1","h","0","0","0","0","0","0","105","0","105","105","105","105","105","0","105","105","Fri Sep 23 19:24:31 2022","600","The main experiment item","yes","lab_2.1.osexp","C:\Users\joey.knofczynski\Downloads","no","mono","no","18","no","white","no","yes","768","legacy","25","79","C:/Users/joey.knofczynski/Downloads/subject-3.csv","legacy","Lentiform Loewenfeld","3.3.12","yes","0","h","h","h","NA","h","NA","362","1855","1103","NA","362","NA","2","legacy","1024","2","48000","-16","experiment","HHHHH","3","odd","4081","146423","NA","2225","145319","NA","154749","2217","187572","190748","189692","190849","191213","NA","190746","190849","Lab 2.1","102","59366","106","yes","1024"
"96.26168224299066","96.26168224299066","564.8971962616822","564.8971962616822","black","legacy","legacy","legacy","0","congruent","uniform","1","undefined","1","s","0","0","0","0","0","0","106","0","106","106","106","106","106","0","106","106","Fri Sep 23 19:24:31 2022","600","The main experiment item","yes","lab_2.1.osexp","C:\Users\joey.knofczynski\Downloads","no","mono","no","18","no","white","no","yes","768","legacy","26","79","C:/Users/joey.knofczynski/Downloads/subject-3.csv","legacy","Lentiform Loewenfeld","3.3.12","yes","0","s","h","h","NA","s","NA","1078","1855","1103","NA","1078","NA","2","legacy","1024","2","48000","-16","experiment","SSSSS","3","odd","4081","146423","NA","2225","145319","NA","154749","2217","187572","192270","191218","192371","193451","NA","192267","192371","Lab 2.1","103","60444","107","yes","1024"
"96.29629629629629","96.29629629629629","566.4074074074074","566.4074074074074","black","legacy","legacy","legacy","0","incongruent","uniform","1","undefined","1","s","0","0","0","0","0","0","107","0","107","107","107","107","107","0","107","107","Fri Sep 23 19:24:31 2022","600","The main experiment item","yes","lab_2.1.osexp","C:\Users\joey.knofczynski\Downloads","no","mono","no","18","no","white","no","yes","768","legacy","27","79","C:/Users/joey.knofczynski/Downloads/subject-3.csv","legacy","Lentiform Loewenfeld","3.3.12","yes","0","s","h","h","NA","s","NA","728","1855","1103","NA","728","NA","2","legacy","1024","2","48000","-16","experiment","HHSHH","3","odd","4081","146423","NA","2225","145319","NA","154749","2217","193455","195008","193956","195109","195838","NA","195006","195109","Lab 2.1","104","61172","108","yes","1024"
"96.3302752293578","96.3302752293578","565.8623853211009","565.8623853211009","black","legacy","legacy","legacy","0","incongruent","uniform","1","undefined","1","s","0","0","0","0","0","0","108","0","108","108","108","108","108","0","108","108","Fri Sep 23 19:24:31 2022","600","The main experiment item","yes","lab_2.1.osexp","C:\Users\joey.knofczynski\Downloads","no","mono","no","18","no","white","no","yes","768","legacy","28","79","C:/Users/joey.knofczynski/Downloads/subject-3.csv","legacy","Lentiform Loewenfeld","3.3.12","yes","0","s","h","h","NA","s","NA","507","1855","1103","NA","507","NA","2","legacy","1024","2","48000","-16","experiment","HHSHH","3","odd","4081","146423","NA","2225","145319","NA","154749","2217","195842","197396","196343","197499","198007","NA","197393","197499","Lab 2.1","105","61679","109","yes","1024"
"96.36363636363636","96.36363636363636","564.8818181818182","564.8818181818182","black","legacy","legacy","legacy","0","congruent","uniform","1","undefined","1","h","0","0","0","0","0","0","109","0","109","109","109","109","109","0","109","109","Fri Sep 23 19:24:31 2022","600","The main experiment item","yes","lab_2.1.osexp","C:\Users\joey.knofczynski\Downloads","no","mono","no","18","no","white","no","yes","768","legacy","29","79","C:/Users/joey.knofczynski/Downloads/subject-3.csv","legacy","Lentiform Loewenfeld","3.3.12","yes","0","h","h","h","NA","h","NA","458","1855","1103","NA","458","NA","2","legacy","1024","2","48000","-16","experiment","HHHHH","3","odd","4081","146423","NA","2225","145319","NA","154749","2217","195842","199063","198011","199165","199623","NA","199060","199165","Lab 2.1","106","62137","110","yes","1024"
"96.3963963963964","96.3963963963964","564.2432432432432","564.2432432432432","black","legacy","legacy","legacy","0","congruent","uniform","1","undefined","1","h","0","0","0","0","0","0","110","0","110","110","110","110","110","0","110","110","Fri Sep 23 19:24:31 2022","600","The main experiment item","yes","lab_2.1.osexp","C:\Users\joey.knofczynski\Downloads","no","mono","no","18","no","white","no","yes","768","legacy","30","79","C:/Users/joey.knofczynski/Downloads/subject-3.csv","legacy","Lentiform Loewenfeld","3.3.12","yes","0","h","h","h","NA","h","NA","494","1855","1103","NA","494","NA","2","legacy","1024","2","48000","-16","experiment","HHHHH","3","odd","4081","146423","NA","2225","145319","NA","154749","2217","195842","200684","199628","200786","201281","NA","200681","200786","Lab 2.1","107","62631","111","yes","1024"
"96.42857142857143","96.42857142857143","563.4196428571429","563.4196428571429","black","legacy","legacy","legacy","0","congruent","uniform","1","undefined","1","h","0","0","0","0","0","0","111","0","111","111","111","111","111","0","111","111","Fri Sep 23 19:24:31 2022","600","The main experiment item","yes","lab_2.1.osexp","C:\Users\joey.knofczynski\Downloads","no","mono","no","18","no","white","no","yes","768","legacy","31","79","C:/Users/joey.knofczynski/Downloads/subject-3.csv","legacy","Lentiform Loewenfeld","3.3.12","yes","0","h","h","h","NA","h","NA","472","1855","1103","NA","472","NA","2","legacy","1024","2","48000","-16","experiment","HHHHH","3","odd","4081","146423","NA","2225","145319","NA","154749","2217","195842","202337","201284","202440","202914","NA","202334","202440","Lab 2.1","108","63103","112","yes","1024"
"95.57522123893806","95.57522123893806","564.1592920353983","564.1592920353983","black","legacy","legacy","legacy","0","incongruent","uniform","0","undefined","0","h","0","0","0","0","0","0","112","0","112","112","112","112","112","0","112","112","Fri Sep 23 19:24:31 2022","600","The main experiment item","yes","lab_2.1.osexp","C:\Users\joey.knofczynski\Downloads","no","mono","no","18","no","white","no","yes","768","legacy","32","79","C:/Users/joey.knofczynski/Downloads/subject-3.csv","legacy","Lentiform Loewenfeld","3.3.12","yes","0","s","h","h","NA","s","NA","647","1855","1103","NA","647","NA","2","legacy","1024","2","48000","-16","experiment","SSHSS","3","odd","4081","146423","NA","2225","145319","NA","154749","2217","195842","203971","202918","204073","204720","NA","203968","204073","Lab 2.1","108","63750","113","yes","1024"
"95.6140350877193","95.6140350877193","563.140350877193","563.140350877193","black","legacy","legacy","legacy","0","congruent","uniform","1","undefined","1","h","0","0","0","0","0","0","113","0","113","113","113","113","113","0","113","113","Fri Sep 23 19:24:31 2022","600","The main experiment item","yes","lab_2.1.osexp","C:\Users\joey.knofczynski\Downloads","no","mono","no","18","no","white","no","yes","768","legacy","33","79","C:/Users/joey.knofczynski/Downloads/subject-3.csv","legacy","Lentiform Loewenfeld","3.3.12","yes","0","h","h","h","NA","h","NA","448","1855","1103","NA","448","NA","2","legacy","1024","2","48000","-16","experiment","HHHHH","3","odd","4081","146423","NA","2225","145319","NA","204725","2217","205226","206782","205727","206884","207333","NA","206780","206884","Lab 2.1","109","64198","114","yes","1024"
"95.65217391304348","95.65217391304348","563.8347826086956","563.8347826086956","black","legacy","legacy","legacy","0","incongruent","uniform","1","undefined","1","s","0","0","0","0","0","0","114","0","114","114","114","114","114","0","114","114","Fri Sep 23 19:24:31 2022","600","The main experiment item","yes","lab_2.1.osexp","C:\Users\joey.knofczynski\Downloads","no","mono","no","18","no","white","no","yes","768","legacy","34","79","C:/Users/joey.knofczynski/Downloads/subject-3.csv","legacy","Lentiform Loewenfeld","3.3.12","yes","0","s","h","h","NA","s","NA","643","1855","1103","NA","643","NA","2","legacy","1024","2","48000","-16","experiment","HHSHH","3","odd","4081","146423","NA","2225","145319","NA","204725","2217","205226","208407","207337","208509","209154","NA","208404","208509","Lab 2.1","110","64841","115","yes","1024"
"95.6896551724138","95.6896551724138","562.9741379310345","562.9741379310345","black","legacy","legacy","legacy","0","congruent","uniform","1","undefined","1","s","0","0","0","0","0","0","115","0","115","115","115","115","115","0","115","115","Fri Sep 23 19:24:31 2022","600","The main experiment item","yes","lab_2.1.osexp","C:\Users\joey.knofczynski\Downloads","no","mono","no","18","no","white","no","yes","768","legacy","35","79","C:/Users/joey.knofczynski/Downloads/subject-3.csv","legacy","Lentiform Loewenfeld","3.3.12","yes","0","s","h","h","NA","s","NA","464","1855","1103","NA","464","NA","2","legacy","1024","2","48000","-16","experiment","SSSSS","3","odd","4081","146423","NA","2225","145319","NA","204725","2217","209158","210713","209660","210816","211281","NA","210711","210815","Lab 2.1","111","65305","116","yes","1024"
"95.72649572649573","95.72649572649573","562.5299145299145","562.5299145299145","black","legacy","legacy","legacy","0","incongruent","uniform","1","undefined","1","h","0","0","0","0","0","0","116","0","116","116","116","116","116","0","116","116","Fri Sep 23 19:24:31 2022","600","The main experiment item","yes","lab_2.1.osexp","C:\Users\joey.knofczynski\Downloads","no","mono","no","18","no","white","no","yes","768","legacy","36","79","C:/Users/joey.knofczynski/Downloads/subject-3.csv","legacy","Lentiform Loewenfeld","3.3.12","yes","0","h","h","h","NA","h","NA","511","1855","1103","NA","511","NA","2","legacy","1024","2","48000","-16","experiment","SSHSS","3","odd","4081","146423","NA","2225","145319","NA","204725","2217","209158","212341","211284","212443","212955","NA","212337","212443","Lab 2.1","112","65816","117","yes","1024"
"95.76271186440678","95.76271186440678","561.7542372881356","561.7542372881356","black","legacy","legacy","legacy","0","incongruent","uniform","1","undefined","1","s","0","0","0","0","0","0","117","0","117","117","117","117","117","0","117","117","Fri Sep 23 19:24:31 2022","600","The main experiment item","yes","lab_2.1.osexp","C:\Users\joey.knofczynski\Downloads","no","mono","no","18","no","white","no","yes","768","legacy","37","79","C:/Users/joey.knofczynski/Downloads/subject-3.csv","legacy","Lentiform Loewenfeld","3.3.12","yes","0","s","h","h","NA","s","NA","471","1855","1103","NA","471","NA","2","legacy","1024","2","48000","-16","experiment","HHSHH","3","odd","4081","146423","NA","2225","145319","NA","204725","2217","209158","214020","212959","214123","214595","NA","214015","214123","Lab 2.1","113","66287","118","yes","1024"
"95.7983193277311","95.7983193277311","561.5378151260504","561.5378151260504","black","legacy","legacy","legacy","0","incongruent","uniform","1","undefined","1","h","0","0","0","0","0","0","118","0","118","118","118","118","118","0","118","118","Fri Sep 23 19:24:31 2022","600","The main experiment item","yes","lab_2.1.osexp","C:\Users\joey.knofczynski\Downloads","no","mono","no","18","no","white","no","yes","768","legacy","38","79","C:/Users/joey.knofczynski/Downloads/subject-3.csv","legacy","Lentiform Loewenfeld","3.3.12","yes","0","h","h","h","NA","h","NA","536","1855","1103","NA","536","NA","2","legacy","1024","2","48000","-16","experiment","SSHSS","3","odd","4081","146423","NA","2225","145319","NA","204725","2217","209158","215656","214599","215758","216295","NA","215651","215758","Lab 2.1","114","66823","119","yes","1024"
"95","95","560.9916666666667","560.9916666666667","black","legacy","legacy","legacy","0","incongruent","uniform","0","undefined","0","h","0","0","0","0","0","0","119","0","119","119","119","119","119","0","119","119","Fri Sep 23 19:24:31 2022","600","The main experiment item","yes","lab_2.1.osexp","C:\Users\joey.knofczynski\Downloads","no","mono","no","18","no","white","no","yes","768","legacy","39","79","C:/Users/joey.knofczynski/Downloads/subject-3.csv","legacy","Lentiform Loewenfeld","3.3.12","yes","0","s","h","h","NA","s","NA","496","1855","1103","NA","496","NA","2","legacy","1024","2","48000","-16","experiment","SSHSS","3","odd","4081","146423","NA","2225","145319","NA","204725","2217","209158","217356","216299","217458","217955","NA","217350","217458","Lab 2.1","114","67319","120","yes","1024"
"95.04132231404958","95.04132231404958","559.9504132231405","559.9504132231405","black","legacy","legacy","legacy","0","congruent","uniform","1","undefined","1","s","0","0","0","0","0","0","120","0","120","120","120","120","120","0","120","120","Fri Sep 23 19:24:31 2022","600","The main experiment item","yes","lab_2.1.osexp","C:\Users\joey.knofczynski\Downloads","no","mono","no","18","no","white","no","yes","768","legacy","40","79","C:/Users/joey.knofczynski/Downloads/subject-3.csv","legacy","Lentiform Loewenfeld","3.3.12","yes","0","s","h","h","NA","s","NA","435","1855","1103","NA","435","NA","2","legacy","1024","2","48000","-16","experiment","SSSSS","3","odd","4081","146423","NA","2225","145319","NA","217959","2217","209158","219512","218460","219614","220050","NA","219510","219614","Lab 2.1","115","67754","121","yes","1024"
