"acc","accuracy","average_response_time","avg_rt","background","canvas_backend","clock_backend","color_backend","compensation","condition","coordinates","correct","correct_instructions1","correct_keyboard_response","correct_response","count_ISI","count_block1","count_block2","count_block3","count_error_feedback","count_experiment","count_faster","count_finish","count_fixation","count_instructions1","count_instructions2","count_instructions3","count_keyboard_response","count_logger","count_sequence","count_stimulus","datetime","deadline","description","disable_garbage_collection","experiment_file","experiment_path","font_bold","font_family","font_italic","font_size","font_underline","foreground","form_clicks","fullscreen","height","keyboard_backend","live_row","live_row_block1","logfile","mouse_backend","opensesame_codename","opensesame_version","repeat_cycle","response","response_finish","response_instructions1","response_instructions2","response_instructions3","response_keyboard_response","response_time","response_time_finish","response_time_instructions1","response_time_instructions2","response_time_instructions3","response_time_keyboard_response","round_decimals","sampler_backend","sound_buf_size","sound_channels","sound_freq","sound_sample_size","start","stimulus","subject_nr","subject_parity","time_ISI","time_block1","time_block2","time_block3","time_error_feedback","time_experiment","time_faster","time_finish","time_fixation","time_instructions1","time_instructions2","time_instructions3","time_keyboard_response","time_logger","time_sequence","time_stimulus","title","total_correct","total_response_time","total_responses","uniform_coordinates","width"
"100","100","622","622","black","legacy","legacy","legacy","0","congruent","uniform","1","undefined","1","h","0","0","0","0","0","0","0","0","0","0","0","0","0","0","0","0","Sat Sep 17 21:19:13 2022","1500","The main experiment item","yes","CS-Subject-1.osexp","C:/Users/cici_/Downloads","no","mono","no","18","no","white","no","yes","768","legacy","0","0","C:/Users/cici_/Downloads/CS-subject-1.csv","legacy","Lentiform Loewenfeld","3.3.12","0","h","NA","s","NA","NA","h","622","NA","23249","NA","NA","622","2","legacy","1024","2","48000","-16","experiment","HHHHH","1","odd","NA","28384","NA","NA","NA","5129","NA","NA","28544","5134","NA","NA","28646","29269","28541","28646","CS-FlankerTask","1","622","1","yes","1024"
"100","100","629.5","629.5","black","legacy","legacy","legacy","0","congruent","uniform","1","undefined","1","h","1","0","0","0","1","0","1","0","1","0","0","0","1","1","1","1","Sat Sep 17 21:19:13 2022","1500","The main experiment item","yes","CS-Subject-1.osexp","C:/Users/cici_/Downloads","no","mono","no","18","no","white","no","yes","768","legacy","1","1","C:/Users/cici_/Downloads/CS-subject-1.csv","legacy","Lentiform Loewenfeld","3.3.12","0","h","NA","s","NA","NA","h","637","NA","23249","NA","NA","637","2","legacy","1024","2","48000","-16","experiment","HHHHH","1","odd","29293","28384","NA","NA","NA","5129","NA","NA","30387","5134","NA","NA","30489","31127","30384","30489","CS-FlankerTask","2","1259","2","yes","1024"
"100","100","598.3333333333334","598.3333333333334","black","legacy","legacy","legacy","0","congruent","uniform","1","undefined","1","s","2","0","0","0","2","0","2","0","2","0","0","0","2","2","2","2","Sat Sep 17 21:19:13 2022","1500","The main experiment item","yes","CS-Subject-1.osexp","C:/Users/cici_/Downloads","no","mono","no","18","no","white","no","yes","768","legacy","2","2","C:/Users/cici_/Downloads/CS-subject-1.csv","legacy","Lentiform Loewenfeld","3.3.12","0","s","NA","s","NA","NA","s","536","NA","23249","NA","NA","536","2","legacy","1024","2","48000","-16","experiment","SSSSS","1","odd","31143","28384","NA","NA","NA","5129","NA","NA","32238","5134","NA","NA","32340","32877","32235","32340","CS-FlankerTask","3","1795","3","yes","1024"
"100","100","572.5","572.5","black","legacy","legacy","legacy","0","congruent","uniform","1","undefined","1","h","3","0","0","0","3","0","3","0","3","0","0","0","3","3","3","3","Sat Sep 17 21:19:13 2022","1500","The main experiment item","yes","CS-Subject-1.osexp","C:/Users/cici_/Downloads","no","mono","no","18","no","white","no","yes","768","legacy","3","3","C:/Users/cici_/Downloads/CS-subject-1.csv","legacy","Lentiform Loewenfeld","3.3.12","0","h","NA","s","NA","NA","h","495","NA","23249","NA","NA","495","2","legacy","1024","2","48000","-16","experiment","HHHHH","1","odd","32892","28384","NA","NA","NA","5129","NA","NA","33987","5134","NA","NA","34090","34585","33984","34090","CS-FlankerTask","4","2290","4","yes","1024"
"100","100","552","552","black","legacy","legacy","legacy","0","congruent","uniform","1","undefined","1","h","4","0","0","0","4","0","4","0","4","0","0","0","4","4","4","4","Sat Sep 17 21:19:13 2022","1500","The main experiment item","yes","CS-Subject-1.osexp","C:/Users/cici_/Downloads","no","mono","no","18","no","white","no","yes","768","legacy","4","4","C:/Users/cici_/Downloads/CS-subject-1.csv","legacy","Lentiform Loewenfeld","3.3.12","0","h","NA","s","NA","NA","h","470","NA","23249","NA","NA","470","2","legacy","1024","2","48000","-16","experiment","HHHHH","1","odd","34603","28384","NA","NA","NA","5129","NA","NA","35698","5134","NA","NA","35800","36271","35694","35800","CS-FlankerTask","5","2760","5","yes","1024"
"100","100","531.8333333333334","531.8333333333334","black","legacy","legacy","legacy","0","congruent","uniform","1","undefined","1","s","5","0","0","0","5","0","5","0","5","0","0","0","5","5","5","5","Sat Sep 17 21:19:13 2022","1500","The main experiment item","yes","CS-Subject-1.osexp","C:/Users/cici_/Downloads","no","mono","no","18","no","white","no","yes","768","legacy","5","5","C:/Users/cici_/Downloads/CS-subject-1.csv","legacy","Lentiform Loewenfeld","3.3.12","0","s","NA","s","NA","NA","s","431","NA","23249","NA","NA","431","2","legacy","1024","2","48000","-16","experiment","SSSSS","1","odd","36288","28384","NA","NA","NA","5129","NA","NA","37381","5134","NA","NA","37483","37915","37378","37483","CS-FlankerTask","6","3191","6","yes","1024"
"100","100","536.8571428571429","536.8571428571429","black","legacy","legacy","legacy","0","incongruent","uniform","1","undefined","1","h","6","0","0","0","6","0","6","0","6","0","0","0","6","6","6","6","Sat Sep 17 21:19:13 2022","1500","The main experiment item","yes","CS-Subject-1.osexp","C:/Users/cici_/Downloads","no","mono","no","18","no","white","no","yes","768","legacy","6","6","C:/Users/cici_/Downloads/CS-subject-1.csv","legacy","Lentiform Loewenfeld","3.3.12","0","h","NA","s","NA","NA","h","567","NA","23249","NA","NA","567","2","legacy","1024","2","48000","-16","experiment","SSHSS","1","odd","37932","28384","NA","NA","NA","5129","NA","NA","39024","5134","NA","NA","39126","39694","39021","39126","CS-FlankerTask","7","3758","7","yes","1024"
"100","100","524.125","524.125","black","legacy","legacy","legacy","0","congruent","uniform","1","undefined","1","h","7","0","0","0","7","0","7","0","7","0","0","0","7","7","7","7","Sat Sep 17 21:19:13 2022","1500","The main experiment item","yes","CS-Subject-1.osexp","C:/Users/cici_/Downloads","no","mono","no","18","no","white","no","yes","768","legacy","7","7","C:/Users/cici_/Downloads/CS-subject-1.csv","legacy","Lentiform Loewenfeld","3.3.12","0","h","NA","s","NA","NA","h","435","NA","23249","NA","NA","435","2","legacy","1024","2","48000","-16","experiment","HHHHH","1","odd","39712","28384","NA","NA","NA","5129","NA","NA","40807","5134","NA","NA","40909","41345","40804","40909","CS-FlankerTask","8","4193","8","yes","1024"
"100","100","527.4444444444445","527.4444444444445","black","legacy","legacy","legacy","0","incongruent","uniform","1","undefined","1","s","8","0","0","0","8","0","8","0","8","0","0","0","8","8","8","8","Sat Sep 17 21:19:13 2022","1500","The main experiment item","yes","CS-Subject-1.osexp","C:/Users/cici_/Downloads","no","mono","no","18","no","white","no","yes","768","legacy","8","8","C:/Users/cici_/Downloads/CS-subject-1.csv","legacy","Lentiform Loewenfeld","3.3.12","0","s","NA","s","NA","NA","s","554","NA","23249","NA","NA","554","2","legacy","1024","2","48000","-16","experiment","HHSHH","1","odd","41363","28384","NA","NA","NA","5129","NA","NA","42455","5134","NA","NA","42558","43112","42451","42558","CS-FlankerTask","9","4747","9","yes","1024"
"100","100","522.5","522.5","black","legacy","legacy","legacy","0","incongruent","uniform","1","undefined","1","s","9","0","0","0","9","0","9","0","9","0","0","0","9","9","9","9","Sat Sep 17 21:19:13 2022","1500","The main experiment item","yes","CS-Subject-1.osexp","C:/Users/cici_/Downloads","no","mono","no","18","no","white","no","yes","768","legacy","9","9","C:/Users/cici_/Downloads/CS-subject-1.csv","legacy","Lentiform Loewenfeld","3.3.12","0","s","NA","s","NA","NA","s","478","NA","23249","NA","NA","478","2","legacy","1024","2","48000","-16","experiment","HHSHH","1","odd","43129","28384","NA","NA","NA","5129","NA","NA","44220","5134","NA","NA","44322","44801","44217","44322","CS-FlankerTask","10","5225","10","yes","1024"
"100","100","516.3636363636364","516.3636363636364","black","legacy","legacy","legacy","0","congruent","uniform","1","undefined","1","s","10","0","0","0","10","0","10","0","10","0","0","0","10","10","10","10","Sat Sep 17 21:19:13 2022","1500","The main experiment item","yes","CS-Subject-1.osexp","C:/Users/cici_/Downloads","no","mono","no","18","no","white","no","yes","768","legacy","10","10","C:/Users/cici_/Downloads/CS-subject-1.csv","legacy","Lentiform Loewenfeld","3.3.12","0","s","NA","s","NA","NA","s","455","NA","23249","NA","NA","455","2","legacy","1024","2","48000","-16","experiment","SSSSS","1","odd","44818","28384","NA","NA","NA","5129","NA","NA","45921","5134","NA","NA","46023","46479","45918","46023","CS-FlankerTask","11","5680","11","yes","1024"
"100","100","510.8333333333333","510.8333333333333","black","legacy","legacy","legacy","0","congruent","uniform","1","undefined","1","s","11","0","0","0","11","0","11","0","11","0","0","0","11","11","11","11","Sat Sep 17 21:19:13 2022","1500","The main experiment item","yes","CS-Subject-1.osexp","C:/Users/cici_/Downloads","no","mono","no","18","no","white","no","yes","768","legacy","11","11","C:/Users/cici_/Downloads/CS-subject-1.csv","legacy","Lentiform Loewenfeld","3.3.12","0","s","NA","s","NA","NA","s","450","NA","23249","NA","NA","450","2","legacy","1024","2","48000","-16","experiment","SSSSS","1","odd","46485","28384","NA","NA","NA","5129","NA","NA","47576","5134","NA","NA","47678","48129","47573","47678","CS-FlankerTask","12","6130","12","yes","1024"
"92.3076923076923","92.3076923076923","509.0769230769231","509.0769230769231","black","legacy","legacy","legacy","0","incongruent","uniform","0","undefined","0","h","12","0","0","0","12","0","12","0","12","0","0","0","12","12","12","12","Sat Sep 17 21:19:13 2022","1500","The main experiment item","yes","CS-Subject-1.osexp","C:/Users/cici_/Downloads","no","mono","no","18","no","white","no","yes","768","legacy","12","12","C:/Users/cici_/Downloads/CS-subject-1.csv","legacy","Lentiform Loewenfeld","3.3.12","0","s","NA","s","NA","NA","s","488","NA","23249","NA","NA","488","2","legacy","1024","2","48000","-16","experiment","SSHSS","1","odd","48147","28384","NA","NA","NA","5129","NA","NA","49239","5134","NA","NA","49342","49831","49236","49342","CS-FlankerTask","12","6618","13","yes","1024"
"92.85714285714286","92.85714285714286","515.2857142857143","515.2857142857143","black","legacy","legacy","legacy","0","incongruent","uniform","1","undefined","1","h","13","0","0","0","13","0","13","0","13","0","0","0","13","13","13","13","Sat Sep 17 21:19:13 2022","1500","The main experiment item","yes","CS-Subject-1.osexp","C:/Users/cici_/Downloads","no","mono","no","18","no","white","no","yes","768","legacy","13","13","C:/Users/cici_/Downloads/CS-subject-1.csv","legacy","Lentiform Loewenfeld","3.3.12","0","h","NA","s","NA","NA","h","596","NA","23249","NA","NA","596","2","legacy","1024","2","48000","-16","experiment","SSHSS","1","odd","50351","28384","NA","NA","49849","5129","NA","NA","51444","5134","NA","NA","51546","52142","51440","51546","CS-FlankerTask","13","7214","14","yes","1024"
"93.33333333333333","93.33333333333333","523","523","black","legacy","legacy","legacy","0","incongruent","uniform","1","undefined","1","s","14","0","0","0","14","0","14","0","14","0","0","0","14","14","14","14","Sat Sep 17 21:19:13 2022","1500","The main experiment item","yes","CS-Subject-1.osexp","C:/Users/cici_/Downloads","no","mono","no","18","no","white","no","yes","768","legacy","14","14","C:/Users/cici_/Downloads/CS-subject-1.csv","legacy","Lentiform Loewenfeld","3.3.12","0","s","NA","s","NA","NA","s","631","NA","23249","NA","NA","631","2","legacy","1024","2","48000","-16","experiment","HHSHH","1","odd","52159","28384","NA","NA","49849","5129","NA","NA","53253","5134","NA","NA","53355","53987","53250","53355","CS-FlankerTask","14","7845","15","yes","1024"
"93.75","93.75","521.8125","521.8125","black","legacy","legacy","legacy","0","congruent","uniform","1","undefined","1","s","15","0","0","0","15","0","15","0","15","0","0","0","15","15","15","15","Sat Sep 17 21:19:13 2022","1500","The main experiment item","yes","CS-Subject-1.osexp","C:/Users/cici_/Downloads","no","mono","no","18","no","white","no","yes","768","legacy","15","15","C:/Users/cici_/Downloads/CS-subject-1.csv","legacy","Lentiform Loewenfeld","3.3.12","0","s","NA","s","NA","NA","s","504","NA","23249","NA","NA","504","2","legacy","1024","2","48000","-16","experiment","SSSSS","1","odd","54004","28384","NA","NA","49849","5129","NA","NA","55098","5134","NA","NA","55200","55705","55094","55200","CS-FlankerTask","15","8349","16","yes","1024"
"94.11764705882354","94.11764705882354","517.9411764705883","517.9411764705883","black","legacy","legacy","legacy","0","congruent","uniform","1","undefined","1","s","16","0","0","0","16","0","16","0","16","0","0","0","16","16","16","16","Sat Sep 17 21:19:13 2022","1500","The main experiment item","yes","CS-Subject-1.osexp","C:/Users/cici_/Downloads","no","mono","no","18","no","white","no","yes","768","legacy","16","16","C:/Users/cici_/Downloads/CS-subject-1.csv","legacy","Lentiform Loewenfeld","3.3.12","0","s","NA","s","NA","NA","s","456","NA","23249","NA","NA","456","2","legacy","1024","2","48000","-16","experiment","SSSSS","1","odd","55722","28384","NA","NA","49849","5129","NA","NA","56814","5134","NA","NA","56916","57373","56810","56916","CS-FlankerTask","16","8805","17","yes","1024"
"94.44444444444444","94.44444444444444","520.3888888888889","520.3888888888889","black","legacy","legacy","legacy","0","incongruent","uniform","1","undefined","1","s","17","0","0","0","17","0","17","0","17","0","0","0","17","17","17","17","Sat Sep 17 21:19:13 2022","1500","The main experiment item","yes","CS-Subject-1.osexp","C:/Users/cici_/Downloads","no","mono","no","18","no","white","no","yes","768","legacy","17","17","C:/Users/cici_/Downloads/CS-subject-1.csv","legacy","Lentiform Loewenfeld","3.3.12","0","s","NA","s","NA","NA","s","562","NA","23249","NA","NA","562","2","legacy","1024","2","48000","-16","experiment","HHSHH","1","odd","57391","28384","NA","NA","49849","5129","NA","NA","58493","5134","NA","NA","58595","59158","58489","58595","CS-FlankerTask","17","9367","18","yes","1024"
"89.47368421052632","89.47368421052632","518.8947368421053","518.8947368421053","black","legacy","legacy","legacy","0","incongruent","uniform","0","undefined","0","h","18","0","0","0","18","0","18","0","18","0","0","0","18","18","18","18","Sat Sep 17 21:19:13 2022","1500","The main experiment item","yes","CS-Subject-1.osexp","C:/Users/cici_/Downloads","no","mono","no","18","no","white","no","yes","768","legacy","18","18","C:/Users/cici_/Downloads/CS-subject-1.csv","legacy","Lentiform Loewenfeld","3.3.12","0","s","NA","s","NA","NA","s","492","NA","23249","NA","NA","492","2","legacy","1024","2","48000","-16","experiment","SSHSS","1","odd","59175","28384","NA","NA","49849","5129","NA","NA","60266","5134","NA","NA","60368","60861","60263","60368","CS-FlankerTask","17","9859","19","yes","1024"
"90","90","526","526","black","legacy","legacy","legacy","0","incongruent","uniform","1","undefined","1","s","19","0","0","0","19","0","19","0","19","0","0","0","19","19","19","19","Sat Sep 17 21:19:13 2022","1500","The main experiment item","yes","CS-Subject-1.osexp","C:/Users/cici_/Downloads","no","mono","no","18","no","white","no","yes","768","legacy","19","19","C:/Users/cici_/Downloads/CS-subject-1.csv","legacy","Lentiform Loewenfeld","3.3.12","0","s","NA","s","NA","NA","s","661","NA","23249","NA","NA","661","2","legacy","1024","2","48000","-16","experiment","HHSHH","1","odd","61380","28384","NA","NA","60878","5129","NA","NA","62472","5134","NA","NA","62574","63236","62468","62574","CS-FlankerTask","18","10520","20","yes","1024"
"90.47619047619048","90.47619047619048","530.0952380952381","530.0952380952381","black","legacy","legacy","legacy","0","incongruent","uniform","1","undefined","1","s","20","0","0","0","20","0","20","0","20","0","0","0","20","20","20","20","Sat Sep 17 21:19:13 2022","1500","The main experiment item","yes","CS-Subject-1.osexp","C:/Users/cici_/Downloads","no","mono","no","18","no","white","no","yes","768","legacy","20","20","C:/Users/cici_/Downloads/CS-subject-1.csv","legacy","Lentiform Loewenfeld","3.3.12","0","s","NA","s","NA","NA","s","612","NA","23249","NA","NA","612","2","legacy","1024","2","48000","-16","experiment","HHSHH","1","odd","63254","28384","NA","NA","60878","5129","NA","NA","64347","5134","NA","NA","64449","65062","64343","64449","CS-FlankerTask","19","11132","21","yes","1024"
"90.9090909090909","90.9090909090909","528.5909090909091","528.5909090909091","black","legacy","legacy","legacy","0","congruent","uniform","1","undefined","1","s","21","0","0","0","21","0","21","0","21","0","0","0","21","21","21","21","Sat Sep 17 21:19:13 2022","1500","The main experiment item","yes","CS-Subject-1.osexp","C:/Users/cici_/Downloads","no","mono","no","18","no","white","no","yes","768","legacy","21","21","C:/Users/cici_/Downloads/CS-subject-1.csv","legacy","Lentiform Loewenfeld","3.3.12","0","s","NA","s","NA","NA","s","497","NA","23249","NA","NA","497","2","legacy","1024","2","48000","-16","experiment","SSSSS","1","odd","65078","28384","NA","NA","60878","5129","NA","NA","66171","5134","NA","NA","66273","66771","66167","66273","CS-FlankerTask","20","11629","22","yes","1024"
"91.30434782608695","91.30434782608695","526.2608695652174","526.2608695652174","black","legacy","legacy","legacy","0","congruent","uniform","1","undefined","1","s","22","0","0","0","22","0","22","0","22","0","0","0","22","22","22","22","Sat Sep 17 21:19:13 2022","1500","The main experiment item","yes","CS-Subject-1.osexp","C:/Users/cici_/Downloads","no","mono","no","18","no","white","no","yes","768","legacy","22","22","C:/Users/cici_/Downloads/CS-subject-1.csv","legacy","Lentiform Loewenfeld","3.3.12","0","s","NA","s","NA","NA","s","475","NA","23249","NA","NA","475","2","legacy","1024","2","48000","-16","experiment","SSSSS","1","odd","66787","28384","NA","NA","60878","5129","NA","NA","67878","5134","NA","NA","67980","68456","67875","67980","CS-FlankerTask","21","12104","23","yes","1024"
"91.66666666666667","91.66666666666667","521.5833333333334","521.5833333333334","black","legacy","legacy","legacy","0","congruent","uniform","1","undefined","1","h","23","0","0","0","23","0","23","0","23","0","0","0","23","23","23","23","Sat Sep 17 21:19:13 2022","1500","The main experiment item","yes","CS-Subject-1.osexp","C:/Users/cici_/Downloads","no","mono","no","18","no","white","no","yes","768","legacy","23","23","C:/Users/cici_/Downloads/CS-subject-1.csv","legacy","Lentiform Loewenfeld","3.3.12","0","h","NA","s","NA","NA","h","414","NA","23249","NA","NA","414","2","legacy","1024","2","48000","-16","experiment","HHHHH","1","odd","68473","28384","NA","NA","60878","5129","NA","NA","69569","5134","NA","NA","69670","70086","69565","69670","CS-FlankerTask","22","12518","24","yes","1024"
"92","92","526.2","526.2","black","legacy","legacy","legacy","0","incongruent","uniform","1","undefined","1","h","24","0","0","0","24","0","24","0","24","0","0","0","24","24","24","24","Sat Sep 17 21:19:13 2022","1500","The main experiment item","yes","CS-Subject-1.osexp","C:/Users/cici_/Downloads","no","mono","no","18","no","white","no","yes","768","legacy","24","24","C:/Users/cici_/Downloads/CS-subject-1.csv","legacy","Lentiform Loewenfeld","3.3.12","0","h","NA","s","NA","NA","h","637","NA","23249","NA","NA","637","2","legacy","1024","2","48000","-16","experiment","SSHSS","1","odd","70102","28384","NA","NA","60878","5129","NA","NA","71196","5134","NA","NA","71298","71936","71192","71298","CS-FlankerTask","23","13155","25","yes","1024"
"92.3076923076923","92.3076923076923","525.1153846153846","525.1153846153846","black","legacy","legacy","legacy","0","incongruent","uniform","1","undefined","1","h","25","0","0","0","25","0","25","0","25","0","0","0","25","25","25","25","Sat Sep 17 21:19:13 2022","1500","The main experiment item","yes","CS-Subject-1.osexp","C:/Users/cici_/Downloads","no","mono","no","18","no","white","no","yes","768","legacy","25","25","C:/Users/cici_/Downloads/CS-subject-1.csv","legacy","Lentiform Loewenfeld","3.3.12","0","h","NA","s","NA","NA","h","498","NA","23249","NA","NA","498","2","legacy","1024","2","48000","-16","experiment","SSHSS","1","odd","71953","28384","NA","NA","60878","5129","NA","NA","73043","5134","NA","NA","73145","73644","73040","73145","CS-FlankerTask","24","13653","26","yes","1024"
"92.5925925925926","92.5925925925926","522","522","black","legacy","legacy","legacy","0","congruent","uniform","1","undefined","1","h","26","0","0","0","26","0","26","0","26","0","0","0","26","26","26","26","Sat Sep 17 21:19:13 2022","1500","The main experiment item","yes","CS-Subject-1.osexp","C:/Users/cici_/Downloads","no","mono","no","18","no","white","no","yes","768","legacy","26","26","C:/Users/cici_/Downloads/CS-subject-1.csv","legacy","Lentiform Loewenfeld","3.3.12","0","h","NA","s","NA","NA","h","441","NA","23249","NA","NA","441","2","legacy","1024","2","48000","-16","experiment","HHHHH","1","odd","73660","28384","NA","NA","60878","5129","NA","NA","74752","5134","NA","NA","74854","75296","74749","74854","CS-FlankerTask","25","14094","27","yes","1024"
"92.85714285714286","92.85714285714286","520","520","black","legacy","legacy","legacy","0","congruent","uniform","1","undefined","1","h","27","0","0","0","27","0","27","0","27","0","0","0","27","27","27","27","Sat Sep 17 21:19:13 2022","1500","The main experiment item","yes","CS-Subject-1.osexp","C:/Users/cici_/Downloads","no","mono","no","18","no","white","no","yes","768","legacy","27","27","C:/Users/cici_/Downloads/CS-subject-1.csv","legacy","Lentiform Loewenfeld","3.3.12","0","h","NA","s","NA","NA","h","466","NA","23249","NA","NA","466","2","legacy","1024","2","48000","-16","experiment","HHHHH","1","odd","75313","28384","NA","NA","60878","5129","NA","NA","76404","5134","NA","NA","76507","76973","76401","76506","CS-FlankerTask","26","14560","28","yes","1024"
"93.10344827586206","93.10344827586206","518.6551724137931","518.6551724137931","black","legacy","legacy","legacy","0","congruent","uniform","1","undefined","1","h","28","0","0","0","28","0","28","0","28","0","0","0","28","28","28","28","Sat Sep 17 21:19:13 2022","1500","The main experiment item","yes","CS-Subject-1.osexp","C:/Users/cici_/Downloads","no","mono","no","18","no","white","no","yes","768","legacy","28","28","C:/Users/cici_/Downloads/CS-subject-1.csv","legacy","Lentiform Loewenfeld","3.3.12","0","h","NA","s","NA","NA","h","481","NA","23249","NA","NA","481","2","legacy","1024","2","48000","-16","experiment","HHHHH","1","odd","76990","28384","NA","NA","60878","5129","NA","NA","78084","5134","NA","NA","78186","78668","78081","78186","CS-FlankerTask","27","15041","29","yes","1024"
"93.33333333333333","93.33333333333333","517.4","517.4","black","legacy","legacy","legacy","0","incongruent","uniform","1","undefined","1","s","29","0","0","0","29","0","29","0","29","0","0","0","29","29","29","29","Sat Sep 17 21:19:13 2022","1500","The main experiment item","yes","CS-Subject-1.osexp","C:/Users/cici_/Downloads","no","mono","no","18","no","white","no","yes","768","legacy","29","29","C:/Users/cici_/Downloads/CS-subject-1.csv","legacy","Lentiform Loewenfeld","3.3.12","0","s","NA","s","NA","NA","s","481","NA","23249","NA","NA","481","2","legacy","1024","2","48000","-16","experiment","HHSHH","1","odd","78685","28384","NA","NA","60878","5129","NA","NA","79778","5134","NA","NA","79880","80362","79774","79880","CS-FlankerTask","28","15522","30","yes","1024"
"93.54838709677419","93.54838709677419","515.741935483871","515.741935483871","black","legacy","legacy","legacy","0","congruent","uniform","1","undefined","1","s","30","0","0","0","30","0","30","0","30","0","0","0","30","30","30","30","Sat Sep 17 21:19:13 2022","1500","The main experiment item","yes","CS-Subject-1.osexp","C:/Users/cici_/Downloads","no","mono","no","18","no","white","no","yes","768","legacy","30","30","C:/Users/cici_/Downloads/CS-subject-1.csv","legacy","Lentiform Loewenfeld","3.3.12","0","s","NA","s","NA","NA","s","466","NA","23249","NA","NA","466","2","legacy","1024","2","48000","-16","experiment","SSSSS","1","odd","80379","28384","NA","NA","60878","5129","NA","NA","81472","5134","NA","NA","81574","82041","81468","81573","CS-FlankerTask","29","15988","31","yes","1024"
"93.75","93.75","514.1875","514.1875","black","legacy","legacy","legacy","0","incongruent","uniform","1","undefined","1","h","31","0","0","0","31","0","31","0","31","0","0","0","31","31","31","31","Sat Sep 17 21:19:13 2022","1500","The main experiment item","yes","CS-Subject-1.osexp","C:/Users/cici_/Downloads","no","mono","no","18","no","white","no","yes","768","legacy","31","31","C:/Users/cici_/Downloads/CS-subject-1.csv","legacy","Lentiform Loewenfeld","3.3.12","0","h","NA","s","NA","NA","h","466","NA","23249","NA","NA","466","2","legacy","1024","2","48000","-16","experiment","SSHSS","1","odd","82058","28384","NA","NA","60878","5129","NA","NA","83151","5134","NA","NA","83253","83720","83147","83253","CS-FlankerTask","30","16454","32","yes","1024"
"93.93939393939394","93.93939393939394","511.1515151515151","511.1515151515151","black","legacy","legacy","legacy","0","congruent","uniform","1","undefined","1","h","32","0","0","0","32","0","32","0","32","0","0","0","32","32","32","32","Sat Sep 17 21:19:13 2022","1500","The main experiment item","yes","CS-Subject-1.osexp","C:/Users/cici_/Downloads","no","mono","no","18","no","white","no","yes","768","legacy","32","32","C:/Users/cici_/Downloads/CS-subject-1.csv","legacy","Lentiform Loewenfeld","3.3.12","0","h","NA","s","NA","NA","h","414","NA","23249","NA","NA","414","2","legacy","1024","2","48000","-16","experiment","HHHHH","1","odd","83737","28384","NA","NA","60878","5129","NA","NA","84829","5134","NA","NA","84931","85347","84826","84931","CS-FlankerTask","31","16868","33","yes","1024"
"94.11764705882354","94.11764705882354","511.6764705882353","511.6764705882353","black","legacy","legacy","legacy","0","incongruent","uniform","1","undefined","1","s","33","0","0","0","33","0","33","0","33","0","0","0","33","33","33","33","Sat Sep 17 21:19:13 2022","1500","The main experiment item","yes","CS-Subject-1.osexp","C:/Users/cici_/Downloads","no","mono","no","18","no","white","no","yes","768","legacy","33","33","C:/Users/cici_/Downloads/CS-subject-1.csv","legacy","Lentiform Loewenfeld","3.3.12","0","s","NA","s","NA","NA","s","529","NA","23249","NA","NA","529","2","legacy","1024","2","48000","-16","experiment","HHSHH","1","odd","85363","28384","NA","NA","60878","5129","NA","NA","86456","5134","NA","NA","86558","87088","86452","86558","CS-FlankerTask","32","17397","34","yes","1024"
"94.28571428571429","94.28571428571429","510.4","510.4","black","legacy","legacy","legacy","0","congruent","uniform","1","undefined","1","h","34","0","0","0","34","0","34","0","34","0","0","0","34","34","34","34","Sat Sep 17 21:19:13 2022","1500","The main experiment item","yes","CS-Subject-1.osexp","C:/Users/cici_/Downloads","no","mono","no","18","no","white","no","yes","768","legacy","34","34","C:/Users/cici_/Downloads/CS-subject-1.csv","legacy","Lentiform Loewenfeld","3.3.12","0","h","NA","s","NA","NA","h","467","NA","23249","NA","NA","467","2","legacy","1024","2","48000","-16","experiment","HHHHH","1","odd","87106","28384","NA","NA","60878","5129","NA","NA","88198","5134","NA","NA","88300","88768","88195","88300","CS-FlankerTask","33","17864","35","yes","1024"
"94.44444444444444","94.44444444444444","507.3333333333333","507.3333333333333","black","legacy","legacy","legacy","0","congruent","uniform","1","undefined","1","h","35","0","0","0","35","0","35","0","35","0","0","0","35","35","35","35","Sat Sep 17 21:19:13 2022","1500","The main experiment item","yes","CS-Subject-1.osexp","C:/Users/cici_/Downloads","no","mono","no","18","no","white","no","yes","768","legacy","35","35","C:/Users/cici_/Downloads/CS-subject-1.csv","legacy","Lentiform Loewenfeld","3.3.12","0","h","NA","s","NA","NA","h","400","NA","23249","NA","NA","400","2","legacy","1024","2","48000","-16","experiment","HHHHH","1","odd","88785","28384","NA","NA","60878","5129","NA","NA","89878","5134","NA","NA","89980","90380","89875","89980","CS-FlankerTask","34","18264","36","yes","1024"
"94.5945945945946","94.5945945945946","506.1081081081081","506.1081081081081","black","legacy","legacy","legacy","0","congruent","uniform","1","undefined","1","s","36","0","0","0","36","0","36","0","36","0","0","0","36","36","36","36","Sat Sep 17 21:19:13 2022","1500","The main experiment item","yes","CS-Subject-1.osexp","C:/Users/cici_/Downloads","no","mono","no","18","no","white","no","yes","768","legacy","36","36","C:/Users/cici_/Downloads/CS-subject-1.csv","legacy","Lentiform Loewenfeld","3.3.12","0","s","NA","s","NA","NA","s","462","NA","23249","NA","NA","462","2","legacy","1024","2","48000","-16","experiment","SSSSS","1","odd","90397","28384","NA","NA","60878","5129","NA","NA","91489","5134","NA","NA","91591","92053","91486","91591","CS-FlankerTask","35","18726","37","yes","1024"
"94.73684210526316","94.73684210526316","504.0263157894737","504.0263157894737","black","legacy","legacy","legacy","0","congruent","uniform","1","undefined","1","h","37","0","0","0","37","0","37","0","37","0","0","0","37","37","37","37","Sat Sep 17 21:19:13 2022","1500","The main experiment item","yes","CS-Subject-1.osexp","C:/Users/cici_/Downloads","no","mono","no","18","no","white","no","yes","768","legacy","37","37","C:/Users/cici_/Downloads/CS-subject-1.csv","legacy","Lentiform Loewenfeld","3.3.12","0","h","NA","s","NA","NA","h","427","NA","23249","NA","NA","427","2","legacy","1024","2","48000","-16","experiment","HHHHH","1","odd","92070","28384","NA","NA","60878","5129","NA","NA","93161","5134","NA","NA","93263","93691","93158","93263","CS-FlankerTask","36","19153","38","yes","1024"
"94.87179487179488","94.87179487179488","504.38461538461536","504.38461538461536","black","legacy","legacy","legacy","0","incongruent","uniform","1","undefined","1","h","38","0","0","0","38","0","38","0","38","0","0","0","38","38","38","38","Sat Sep 17 21:19:13 2022","1500","The main experiment item","yes","CS-Subject-1.osexp","C:/Users/cici_/Downloads","no","mono","no","18","no","white","no","yes","768","legacy","38","38","C:/Users/cici_/Downloads/CS-subject-1.csv","legacy","Lentiform Loewenfeld","3.3.12","0","h","NA","s","NA","NA","h","518","NA","23249","NA","NA","518","2","legacy","1024","2","48000","-16","experiment","SSHSS","1","odd","93707","28384","NA","NA","60878","5129","NA","NA","94799","5134","NA","NA","94901","95419","94795","94901","CS-FlankerTask","37","19671","39","yes","1024"
"95","95","504.025","504.025","black","legacy","legacy","legacy","0","incongruent","uniform","1","undefined","1","h","39","0","0","0","39","0","39","0","39","0","0","0","39","39","39","39","Sat Sep 17 21:19:13 2022","1500","The main experiment item","yes","CS-Subject-1.osexp","C:/Users/cici_/Downloads","no","mono","no","18","no","white","no","yes","768","legacy","39","39","C:/Users/cici_/Downloads/CS-subject-1.csv","legacy","Lentiform Loewenfeld","3.3.12","0","h","NA","s","NA","NA","h","490","NA","23249","NA","NA","490","2","legacy","1024","2","48000","-16","experiment","SSHSS","1","odd","95438","28384","NA","NA","60878","5129","NA","NA","96531","5134","NA","NA","96633","97124","96527","96633","CS-FlankerTask","38","20161","40","yes","1024"
"95.1219512195122","95.1219512195122","501.2439024390244","501.2439024390244","black","legacy","legacy","legacy","0","congruent","uniform","1","undefined","1","h","40","0","0","0","40","0","40","0","40","0","0","0","40","40","40","40","Sat Sep 17 21:19:13 2022","1500","The main experiment item","yes","CS-Subject-1.osexp","C:/Users/cici_/Downloads","no","mono","no","18","no","white","no","yes","768","legacy","40","40","C:/Users/cici_/Downloads/CS-subject-1.csv","legacy","Lentiform Loewenfeld","3.3.12","0","h","NA","s","NA","NA","h","390","NA","23249","NA","NA","390","2","legacy","1024","2","48000","-16","experiment","HHHHH","1","odd","97141","28384","NA","NA","60878","5129","NA","NA","98232","5134","NA","NA","98334","98725","98229","98334","CS-FlankerTask","39","20551","41","yes","1024"
"95.23809523809524","95.23809523809524","498.3095238095238","498.3095238095238","black","legacy","legacy","legacy","0","congruent","uniform","1","undefined","1","s","41","0","0","0","41","0","41","0","41","0","0","0","41","41","41","41","Sat Sep 17 21:19:13 2022","1500","The main experiment item","yes","CS-Subject-1.osexp","C:/Users/cici_/Downloads","no","mono","no","18","no","white","no","yes","768","legacy","41","41","C:/Users/cici_/Downloads/CS-subject-1.csv","legacy","Lentiform Loewenfeld","3.3.12","0","s","NA","s","NA","NA","s","378","NA","23249","NA","NA","378","2","legacy","1024","2","48000","-16","experiment","SSSSS","1","odd","98741","28384","NA","NA","60878","5129","NA","NA","99832","5134","NA","NA","99934","100314","99829","99934","CS-FlankerTask","40","20929","42","yes","1024"
"95.34883720930233","95.34883720930233","495.93023255813955","495.93023255813955","black","legacy","legacy","legacy","0","congruent","uniform","1","undefined","1","s","42","0","0","0","42","0","42","0","42","0","0","0","42","42","42","42","Sat Sep 17 21:19:13 2022","1500","The main experiment item","yes","CS-Subject-1.osexp","C:/Users/cici_/Downloads","no","mono","no","18","no","white","no","yes","768","legacy","42","42","C:/Users/cici_/Downloads/CS-subject-1.csv","legacy","Lentiform Loewenfeld","3.3.12","0","s","NA","s","NA","NA","s","396","NA","23249","NA","NA","396","2","legacy","1024","2","48000","-16","experiment","SSSSS","1","odd","100331","28384","NA","NA","60878","5129","NA","NA","101426","5134","NA","NA","101528","101924","101422","101528","CS-FlankerTask","41","21325","43","yes","1024"
"95.45454545454545","95.45454545454545","493.70454545454544","493.70454545454544","black","legacy","legacy","legacy","0","incongruent","uniform","1","undefined","1","s","43","0","0","0","43","0","43","0","43","0","0","0","43","43","43","43","Sat Sep 17 21:19:13 2022","1500","The main experiment item","yes","CS-Subject-1.osexp","C:/Users/cici_/Downloads","no","mono","no","18","no","white","no","yes","768","legacy","43","43","C:/Users/cici_/Downloads/CS-subject-1.csv","legacy","Lentiform Loewenfeld","3.3.12","0","s","NA","s","NA","NA","s","398","NA","23249","NA","NA","398","2","legacy","1024","2","48000","-16","experiment","HHSHH","1","odd","101943","28384","NA","NA","60878","5129","NA","NA","103037","5134","NA","NA","103139","103538","103033","103139","CS-FlankerTask","42","21723","44","yes","1024"
"95.55555555555556","95.55555555555556","491.8222222222222","491.8222222222222","black","legacy","legacy","legacy","0","incongruent","uniform","1","undefined","1","h","44","0","0","0","44","0","44","0","44","0","0","0","44","44","44","44","Sat Sep 17 21:19:13 2022","1500","The main experiment item","yes","CS-Subject-1.osexp","C:/Users/cici_/Downloads","no","mono","no","18","no","white","no","yes","768","legacy","44","44","C:/Users/cici_/Downloads/CS-subject-1.csv","legacy","Lentiform Loewenfeld","3.3.12","0","h","NA","s","NA","NA","h","409","NA","23249","NA","NA","409","2","legacy","1024","2","48000","-16","experiment","SSHSS","1","odd","103556","28384","NA","NA","60878","5129","NA","NA","104647","5134","NA","NA","104749","105160","104644","104749","CS-FlankerTask","43","22132","45","yes","1024"
"95.65217391304348","95.65217391304348","490.89130434782606","490.89130434782606","black","legacy","legacy","legacy","0","incongruent","uniform","1","undefined","1","h","45","0","0","0","45","0","45","0","45","0","0","0","45","45","45","45","Sat Sep 17 21:19:13 2022","1500","The main experiment item","yes","CS-Subject-1.osexp","C:/Users/cici_/Downloads","no","mono","no","18","no","white","no","yes","768","legacy","45","45","C:/Users/cici_/Downloads/CS-subject-1.csv","legacy","Lentiform Loewenfeld","3.3.12","0","h","NA","s","NA","NA","h","449","NA","23249","NA","NA","449","2","legacy","1024","2","48000","-16","experiment","SSHSS","1","odd","105177","28384","NA","NA","60878","5129","NA","NA","106269","5134","NA","NA","106371","106821","106265","106371","CS-FlankerTask","44","22581","46","yes","1024"
"95.74468085106383","95.74468085106383","492.25531914893617","492.25531914893617","black","legacy","legacy","legacy","0","congruent","uniform","1","undefined","1","s","46","0","0","0","46","0","46","0","46","0","0","0","46","46","46","46","Sat Sep 17 21:19:13 2022","1500","The main experiment item","yes","CS-Subject-1.osexp","C:/Users/cici_/Downloads","no","mono","no","18","no","white","no","yes","768","legacy","46","46","C:/Users/cici_/Downloads/CS-subject-1.csv","legacy","Lentiform Loewenfeld","3.3.12","0","s","NA","s","NA","NA","s","555","NA","23249","NA","NA","555","2","legacy","1024","2","48000","-16","experiment","SSSSS","1","odd","106837","28384","NA","NA","60878","5129","NA","NA","107928","5134","NA","NA","108030","108587","107925","108030","CS-FlankerTask","45","23136","47","yes","1024"
"95.83333333333333","95.83333333333333","490.8541666666667","490.8541666666667","black","legacy","legacy","legacy","0","incongruent","uniform","1","undefined","1","h","47","0","0","0","47","0","47","0","47","0","0","0","47","47","47","47","Sat Sep 17 21:19:13 2022","1500","The main experiment item","yes","CS-Subject-1.osexp","C:/Users/cici_/Downloads","no","mono","no","18","no","white","no","yes","768","legacy","47","47","C:/Users/cici_/Downloads/CS-subject-1.csv","legacy","Lentiform Loewenfeld","3.3.12","0","h","NA","s","NA","NA","h","425","NA","23249","NA","NA","425","2","legacy","1024","2","48000","-16","experiment","SSHSS","1","odd","108604","28384","NA","NA","60878","5129","NA","NA","109696","5134","NA","NA","109798","110224","109692","109798","CS-FlankerTask","46","23561","48","yes","1024"
"95.91836734693878","95.91836734693878","488.0612244897959","488.0612244897959","black","legacy","legacy","legacy","0","congruent","uniform","1","undefined","1","s","48","0","0","0","48","0","48","0","48","0","0","0","48","48","48","48","Sat Sep 17 21:19:13 2022","1500","The main experiment item","yes","CS-Subject-1.osexp","C:/Users/cici_/Downloads","no","mono","no","18","no","white","no","yes","768","legacy","48","48","C:/Users/cici_/Downloads/CS-subject-1.csv","legacy","Lentiform Loewenfeld","3.3.12","0","s","NA","s","NA","NA","s","354","NA","23249","NA","NA","354","2","legacy","1024","2","48000","-16","experiment","SSSSS","1","odd","110240","28384","NA","NA","60878","5129","NA","NA","111337","5134","NA","NA","111439","111794","111334","111439","CS-FlankerTask","47","23915","49","yes","1024"
"96","96","486.86","486.86","black","legacy","legacy","legacy","0","congruent","uniform","1","undefined","1","s","49","0","0","0","49","0","49","0","49","0","0","0","49","49","49","49","Sat Sep 17 21:19:13 2022","1500","The main experiment item","yes","CS-Subject-1.osexp","C:/Users/cici_/Downloads","no","mono","no","18","no","white","no","yes","768","legacy","49","49","C:/Users/cici_/Downloads/CS-subject-1.csv","legacy","Lentiform Loewenfeld","3.3.12","0","s","NA","s","NA","NA","s","428","NA","23249","NA","NA","428","2","legacy","1024","2","48000","-16","experiment","SSSSS","1","odd","111812","28384","NA","NA","60878","5129","NA","NA","112904","5134","NA","NA","113006","113435","112901","113006","CS-FlankerTask","48","24343","50","yes","1024"
"96.07843137254902","96.07843137254902","486.19607843137254","486.19607843137254","black","legacy","legacy","legacy","0","congruent","uniform","1","undefined","1","s","50","0","0","0","50","0","50","0","50","0","0","0","50","50","50","50","Sat Sep 17 21:19:13 2022","1500","The main experiment item","yes","CS-Subject-1.osexp","C:/Users/cici_/Downloads","no","mono","no","18","no","white","no","yes","768","legacy","50","50","C:/Users/cici_/Downloads/CS-subject-1.csv","legacy","Lentiform Loewenfeld","3.3.12","0","s","NA","s","NA","NA","s","453","NA","23249","NA","NA","453","2","legacy","1024","2","48000","-16","experiment","SSSSS","1","odd","113452","28384","NA","NA","60878","5129","NA","NA","114544","5134","NA","NA","114646","115100","114540","114646","CS-FlankerTask","49","24796","51","yes","1024"
"96.15384615384616","96.15384615384616","487.09615384615387","487.09615384615387","black","legacy","legacy","legacy","0","incongruent","uniform","1","undefined","1","s","51","0","0","0","51","0","51","0","51","0","0","0","51","51","51","51","Sat Sep 17 21:19:13 2022","1500","The main experiment item","yes","CS-Subject-1.osexp","C:/Users/cici_/Downloads","no","mono","no","18","no","white","no","yes","768","legacy","51","51","C:/Users/cici_/Downloads/CS-subject-1.csv","legacy","Lentiform Loewenfeld","3.3.12","0","s","NA","s","NA","NA","s","533","NA","23249","NA","NA","533","2","legacy","1024","2","48000","-16","experiment","HHSHH","1","odd","115117","28384","NA","NA","60878","5129","NA","NA","116210","5134","NA","NA","116312","116845","116206","116312","CS-FlankerTask","50","25329","52","yes","1024"
"96.22641509433963","96.22641509433963","486.22641509433964","486.22641509433964","black","legacy","legacy","legacy","0","incongruent","uniform","1","undefined","1","s","52","0","0","0","52","0","52","0","52","0","0","0","52","52","52","52","Sat Sep 17 21:19:13 2022","1500","The main experiment item","yes","CS-Subject-1.osexp","C:/Users/cici_/Downloads","no","mono","no","18","no","white","no","yes","768","legacy","52","52","C:/Users/cici_/Downloads/CS-subject-1.csv","legacy","Lentiform Loewenfeld","3.3.12","0","s","NA","s","NA","NA","s","441","NA","23249","NA","NA","441","2","legacy","1024","2","48000","-16","experiment","HHSHH","1","odd","116862","28384","NA","NA","60878","5129","NA","NA","117955","5134","NA","NA","118057","118499","117952","118057","CS-FlankerTask","51","25770","53","yes","1024"
"96.29629629629629","96.29629629629629","484.68518518518516","484.68518518518516","black","legacy","legacy","legacy","0","congruent","uniform","1","undefined","1","h","53","0","0","0","53","0","53","0","53","0","0","0","53","53","53","53","Sat Sep 17 21:19:13 2022","1500","The main experiment item","yes","CS-Subject-1.osexp","C:/Users/cici_/Downloads","no","mono","no","18","no","white","no","yes","768","legacy","53","53","C:/Users/cici_/Downloads/CS-subject-1.csv","legacy","Lentiform Loewenfeld","3.3.12","0","h","NA","s","NA","NA","h","403","NA","23249","NA","NA","403","2","legacy","1024","2","48000","-16","experiment","HHHHH","1","odd","118516","28384","NA","NA","60878","5129","NA","NA","119608","5134","NA","NA","119710","120114","119605","119710","CS-FlankerTask","52","26173","54","yes","1024"
"96.36363636363636","96.36363636363636","483.8","483.8","black","legacy","legacy","legacy","0","incongruent","uniform","1","undefined","1","h","54","0","0","0","54","0","54","0","54","0","0","0","54","54","54","54","Sat Sep 17 21:19:13 2022","1500","The main experiment item","yes","CS-Subject-1.osexp","C:/Users/cici_/Downloads","no","mono","no","18","no","white","no","yes","768","legacy","54","54","C:/Users/cici_/Downloads/CS-subject-1.csv","legacy","Lentiform Loewenfeld","3.3.12","0","h","NA","s","NA","NA","h","436","NA","23249","NA","NA","436","2","legacy","1024","2","48000","-16","experiment","SSHSS","1","odd","120131","28384","NA","NA","60878","5129","NA","NA","121223","5134","NA","NA","121325","121762","121219","121325","CS-FlankerTask","53","26609","55","yes","1024"
"96.42857142857143","96.42857142857143","483.57142857142856","483.57142857142856","black","legacy","legacy","legacy","0","congruent","uniform","1","undefined","1","h","55","0","0","0","55","0","55","0","55","0","0","0","55","55","55","55","Sat Sep 17 21:19:13 2022","1500","The main experiment item","yes","CS-Subject-1.osexp","C:/Users/cici_/Downloads","no","mono","no","18","no","white","no","yes","768","legacy","55","55","C:/Users/cici_/Downloads/CS-subject-1.csv","legacy","Lentiform Loewenfeld","3.3.12","0","h","NA","s","NA","NA","h","471","NA","23249","NA","NA","471","2","legacy","1024","2","48000","-16","experiment","HHHHH","1","odd","121768","28384","NA","NA","60878","5129","NA","NA","122862","5134","NA","NA","122964","123437","122858","122964","CS-FlankerTask","54","27080","56","yes","1024"
"96.49122807017544","96.49122807017544","484.5263157894737","484.5263157894737","black","legacy","legacy","legacy","0","incongruent","uniform","1","undefined","1","s","56","0","0","0","56","0","56","0","56","0","0","0","56","56","56","56","Sat Sep 17 21:19:13 2022","1500","The main experiment item","yes","CS-Subject-1.osexp","C:/Users/cici_/Downloads","no","mono","no","18","no","white","no","yes","768","legacy","56","56","C:/Users/cici_/Downloads/CS-subject-1.csv","legacy","Lentiform Loewenfeld","3.3.12","0","s","NA","s","NA","NA","s","538","NA","23249","NA","NA","538","2","legacy","1024","2","48000","-16","experiment","HHSHH","1","odd","123453","28384","NA","NA","60878","5129","NA","NA","124544","5134","NA","NA","124646","125185","124541","124646","CS-FlankerTask","55","27618","57","yes","1024"
"96.55172413793103","96.55172413793103","482.8965517241379","482.8965517241379","black","legacy","legacy","legacy","0","congruent","uniform","1","undefined","1","h","57","0","0","0","57","0","57","0","57","0","0","0","57","57","57","57","Sat Sep 17 21:19:13 2022","1500","The main experiment item","yes","CS-Subject-1.osexp","C:/Users/cici_/Downloads","no","mono","no","18","no","white","no","yes","768","legacy","57","57","C:/Users/cici_/Downloads/CS-subject-1.csv","legacy","Lentiform Loewenfeld","3.3.12","0","h","NA","s","NA","NA","h","390","NA","23249","NA","NA","390","2","legacy","1024","2","48000","-16","experiment","HHHHH","1","odd","125201","28384","NA","NA","60878","5129","NA","NA","126292","5134","NA","NA","126394","126785","126288","126394","CS-FlankerTask","56","28008","58","yes","1024"
"96.61016949152543","96.61016949152543","483","483","black","legacy","legacy","legacy","0","congruent","uniform","1","undefined","1","s","58","0","0","0","58","0","58","0","58","0","0","0","58","58","58","58","Sat Sep 17 21:19:13 2022","1500","The main experiment item","yes","CS-Subject-1.osexp","C:/Users/cici_/Downloads","no","mono","no","18","no","white","no","yes","768","legacy","58","58","C:/Users/cici_/Downloads/CS-subject-1.csv","legacy","Lentiform Loewenfeld","3.3.12","0","s","NA","s","NA","NA","s","489","NA","23249","NA","NA","489","2","legacy","1024","2","48000","-16","experiment","SSSSS","1","odd","126801","28384","NA","NA","60878","5129","NA","NA","127894","5134","NA","NA","127996","128487","127890","127996","CS-FlankerTask","57","28497","59","yes","1024"
"96.66666666666667","96.66666666666667","483.2","483.2","black","legacy","legacy","legacy","0","incongruent","uniform","1","undefined","1","h","59","0","0","0","59","0","59","0","59","0","0","0","59","59","59","59","Sat Sep 17 21:19:13 2022","1500","The main experiment item","yes","CS-Subject-1.osexp","C:/Users/cici_/Downloads","no","mono","no","18","no","white","no","yes","768","legacy","59","59","C:/Users/cici_/Downloads/CS-subject-1.csv","legacy","Lentiform Loewenfeld","3.3.12","0","h","NA","s","NA","NA","h","495","NA","23249","NA","NA","495","2","legacy","1024","2","48000","-16","experiment","SSHSS","1","odd","128498","28384","NA","NA","60878","5129","NA","NA","129589","5134","NA","NA","129691","130187","129586","129691","CS-FlankerTask","58","28992","60","yes","1024"
"95.08196721311475","95.08196721311475","482.8360655737705","482.8360655737705","black","legacy","legacy","legacy","0","incongruent","uniform","0","undefined","0","s","60","0","0","0","60","0","60","0","60","0","0","0","60","60","60","60","Sat Sep 17 21:19:13 2022","1500","The main experiment item","yes","CS-Subject-1.osexp","C:/Users/cici_/Downloads","no","mono","no","18","no","white","no","yes","768","legacy","60","60","C:/Users/cici_/Downloads/CS-subject-1.csv","legacy","Lentiform Loewenfeld","3.3.12","0","h","NA","s","NA","NA","h","461","NA","23249","NA","NA","461","2","legacy","1024","2","48000","-16","experiment","HHSHH","1","odd","130204","28384","NA","NA","60878","5129","NA","NA","131296","5134","NA","NA","131398","131860","131293","131398","CS-FlankerTask","58","29453","61","yes","1024"
"95.16129032258064","95.16129032258064","483.64516129032256","483.64516129032256","black","legacy","legacy","legacy","0","congruent","uniform","1","undefined","1","h","61","0","0","0","61","0","61","0","61","0","0","0","61","61","61","61","Sat Sep 17 21:19:13 2022","1500","The main experiment item","yes","CS-Subject-1.osexp","C:/Users/cici_/Downloads","no","mono","no","18","no","white","no","yes","768","legacy","61","61","C:/Users/cici_/Downloads/CS-subject-1.csv","legacy","Lentiform Loewenfeld","3.3.12","0","h","NA","s","NA","NA","h","533","NA","23249","NA","NA","533","2","legacy","1024","2","48000","-16","experiment","HHHHH","1","odd","132379","28384","NA","NA","131877","5129","NA","NA","133471","5134","NA","NA","133573","134107","133468","133573","CS-FlankerTask","59","29986","62","yes","1024"
"95.23809523809524","95.23809523809524","482.25396825396825","482.25396825396825","black","legacy","legacy","legacy","0","incongruent","uniform","1","undefined","1","s","62","0","0","0","62","0","62","0","62","0","0","0","62","62","62","62","Sat Sep 17 21:19:13 2022","1500","The main experiment item","yes","CS-Subject-1.osexp","C:/Users/cici_/Downloads","no","mono","no","18","no","white","no","yes","768","legacy","62","62","C:/Users/cici_/Downloads/CS-subject-1.csv","legacy","Lentiform Loewenfeld","3.3.12","0","s","NA","s","NA","NA","s","396","NA","23249","NA","NA","396","2","legacy","1024","2","48000","-16","experiment","HHSHH","1","odd","134124","28384","NA","NA","131877","5129","NA","NA","135216","5134","NA","NA","135318","135715","135213","135318","CS-FlankerTask","60","30382","63","yes","1024"
"95.3125","95.3125","481.625","481.625","black","legacy","legacy","legacy","0","incongruent","uniform","1","undefined","1","s","63","0","0","0","63","0","63","0","63","0","0","0","63","63","63","63","Sat Sep 17 21:19:13 2022","1500","The main experiment item","yes","CS-Subject-1.osexp","C:/Users/cici_/Downloads","no","mono","no","18","no","white","no","yes","768","legacy","63","63","C:/Users/cici_/Downloads/CS-subject-1.csv","legacy","Lentiform Loewenfeld","3.3.12","0","s","NA","s","NA","NA","s","442","NA","23249","NA","NA","442","2","legacy","1024","2","48000","-16","experiment","HHSHH","1","odd","135733","28384","NA","NA","131877","5129","NA","NA","136826","5134","NA","NA","136928","137372","136822","136928","CS-FlankerTask","61","30824","64","yes","1024"
"95.38461538461539","95.38461538461539","481.26153846153846","481.26153846153846","black","legacy","legacy","legacy","0","incongruent","uniform","1","undefined","1","s","64","0","0","0","64","0","64","0","64","0","0","0","64","64","64","64","Sat Sep 17 21:19:13 2022","1500","The main experiment item","yes","CS-Subject-1.osexp","C:/Users/cici_/Downloads","no","mono","no","18","no","white","no","yes","768","legacy","64","64","C:/Users/cici_/Downloads/CS-subject-1.csv","legacy","Lentiform Loewenfeld","3.3.12","0","s","NA","s","NA","NA","s","458","NA","23249","NA","NA","458","2","legacy","1024","2","48000","-16","experiment","HHSHH","1","odd","137389","28384","NA","NA","131877","5129","NA","NA","138480","5134","NA","NA","138582","139042","138478","138582","CS-FlankerTask","62","31282","65","yes","1024"
"95.45454545454545","95.45454545454545","481.3636363636364","481.3636363636364","black","legacy","legacy","legacy","0","incongruent","uniform","1","undefined","1","h","65","0","0","0","65","0","65","0","65","0","0","0","65","65","65","65","Sat Sep 17 21:19:13 2022","1500","The main experiment item","yes","CS-Subject-1.osexp","C:/Users/cici_/Downloads","no","mono","no","18","no","white","no","yes","768","legacy","65","65","C:/Users/cici_/Downloads/CS-subject-1.csv","legacy","Lentiform Loewenfeld","3.3.12","0","h","NA","s","NA","NA","h","488","NA","23249","NA","NA","488","2","legacy","1024","2","48000","-16","experiment","SSHSS","1","odd","139059","28384","NA","NA","131877","5129","NA","NA","140153","5134","NA","NA","140255","140745","140149","140255","CS-FlankerTask","63","31770","66","yes","1024"
"95.5223880597015","95.5223880597015","481.32835820895525","481.32835820895525","black","legacy","legacy","legacy","0","incongruent","uniform","1","undefined","1","s","66","0","0","0","66","0","66","0","66","0","0","0","66","66","66","66","Sat Sep 17 21:19:13 2022","1500","The main experiment item","yes","CS-Subject-1.osexp","C:/Users/cici_/Downloads","no","mono","no","18","no","white","no","yes","768","legacy","66","66","C:/Users/cici_/Downloads/CS-subject-1.csv","legacy","Lentiform Loewenfeld","3.3.12","0","s","NA","s","NA","NA","s","479","NA","23249","NA","NA","479","2","legacy","1024","2","48000","-16","experiment","HHSHH","1","odd","140762","28384","NA","NA","131877","5129","NA","NA","141855","5134","NA","NA","141957","142436","141852","141957","CS-FlankerTask","64","32249","67","yes","1024"
"95.58823529411765","95.58823529411765","482.13235294117646","482.13235294117646","black","legacy","legacy","legacy","0","congruent","uniform","1","undefined","1","h","67","0","0","0","67","0","67","0","67","0","0","0","67","67","67","67","Sat Sep 17 21:19:13 2022","1500","The main experiment item","yes","CS-Subject-1.osexp","C:/Users/cici_/Downloads","no","mono","no","18","no","white","no","yes","768","legacy","67","67","C:/Users/cici_/Downloads/CS-subject-1.csv","legacy","Lentiform Loewenfeld","3.3.12","0","h","NA","s","NA","NA","h","536","NA","23249","NA","NA","536","2","legacy","1024","2","48000","-16","experiment","HHHHH","1","odd","142454","28384","NA","NA","131877","5129","NA","NA","143546","5134","NA","NA","143648","144186","143543","143648","CS-FlankerTask","65","32785","68","yes","1024"
"95.65217391304348","95.65217391304348","483.5217391304348","483.5217391304348","black","legacy","legacy","legacy","0","incongruent","uniform","1","undefined","1","h","68","0","0","0","68","0","68","0","68","0","0","0","68","68","68","68","Sat Sep 17 21:19:13 2022","1500","The main experiment item","yes","CS-Subject-1.osexp","C:/Users/cici_/Downloads","no","mono","no","18","no","white","no","yes","768","legacy","68","68","C:/Users/cici_/Downloads/CS-subject-1.csv","legacy","Lentiform Loewenfeld","3.3.12","0","h","NA","s","NA","NA","h","578","NA","23249","NA","NA","578","2","legacy","1024","2","48000","-16","experiment","SSHSS","1","odd","144203","28384","NA","NA","131877","5129","NA","NA","145295","5134","NA","NA","145397","145977","145291","145397","CS-FlankerTask","66","33363","69","yes","1024"
"95.71428571428571","95.71428571428571","483.7857142857143","483.7857142857143","black","legacy","legacy","legacy","0","incongruent","uniform","1","undefined","1","h","69","0","0","0","69","0","69","0","69","0","0","0","69","69","69","69","Sat Sep 17 21:19:13 2022","1500","The main experiment item","yes","CS-Subject-1.osexp","C:/Users/cici_/Downloads","no","mono","no","18","no","white","no","yes","768","legacy","69","69","C:/Users/cici_/Downloads/CS-subject-1.csv","legacy","Lentiform Loewenfeld","3.3.12","0","h","NA","s","NA","NA","h","502","NA","23249","NA","NA","502","2","legacy","1024","2","48000","-16","experiment","SSHSS","1","odd","145994","28384","NA","NA","131877","5129","NA","NA","147086","5134","NA","NA","147188","147691","147082","147188","CS-FlankerTask","67","33865","70","yes","1024"
"95.77464788732394","95.77464788732394","482.61971830985914","482.61971830985914","black","legacy","legacy","legacy","0","congruent","uniform","1","undefined","1","s","70","0","0","0","70","0","70","0","70","0","0","0","70","70","70","70","Sat Sep 17 21:19:13 2022","1500","The main experiment item","yes","CS-Subject-1.osexp","C:/Users/cici_/Downloads","no","mono","no","18","no","white","no","yes","768","legacy","70","70","C:/Users/cici_/Downloads/CS-subject-1.csv","legacy","Lentiform Loewenfeld","3.3.12","0","s","NA","s","NA","NA","s","401","NA","23249","NA","NA","401","2","legacy","1024","2","48000","-16","experiment","SSSSS","1","odd","147698","28384","NA","NA","131877","5129","NA","NA","148791","5134","NA","NA","148893","149294","148788","148893","CS-FlankerTask","68","34266","71","yes","1024"
"95.83333333333333","95.83333333333333","483.1388888888889","483.1388888888889","black","legacy","legacy","legacy","0","incongruent","uniform","1","undefined","1","h","71","0","0","0","71","0","71","0","71","0","0","0","71","71","71","71","Sat Sep 17 21:19:13 2022","1500","The main experiment item","yes","CS-Subject-1.osexp","C:/Users/cici_/Downloads","no","mono","no","18","no","white","no","yes","768","legacy","71","71","C:/Users/cici_/Downloads/CS-subject-1.csv","legacy","Lentiform Loewenfeld","3.3.12","0","h","NA","s","NA","NA","h","520","NA","23249","NA","NA","520","2","legacy","1024","2","48000","-16","experiment","SSHSS","1","odd","149313","28384","NA","NA","131877","5129","NA","NA","150404","5134","NA","NA","150506","151027","150401","150506","CS-FlankerTask","69","34786","72","yes","1024"
"95.89041095890411","95.89041095890411","483.5753424657534","483.5753424657534","black","legacy","legacy","legacy","0","incongruent","uniform","1","undefined","1","s","72","0","0","0","72","0","72","0","72","0","0","0","72","72","72","72","Sat Sep 17 21:19:13 2022","1500","The main experiment item","yes","CS-Subject-1.osexp","C:/Users/cici_/Downloads","no","mono","no","18","no","white","no","yes","768","legacy","72","72","C:/Users/cici_/Downloads/CS-subject-1.csv","legacy","Lentiform Loewenfeld","3.3.12","0","s","NA","s","NA","NA","s","515","NA","23249","NA","NA","515","2","legacy","1024","2","48000","-16","experiment","HHSHH","1","odd","151043","28384","NA","NA","131877","5129","NA","NA","152136","5134","NA","NA","152238","152754","152132","152238","CS-FlankerTask","70","35301","73","yes","1024"
"95.94594594594595","95.94594594594595","482.7972972972973","482.7972972972973","black","legacy","legacy","legacy","0","congruent","uniform","1","undefined","1","h","73","0","0","0","73","0","73","0","73","0","0","0","73","73","73","73","Sat Sep 17 21:19:13 2022","1500","The main experiment item","yes","CS-Subject-1.osexp","C:/Users/cici_/Downloads","no","mono","no","18","no","white","no","yes","768","legacy","73","73","C:/Users/cici_/Downloads/CS-subject-1.csv","legacy","Lentiform Loewenfeld","3.3.12","0","h","NA","s","NA","NA","h","426","NA","23249","NA","NA","426","2","legacy","1024","2","48000","-16","experiment","HHHHH","1","odd","152771","28384","NA","NA","131877","5129","NA","NA","153863","5134","NA","NA","153965","154393","153859","153965","CS-FlankerTask","71","35727","74","yes","1024"
"96","96","482.0933333333333","482.0933333333333","black","legacy","legacy","legacy","0","congruent","uniform","1","undefined","1","s","74","0","0","0","74","0","74","0","74","0","0","0","74","74","74","74","Sat Sep 17 21:19:13 2022","1500","The main experiment item","yes","CS-Subject-1.osexp","C:/Users/cici_/Downloads","no","mono","no","18","no","white","no","yes","768","legacy","74","74","C:/Users/cici_/Downloads/CS-subject-1.csv","legacy","Lentiform Loewenfeld","3.3.12","0","s","NA","s","NA","NA","s","430","NA","23249","NA","NA","430","2","legacy","1024","2","48000","-16","experiment","SSSSS","1","odd","154410","28384","NA","NA","131877","5129","NA","NA","155502","5134","NA","NA","155604","156036","155499","155604","CS-FlankerTask","72","36157","75","yes","1024"
"96.05263157894737","96.05263157894737","481.55263157894734","481.55263157894734","black","legacy","legacy","legacy","0","congruent","uniform","1","undefined","1","s","75","0","0","0","75","0","75","0","75","0","0","0","75","75","75","75","Sat Sep 17 21:19:13 2022","1500","The main experiment item","yes","CS-Subject-1.osexp","C:/Users/cici_/Downloads","no","mono","no","18","no","white","no","yes","768","legacy","75","75","C:/Users/cici_/Downloads/CS-subject-1.csv","legacy","Lentiform Loewenfeld","3.3.12","0","s","NA","s","NA","NA","s","441","NA","23249","NA","NA","441","2","legacy","1024","2","48000","-16","experiment","SSSSS","1","odd","156054","28384","NA","NA","131877","5129","NA","NA","157147","5134","NA","NA","157249","157692","157143","157249","CS-FlankerTask","73","36598","76","yes","1024"
"96.1038961038961","96.1038961038961","481.75324675324674","481.75324675324674","black","legacy","legacy","legacy","0","incongruent","uniform","1","undefined","1","h","76","0","0","0","76","0","76","0","76","0","0","0","76","76","76","76","Sat Sep 17 21:19:13 2022","1500","The main experiment item","yes","CS-Subject-1.osexp","C:/Users/cici_/Downloads","no","mono","no","18","no","white","no","yes","768","legacy","76","76","C:/Users/cici_/Downloads/CS-subject-1.csv","legacy","Lentiform Loewenfeld","3.3.12","0","h","NA","s","NA","NA","h","497","NA","23249","NA","NA","497","2","legacy","1024","2","48000","-16","experiment","SSHSS","1","odd","157710","28384","NA","NA","131877","5129","NA","NA","158801","5134","NA","NA","158903","159402","158797","158903","CS-FlankerTask","74","37095","77","yes","1024"
"96.15384615384616","96.15384615384616","482.4102564102564","482.4102564102564","black","legacy","legacy","legacy","0","incongruent","uniform","1","undefined","1","s","77","0","0","0","77","0","77","0","77","0","0","0","77","77","77","77","Sat Sep 17 21:19:13 2022","1500","The main experiment item","yes","CS-Subject-1.osexp","C:/Users/cici_/Downloads","no","mono","no","18","no","white","no","yes","768","legacy","77","77","C:/Users/cici_/Downloads/CS-subject-1.csv","legacy","Lentiform Loewenfeld","3.3.12","0","s","NA","s","NA","NA","s","533","NA","23249","NA","NA","533","2","legacy","1024","2","48000","-16","experiment","HHSHH","1","odd","159420","28384","NA","NA","131877","5129","NA","NA","160512","5134","NA","NA","160614","161149","160508","160614","CS-FlankerTask","75","37628","78","yes","1024"
"96.20253164556962","96.20253164556962","481.9873417721519","481.9873417721519","black","legacy","legacy","legacy","0","incongruent","uniform","1","undefined","1","s","78","0","0","0","78","0","78","0","78","0","0","0","78","78","78","78","Sat Sep 17 21:19:13 2022","1500","The main experiment item","yes","CS-Subject-1.osexp","C:/Users/cici_/Downloads","no","mono","no","18","no","white","no","yes","768","legacy","78","78","C:/Users/cici_/Downloads/CS-subject-1.csv","legacy","Lentiform Loewenfeld","3.3.12","0","s","NA","s","NA","NA","s","449","NA","23249","NA","NA","449","2","legacy","1024","2","48000","-16","experiment","HHSHH","1","odd","161166","28384","NA","NA","131877","5129","NA","NA","162256","5134","NA","NA","162359","162810","162254","162359","CS-FlankerTask","76","38077","79","yes","1024"
"96.25","96.25","481.8125","481.8125","black","legacy","legacy","legacy","0","incongruent","uniform","1","undefined","1","h","79","0","0","0","79","0","79","0","79","0","0","0","79","79","79","79","Sat Sep 17 21:19:13 2022","1500","The main experiment item","yes","CS-Subject-1.osexp","C:/Users/cici_/Downloads","no","mono","no","18","no","white","no","yes","768","legacy","79","79","C:/Users/cici_/Downloads/CS-subject-1.csv","legacy","Lentiform Loewenfeld","3.3.12","0","h","NA","s","NA","NA","h","468","NA","23249","NA","NA","468","2","legacy","1024","2","48000","-16","experiment","SSHSS","1","odd","162827","28384","NA","NA","131877","5129","NA","NA","163918","5134","NA","NA","164020","164490","163915","164020","CS-FlankerTask","77","38545","80","yes","1024"
"96.29629629629629","96.29629629629629","482.4691358024691","482.4691358024691","black","legacy","legacy","legacy","0","congruent","uniform","1","undefined","1","h","80","0","0","0","80","0","80","0","80","0","0","0","80","80","80","80","Sat Sep 17 21:19:13 2022","600","The main experiment item","yes","CS-Subject-1.osexp","C:/Users/cici_/Downloads","no","mono","no","18","no","white","no","yes","768","legacy","0","79","C:/Users/cici_/Downloads/CS-subject-1.csv","legacy","Lentiform Loewenfeld","3.3.12","0","h","NA","s","h","NA","h","535","NA","23249","8858","NA","535","2","legacy","1024","2","48000","-16","experiment","HHHHH","1","odd","164506","28384","174397","NA","131877","5129","NA","NA","174469","5134","165537","NA","174572","175108","174467","174571","CS-FlankerTask","78","39080","81","yes","1024"
"96.34146341463415","96.34146341463415","480.9878048780488","480.9878048780488","black","legacy","legacy","legacy","0","incongruent","uniform","1","undefined","1","s","81","0","0","0","81","0","81","0","81","0","0","0","81","81","81","81","Sat Sep 17 21:19:13 2022","600","The main experiment item","yes","CS-Subject-1.osexp","C:/Users/cici_/Downloads","no","mono","no","18","no","white","no","yes","768","legacy","1","79","C:/Users/cici_/Downloads/CS-subject-1.csv","legacy","Lentiform Loewenfeld","3.3.12","0","s","NA","s","h","NA","s","361","NA","23249","8858","NA","361","2","legacy","1024","2","48000","-16","experiment","HHSHH","1","odd","175126","28384","174397","NA","131877","5129","NA","NA","176218","5134","165537","NA","176321","176684","176215","176320","CS-FlankerTask","79","39441","82","yes","1024"
"96.3855421686747","96.3855421686747","481.1686746987952","481.1686746987952","black","legacy","legacy","legacy","0","congruent","uniform","1","undefined","1","s","82","0","0","0","82","0","82","0","82","0","0","0","82","82","82","82","Sat Sep 17 21:19:13 2022","600","The main experiment item","yes","CS-Subject-1.osexp","C:/Users/cici_/Downloads","no","mono","no","18","no","white","no","yes","768","legacy","2","79","C:/Users/cici_/Downloads/CS-subject-1.csv","legacy","Lentiform Loewenfeld","3.3.12","0","s","NA","s","h","NA","s","496","NA","23249","8858","NA","496","2","legacy","1024","2","48000","-16","experiment","SSSSS","1","odd","176700","28384","174397","NA","131877","5129","NA","NA","177790","5134","165537","NA","177892","178390","177787","177892","CS-FlankerTask","80","39937","83","yes","1024"
"95.23809523809524","95.23809523809524","481.92857142857144","481.92857142857144","black","legacy","legacy","legacy","0","incongruent","uniform","0","undefined","0","s","83","0","0","0","83","0","83","0","83","0","0","0","83","83","83","83","Sat Sep 17 21:19:13 2022","600","The main experiment item","yes","CS-Subject-1.osexp","C:/Users/cici_/Downloads","no","mono","no","18","no","white","no","yes","768","legacy","3","79","C:/Users/cici_/Downloads/CS-subject-1.csv","legacy","Lentiform Loewenfeld","3.3.12","0","h","NA","s","h","NA","h","545","NA","23249","8858","NA","545","2","legacy","1024","2","48000","-16","experiment","HHSHH","1","odd","178407","28384","174397","NA","131877","5129","NA","NA","179501","5134","165537","NA","179604","180151","179497","179604","CS-FlankerTask","80","40482","84","yes","1024"
"95.29411764705883","95.29411764705883","482.6823529411765","482.6823529411765","black","legacy","legacy","legacy","0","incongruent","uniform","1","undefined","1","s","84","0","0","0","84","0","84","0","84","0","0","0","84","84","84","84","Sat Sep 17 21:19:13 2022","600","The main experiment item","yes","CS-Subject-1.osexp","C:/Users/cici_/Downloads","no","mono","no","18","no","white","no","yes","768","legacy","4","79","C:/Users/cici_/Downloads/CS-subject-1.csv","legacy","Lentiform Loewenfeld","3.3.12","0","s","NA","s","h","NA","s","546","NA","23249","8858","NA","546","2","legacy","1024","2","48000","-16","experiment","HHSHH","1","odd","180671","28384","174397","NA","180169","5129","NA","NA","181763","5134","165537","NA","181865","182413","181760","181865","CS-FlankerTask","81","41028","85","yes","1024"
"95.34883720930233","95.34883720930233","481.3953488372093","481.3953488372093","black","legacy","legacy","legacy","0","congruent","uniform","1","undefined","1","s","85","0","0","0","85","0","85","0","85","0","0","0","85","85","85","85","Sat Sep 17 21:19:13 2022","600","The main experiment item","yes","CS-Subject-1.osexp","C:/Users/cici_/Downloads","no","mono","no","18","no","white","no","yes","768","legacy","5","79","C:/Users/cici_/Downloads/CS-subject-1.csv","legacy","Lentiform Loewenfeld","3.3.12","0","s","NA","s","h","NA","s","372","NA","23249","8858","NA","372","2","legacy","1024","2","48000","-16","experiment","SSSSS","1","odd","182429","28384","174397","NA","180169","5129","NA","NA","183524","5134","165537","NA","183626","184000","183520","183626","CS-FlankerTask","82","41400","86","yes","1024"
"95.40229885057471","95.40229885057471","479.95402298850576","479.95402298850576","black","legacy","legacy","legacy","0","congruent","uniform","1","undefined","1","h","86","0","0","0","86","0","86","0","86","0","0","0","86","86","86","86","Sat Sep 17 21:19:13 2022","600","The main experiment item","yes","CS-Subject-1.osexp","C:/Users/cici_/Downloads","no","mono","no","18","no","white","no","yes","768","legacy","6","79","C:/Users/cici_/Downloads/CS-subject-1.csv","legacy","Lentiform Loewenfeld","3.3.12","0","h","NA","s","h","NA","h","356","NA","23249","8858","NA","356","2","legacy","1024","2","48000","-16","experiment","HHHHH","1","odd","184017","28384","174397","NA","180169","5129","NA","NA","185112","5134","165537","NA","185214","185571","185108","185214","CS-FlankerTask","83","41756","87","yes","1024"
"95.45454545454545","95.45454545454545","479.875","479.875","black","legacy","legacy","legacy","0","incongruent","uniform","1","undefined","1","s","87","0","0","0","87","0","87","0","87","0","0","0","87","87","87","87","Sat Sep 17 21:19:13 2022","600","The main experiment item","yes","CS-Subject-1.osexp","C:/Users/cici_/Downloads","no","mono","no","18","no","white","no","yes","768","legacy","7","79","C:/Users/cici_/Downloads/CS-subject-1.csv","legacy","Lentiform Loewenfeld","3.3.12","0","s","NA","s","h","NA","s","473","NA","23249","8858","NA","473","2","legacy","1024","2","48000","-16","experiment","HHSHH","1","odd","185588","28384","174397","NA","180169","5129","NA","NA","186680","5134","165537","NA","186783","187259","186677","186783","CS-FlankerTask","84","42229","88","yes","1024"
"94.38202247191012","94.38202247191012","479.55056179775283","479.55056179775283","black","legacy","legacy","legacy","0","incongruent","uniform","0","undefined","0","h","88","0","0","0","88","0","88","0","88","0","0","0","88","88","88","88","Sat Sep 17 21:19:13 2022","600","The main experiment item","yes","CS-Subject-1.osexp","C:/Users/cici_/Downloads","no","mono","no","18","no","white","no","yes","768","legacy","8","79","C:/Users/cici_/Downloads/CS-subject-1.csv","legacy","Lentiform Loewenfeld","3.3.12","0","s","NA","s","h","NA","s","451","NA","23249","8858","NA","451","2","legacy","1024","2","48000","-16","experiment","SSHSS","1","odd","187270","28384","174397","NA","180169","5129","NA","NA","188362","5134","165537","NA","188464","188917","188359","188464","CS-FlankerTask","84","42680","89","yes","1024"
"94.44444444444444","94.44444444444444","479.96666666666664","479.96666666666664","black","legacy","legacy","legacy","0","congruent","uniform","1","undefined","1","h","89","0","0","0","89","0","89","0","89","0","0","0","89","89","89","89","Sat Sep 17 21:19:13 2022","600","The main experiment item","yes","CS-Subject-1.osexp","C:/Users/cici_/Downloads","no","mono","no","18","no","white","no","yes","768","legacy","9","79","C:/Users/cici_/Downloads/CS-subject-1.csv","legacy","Lentiform Loewenfeld","3.3.12","0","h","NA","s","h","NA","h","517","NA","23249","8858","NA","517","2","legacy","1024","2","48000","-16","experiment","HHHHH","1","odd","189435","28384","174397","NA","188933","5129","NA","NA","190528","5134","165537","NA","190630","191149","190524","190630","CS-FlankerTask","85","43197","90","yes","1024"
"93.4065934065934","93.4065934065934","480.2307692307692","480.2307692307692","black","legacy","legacy","legacy","0","incongruent","uniform","0","undefined","0","h","90","0","0","0","90","0","90","0","90","0","0","0","90","90","90","90","Sat Sep 17 21:19:13 2022","600","The main experiment item","yes","CS-Subject-1.osexp","C:/Users/cici_/Downloads","no","mono","no","18","no","white","no","yes","768","legacy","10","79","C:/Users/cici_/Downloads/CS-subject-1.csv","legacy","Lentiform Loewenfeld","3.3.12","0","s","NA","s","h","NA","s","504","NA","23249","8858","NA","504","2","legacy","1024","2","48000","-16","experiment","SSHSS","1","odd","191166","28384","174397","NA","188933","5129","NA","NA","192259","5134","165537","NA","192361","192867","192255","192361","CS-FlankerTask","85","43701","91","yes","1024"
"93.47826086956522","93.47826086956522","480.7282608695652","480.7282608695652","black","legacy","legacy","legacy","0","congruent","uniform","1","undefined","1","s","91","0","0","0","91","0","91","0","91","0","0","0","91","91","91","91","Sat Sep 17 21:19:13 2022","600","The main experiment item","yes","CS-Subject-1.osexp","C:/Users/cici_/Downloads","no","mono","no","18","no","white","no","yes","768","legacy","11","79","C:/Users/cici_/Downloads/CS-subject-1.csv","legacy","Lentiform Loewenfeld","3.3.12","0","s","NA","s","h","NA","s","526","NA","23249","8858","NA","526","2","legacy","1024","2","48000","-16","experiment","SSSSS","1","odd","193386","28384","174397","NA","192884","5129","NA","NA","194477","5134","165537","NA","194579","195107","194474","194579","CS-FlankerTask","86","44227","92","yes","1024"
"93.54838709677419","93.54838709677419","480.4516129032258","480.4516129032258","black","legacy","legacy","legacy","0","congruent","uniform","1","undefined","1","h","92","0","0","0","92","0","92","0","92","0","0","0","92","92","92","92","Sat Sep 17 21:19:13 2022","600","The main experiment item","yes","CS-Subject-1.osexp","C:/Users/cici_/Downloads","no","mono","no","18","no","white","no","yes","768","legacy","12","79","C:/Users/cici_/Downloads/CS-subject-1.csv","legacy","Lentiform Loewenfeld","3.3.12","0","h","NA","s","h","NA","h","455","NA","23249","8858","NA","455","2","legacy","1024","2","48000","-16","experiment","HHHHH","1","odd","195125","28384","174397","NA","192884","5129","NA","NA","196218","5134","165537","NA","196320","196777","196214","196320","CS-FlankerTask","87","44682","93","yes","1024"
"93.61702127659575","93.61702127659575","480.71276595744683","480.71276595744683","black","legacy","legacy","legacy","0","incongruent","uniform","1","undefined","1","s","93","0","0","0","93","0","93","0","93","0","0","0","93","93","93","93","Sat Sep 17 21:19:13 2022","600","The main experiment item","yes","CS-Subject-1.osexp","C:/Users/cici_/Downloads","no","mono","no","18","no","white","no","yes","768","legacy","13","79","C:/Users/cici_/Downloads/CS-subject-1.csv","legacy","Lentiform Loewenfeld","3.3.12","0","s","NA","s","h","NA","s","505","NA","23249","8858","NA","505","2","legacy","1024","2","48000","-16","experiment","HHSHH","1","odd","196795","28384","174397","NA","192884","5129","NA","NA","197887","5134","165537","NA","197989","198496","197884","197989","CS-FlankerTask","88","45187","94","yes","1024"
"93.6842105263158","93.6842105263158","480.82105263157894","480.82105263157894","black","legacy","legacy","legacy","0","incongruent","uniform","1","undefined","1","h","94","0","0","0","94","0","94","0","94","0","0","0","94","94","94","94","Sat Sep 17 21:19:13 2022","600","The main experiment item","yes","CS-Subject-1.osexp","C:/Users/cici_/Downloads","no","mono","no","18","no","white","no","yes","768","legacy","14","79","C:/Users/cici_/Downloads/CS-subject-1.csv","legacy","Lentiform Loewenfeld","3.3.12","0","h","NA","s","h","NA","h","491","NA","23249","8858","NA","491","2","legacy","1024","2","48000","-16","experiment","SSHSS","1","odd","198512","28384","174397","NA","192884","5129","NA","NA","199605","5134","165537","NA","199707","200200","199602","199707","CS-FlankerTask","89","45678","95","yes","1024"
"93.75","93.75","480.8229166666667","480.8229166666667","black","legacy","legacy","legacy","0","incongruent","uniform","1","undefined","1","h","95","0","0","0","95","0","95","0","95","0","0","0","95","95","95","95","Sat Sep 17 21:19:13 2022","600","The main experiment item","yes","CS-Subject-1.osexp","C:/Users/cici_/Downloads","no","mono","no","18","no","white","no","yes","768","legacy","15","79","C:/Users/cici_/Downloads/CS-subject-1.csv","legacy","Lentiform Loewenfeld","3.3.12","0","h","NA","s","h","NA","h","481","NA","23249","8858","NA","481","2","legacy","1024","2","48000","-16","experiment","SSHSS","1","odd","200216","28384","174397","NA","192884","5129","NA","NA","201308","5134","165537","NA","201410","201893","201305","201410","CS-FlankerTask","90","46159","96","yes","1024"
"93.81443298969072","93.81443298969072","481.29896907216494","481.29896907216494","black","legacy","legacy","legacy","0","incongruent","uniform","1","undefined","1","s","96","0","0","0","96","0","96","0","96","0","0","0","96","96","96","96","Sat Sep 17 21:19:13 2022","600","The main experiment item","yes","CS-Subject-1.osexp","C:/Users/cici_/Downloads","no","mono","no","18","no","white","no","yes","768","legacy","16","79","C:/Users/cici_/Downloads/CS-subject-1.csv","legacy","Lentiform Loewenfeld","3.3.12","0","s","NA","s","h","NA","s","527","NA","23249","8858","NA","527","2","legacy","1024","2","48000","-16","experiment","HHSHH","1","odd","201910","28384","174397","NA","192884","5129","NA","NA","203001","5134","165537","NA","203104","203633","202998","203104","CS-FlankerTask","91","46686","97","yes","1024"
"93.87755102040816","93.87755102040816","480.7755102040816","480.7755102040816","black","legacy","legacy","legacy","0","incongruent","uniform","1","undefined","1","h","97","0","0","0","97","0","97","0","97","0","0","0","97","97","97","97","Sat Sep 17 21:19:13 2022","600","The main experiment item","yes","CS-Subject-1.osexp","C:/Users/cici_/Downloads","no","mono","no","18","no","white","no","yes","768","legacy","17","79","C:/Users/cici_/Downloads/CS-subject-1.csv","legacy","Lentiform Loewenfeld","3.3.12","0","h","NA","s","h","NA","h","430","NA","23249","8858","NA","430","2","legacy","1024","2","48000","-16","experiment","SSHSS","1","odd","203650","28384","174397","NA","192884","5129","NA","NA","204741","5134","165537","NA","204844","205276","204738","204844","CS-FlankerTask","92","47116","98","yes","1024"
"93.93939393939394","93.93939393939394","480.1212121212121","480.1212121212121","black","legacy","legacy","legacy","0","incongruent","uniform","1","undefined","1","s","98","0","0","0","98","0","98","0","98","0","0","0","98","98","98","98","Sat Sep 17 21:19:13 2022","600","The main experiment item","yes","CS-Subject-1.osexp","C:/Users/cici_/Downloads","no","mono","no","18","no","white","no","yes","768","legacy","18","79","C:/Users/cici_/Downloads/CS-subject-1.csv","legacy","Lentiform Loewenfeld","3.3.12","0","s","NA","s","h","NA","s","416","NA","23249","8858","NA","416","2","legacy","1024","2","48000","-16","experiment","HHSHH","1","odd","205292","28384","174397","NA","192884","5129","NA","NA","206384","5134","165537","NA","206486","206904","206381","206486","CS-FlankerTask","93","47532","99","yes","1024"
"94","94","479.72","479.72","black","legacy","legacy","legacy","0","congruent","uniform","1","undefined","1","s","99","0","0","0","99","0","99","0","99","0","0","0","99","99","99","99","Sat Sep 17 21:19:13 2022","600","The main experiment item","yes","CS-Subject-1.osexp","C:/Users/cici_/Downloads","no","mono","no","18","no","white","no","yes","768","legacy","19","79","C:/Users/cici_/Downloads/CS-subject-1.csv","legacy","Lentiform Loewenfeld","3.3.12","0","s","NA","s","h","NA","s","440","NA","23249","8858","NA","440","2","legacy","1024","2","48000","-16","experiment","SSSSS","1","odd","206921","28384","174397","NA","192884","5129","NA","NA","208014","5134","165537","NA","208116","208559","208010","208116","CS-FlankerTask","94","47972","100","yes","1024"
"94.05940594059406","94.05940594059406","479.4950495049505","479.4950495049505","black","legacy","legacy","legacy","0","congruent","uniform","1","undefined","1","h","100","0","0","0","100","0","100","0","100","0","0","0","100","100","100","100","Sat Sep 17 21:19:13 2022","600","The main experiment item","yes","CS-Subject-1.osexp","C:/Users/cici_/Downloads","no","mono","no","18","no","white","no","yes","768","legacy","20","79","C:/Users/cici_/Downloads/CS-subject-1.csv","legacy","Lentiform Loewenfeld","3.3.12","0","h","NA","s","h","NA","h","457","NA","23249","8858","NA","457","2","legacy","1024","2","48000","-16","experiment","HHHHH","1","odd","208575","28384","174397","NA","192884","5129","NA","NA","209669","5134","165537","NA","209771","210230","209666","209771","CS-FlankerTask","95","48429","101","yes","1024"
"94.11764705882354","94.11764705882354","479.3921568627451","479.3921568627451","black","legacy","legacy","legacy","0","congruent","uniform","1","undefined","1","h","101","0","0","0","101","0","101","0","101","0","0","0","101","101","101","101","Sat Sep 17 21:19:13 2022","600","The main experiment item","yes","CS-Subject-1.osexp","C:/Users/cici_/Downloads","no","mono","no","18","no","white","no","yes","768","legacy","21","79","C:/Users/cici_/Downloads/CS-subject-1.csv","legacy","Lentiform Loewenfeld","3.3.12","0","h","NA","s","h","NA","h","469","NA","23249","8858","NA","469","2","legacy","1024","2","48000","-16","experiment","HHHHH","1","odd","210246","28384","174397","NA","192884","5129","NA","NA","211339","5134","165537","NA","211441","211911","211335","211441","CS-FlankerTask","96","48898","102","yes","1024"
"94.1747572815534","94.1747572815534","478.66990291262135","478.66990291262135","black","legacy","legacy","legacy","0","congruent","uniform","1","undefined","1","s","102","0","0","0","102","0","102","0","102","0","0","0","102","102","102","102","Sat Sep 17 21:19:13 2022","600","The main experiment item","yes","CS-Subject-1.osexp","C:/Users/cici_/Downloads","no","mono","no","18","no","white","no","yes","768","legacy","22","79","C:/Users/cici_/Downloads/CS-subject-1.csv","legacy","Lentiform Loewenfeld","3.3.12","0","s","NA","s","h","NA","s","405","NA","23249","8858","NA","405","2","legacy","1024","2","48000","-16","experiment","SSSSS","1","odd","211928","28384","174397","NA","192884","5129","NA","NA","213019","5134","165537","NA","213121","213527","213015","213121","CS-FlankerTask","97","49303","103","yes","1024"
"94.23076923076923","94.23076923076923","478.36538461538464","478.36538461538464","black","legacy","legacy","legacy","0","congruent","uniform","1","undefined","1","s","103","0","0","0","103","0","103","0","103","0","0","0","103","103","103","103","Sat Sep 17 21:19:13 2022","600","The main experiment item","yes","CS-Subject-1.osexp","C:/Users/cici_/Downloads","no","mono","no","18","no","white","no","yes","768","legacy","23","79","C:/Users/cici_/Downloads/CS-subject-1.csv","legacy","Lentiform Loewenfeld","3.3.12","0","s","NA","s","h","NA","s","447","NA","23249","8858","NA","447","2","legacy","1024","2","48000","-16","experiment","SSSSS","1","odd","213544","28384","174397","NA","192884","5129","NA","NA","214636","5134","165537","NA","214738","215187","214632","214738","CS-FlankerTask","98","49750","104","yes","1024"
"94.28571428571429","94.28571428571429","477.7238095238095","477.7238095238095","black","legacy","legacy","legacy","0","congruent","uniform","1","undefined","1","s","104","0","0","0","104","0","104","0","104","0","0","0","104","104","104","104","Sat Sep 17 21:19:13 2022","600","The main experiment item","yes","CS-Subject-1.osexp","C:/Users/cici_/Downloads","no","mono","no","18","no","white","no","yes","768","legacy","24","79","C:/Users/cici_/Downloads/CS-subject-1.csv","legacy","Lentiform Loewenfeld","3.3.12","0","s","NA","s","h","NA","s","411","NA","23249","8858","NA","411","2","legacy","1024","2","48000","-16","experiment","SSSSS","1","odd","215194","28384","174397","NA","192884","5129","NA","NA","216285","5134","165537","NA","216387","216800","216281","216387","CS-FlankerTask","99","50161","105","yes","1024"
"93.39622641509433","93.39622641509433","477.8679245283019","477.8679245283019","black","legacy","legacy","legacy","0","incongruent","uniform","0","undefined","0","s","105","0","0","0","105","0","105","0","105","0","0","0","105","105","105","105","Sat Sep 17 21:19:13 2022","600","The main experiment item","yes","CS-Subject-1.osexp","C:/Users/cici_/Downloads","no","mono","no","18","no","white","no","yes","768","legacy","25","79","C:/Users/cici_/Downloads/CS-subject-1.csv","legacy","Lentiform Loewenfeld","3.3.12","0","h","NA","s","h","NA","h","493","NA","23249","8858","NA","493","2","legacy","1024","2","48000","-16","experiment","HHSHH","1","odd","216816","28384","174397","NA","192884","5129","NA","NA","217908","5134","165537","NA","218011","218505","217905","218011","CS-FlankerTask","99","50654","106","yes","1024"
"93.45794392523365","93.45794392523365","477.42056074766356","477.42056074766356","black","legacy","legacy","legacy","0","congruent","uniform","1","undefined","1","h","106","0","0","0","106","0","106","0","106","0","0","0","106","106","106","106","Sat Sep 17 21:19:13 2022","600","The main experiment item","yes","CS-Subject-1.osexp","C:/Users/cici_/Downloads","no","mono","no","18","no","white","no","yes","768","legacy","26","79","C:/Users/cici_/Downloads/CS-subject-1.csv","legacy","Lentiform Loewenfeld","3.3.12","0","h","NA","s","h","NA","h","430","NA","23249","8858","NA","430","2","legacy","1024","2","48000","-16","experiment","HHHHH","1","odd","219025","28384","174397","NA","218523","5129","NA","NA","220119","5134","165537","NA","220221","220653","220116","220221","CS-FlankerTask","100","51084","107","yes","1024"
"93.51851851851852","93.51851851851852","477.76851851851853","477.76851851851853","black","legacy","legacy","legacy","0","incongruent","uniform","1","undefined","1","s","107","0","0","0","107","0","107","0","107","0","0","0","107","107","107","107","Sat Sep 17 21:19:13 2022","600","The main experiment item","yes","CS-Subject-1.osexp","C:/Users/cici_/Downloads","no","mono","no","18","no","white","no","yes","768","legacy","27","79","C:/Users/cici_/Downloads/CS-subject-1.csv","legacy","Lentiform Loewenfeld","3.3.12","0","s","NA","s","h","NA","s","515","NA","23249","8858","NA","515","2","legacy","1024","2","48000","-16","experiment","HHSHH","1","odd","220670","28384","174397","NA","218523","5129","NA","NA","221762","5134","165537","NA","221864","222381","221759","221864","CS-FlankerTask","101","51599","108","yes","1024"
"93.57798165137615","93.57798165137615","477.8715596330275","477.8715596330275","black","legacy","legacy","legacy","0","congruent","uniform","1","undefined","1","h","108","0","0","0","108","0","108","0","108","0","0","0","108","108","108","108","Sat Sep 17 21:19:13 2022","600","The main experiment item","yes","CS-Subject-1.osexp","C:/Users/cici_/Downloads","no","mono","no","18","no","white","no","yes","768","legacy","28","79","C:/Users/cici_/Downloads/CS-subject-1.csv","legacy","Lentiform Loewenfeld","3.3.12","0","h","NA","s","h","NA","h","489","NA","23249","8858","NA","489","2","legacy","1024","2","48000","-16","experiment","HHHHH","1","odd","222398","28384","174397","NA","218523","5129","NA","NA","223490","5134","165537","NA","223592","224083","223487","223592","CS-FlankerTask","102","52088","109","yes","1024"
"93.63636363636364","93.63636363636364","478.24545454545455","478.24545454545455","black","legacy","legacy","legacy","0","incongruent","uniform","1","undefined","1","h","109","0","0","0","109","0","109","0","109","0","0","0","109","109","109","109","Sat Sep 17 21:19:13 2022","600","The main experiment item","yes","CS-Subject-1.osexp","C:/Users/cici_/Downloads","no","mono","no","18","no","white","no","yes","768","legacy","29","79","C:/Users/cici_/Downloads/CS-subject-1.csv","legacy","Lentiform Loewenfeld","3.3.12","0","h","NA","s","h","NA","h","519","NA","23249","8858","NA","519","2","legacy","1024","2","48000","-16","experiment","SSHSS","1","odd","224099","28384","174397","NA","218523","5129","NA","NA","225189","5134","165537","NA","225291","225812","225186","225291","CS-FlankerTask","103","52607","110","yes","1024"
"93.69369369369369","93.69369369369369","477.77477477477476","477.77477477477476","black","legacy","legacy","legacy","0","incongruent","uniform","1","undefined","1","h","110","0","0","0","110","0","110","0","110","0","0","0","110","110","110","110","Sat Sep 17 21:19:13 2022","600","The main experiment item","yes","CS-Subject-1.osexp","C:/Users/cici_/Downloads","no","mono","no","18","no","white","no","yes","768","legacy","30","79","C:/Users/cici_/Downloads/CS-subject-1.csv","legacy","Lentiform Loewenfeld","3.3.12","0","h","NA","s","h","NA","h","426","NA","23249","8858","NA","426","2","legacy","1024","2","48000","-16","experiment","SSHSS","1","odd","225830","28384","174397","NA","218523","5129","NA","NA","226922","5134","165537","NA","227024","227452","226919","227024","CS-FlankerTask","104","53033","111","yes","1024"
"93.75","93.75","477.57142857142856","477.57142857142856","black","legacy","legacy","legacy","0","congruent","uniform","1","undefined","1","h","111","0","0","0","111","0","111","0","111","0","0","0","111","111","111","111","Sat Sep 17 21:19:13 2022","600","The main experiment item","yes","CS-Subject-1.osexp","C:/Users/cici_/Downloads","no","mono","no","18","no","white","no","yes","768","legacy","31","79","C:/Users/cici_/Downloads/CS-subject-1.csv","legacy","Lentiform Loewenfeld","3.3.12","0","h","NA","s","h","NA","h","455","NA","23249","8858","NA","455","2","legacy","1024","2","48000","-16","experiment","HHHHH","1","odd","227470","28384","174397","NA","218523","5129","NA","NA","228561","5134","165537","NA","228663","229120","228558","228663","CS-FlankerTask","105","53488","112","yes","1024"
"93.80530973451327","93.80530973451327","477.3185840707965","477.3185840707965","black","legacy","legacy","legacy","0","congruent","uniform","1","undefined","1","h","112","0","0","0","112","0","112","0","112","0","0","0","112","112","112","112","Sat Sep 17 21:19:13 2022","600","The main experiment item","yes","CS-Subject-1.osexp","C:/Users/cici_/Downloads","no","mono","no","18","no","white","no","yes","768","legacy","32","79","C:/Users/cici_/Downloads/CS-subject-1.csv","legacy","Lentiform Loewenfeld","3.3.12","0","h","NA","s","h","NA","h","449","NA","23249","8858","NA","449","2","legacy","1024","2","48000","-16","experiment","HHHHH","1","odd","229136","28384","174397","NA","218523","5129","NA","NA","230229","5134","165537","NA","230331","230783","230225","230331","CS-FlankerTask","106","53937","113","yes","1024"
"93.85964912280701","93.85964912280701","476.1842105263158","476.1842105263158","black","legacy","legacy","legacy","0","incongruent","uniform","1","undefined","1","s","113","0","0","0","113","0","113","0","113","0","0","0","113","113","113","113","Sat Sep 17 21:19:13 2022","600","The main experiment item","yes","CS-Subject-1.osexp","C:/Users/cici_/Downloads","no","mono","no","18","no","white","no","yes","768","legacy","33","79","C:/Users/cici_/Downloads/CS-subject-1.csv","legacy","Lentiform Loewenfeld","3.3.12","0","s","NA","s","h","NA","s","348","NA","23249","8858","NA","348","2","legacy","1024","2","48000","-16","experiment","HHSHH","1","odd","230799","28384","174397","NA","218523","5129","NA","NA","231894","5134","165537","NA","231996","232346","231890","231996","CS-FlankerTask","107","54285","114","yes","1024"
"93.04347826086956","93.04347826086956","476.60869565217394","476.60869565217394","black","legacy","legacy","legacy","0","congruent","uniform","0","undefined","0","s","114","0","0","0","114","0","114","0","114","0","0","0","114","114","114","114","Sat Sep 17 21:19:13 2022","600","The main experiment item","yes","CS-Subject-1.osexp","C:/Users/cici_/Downloads","no","mono","no","18","no","white","no","yes","768","legacy","34","79","C:/Users/cici_/Downloads/CS-subject-1.csv","legacy","Lentiform Loewenfeld","3.3.12","0","h","NA","s","h","NA","h","525","NA","23249","8858","NA","525","2","legacy","1024","2","48000","-16","experiment","SSSSS","1","odd","232362","28384","174397","NA","218523","5129","NA","NA","233453","5134","165537","NA","233555","234082","233450","233555","CS-FlankerTask","107","54810","115","yes","1024"
"93.10344827586206","93.10344827586206","477.13793103448273","477.13793103448273","black","legacy","legacy","legacy","0","congruent","uniform","1","undefined","1","s","115","0","0","0","115","0","115","0","115","0","0","0","115","115","115","115","Sat Sep 17 21:19:13 2022","600","The main experiment item","yes","CS-Subject-1.osexp","C:/Users/cici_/Downloads","no","mono","no","18","no","white","no","yes","768","legacy","35","79","C:/Users/cici_/Downloads/CS-subject-1.csv","legacy","Lentiform Loewenfeld","3.3.12","0","s","NA","s","h","NA","s","538","NA","23249","8858","NA","538","2","legacy","1024","2","48000","-16","experiment","SSSSS","1","odd","234602","28384","174397","NA","234100","5129","NA","NA","235694","5134","165537","NA","235796","236336","235690","235796","CS-FlankerTask","108","55348","116","yes","1024"
"93.16239316239316","93.16239316239316","477.6752136752137","477.6752136752137","black","legacy","legacy","legacy","0","incongruent","uniform","1","undefined","1","h","116","0","0","0","116","0","116","0","116","0","0","0","116","116","116","116","Sat Sep 17 21:19:13 2022","600","The main experiment item","yes","CS-Subject-1.osexp","C:/Users/cici_/Downloads","no","mono","no","18","no","white","no","yes","768","legacy","36","79","C:/Users/cici_/Downloads/CS-subject-1.csv","legacy","Lentiform Loewenfeld","3.3.12","0","h","NA","s","h","NA","h","540","NA","23249","8858","NA","540","2","legacy","1024","2","48000","-16","experiment","SSHSS","1","odd","236354","28384","174397","NA","234100","5129","NA","NA","237449","5134","165537","NA","237551","238092","237446","237551","CS-FlankerTask","109","55888","117","yes","1024"
"93.22033898305085","93.22033898305085","478.0593220338983","478.0593220338983","black","legacy","legacy","legacy","0","congruent","uniform","1","undefined","1","h","117","0","0","0","117","0","117","0","117","0","0","0","117","117","117","117","Sat Sep 17 21:19:13 2022","600","The main experiment item","yes","CS-Subject-1.osexp","C:/Users/cici_/Downloads","no","mono","no","18","no","white","no","yes","768","legacy","37","79","C:/Users/cici_/Downloads/CS-subject-1.csv","legacy","Lentiform Loewenfeld","3.3.12","0","h","NA","s","h","NA","h","523","NA","23249","8858","NA","523","2","legacy","1024","2","48000","-16","experiment","HHHHH","1","odd","238109","28384","174397","NA","234100","5129","NA","NA","239201","5134","165537","NA","239303","239827","239197","239303","CS-FlankerTask","110","56411","118","yes","1024"
"93.27731092436974","93.27731092436974","478.3193277310924","478.3193277310924","black","legacy","legacy","legacy","0","congruent","uniform","1","undefined","1","h","118","0","0","0","118","0","118","0","118","0","0","0","118","118","118","118","Sat Sep 17 21:19:13 2022","600","The main experiment item","yes","CS-Subject-1.osexp","C:/Users/cici_/Downloads","no","mono","no","18","no","white","no","yes","768","legacy","38","79","C:/Users/cici_/Downloads/CS-subject-1.csv","legacy","Lentiform Loewenfeld","3.3.12","0","h","NA","s","h","NA","h","509","NA","23249","8858","NA","509","2","legacy","1024","2","48000","-16","experiment","HHHHH","1","odd","239845","28384","174397","NA","234100","5129","NA","NA","240945","5134","165537","NA","241047","241558","240941","241047","CS-FlankerTask","111","56920","119","yes","1024"
"93.33333333333333","93.33333333333333","477.9","477.9","black","legacy","legacy","legacy","0","congruent","uniform","1","undefined","1","s","119","0","0","0","119","0","119","0","119","0","0","0","119","119","119","119","Sat Sep 17 21:19:13 2022","600","The main experiment item","yes","CS-Subject-1.osexp","C:/Users/cici_/Downloads","no","mono","no","18","no","white","no","yes","768","legacy","39","79","C:/Users/cici_/Downloads/CS-subject-1.csv","legacy","Lentiform Loewenfeld","3.3.12","0","s","NA","s","h","NA","s","428","NA","23249","8858","NA","428","2","legacy","1024","2","48000","-16","experiment","SSSSS","1","odd","241575","28384","174397","NA","234100","5129","NA","NA","242666","5134","165537","NA","242768","243198","242663","242768","CS-FlankerTask","112","57348","120","yes","1024"
"93.38842975206612","93.38842975206612","477.91735537190084","477.91735537190084","black","legacy","legacy","legacy","0","congruent","uniform","1","undefined","1","s","120","0","0","0","120","0","120","0","120","0","0","0","120","120","120","120","Sat Sep 17 21:19:13 2022","600","The main experiment item","yes","CS-Subject-1.osexp","C:/Users/cici_/Downloads","no","mono","no","18","no","white","no","yes","768","legacy","40","79","C:/Users/cici_/Downloads/CS-subject-1.csv","legacy","Lentiform Loewenfeld","3.3.12","0","s","NA","s","h","NA","s","480","NA","23249","8858","NA","480","2","legacy","1024","2","48000","-16","experiment","SSSSS","1","odd","243214","28384","174397","NA","234100","5129","NA","NA","244307","5134","165537","NA","244409","244891","244304","244409","CS-FlankerTask","113","57828","121","yes","1024"
"93.44262295081967","93.44262295081967","477.74590163934425","477.74590163934425","black","legacy","legacy","legacy","0","congruent","uniform","1","undefined","1","h","121","0","0","0","121","0","121","0","121","0","0","0","121","121","121","121","Sat Sep 17 21:19:13 2022","600","The main experiment item","yes","CS-Subject-1.osexp","C:/Users/cici_/Downloads","no","mono","no","18","no","white","no","yes","768","legacy","41","79","C:/Users/cici_/Downloads/CS-subject-1.csv","legacy","Lentiform Loewenfeld","3.3.12","0","h","NA","s","h","NA","h","457","NA","23249","8858","NA","457","2","legacy","1024","2","48000","-16","experiment","HHHHH","1","odd","244908","28384","174397","NA","234100","5129","NA","NA","245999","5134","165537","NA","246101","246561","245996","246101","CS-FlankerTask","114","58285","122","yes","1024"
"92.6829268292683","92.6829268292683","478.4959349593496","478.4959349593496","black","legacy","legacy","legacy","0","incongruent","uniform","0","undefined","0","h","122","0","0","0","122","0","122","0","122","0","0","0","122","122","122","122","Sat Sep 17 21:19:13 2022","600","The main experiment item","yes","CS-Subject-1.osexp","C:/Users/cici_/Downloads","no","mono","no","18","no","white","no","yes","768","legacy","42","79","C:/Users/cici_/Downloads/CS-subject-1.csv","legacy","Lentiform Loewenfeld","3.3.12","0","s","NA","s","h","NA","s","570","NA","23249","8858","NA","570","2","legacy","1024","2","48000","-16","experiment","SSHSS","1","odd","246578","28384","174397","NA","234100","5129","NA","NA","247670","5134","165537","NA","247772","248344","247667","247772","CS-FlankerTask","114","58855","123","yes","1024"
