"acc","accuracy","average_response_time","avg_rt","background","canvas_backend","clock_backend","color_backend","compensation","condition","coordinates","correct","correct_Intructions1","correct_KeyboardResponse","correct_response","count_Block1","count_Block2","count_Block3","count_ErrorFeedback","count_Faster","count_Finish","count_Fixation","count_ISI","count_Instruction3","count_Instructions2","count_Intructions1","count_KeyboardResponse","count_Logger","count_Sequence","count_Stimulus","count_experiment","datetime","deadline","description","disable_garbage_collection","experiment_file","experiment_path","font_bold","font_family","font_italic","font_size","font_underline","foreground","form_clicks","fullscreen","height","keyboard_backend","live_row","live_row_Block1","logfile","mouse_backend","opensesame_codename","opensesame_version","repeat_cycle","response","response_Finish","response_Instruction3","response_Instructions2","response_Intructions1","response_KeyboardResponse","response_time","response_time_Finish","response_time_Instruction3","response_time_Instructions2","response_time_Intructions1","response_time_KeyboardResponse","round_decimals","sampler_backend","sound_buf_size","sound_channels","sound_freq","sound_sample_size","start","stimulus","subject_nr","subject_parity","time_Block1","time_Block2","time_Block3","time_ErrorFeedback","time_Faster","time_Finish","time_Fixation","time_ISI","time_Instruction3","time_Instructions2","time_Intructions1","time_KeyboardResponse","time_Logger","time_Sequence","time_Stimulus","time_experiment","title","total_correct","total_response_time","total_responses","uniform_coordinates","width"
"0","0","1500","1500","black","legacy","legacy","legacy","0","Incongruent","uniform","0","undefined","0","s","0","0","0","0","0","0","0","0","0","0","0","0","0","0","0","0","Sun Sep 25 15:46:14 2022","1500","The main experiment item","yes","Lab21FlankerTask.osexp","/Users/alexisparrish/Desktop","no","mono","no","18","no","white","no","yes","768","legacy","0","0","/Users/alexisparrish/Desktop/EP-subject-2.csv","legacy","Lentiform Loewenfeld","3.3.12","0","None","NA","NA","NA","s","None","1500","NA","NA","NA","53496","1500","2","legacy","1024","2","48000","-16","experiment","HHSHH","2","even","57541","NA","NA","NA","NA","NA","57596","NA","NA","NA","4029","57701","59201","57591","57701","4010","Lab 2.1: Flanker Task","0","1500","1","yes","1024"
"50","50","1409","1409","black","legacy","legacy","legacy","0","Incongruent","uniform","1","undefined","1","h","0","0","0","1","1","0","1","1","0","0","0","1","1","1","1","0","Sun Sep 25 15:46:14 2022","1500","The main experiment item","yes","Lab21FlankerTask.osexp","/Users/alexisparrish/Desktop","no","mono","no","18","no","white","no","yes","768","legacy","1","1","/Users/alexisparrish/Desktop/EP-subject-2.csv","legacy","Lentiform Loewenfeld","3.3.12","0","h","NA","NA","NA","s","h","1318","NA","NA","NA","53496","1318","2","legacy","1024","2","48000","-16","experiment","SSHSS","2","even","57541","NA","NA","59215","NA","NA","60781","59719","NA","NA","4029","60885","62204","60777","60885","4010","Lab 2.1: Flanker Task","1","2818","2","yes","1024"
"66.66666666666667","66.66666666666667","1134.6666666666667","1134.6666666666667","black","legacy","legacy","legacy","0","Congruent","uniform","1","undefined","1","h","0","0","0","2","2","0","2","2","0","0","0","2","2","2","2","0","Sun Sep 25 15:46:14 2022","1500","The main experiment item","yes","Lab21FlankerTask.osexp","/Users/alexisparrish/Desktop","no","mono","no","18","no","white","no","yes","768","legacy","2","2","/Users/alexisparrish/Desktop/EP-subject-2.csv","legacy","Lentiform Loewenfeld","3.3.12","0","h","NA","NA","NA","s","h","586","NA","NA","NA","53496","586","2","legacy","1024","2","48000","-16","experiment","HHHHH","2","even","57541","NA","NA","59215","NA","NA","63272","62215","NA","NA","4029","63376","63966","63268","63376","4010","Lab 2.1: Flanker Task","2","3404","3","yes","1024"
"75","75","1000","1000","black","legacy","legacy","legacy","0","Incongruent","uniform","1","undefined","1","s","0","0","0","3","3","0","3","3","0","0","0","3","3","3","3","0","Sun Sep 25 15:46:14 2022","1500","The main experiment item","yes","Lab21FlankerTask.osexp","/Users/alexisparrish/Desktop","no","mono","no","18","no","white","no","yes","768","legacy","3","3","/Users/alexisparrish/Desktop/EP-subject-2.csv","legacy","Lentiform Loewenfeld","3.3.12","0","s","NA","NA","NA","s","s","596","NA","NA","NA","53496","596","2","legacy","1024","2","48000","-16","experiment","HHSHH","2","even","57541","NA","NA","59215","NA","NA","65032","63976","NA","NA","4029","65136","65733","65027","65136","4010","Lab 2.1: Flanker Task","3","4000","4","yes","1024"
"80","80","889.8","889.8","black","legacy","legacy","legacy","0","Incongruent","uniform","1","undefined","1","h","0","0","0","4","4","0","4","4","0","0","0","4","4","4","4","0","Sun Sep 25 15:46:14 2022","1500","The main experiment item","yes","Lab21FlankerTask.osexp","/Users/alexisparrish/Desktop","no","mono","no","18","no","white","no","yes","768","legacy","4","4","/Users/alexisparrish/Desktop/EP-subject-2.csv","legacy","Lentiform Loewenfeld","3.3.12","0","h","NA","NA","NA","s","h","449","NA","NA","NA","53496","449","2","legacy","1024","2","48000","-16","experiment","SSHSS","2","even","57541","NA","NA","59215","NA","NA","66800","65743","NA","NA","4029","66904","67354","66795","66904","4010","Lab 2.1: Flanker Task","4","4449","5","yes","1024"
"83.33333333333333","83.33333333333333","821.6666666666666","821.6666666666666","black","legacy","legacy","legacy","0","Incongruent","uniform","1","undefined","1","s","0","0","0","5","5","0","5","5","0","0","0","5","5","5","5","0","Sun Sep 25 15:46:14 2022","1500","The main experiment item","yes","Lab21FlankerTask.osexp","/Users/alexisparrish/Desktop","no","mono","no","18","no","white","no","yes","768","legacy","5","5","/Users/alexisparrish/Desktop/EP-subject-2.csv","legacy","Lentiform Loewenfeld","3.3.12","0","s","NA","NA","NA","s","s","481","NA","NA","NA","53496","481","2","legacy","1024","2","48000","-16","experiment","HHSHH","2","even","57541","NA","NA","59215","NA","NA","68424","67365","NA","NA","4029","68528","69010","68420","68528","4010","Lab 2.1: Flanker Task","5","4930","6","yes","1024"
"71.42857142857143","71.42857142857143","766.2857142857143","766.2857142857143","black","legacy","legacy","legacy","0","Incongruent","uniform","0","undefined","0","s","0","0","0","6","6","0","6","6","0","0","0","6","6","6","6","0","Sun Sep 25 15:46:14 2022","1500","The main experiment item","yes","Lab21FlankerTask.osexp","/Users/alexisparrish/Desktop","no","mono","no","18","no","white","no","yes","768","legacy","6","6","/Users/alexisparrish/Desktop/EP-subject-2.csv","legacy","Lentiform Loewenfeld","3.3.12","0","h","NA","NA","NA","s","h","434","NA","NA","NA","53496","434","2","legacy","1024","2","48000","-16","experiment","HHSHH","2","even","57541","NA","NA","59215","NA","NA","70082","69020","NA","NA","4029","70186","70621","70078","70185","4010","Lab 2.1: Flanker Task","5","5364","7","yes","1024"
"75","75","739.25","739.25","black","legacy","legacy","legacy","0","Congruent","uniform","1","undefined","1","h","0","0","0","7","7","0","7","7","0","0","0","7","7","7","7","0","Sun Sep 25 15:46:14 2022","1500","The main experiment item","yes","Lab21FlankerTask.osexp","/Users/alexisparrish/Desktop","no","mono","no","18","no","white","no","yes","768","legacy","7","7","/Users/alexisparrish/Desktop/EP-subject-2.csv","legacy","Lentiform Loewenfeld","3.3.12","0","h","NA","NA","NA","s","h","550","NA","NA","NA","53496","550","2","legacy","1024","2","48000","-16","experiment","HHHHH","2","even","57541","NA","NA","70632","NA","NA","72193","71136","NA","NA","4029","72297","72848","72189","72297","4010","Lab 2.1: Flanker Task","6","5914","8","yes","1024"
"77.77777777777777","77.77777777777777","726.6666666666666","726.6666666666666","black","legacy","legacy","legacy","0","Incongruent","uniform","1","undefined","1","h","0","0","0","8","8","0","8","8","0","0","0","8","8","8","8","0","Sun Sep 25 15:46:14 2022","1500","The main experiment item","yes","Lab21FlankerTask.osexp","/Users/alexisparrish/Desktop","no","mono","no","18","no","white","no","yes","768","legacy","8","8","/Users/alexisparrish/Desktop/EP-subject-2.csv","legacy","Lentiform Loewenfeld","3.3.12","0","h","NA","NA","NA","s","h","626","NA","NA","NA","53496","626","2","legacy","1024","2","48000","-16","experiment","SSHSS","2","even","57541","NA","NA","70632","NA","NA","73914","72855","NA","NA","4029","74019","74646","73910","74019","4010","Lab 2.1: Flanker Task","7","6540","9","yes","1024"
"80","80","713.7","713.7","black","legacy","legacy","legacy","0","Congruent","uniform","1","undefined","1","h","0","0","0","9","9","0","9","9","0","0","0","9","9","9","9","0","Sun Sep 25 15:46:14 2022","1500","The main experiment item","yes","Lab21FlankerTask.osexp","/Users/alexisparrish/Desktop","no","mono","no","18","no","white","no","yes","768","legacy","9","9","/Users/alexisparrish/Desktop/EP-subject-2.csv","legacy","Lentiform Loewenfeld","3.3.12","0","h","NA","NA","NA","s","h","597","NA","NA","NA","53496","597","2","legacy","1024","2","48000","-16","experiment","HHHHH","2","even","57541","NA","NA","70632","NA","NA","75718","74657","NA","NA","4029","75822","76420","75713","75822","4010","Lab 2.1: Flanker Task","8","7137","10","yes","1024"
"81.81818181818181","81.81818181818181","708.6363636363636","708.6363636363636","black","legacy","legacy","legacy","0","Incongruent","uniform","1","undefined","1","s","0","0","0","10","10","0","10","10","0","0","0","10","10","10","10","0","Sun Sep 25 15:46:14 2022","1500","The main experiment item","yes","Lab21FlankerTask.osexp","/Users/alexisparrish/Desktop","no","mono","no","18","no","white","no","yes","768","legacy","10","10","/Users/alexisparrish/Desktop/EP-subject-2.csv","legacy","Lentiform Loewenfeld","3.3.12","0","s","NA","NA","NA","s","s","658","NA","NA","NA","53496","658","2","legacy","1024","2","48000","-16","experiment","HHSHH","2","even","57541","NA","NA","70632","NA","NA","77492","76430","NA","NA","4029","77596","78254","77487","77596","4010","Lab 2.1: Flanker Task","9","7795","11","yes","1024"
"83.33333333333333","83.33333333333333","683.1666666666666","683.1666666666666","black","legacy","legacy","legacy","0","Congruent","uniform","1","undefined","1","s","0","0","0","11","11","0","11","11","0","0","0","11","11","11","11","0","Sun Sep 25 15:46:14 2022","1500","The main experiment item","yes","Lab21FlankerTask.osexp","/Users/alexisparrish/Desktop","no","mono","no","18","no","white","no","yes","768","legacy","11","11","/Users/alexisparrish/Desktop/EP-subject-2.csv","legacy","Lentiform Loewenfeld","3.3.12","0","s","NA","NA","NA","s","s","403","NA","NA","NA","53496","403","2","legacy","1024","2","48000","-16","experiment","SSSSS","2","even","57541","NA","NA","70632","NA","NA","79326","78266","NA","NA","4029","79430","79834","79321","79430","4010","Lab 2.1: Flanker Task","10","8198","12","yes","1024"
"84.61538461538461","84.61538461538461","665","665","black","legacy","legacy","legacy","0","Congruent","uniform","1","undefined","1","h","0","0","0","12","12","0","12","12","0","0","0","12","12","12","12","0","Sun Sep 25 15:46:14 2022","1500","The main experiment item","yes","Lab21FlankerTask.osexp","/Users/alexisparrish/Desktop","no","mono","no","18","no","white","no","yes","768","legacy","12","12","/Users/alexisparrish/Desktop/EP-subject-2.csv","legacy","Lentiform Loewenfeld","3.3.12","0","h","NA","NA","NA","s","h","447","NA","NA","NA","53496","447","2","legacy","1024","2","48000","-16","experiment","HHHHH","2","even","57541","NA","NA","70632","NA","NA","80902","79839","NA","NA","4029","81006","81454","80897","81006","4010","Lab 2.1: Flanker Task","11","8645","13","yes","1024"
"85.71428571428571","85.71428571428571","651.1428571428571","651.1428571428571","black","legacy","legacy","legacy","0","Incongruent","uniform","1","undefined","1","s","0","0","0","13","13","0","13","13","0","0","0","13","13","13","13","0","Sun Sep 25 15:46:14 2022","1500","The main experiment item","yes","Lab21FlankerTask.osexp","/Users/alexisparrish/Desktop","no","mono","no","18","no","white","no","yes","768","legacy","13","13","/Users/alexisparrish/Desktop/EP-subject-2.csv","legacy","Lentiform Loewenfeld","3.3.12","0","s","NA","NA","NA","s","s","471","NA","NA","NA","53496","471","2","legacy","1024","2","48000","-16","experiment","HHSHH","2","even","57541","NA","NA","70632","NA","NA","82517","81460","NA","NA","4029","82622","83093","82513","82622","4010","Lab 2.1: Flanker Task","12","9116","14","yes","1024"
"86.66666666666667","86.66666666666667","649.0666666666667","649.0666666666667","black","legacy","legacy","legacy","0","Incongruent","uniform","1","undefined","1","h","0","0","0","14","14","0","14","14","0","0","0","14","14","14","14","0","Sun Sep 25 15:46:14 2022","1500","The main experiment item","yes","Lab21FlankerTask.osexp","/Users/alexisparrish/Desktop","no","mono","no","18","no","white","no","yes","768","legacy","14","14","/Users/alexisparrish/Desktop/EP-subject-2.csv","legacy","Lentiform Loewenfeld","3.3.12","0","h","NA","NA","NA","s","h","620","NA","NA","NA","53496","620","2","legacy","1024","2","48000","-16","experiment","SSHSS","2","even","57541","NA","NA","70632","NA","NA","84160","83099","NA","NA","4029","84264","84884","84155","84264","4010","Lab 2.1: Flanker Task","13","9736","15","yes","1024"
"87.5","87.5","648.375","648.375","black","legacy","legacy","legacy","0","Incongruent","uniform","1","undefined","1","h","0","0","0","15","15","0","15","15","0","0","0","15","15","15","15","0","Sun Sep 25 15:46:14 2022","1500","The main experiment item","yes","Lab21FlankerTask.osexp","/Users/alexisparrish/Desktop","no","mono","no","18","no","white","no","yes","768","legacy","15","15","/Users/alexisparrish/Desktop/EP-subject-2.csv","legacy","Lentiform Loewenfeld","3.3.12","0","h","NA","NA","NA","s","h","638","NA","NA","NA","53496","638","2","legacy","1024","2","48000","-16","experiment","SSHSS","2","even","57541","NA","NA","70632","NA","NA","85952","84895","NA","NA","4029","86056","86694","85948","86056","4010","Lab 2.1: Flanker Task","14","10374","16","yes","1024"
"88.23529411764706","88.23529411764706","645.8235294117648","645.8235294117648","black","legacy","legacy","legacy","0","Incongruent","uniform","1","undefined","1","s","0","0","0","16","16","0","16","16","0","0","0","16","16","16","16","0","Sun Sep 25 15:46:14 2022","1500","The main experiment item","yes","Lab21FlankerTask.osexp","/Users/alexisparrish/Desktop","no","mono","no","18","no","white","no","yes","768","legacy","16","16","/Users/alexisparrish/Desktop/EP-subject-2.csv","legacy","Lentiform Loewenfeld","3.3.12","0","s","NA","NA","NA","s","s","605","NA","NA","NA","53496","605","2","legacy","1024","2","48000","-16","experiment","HHSHH","2","even","57541","NA","NA","70632","NA","NA","87768","86706","NA","NA","4029","87872","88477","87764","87872","4010","Lab 2.1: Flanker Task","15","10979","17","yes","1024"
"88.88888888888889","88.88888888888889","640.7777777777778","640.7777777777778","black","legacy","legacy","legacy","0","Incongruent","uniform","1","undefined","1","s","0","0","0","17","17","0","17","17","0","0","0","17","17","17","17","0","Sun Sep 25 15:46:14 2022","1500","The main experiment item","yes","Lab21FlankerTask.osexp","/Users/alexisparrish/Desktop","no","mono","no","18","no","white","no","yes","768","legacy","17","17","/Users/alexisparrish/Desktop/EP-subject-2.csv","legacy","Lentiform Loewenfeld","3.3.12","0","s","NA","NA","NA","s","s","555","NA","NA","NA","53496","555","2","legacy","1024","2","48000","-16","experiment","HHSHH","2","even","57541","NA","NA","70632","NA","NA","89551","88489","NA","NA","4029","89655","90210","89547","89655","4010","Lab 2.1: Flanker Task","16","11534","18","yes","1024"
"89.47368421052632","89.47368421052632","631.421052631579","631.421052631579","black","legacy","legacy","legacy","0","Incongruent","uniform","1","undefined","1","s","0","0","0","18","18","0","18","18","0","0","0","18","18","18","18","0","Sun Sep 25 15:46:14 2022","1500","The main experiment item","yes","Lab21FlankerTask.osexp","/Users/alexisparrish/Desktop","no","mono","no","18","no","white","no","yes","768","legacy","18","18","/Users/alexisparrish/Desktop/EP-subject-2.csv","legacy","Lentiform Loewenfeld","3.3.12","0","s","NA","NA","NA","s","s","463","NA","NA","NA","53496","463","2","legacy","1024","2","48000","-16","experiment","HHSHH","2","even","57541","NA","NA","70632","NA","NA","91290","90222","NA","NA","4029","91394","91857","91285","91394","4010","Lab 2.1: Flanker Task","17","11997","19","yes","1024"
"90","90","624.65","624.65","black","legacy","legacy","legacy","0","Incongruent","uniform","1","undefined","1","s","0","0","0","19","19","0","19","19","0","0","0","19","19","19","19","0","Sun Sep 25 15:46:14 2022","1500","The main experiment item","yes","Lab21FlankerTask.osexp","/Users/alexisparrish/Desktop","no","mono","no","18","no","white","no","yes","768","legacy","19","19","/Users/alexisparrish/Desktop/EP-subject-2.csv","legacy","Lentiform Loewenfeld","3.3.12","0","s","NA","NA","NA","s","s","496","NA","NA","NA","53496","496","2","legacy","1024","2","48000","-16","experiment","HHSHH","2","even","57541","NA","NA","70632","NA","NA","92930","91870","NA","NA","4029","93034","93530","92925","93034","4010","Lab 2.1: Flanker Task","18","12493","20","yes","1024"
"90.47619047619048","90.47619047619048","613.2380952380952","613.2380952380952","black","legacy","legacy","legacy","0","Congruent","uniform","1","undefined","1","s","0","0","0","20","20","0","20","20","0","0","0","20","20","20","20","0","Sun Sep 25 15:46:14 2022","1500","The main experiment item","yes","Lab21FlankerTask.osexp","/Users/alexisparrish/Desktop","no","mono","no","18","no","white","no","yes","768","legacy","20","20","/Users/alexisparrish/Desktop/EP-subject-2.csv","legacy","Lentiform Loewenfeld","3.3.12","0","s","NA","NA","NA","s","s","385","NA","NA","NA","53496","385","2","legacy","1024","2","48000","-16","experiment","SSSSS","2","even","57541","NA","NA","70632","NA","NA","94601","93542","NA","NA","4029","94705","95091","94596","94705","4010","Lab 2.1: Flanker Task","19","12878","21","yes","1024"
"90.9090909090909","90.9090909090909","605.1818181818181","605.1818181818181","black","legacy","legacy","legacy","0","Congruent","uniform","1","undefined","1","s","0","0","0","21","21","0","21","21","0","0","0","21","21","21","21","0","Sun Sep 25 15:46:14 2022","1500","The main experiment item","yes","Lab21FlankerTask.osexp","/Users/alexisparrish/Desktop","no","mono","no","18","no","white","no","yes","768","legacy","21","21","/Users/alexisparrish/Desktop/EP-subject-2.csv","legacy","Lentiform Loewenfeld","3.3.12","0","s","NA","NA","NA","s","s","436","NA","NA","NA","53496","436","2","legacy","1024","2","48000","-16","experiment","SSSSS","2","even","57541","NA","NA","70632","NA","NA","96159","95102","NA","NA","4029","96263","96700","96155","96263","4010","Lab 2.1: Flanker Task","20","13314","22","yes","1024"
"91.30434782608695","91.30434782608695","600","600","black","legacy","legacy","legacy","0","Incongruent","uniform","1","undefined","1","s","0","0","0","22","22","0","22","22","0","0","0","22","22","22","22","0","Sun Sep 25 15:46:14 2022","1500","The main experiment item","yes","Lab21FlankerTask.osexp","/Users/alexisparrish/Desktop","no","mono","no","18","no","white","no","yes","768","legacy","22","22","/Users/alexisparrish/Desktop/EP-subject-2.csv","legacy","Lentiform Loewenfeld","3.3.12","0","s","NA","NA","NA","s","s","486","NA","NA","NA","53496","486","2","legacy","1024","2","48000","-16","experiment","HHSHH","2","even","57541","NA","NA","70632","NA","NA","97771","96711","NA","NA","4029","97875","98362","97766","97875","4010","Lab 2.1: Flanker Task","21","13800","23","yes","1024"
"87.5","87.5","592.9166666666666","592.9166666666666","black","legacy","legacy","legacy","0","Incongruent","uniform","0","undefined","0","h","0","0","0","23","23","0","23","23","0","0","0","23","23","23","23","0","Sun Sep 25 15:46:14 2022","1500","The main experiment item","yes","Lab21FlankerTask.osexp","/Users/alexisparrish/Desktop","no","mono","no","18","no","white","no","yes","768","legacy","23","23","/Users/alexisparrish/Desktop/EP-subject-2.csv","legacy","Lentiform Loewenfeld","3.3.12","0","s","NA","NA","NA","s","s","430","NA","NA","NA","53496","430","2","legacy","1024","2","48000","-16","experiment","SSHSS","2","even","57541","NA","NA","70632","NA","NA","99436","98374","NA","NA","4029","99540","99971","99431","99540","4010","Lab 2.1: Flanker Task","21","14230","24","yes","1024"
"88","88","589.64","589.64","black","legacy","legacy","legacy","0","Congruent","uniform","1","undefined","1","s","0","0","0","24","24","0","24","24","0","0","0","24","24","24","24","0","Sun Sep 25 15:46:14 2022","1500","The main experiment item","yes","Lab21FlankerTask.osexp","/Users/alexisparrish/Desktop","no","mono","no","18","no","white","no","yes","768","legacy","24","24","/Users/alexisparrish/Desktop/EP-subject-2.csv","legacy","Lentiform Loewenfeld","3.3.12","0","s","NA","NA","NA","s","s","511","NA","NA","NA","53496","511","2","legacy","1024","2","48000","-16","experiment","SSSSS","2","even","57541","NA","NA","99982","NA","NA","101540","100486","NA","NA","4029","101644","102156","101536","101644","4010","Lab 2.1: Flanker Task","22","14741","25","yes","1024"
"88.46153846153847","88.46153846153847","580.1153846153846","580.1153846153846","black","legacy","legacy","legacy","0","Congruent","uniform","1","undefined","1","h","0","0","0","25","25","0","25","25","0","0","0","25","25","25","25","0","Sun Sep 25 15:46:14 2022","1500","The main experiment item","yes","Lab21FlankerTask.osexp","/Users/alexisparrish/Desktop","no","mono","no","18","no","white","no","yes","768","legacy","25","25","/Users/alexisparrish/Desktop/EP-subject-2.csv","legacy","Lentiform Loewenfeld","3.3.12","0","h","NA","NA","NA","s","h","342","NA","NA","NA","53496","342","2","legacy","1024","2","48000","-16","experiment","HHHHH","2","even","57541","NA","NA","99982","NA","NA","103228","102168","NA","NA","4029","103332","103675","103223","103332","4010","Lab 2.1: Flanker Task","23","15083","26","yes","1024"
"88.88888888888889","88.88888888888889","578","578","black","legacy","legacy","legacy","0","Incongruent","uniform","1","undefined","1","h","0","0","0","26","26","0","26","26","0","0","0","26","26","26","26","0","Sun Sep 25 15:46:14 2022","1500","The main experiment item","yes","Lab21FlankerTask.osexp","/Users/alexisparrish/Desktop","no","mono","no","18","no","white","no","yes","768","legacy","26","26","/Users/alexisparrish/Desktop/EP-subject-2.csv","legacy","Lentiform Loewenfeld","3.3.12","0","h","NA","NA","NA","s","h","523","NA","NA","NA","53496","523","2","legacy","1024","2","48000","-16","experiment","SSHSS","2","even","57541","NA","NA","99982","NA","NA","104748","103687","NA","NA","4029","104852","105376","104743","104852","4010","Lab 2.1: Flanker Task","24","15606","27","yes","1024"
"89.28571428571429","89.28571428571429","572.0357142857143","572.0357142857143","black","legacy","legacy","legacy","0","Congruent","uniform","1","undefined","1","h","0","0","0","27","27","0","27","27","0","0","0","27","27","27","27","0","Sun Sep 25 15:46:14 2022","1500","The main experiment item","yes","Lab21FlankerTask.osexp","/Users/alexisparrish/Desktop","no","mono","no","18","no","white","no","yes","768","legacy","27","27","/Users/alexisparrish/Desktop/EP-subject-2.csv","legacy","Lentiform Loewenfeld","3.3.12","0","h","NA","NA","NA","s","h","411","NA","NA","NA","53496","411","2","legacy","1024","2","48000","-16","experiment","HHHHH","2","even","57541","NA","NA","99982","NA","NA","106445","105387","NA","NA","4029","106549","106961","106441","106549","4010","Lab 2.1: Flanker Task","25","16017","28","yes","1024"
"89.65517241379311","89.65517241379311","575.9655172413793","575.9655172413793","black","legacy","legacy","legacy","0","Incongruent","uniform","1","undefined","1","s","0","0","0","28","28","0","28","28","0","0","0","28","28","28","28","0","Sun Sep 25 15:46:14 2022","1500","The main experiment item","yes","Lab21FlankerTask.osexp","/Users/alexisparrish/Desktop","no","mono","no","18","no","white","no","yes","768","legacy","28","28","/Users/alexisparrish/Desktop/EP-subject-2.csv","legacy","Lentiform Loewenfeld","3.3.12","0","s","NA","NA","NA","s","s","686","NA","NA","NA","53496","686","2","legacy","1024","2","48000","-16","experiment","HHSHH","2","even","57541","NA","NA","99982","NA","NA","108033","106973","NA","NA","4029","108137","108824","108028","108137","4010","Lab 2.1: Flanker Task","26","16703","29","yes","1024"
"90","90","576.4","576.4","black","legacy","legacy","legacy","0","Incongruent","uniform","1","undefined","1","h","0","0","0","29","29","0","29","29","0","0","0","29","29","29","29","0","Sun Sep 25 15:46:14 2022","1500","The main experiment item","yes","Lab21FlankerTask.osexp","/Users/alexisparrish/Desktop","no","mono","no","18","no","white","no","yes","768","legacy","29","29","/Users/alexisparrish/Desktop/EP-subject-2.csv","legacy","Lentiform Loewenfeld","3.3.12","0","h","NA","NA","NA","s","h","589","NA","NA","NA","53496","589","2","legacy","1024","2","48000","-16","experiment","SSHSS","2","even","57541","NA","NA","99982","NA","NA","109892","108831","NA","NA","4029","109996","110586","109887","109996","4010","Lab 2.1: Flanker Task","27","17292","30","yes","1024"
"90.3225806451613","90.3225806451613","577.9032258064516","577.9032258064516","black","legacy","legacy","legacy","0","Incongruent","uniform","1","undefined","1","s","0","0","0","30","30","0","30","30","0","0","0","30","30","30","30","0","Sun Sep 25 15:46:14 2022","1500","The main experiment item","yes","Lab21FlankerTask.osexp","/Users/alexisparrish/Desktop","no","mono","no","18","no","white","no","yes","768","legacy","30","30","/Users/alexisparrish/Desktop/EP-subject-2.csv","legacy","Lentiform Loewenfeld","3.3.12","0","s","NA","NA","NA","s","s","623","NA","NA","NA","53496","623","2","legacy","1024","2","48000","-16","experiment","HHSHH","2","even","57541","NA","NA","99982","NA","NA","111657","110596","NA","NA","4029","111762","112386","111653","111762","4010","Lab 2.1: Flanker Task","28","17915","31","yes","1024"
"90.625","90.625","575.9375","575.9375","black","legacy","legacy","legacy","0","Incongruent","uniform","1","undefined","1","h","0","0","0","31","31","0","31","31","0","0","0","31","31","31","31","0","Sun Sep 25 15:46:14 2022","1500","The main experiment item","yes","Lab21FlankerTask.osexp","/Users/alexisparrish/Desktop","no","mono","no","18","no","white","no","yes","768","legacy","31","31","/Users/alexisparrish/Desktop/EP-subject-2.csv","legacy","Lentiform Loewenfeld","3.3.12","0","h","NA","NA","NA","s","h","515","NA","NA","NA","53496","515","2","legacy","1024","2","48000","-16","experiment","SSHSS","2","even","57541","NA","NA","99982","NA","NA","113456","112397","NA","NA","4029","113560","114076","113451","113560","4010","Lab 2.1: Flanker Task","29","18430","32","yes","1024"
"90.9090909090909","90.9090909090909","574.7878787878788","574.7878787878788","black","legacy","legacy","legacy","0","Incongruent","uniform","1","undefined","1","h","0","0","0","32","32","0","32","32","0","0","0","32","32","32","32","0","Sun Sep 25 15:46:14 2022","1500","The main experiment item","yes","Lab21FlankerTask.osexp","/Users/alexisparrish/Desktop","no","mono","no","18","no","white","no","yes","768","legacy","32","32","/Users/alexisparrish/Desktop/EP-subject-2.csv","legacy","Lentiform Loewenfeld","3.3.12","0","h","NA","NA","NA","s","h","538","NA","NA","NA","53496","538","2","legacy","1024","2","48000","-16","experiment","SSHSS","2","even","57541","NA","NA","99982","NA","NA","115147","114086","NA","NA","4029","115251","115790","115143","115251","4010","Lab 2.1: Flanker Task","30","18968","33","yes","1024"
"91.17647058823529","91.17647058823529","571.3235294117648","571.3235294117648","black","legacy","legacy","legacy","0","Congruent","uniform","1","undefined","1","h","0","0","0","33","33","0","33","33","0","0","0","33","33","33","33","0","Sun Sep 25 15:46:14 2022","1500","The main experiment item","yes","Lab21FlankerTask.osexp","/Users/alexisparrish/Desktop","no","mono","no","18","no","white","no","yes","768","legacy","33","33","/Users/alexisparrish/Desktop/EP-subject-2.csv","legacy","Lentiform Loewenfeld","3.3.12","0","h","NA","NA","NA","s","h","457","NA","NA","NA","53496","457","2","legacy","1024","2","48000","-16","experiment","HHHHH","2","even","57541","NA","NA","99982","NA","NA","116861","115800","NA","NA","4029","116965","117423","116857","116965","4010","Lab 2.1: Flanker Task","31","19425","34","yes","1024"
"91.42857142857143","91.42857142857143","568.2285714285714","568.2285714285714","black","legacy","legacy","legacy","0","Congruent","uniform","1","undefined","1","h","0","0","0","34","34","0","34","34","0","0","0","34","34","34","34","0","Sun Sep 25 15:46:14 2022","1500","The main experiment item","yes","Lab21FlankerTask.osexp","/Users/alexisparrish/Desktop","no","mono","no","18","no","white","no","yes","768","legacy","34","34","/Users/alexisparrish/Desktop/EP-subject-2.csv","legacy","Lentiform Loewenfeld","3.3.12","0","h","NA","NA","NA","s","h","463","NA","NA","NA","53496","463","2","legacy","1024","2","48000","-16","experiment","HHHHH","2","even","57541","NA","NA","99982","NA","NA","118488","117433","NA","NA","4029","118592","119056","118483","118592","4010","Lab 2.1: Flanker Task","32","19888","35","yes","1024"
"91.66666666666667","91.66666666666667","568.6111111111111","568.6111111111111","black","legacy","legacy","legacy","0","Incongruent","uniform","1","undefined","1","s","0","0","0","35","35","0","35","35","0","0","0","35","35","35","35","0","Sun Sep 25 15:46:14 2022","1500","The main experiment item","yes","Lab21FlankerTask.osexp","/Users/alexisparrish/Desktop","no","mono","no","18","no","white","no","yes","768","legacy","35","35","/Users/alexisparrish/Desktop/EP-subject-2.csv","legacy","Lentiform Loewenfeld","3.3.12","0","s","NA","NA","NA","s","s","582","NA","NA","NA","53496","582","2","legacy","1024","2","48000","-16","experiment","HHSHH","2","even","57541","NA","NA","99982","NA","NA","120123","119067","NA","NA","4029","120228","120811","120119","120228","4010","Lab 2.1: Flanker Task","33","20470","36","yes","1024"
"91.89189189189189","91.89189189189189","566","566","black","legacy","legacy","legacy","0","Congruent","uniform","1","undefined","1","h","0","0","0","36","36","0","36","36","0","0","0","36","36","36","36","0","Sun Sep 25 15:46:14 2022","1500","The main experiment item","yes","Lab21FlankerTask.osexp","/Users/alexisparrish/Desktop","no","mono","no","18","no","white","no","yes","768","legacy","36","36","/Users/alexisparrish/Desktop/EP-subject-2.csv","legacy","Lentiform Loewenfeld","3.3.12","0","h","NA","NA","NA","s","h","472","NA","NA","NA","53496","472","2","legacy","1024","2","48000","-16","experiment","HHHHH","2","even","57541","NA","NA","99982","NA","NA","121882","120822","NA","NA","4029","121986","122459","121878","121986","4010","Lab 2.1: Flanker Task","34","20942","37","yes","1024"
"92.10526315789474","92.10526315789474","563.6578947368421","563.6578947368421","black","legacy","legacy","legacy","0","Congruent","uniform","1","undefined","1","s","0","0","0","37","37","0","37","37","0","0","0","37","37","37","37","0","Sun Sep 25 15:46:14 2022","1500","The main experiment item","yes","Lab21FlankerTask.osexp","/Users/alexisparrish/Desktop","no","mono","no","18","no","white","no","yes","768","legacy","37","37","/Users/alexisparrish/Desktop/EP-subject-2.csv","legacy","Lentiform Loewenfeld","3.3.12","0","s","NA","NA","NA","s","s","477","NA","NA","NA","53496","477","2","legacy","1024","2","48000","-16","experiment","SSSSS","2","even","57541","NA","NA","99982","NA","NA","123526","122469","NA","NA","4029","123630","124108","123521","123630","4010","Lab 2.1: Flanker Task","35","21419","38","yes","1024"
"92.3076923076923","92.3076923076923","562.4615384615385","562.4615384615385","black","legacy","legacy","legacy","0","Congruent","uniform","1","undefined","1","s","0","0","0","38","38","0","38","38","0","0","0","38","38","38","38","0","Sun Sep 25 15:46:14 2022","1500","The main experiment item","yes","Lab21FlankerTask.osexp","/Users/alexisparrish/Desktop","no","mono","no","18","no","white","no","yes","768","legacy","38","38","/Users/alexisparrish/Desktop/EP-subject-2.csv","legacy","Lentiform Loewenfeld","3.3.12","0","s","NA","NA","NA","s","s","517","NA","NA","NA","53496","517","2","legacy","1024","2","48000","-16","experiment","SSSSS","2","even","57541","NA","NA","99982","NA","NA","125179","124120","NA","NA","4029","125283","125800","125175","125283","4010","Lab 2.1: Flanker Task","36","21936","39","yes","1024"
"92.5","92.5","562.9","562.9","black","legacy","legacy","legacy","0","Congruent","uniform","1","undefined","1","s","0","0","0","39","39","0","39","39","0","0","0","39","39","39","39","0","Sun Sep 25 15:46:14 2022","1500","The main experiment item","yes","Lab21FlankerTask.osexp","/Users/alexisparrish/Desktop","no","mono","no","18","no","white","no","yes","768","legacy","39","39","/Users/alexisparrish/Desktop/EP-subject-2.csv","legacy","Lentiform Loewenfeld","3.3.12","0","s","NA","NA","NA","s","s","580","NA","NA","NA","53496","580","2","legacy","1024","2","48000","-16","experiment","SSSSS","2","even","57541","NA","NA","99982","NA","NA","126873","125812","NA","NA","4029","126977","127557","126868","126977","4010","Lab 2.1: Flanker Task","37","22516","40","yes","1024"
"92.6829268292683","92.6829268292683","560.170731707317","560.170731707317","black","legacy","legacy","legacy","0","Congruent","uniform","1","undefined","1","s","0","0","0","40","40","0","40","40","0","0","0","40","40","40","40","0","Sun Sep 25 15:46:14 2022","1500","The main experiment item","yes","Lab21FlankerTask.osexp","/Users/alexisparrish/Desktop","no","mono","no","18","no","white","no","yes","768","legacy","40","40","/Users/alexisparrish/Desktop/EP-subject-2.csv","legacy","Lentiform Loewenfeld","3.3.12","0","s","NA","NA","NA","s","s","451","NA","NA","NA","53496","451","2","legacy","1024","2","48000","-16","experiment","SSSSS","2","even","57541","NA","NA","99982","NA","NA","128629","127569","NA","NA","4029","128734","129185","128622","128734","4010","Lab 2.1: Flanker Task","38","22967","41","yes","1024"
"92.85714285714286","92.85714285714286","557.8333333333334","557.8333333333334","black","legacy","legacy","legacy","0","Congruent","uniform","1","undefined","1","s","0","0","0","41","41","0","41","41","0","0","0","41","41","41","41","0","Sun Sep 25 15:46:14 2022","1500","The main experiment item","yes","Lab21FlankerTask.osexp","/Users/alexisparrish/Desktop","no","mono","no","18","no","white","no","yes","768","legacy","41","41","/Users/alexisparrish/Desktop/EP-subject-2.csv","legacy","Lentiform Loewenfeld","3.3.12","0","s","NA","NA","NA","s","s","462","NA","NA","NA","53496","462","2","legacy","1024","2","48000","-16","experiment","SSSSS","2","even","57541","NA","NA","99982","NA","NA","130254","129196","NA","NA","4029","130358","130820","130249","130358","4010","Lab 2.1: Flanker Task","39","23429","42","yes","1024"
"93.02325581395348","93.02325581395348","555.5116279069767","555.5116279069767","black","legacy","legacy","legacy","0","Incongruent","uniform","1","undefined","1","h","0","0","0","42","42","0","42","42","0","0","0","42","42","42","42","0","Sun Sep 25 15:46:14 2022","1500","The main experiment item","yes","Lab21FlankerTask.osexp","/Users/alexisparrish/Desktop","no","mono","no","18","no","white","no","yes","768","legacy","42","42","/Users/alexisparrish/Desktop/EP-subject-2.csv","legacy","Lentiform Loewenfeld","3.3.12","0","h","NA","NA","NA","s","h","458","NA","NA","NA","53496","458","2","legacy","1024","2","48000","-16","experiment","SSHSS","2","even","57541","NA","NA","99982","NA","NA","131892","130832","NA","NA","4029","131996","132455","131888","131996","4010","Lab 2.1: Flanker Task","40","23887","43","yes","1024"
"93.18181818181819","93.18181818181819","553.3181818181819","553.3181818181819","black","legacy","legacy","legacy","0","Incongruent","uniform","1","undefined","1","h","0","0","0","43","43","0","43","43","0","0","0","43","43","43","43","0","Sun Sep 25 15:46:14 2022","1500","The main experiment item","yes","Lab21FlankerTask.osexp","/Users/alexisparrish/Desktop","no","mono","no","18","no","white","no","yes","768","legacy","43","43","/Users/alexisparrish/Desktop/EP-subject-2.csv","legacy","Lentiform Loewenfeld","3.3.12","0","h","NA","NA","NA","s","h","459","NA","NA","NA","53496","459","2","legacy","1024","2","48000","-16","experiment","SSHSS","2","even","57541","NA","NA","99982","NA","NA","133525","132467","NA","NA","4029","133629","134089","133521","133629","4010","Lab 2.1: Flanker Task","41","24346","44","yes","1024"
"93.33333333333333","93.33333333333333","552.2888888888889","552.2888888888889","black","legacy","legacy","legacy","0","Congruent","uniform","1","undefined","1","h","0","0","0","44","44","0","44","44","0","0","0","44","44","44","44","0","Sun Sep 25 15:46:14 2022","1500","The main experiment item","yes","Lab21FlankerTask.osexp","/Users/alexisparrish/Desktop","no","mono","no","18","no","white","no","yes","768","legacy","44","44","/Users/alexisparrish/Desktop/EP-subject-2.csv","legacy","Lentiform Loewenfeld","3.3.12","0","h","NA","NA","NA","s","h","507","NA","NA","NA","53496","507","2","legacy","1024","2","48000","-16","experiment","HHHHH","2","even","57541","NA","NA","99982","NA","NA","135159","134100","NA","NA","4029","135263","135771","135155","135263","4010","Lab 2.1: Flanker Task","42","24853","45","yes","1024"
"93.47826086956522","93.47826086956522","555.5","555.5","black","legacy","legacy","legacy","0","Congruent","uniform","1","undefined","1","s","0","0","0","45","45","0","45","45","0","0","0","45","45","45","45","0","Sun Sep 25 15:46:14 2022","1500","The main experiment item","yes","Lab21FlankerTask.osexp","/Users/alexisparrish/Desktop","no","mono","no","18","no","white","no","yes","768","legacy","45","45","/Users/alexisparrish/Desktop/EP-subject-2.csv","legacy","Lentiform Loewenfeld","3.3.12","0","s","NA","NA","NA","s","s","700","NA","NA","NA","53496","700","2","legacy","1024","2","48000","-16","experiment","SSSSS","2","even","57541","NA","NA","99982","NA","NA","136843","135782","NA","NA","4029","136947","137648","136839","136947","4010","Lab 2.1: Flanker Task","43","25553","46","yes","1024"
"93.61702127659575","93.61702127659575","554.5744680851063","554.5744680851063","black","legacy","legacy","legacy","0","Incongruent","uniform","1","undefined","1","h","0","0","0","46","46","0","46","46","0","0","0","46","46","46","46","0","Sun Sep 25 15:46:14 2022","1500","The main experiment item","yes","Lab21FlankerTask.osexp","/Users/alexisparrish/Desktop","no","mono","no","18","no","white","no","yes","768","legacy","46","46","/Users/alexisparrish/Desktop/EP-subject-2.csv","legacy","Lentiform Loewenfeld","3.3.12","0","h","NA","NA","NA","s","h","512","NA","NA","NA","53496","512","2","legacy","1024","2","48000","-16","experiment","SSHSS","2","even","57541","NA","NA","99982","NA","NA","138722","137660","NA","NA","4029","138826","139339","138718","138826","4010","Lab 2.1: Flanker Task","44","26065","47","yes","1024"
"93.75","93.75","555.875","555.875","black","legacy","legacy","legacy","0","Incongruent","uniform","1","undefined","1","s","0","0","0","47","47","0","47","47","0","0","0","47","47","47","47","0","Sun Sep 25 15:46:14 2022","1500","The main experiment item","yes","Lab21FlankerTask.osexp","/Users/alexisparrish/Desktop","no","mono","no","18","no","white","no","yes","768","legacy","47","47","/Users/alexisparrish/Desktop/EP-subject-2.csv","legacy","Lentiform Loewenfeld","3.3.12","0","s","NA","NA","NA","s","s","617","NA","NA","NA","53496","617","2","legacy","1024","2","48000","-16","experiment","HHSHH","2","even","57541","NA","NA","99982","NA","NA","140412","139350","NA","NA","4029","140517","141135","140408","140517","4010","Lab 2.1: Flanker Task","45","26682","48","yes","1024"
"93.87755102040816","93.87755102040816","556.265306122449","556.265306122449","black","legacy","legacy","legacy","0","Congruent","uniform","1","undefined","1","h","0","0","0","48","48","0","48","48","0","0","0","48","48","48","48","0","Sun Sep 25 15:46:14 2022","1500","The main experiment item","yes","Lab21FlankerTask.osexp","/Users/alexisparrish/Desktop","no","mono","no","18","no","white","no","yes","768","legacy","48","48","/Users/alexisparrish/Desktop/EP-subject-2.csv","legacy","Lentiform Loewenfeld","3.3.12","0","h","NA","NA","NA","s","h","575","NA","NA","NA","53496","575","2","legacy","1024","2","48000","-16","experiment","HHHHH","2","even","57541","NA","NA","99982","NA","NA","142210","141145","NA","NA","4029","142315","142891","142204","142315","4010","Lab 2.1: Flanker Task","46","27257","49","yes","1024"
"94","94","556.94","556.94","black","legacy","legacy","legacy","0","Incongruent","uniform","1","undefined","1","s","0","0","0","49","49","0","49","49","0","0","0","49","49","49","49","0","Sun Sep 25 15:46:14 2022","1500","The main experiment item","yes","Lab21FlankerTask.osexp","/Users/alexisparrish/Desktop","no","mono","no","18","no","white","no","yes","768","legacy","49","49","/Users/alexisparrish/Desktop/EP-subject-2.csv","legacy","Lentiform Loewenfeld","3.3.12","0","s","NA","NA","NA","s","s","590","NA","NA","NA","53496","590","2","legacy","1024","2","48000","-16","experiment","HHSHH","2","even","57541","NA","NA","99982","NA","NA","143964","142903","NA","NA","4029","144068","144659","143960","144068","4010","Lab 2.1: Flanker Task","47","27847","50","yes","1024"
"94.11764705882354","94.11764705882354","557.7254901960785","557.7254901960785","black","legacy","legacy","legacy","0","Incongruent","uniform","1","undefined","1","h","0","0","0","50","50","0","50","50","0","0","0","50","50","50","50","0","Sun Sep 25 15:46:14 2022","1500","The main experiment item","yes","Lab21FlankerTask.osexp","/Users/alexisparrish/Desktop","no","mono","no","18","no","white","no","yes","768","legacy","50","50","/Users/alexisparrish/Desktop/EP-subject-2.csv","legacy","Lentiform Loewenfeld","3.3.12","0","h","NA","NA","NA","s","h","597","NA","NA","NA","53496","597","2","legacy","1024","2","48000","-16","experiment","SSHSS","2","even","57541","NA","NA","99982","NA","NA","145729","144671","NA","NA","4029","145833","146431","145725","145833","4010","Lab 2.1: Flanker Task","48","28444","51","yes","1024"
"94.23076923076923","94.23076923076923","555.7115384615385","555.7115384615385","black","legacy","legacy","legacy","0","Congruent","uniform","1","undefined","1","h","0","0","0","51","51","0","51","51","0","0","0","51","51","51","51","0","Sun Sep 25 15:46:14 2022","1500","The main experiment item","yes","Lab21FlankerTask.osexp","/Users/alexisparrish/Desktop","no","mono","no","18","no","white","no","yes","768","legacy","51","51","/Users/alexisparrish/Desktop/EP-subject-2.csv","legacy","Lentiform Loewenfeld","3.3.12","0","h","NA","NA","NA","s","h","453","NA","NA","NA","53496","453","2","legacy","1024","2","48000","-16","experiment","HHHHH","2","even","57541","NA","NA","99982","NA","NA","147500","146442","NA","NA","4029","147604","148058","147495","147604","4010","Lab 2.1: Flanker Task","49","28897","52","yes","1024"
"94.33962264150944","94.33962264150944","553.4905660377359","553.4905660377359","black","legacy","legacy","legacy","0","Congruent","uniform","1","undefined","1","s","0","0","0","52","52","0","52","52","0","0","0","52","52","52","52","0","Sun Sep 25 15:46:14 2022","1500","The main experiment item","yes","Lab21FlankerTask.osexp","/Users/alexisparrish/Desktop","no","mono","no","18","no","white","no","yes","768","legacy","52","52","/Users/alexisparrish/Desktop/EP-subject-2.csv","legacy","Lentiform Loewenfeld","3.3.12","0","s","NA","NA","NA","s","s","438","NA","NA","NA","53496","438","2","legacy","1024","2","48000","-16","experiment","SSSSS","2","even","57541","NA","NA","99982","NA","NA","149127","148069","NA","NA","4029","149231","149670","149122","149231","4010","Lab 2.1: Flanker Task","50","29335","53","yes","1024"
"94.44444444444444","94.44444444444444","552.2407407407408","552.2407407407408","black","legacy","legacy","legacy","0","Incongruent","uniform","1","undefined","1","h","0","0","0","53","53","0","53","53","0","0","0","53","53","53","53","0","Sun Sep 25 15:46:14 2022","1500","The main experiment item","yes","Lab21FlankerTask.osexp","/Users/alexisparrish/Desktop","no","mono","no","18","no","white","no","yes","768","legacy","53","53","/Users/alexisparrish/Desktop/EP-subject-2.csv","legacy","Lentiform Loewenfeld","3.3.12","0","h","NA","NA","NA","s","h","486","NA","NA","NA","53496","486","2","legacy","1024","2","48000","-16","experiment","SSHSS","2","even","57541","NA","NA","99982","NA","NA","150741","149680","NA","NA","4029","150845","151332","150736","150845","4010","Lab 2.1: Flanker Task","51","29821","54","yes","1024"
"94.54545454545455","94.54545454545455","550.5090909090909","550.5090909090909","black","legacy","legacy","legacy","0","Congruent","uniform","1","undefined","1","h","0","0","0","54","54","0","54","54","0","0","0","54","54","54","54","0","Sun Sep 25 15:46:14 2022","1500","The main experiment item","yes","Lab21FlankerTask.osexp","/Users/alexisparrish/Desktop","no","mono","no","18","no","white","no","yes","768","legacy","54","54","/Users/alexisparrish/Desktop/EP-subject-2.csv","legacy","Lentiform Loewenfeld","3.3.12","0","h","NA","NA","NA","s","h","457","NA","NA","NA","53496","457","2","legacy","1024","2","48000","-16","experiment","HHHHH","2","even","57541","NA","NA","99982","NA","NA","152404","151343","NA","NA","4029","152508","152966","152399","152508","4010","Lab 2.1: Flanker Task","52","30278","55","yes","1024"
"94.64285714285714","94.64285714285714","549.5178571428571","549.5178571428571","black","legacy","legacy","legacy","0","Incongruent","uniform","1","undefined","1","h","0","0","0","55","55","0","55","55","0","0","0","55","55","55","55","0","Sun Sep 25 15:46:14 2022","1500","The main experiment item","yes","Lab21FlankerTask.osexp","/Users/alexisparrish/Desktop","no","mono","no","18","no","white","no","yes","768","legacy","55","55","/Users/alexisparrish/Desktop/EP-subject-2.csv","legacy","Lentiform Loewenfeld","3.3.12","0","h","NA","NA","NA","s","h","495","NA","NA","NA","53496","495","2","legacy","1024","2","48000","-16","experiment","SSHSS","2","even","57541","NA","NA","99982","NA","NA","154038","152976","NA","NA","4029","154143","154639","154034","154143","4010","Lab 2.1: Flanker Task","53","30773","56","yes","1024"
"94.73684210526316","94.73684210526316","546.9298245614035","546.9298245614035","black","legacy","legacy","legacy","0","Congruent","uniform","1","undefined","1","s","0","0","0","56","56","0","56","56","0","0","0","56","56","56","56","0","Sun Sep 25 15:46:14 2022","1500","The main experiment item","yes","Lab21FlankerTask.osexp","/Users/alexisparrish/Desktop","no","mono","no","18","no","white","no","yes","768","legacy","56","56","/Users/alexisparrish/Desktop/EP-subject-2.csv","legacy","Lentiform Loewenfeld","3.3.12","0","s","NA","NA","NA","s","s","402","NA","NA","NA","53496","402","2","legacy","1024","2","48000","-16","experiment","SSSSS","2","even","57541","NA","NA","99982","NA","NA","155710","154649","NA","NA","4029","155814","156217","155706","155814","4010","Lab 2.1: Flanker Task","54","31175","57","yes","1024"
"94.82758620689656","94.82758620689656","546.8103448275862","546.8103448275862","black","legacy","legacy","legacy","0","Incongruent","uniform","1","undefined","1","h","0","0","0","57","57","0","57","57","0","0","0","57","57","57","57","0","Sun Sep 25 15:46:14 2022","1500","The main experiment item","yes","Lab21FlankerTask.osexp","/Users/alexisparrish/Desktop","no","mono","no","18","no","white","no","yes","768","legacy","57","57","/Users/alexisparrish/Desktop/EP-subject-2.csv","legacy","Lentiform Loewenfeld","3.3.12","0","h","NA","NA","NA","s","h","540","NA","NA","NA","53496","540","2","legacy","1024","2","48000","-16","experiment","SSHSS","2","even","57541","NA","NA","99982","NA","NA","157291","156227","NA","NA","4029","157395","157936","157286","157395","4010","Lab 2.1: Flanker Task","55","31715","58","yes","1024"
"94.91525423728814","94.91525423728814","546.9322033898305","546.9322033898305","black","legacy","legacy","legacy","0","Incongruent","uniform","1","undefined","1","s","0","0","0","58","58","0","58","58","0","0","0","58","58","58","58","0","Sun Sep 25 15:46:14 2022","1500","The main experiment item","yes","Lab21FlankerTask.osexp","/Users/alexisparrish/Desktop","no","mono","no","18","no","white","no","yes","768","legacy","58","58","/Users/alexisparrish/Desktop/EP-subject-2.csv","legacy","Lentiform Loewenfeld","3.3.12","0","s","NA","NA","NA","s","s","554","NA","NA","NA","53496","554","2","legacy","1024","2","48000","-16","experiment","HHSHH","2","even","57541","NA","NA","99982","NA","NA","159003","157946","NA","NA","4029","159107","159662","158998","159107","4010","Lab 2.1: Flanker Task","56","32269","59","yes","1024"
"95","95","547.4833333333333","547.4833333333333","black","legacy","legacy","legacy","0","Incongruent","uniform","1","undefined","1","s","0","0","0","59","59","0","59","59","0","0","0","59","59","59","59","0","Sun Sep 25 15:46:14 2022","1500","The main experiment item","yes","Lab21FlankerTask.osexp","/Users/alexisparrish/Desktop","no","mono","no","18","no","white","no","yes","768","legacy","59","59","/Users/alexisparrish/Desktop/EP-subject-2.csv","legacy","Lentiform Loewenfeld","3.3.12","0","s","NA","NA","NA","s","s","580","NA","NA","NA","53496","580","2","legacy","1024","2","48000","-16","experiment","HHSHH","2","even","57541","NA","NA","99982","NA","NA","160735","159673","NA","NA","4029","160840","161421","160731","160840","4010","Lab 2.1: Flanker Task","57","32849","60","yes","1024"
"95.08196721311475","95.08196721311475","551.1967213114754","551.1967213114754","black","legacy","legacy","legacy","0","Congruent","uniform","1","undefined","1","s","0","0","0","60","60","0","60","60","0","0","0","60","60","60","60","0","Sun Sep 25 15:46:14 2022","1500","The main experiment item","yes","Lab21FlankerTask.osexp","/Users/alexisparrish/Desktop","no","mono","no","18","no","white","no","yes","768","legacy","60","60","/Users/alexisparrish/Desktop/EP-subject-2.csv","legacy","Lentiform Loewenfeld","3.3.12","0","s","NA","NA","NA","s","s","774","NA","NA","NA","53496","774","2","legacy","1024","2","48000","-16","experiment","SSSSS","2","even","57541","NA","NA","99982","NA","NA","162491","161431","NA","NA","4029","162595","163370","162486","162595","4010","Lab 2.1: Flanker Task","58","33623","61","yes","1024"
"95.16129032258064","95.16129032258064","550.6935483870968","550.6935483870968","black","legacy","legacy","legacy","0","Congruent","uniform","1","undefined","1","h","0","0","0","61","61","0","61","61","0","0","0","61","61","61","61","0","Sun Sep 25 15:46:14 2022","1500","The main experiment item","yes","Lab21FlankerTask.osexp","/Users/alexisparrish/Desktop","no","mono","no","18","no","white","no","yes","768","legacy","61","61","/Users/alexisparrish/Desktop/EP-subject-2.csv","legacy","Lentiform Loewenfeld","3.3.12","0","h","NA","NA","NA","s","h","520","NA","NA","NA","53496","520","2","legacy","1024","2","48000","-16","experiment","HHHHH","2","even","57541","NA","NA","99982","NA","NA","164439","163380","NA","NA","4029","164543","165064","164435","164543","4010","Lab 2.1: Flanker Task","59","34143","62","yes","1024"
"95.23809523809524","95.23809523809524","548.6984126984127","548.6984126984127","black","legacy","legacy","legacy","0","Congruent","uniform","1","undefined","1","s","0","0","0","62","62","0","62","62","0","0","0","62","62","62","62","0","Sun Sep 25 15:46:14 2022","1500","The main experiment item","yes","Lab21FlankerTask.osexp","/Users/alexisparrish/Desktop","no","mono","no","18","no","white","no","yes","768","legacy","62","62","/Users/alexisparrish/Desktop/EP-subject-2.csv","legacy","Lentiform Loewenfeld","3.3.12","0","s","NA","NA","NA","s","s","425","NA","NA","NA","53496","425","2","legacy","1024","2","48000","-16","experiment","SSSSS","2","even","57541","NA","NA","99982","NA","NA","166131","165074","NA","NA","4029","166235","166660","166127","166235","4010","Lab 2.1: Flanker Task","60","34568","63","yes","1024"
"95.3125","95.3125","547.25","547.25","black","legacy","legacy","legacy","0","Congruent","uniform","1","undefined","1","s","0","0","0","63","63","0","63","63","0","0","0","63","63","63","63","0","Sun Sep 25 15:46:14 2022","1500","The main experiment item","yes","Lab21FlankerTask.osexp","/Users/alexisparrish/Desktop","no","mono","no","18","no","white","no","yes","768","legacy","63","63","/Users/alexisparrish/Desktop/EP-subject-2.csv","legacy","Lentiform Loewenfeld","3.3.12","0","s","NA","NA","NA","s","s","456","NA","NA","NA","53496","456","2","legacy","1024","2","48000","-16","experiment","SSSSS","2","even","57541","NA","NA","99982","NA","NA","167729","166672","NA","NA","4029","167833","168290","167724","167833","4010","Lab 2.1: Flanker Task","61","35024","64","yes","1024"
"95.38461538461539","95.38461538461539","546.6461538461539","546.6461538461539","black","legacy","legacy","legacy","0","Incongruent","uniform","1","undefined","1","h","0","0","0","64","64","0","64","64","0","0","0","64","64","64","64","0","Sun Sep 25 15:46:14 2022","1500","The main experiment item","yes","Lab21FlankerTask.osexp","/Users/alexisparrish/Desktop","no","mono","no","18","no","white","no","yes","768","legacy","64","64","/Users/alexisparrish/Desktop/EP-subject-2.csv","legacy","Lentiform Loewenfeld","3.3.12","0","h","NA","NA","NA","s","h","508","NA","NA","NA","53496","508","2","legacy","1024","2","48000","-16","experiment","SSHSS","2","even","57541","NA","NA","99982","NA","NA","169363","168301","NA","NA","4029","169468","169977","169359","169468","4010","Lab 2.1: Flanker Task","62","35532","65","yes","1024"
"95.45454545454545","95.45454545454545","545.4242424242424","545.4242424242424","black","legacy","legacy","legacy","0","Congruent","uniform","1","undefined","1","h","0","0","0","65","65","0","65","65","0","0","0","65","65","65","65","0","Sun Sep 25 15:46:14 2022","1500","The main experiment item","yes","Lab21FlankerTask.osexp","/Users/alexisparrish/Desktop","no","mono","no","18","no","white","no","yes","768","legacy","65","65","/Users/alexisparrish/Desktop/EP-subject-2.csv","legacy","Lentiform Loewenfeld","3.3.12","0","h","NA","NA","NA","s","h","466","NA","NA","NA","53496","466","2","legacy","1024","2","48000","-16","experiment","HHHHH","2","even","57541","NA","NA","99982","NA","NA","171045","169988","NA","NA","4029","171149","171616","171040","171149","4010","Lab 2.1: Flanker Task","63","35998","66","yes","1024"
"95.5223880597015","95.5223880597015","544.5970149253732","544.5970149253732","black","legacy","legacy","legacy","0","Incongruent","uniform","1","undefined","1","s","0","0","0","66","66","0","66","66","0","0","0","66","66","66","66","0","Sun Sep 25 15:46:14 2022","1500","The main experiment item","yes","Lab21FlankerTask.osexp","/Users/alexisparrish/Desktop","no","mono","no","18","no","white","no","yes","768","legacy","66","66","/Users/alexisparrish/Desktop/EP-subject-2.csv","legacy","Lentiform Loewenfeld","3.3.12","0","s","NA","NA","NA","s","s","490","NA","NA","NA","53496","490","2","legacy","1024","2","48000","-16","experiment","HHSHH","2","even","57541","NA","NA","99982","NA","NA","172683","171628","NA","NA","4029","172787","173278","172678","172787","4010","Lab 2.1: Flanker Task","64","36488","67","yes","1024"
"95.58823529411765","95.58823529411765","543.8088235294117","543.8088235294117","black","legacy","legacy","legacy","0","Congruent","uniform","1","undefined","1","s","0","0","0","67","67","0","67","67","0","0","0","67","67","67","67","0","Sun Sep 25 15:46:14 2022","1500","The main experiment item","yes","Lab21FlankerTask.osexp","/Users/alexisparrish/Desktop","no","mono","no","18","no","white","no","yes","768","legacy","67","67","/Users/alexisparrish/Desktop/EP-subject-2.csv","legacy","Lentiform Loewenfeld","3.3.12","0","s","NA","NA","NA","s","s","491","NA","NA","NA","53496","491","2","legacy","1024","2","48000","-16","experiment","SSSSS","2","even","57541","NA","NA","99982","NA","NA","174347","173290","NA","NA","4029","174451","174943","174342","174451","4010","Lab 2.1: Flanker Task","65","36979","68","yes","1024"
"95.65217391304348","95.65217391304348","542.8260869565217","542.8260869565217","black","legacy","legacy","legacy","0","Congruent","uniform","1","undefined","1","s","0","0","0","68","68","0","68","68","0","0","0","68","68","68","68","0","Sun Sep 25 15:46:14 2022","1500","The main experiment item","yes","Lab21FlankerTask.osexp","/Users/alexisparrish/Desktop","no","mono","no","18","no","white","no","yes","768","legacy","68","68","/Users/alexisparrish/Desktop/EP-subject-2.csv","legacy","Lentiform Loewenfeld","3.3.12","0","s","NA","NA","NA","s","s","476","NA","NA","NA","53496","476","2","legacy","1024","2","48000","-16","experiment","SSSSS","2","even","57541","NA","NA","99982","NA","NA","176011","174953","NA","NA","4029","176115","176592","176006","176115","4010","Lab 2.1: Flanker Task","66","37455","69","yes","1024"
"95.71428571428571","95.71428571428571","543.0285714285715","543.0285714285715","black","legacy","legacy","legacy","0","Congruent","uniform","1","undefined","1","h","0","0","0","69","69","0","69","69","0","0","0","69","69","69","69","0","Sun Sep 25 15:46:14 2022","1500","The main experiment item","yes","Lab21FlankerTask.osexp","/Users/alexisparrish/Desktop","no","mono","no","18","no","white","no","yes","768","legacy","69","69","/Users/alexisparrish/Desktop/EP-subject-2.csv","legacy","Lentiform Loewenfeld","3.3.12","0","h","NA","NA","NA","s","h","557","NA","NA","NA","53496","557","2","legacy","1024","2","48000","-16","experiment","HHHHH","2","even","57541","NA","NA","99982","NA","NA","177659","176603","NA","NA","4029","177763","178321","177654","177763","4010","Lab 2.1: Flanker Task","67","38012","70","yes","1024"
"95.77464788732394","95.77464788732394","541.6619718309859","541.6619718309859","black","legacy","legacy","legacy","0","Congruent","uniform","1","undefined","1","s","0","0","0","70","70","0","70","70","0","0","0","70","70","70","70","0","Sun Sep 25 15:46:14 2022","1500","The main experiment item","yes","Lab21FlankerTask.osexp","/Users/alexisparrish/Desktop","no","mono","no","18","no","white","no","yes","768","legacy","70","70","/Users/alexisparrish/Desktop/EP-subject-2.csv","legacy","Lentiform Loewenfeld","3.3.12","0","s","NA","NA","NA","s","s","446","NA","NA","NA","53496","446","2","legacy","1024","2","48000","-16","experiment","SSSSS","2","even","57541","NA","NA","99982","NA","NA","179389","178333","NA","NA","4029","179493","179940","179385","179493","4010","Lab 2.1: Flanker Task","68","38458","71","yes","1024"
"95.83333333333333","95.83333333333333","539.9166666666666","539.9166666666666","black","legacy","legacy","legacy","0","Congruent","uniform","1","undefined","1","s","0","0","0","71","71","0","71","71","0","0","0","71","71","71","71","0","Sun Sep 25 15:46:14 2022","1500","The main experiment item","yes","Lab21FlankerTask.osexp","/Users/alexisparrish/Desktop","no","mono","no","18","no","white","no","yes","768","legacy","71","71","/Users/alexisparrish/Desktop/EP-subject-2.csv","legacy","Lentiform Loewenfeld","3.3.12","0","s","NA","NA","NA","s","s","416","NA","NA","NA","53496","416","2","legacy","1024","2","48000","-16","experiment","SSSSS","2","even","57541","NA","NA","99982","NA","NA","181008","179952","NA","NA","4029","181112","181529","181003","181112","4010","Lab 2.1: Flanker Task","69","38874","72","yes","1024"
"95.89041095890411","95.89041095890411","539.917808219178","539.917808219178","black","legacy","legacy","legacy","0","Incongruent","uniform","1","undefined","1","s","0","0","0","72","72","0","72","72","0","0","0","72","72","72","72","0","Sun Sep 25 15:46:14 2022","1500","The main experiment item","yes","Lab21FlankerTask.osexp","/Users/alexisparrish/Desktop","no","mono","no","18","no","white","no","yes","768","legacy","72","72","/Users/alexisparrish/Desktop/EP-subject-2.csv","legacy","Lentiform Loewenfeld","3.3.12","0","s","NA","NA","NA","s","s","540","NA","NA","NA","53496","540","2","legacy","1024","2","48000","-16","experiment","HHSHH","2","even","57541","NA","NA","99982","NA","NA","182599","181542","NA","NA","4029","182703","183244","182594","182703","4010","Lab 2.1: Flanker Task","70","39414","73","yes","1024"
"95.94594594594595","95.94594594594595","538.3108108108108","538.3108108108108","black","legacy","legacy","legacy","0","Congruent","uniform","1","undefined","1","s","0","0","0","73","73","0","73","73","0","0","0","73","73","73","73","0","Sun Sep 25 15:46:14 2022","1500","The main experiment item","yes","Lab21FlankerTask.osexp","/Users/alexisparrish/Desktop","no","mono","no","18","no","white","no","yes","768","legacy","73","73","/Users/alexisparrish/Desktop/EP-subject-2.csv","legacy","Lentiform Loewenfeld","3.3.12","0","s","NA","NA","NA","s","s","421","NA","NA","NA","53496","421","2","legacy","1024","2","48000","-16","experiment","SSSSS","2","even","57541","NA","NA","99982","NA","NA","184311","183256","NA","NA","4029","184415","184837","184306","184415","4010","Lab 2.1: Flanker Task","71","39835","74","yes","1024"
"96","96","536.3733333333333","536.3733333333333","black","legacy","legacy","legacy","0","Congruent","uniform","1","undefined","1","h","0","0","0","74","74","0","74","74","0","0","0","74","74","74","74","0","Sun Sep 25 15:46:14 2022","1500","The main experiment item","yes","Lab21FlankerTask.osexp","/Users/alexisparrish/Desktop","no","mono","no","18","no","white","no","yes","768","legacy","74","74","/Users/alexisparrish/Desktop/EP-subject-2.csv","legacy","Lentiform Loewenfeld","3.3.12","0","h","NA","NA","NA","s","h","393","NA","NA","NA","53496","393","2","legacy","1024","2","48000","-16","experiment","HHHHH","2","even","57541","NA","NA","99982","NA","NA","185904","184849","NA","NA","4029","186009","186403","185900","186009","4010","Lab 2.1: Flanker Task","72","40228","75","yes","1024"
"96.05263157894737","96.05263157894737","536.9736842105264","536.9736842105264","black","legacy","legacy","legacy","0","Congruent","uniform","1","undefined","1","h","0","0","0","75","75","0","75","75","0","0","0","75","75","75","75","0","Sun Sep 25 15:46:14 2022","1500","The main experiment item","yes","Lab21FlankerTask.osexp","/Users/alexisparrish/Desktop","no","mono","no","18","no","white","no","yes","768","legacy","75","75","/Users/alexisparrish/Desktop/EP-subject-2.csv","legacy","Lentiform Loewenfeld","3.3.12","0","h","NA","NA","NA","s","h","582","NA","NA","NA","53496","582","2","legacy","1024","2","48000","-16","experiment","HHHHH","2","even","57541","NA","NA","99982","NA","NA","187471","186414","NA","NA","4029","187575","188158","187466","187575","4010","Lab 2.1: Flanker Task","73","40810","76","yes","1024"
"96.1038961038961","96.1038961038961","536.4675324675325","536.4675324675325","black","legacy","legacy","legacy","0","Congruent","uniform","1","undefined","1","h","0","0","0","76","76","0","76","76","0","0","0","76","76","76","76","0","Sun Sep 25 15:46:14 2022","1500","The main experiment item","yes","Lab21FlankerTask.osexp","/Users/alexisparrish/Desktop","no","mono","no","18","no","white","no","yes","768","legacy","76","76","/Users/alexisparrish/Desktop/EP-subject-2.csv","legacy","Lentiform Loewenfeld","3.3.12","0","h","NA","NA","NA","s","h","498","NA","NA","NA","53496","498","2","legacy","1024","2","48000","-16","experiment","HHHHH","2","even","57541","NA","NA","99982","NA","NA","189227","188170","NA","NA","4029","189331","189830","189222","189331","4010","Lab 2.1: Flanker Task","74","41308","77","yes","1024"
"96.15384615384616","96.15384615384616","536.4487179487179","536.4487179487179","black","legacy","legacy","legacy","0","Incongruent","uniform","1","undefined","1","h","0","0","0","77","77","0","77","77","0","0","0","77","77","77","77","0","Sun Sep 25 15:46:14 2022","1500","The main experiment item","yes","Lab21FlankerTask.osexp","/Users/alexisparrish/Desktop","no","mono","no","18","no","white","no","yes","768","legacy","77","77","/Users/alexisparrish/Desktop/EP-subject-2.csv","legacy","Lentiform Loewenfeld","3.3.12","0","h","NA","NA","NA","s","h","535","NA","NA","NA","53496","535","2","legacy","1024","2","48000","-16","experiment","SSHSS","2","even","57541","NA","NA","99982","NA","NA","190896","189841","NA","NA","4029","191000","191536","190892","191000","4010","Lab 2.1: Flanker Task","75","41843","78","yes","1024"
"96.20253164556962","96.20253164556962","535.632911392405","535.632911392405","black","legacy","legacy","legacy","0","Congruent","uniform","1","undefined","1","h","0","0","0","78","78","0","78","78","0","0","0","78","78","78","78","0","Sun Sep 25 15:46:14 2022","1500","The main experiment item","yes","Lab21FlankerTask.osexp","/Users/alexisparrish/Desktop","no","mono","no","18","no","white","no","yes","768","legacy","78","78","/Users/alexisparrish/Desktop/EP-subject-2.csv","legacy","Lentiform Loewenfeld","3.3.12","0","h","NA","NA","NA","s","h","472","NA","NA","NA","53496","472","2","legacy","1024","2","48000","-16","experiment","HHHHH","2","even","57541","NA","NA","99982","NA","NA","192604","191547","NA","NA","4029","192708","193181","192599","192708","4010","Lab 2.1: Flanker Task","76","42315","79","yes","1024"
"96.25","96.25","534.3875","534.3875","black","legacy","legacy","legacy","0","Incongruent","uniform","1","undefined","1","h","0","0","0","79","79","0","79","79","0","0","0","79","79","79","79","0","Sun Sep 25 15:46:14 2022","1500","The main experiment item","yes","Lab21FlankerTask.osexp","/Users/alexisparrish/Desktop","no","mono","no","18","no","white","no","yes","768","legacy","79","79","/Users/alexisparrish/Desktop/EP-subject-2.csv","legacy","Lentiform Loewenfeld","3.3.12","0","h","NA","NA","NA","s","h","436","NA","NA","NA","53496","436","2","legacy","1024","2","48000","-16","experiment","SSHSS","2","even","57541","NA","NA","99982","NA","NA","194245","193188","NA","NA","4029","194349","194786","194240","194349","4010","Lab 2.1: Flanker Task","77","42751","80","yes","1024"
"96.29629629629629","96.29629629629629","535.2592592592592","535.2592592592592","black","legacy","legacy","legacy","0","Congruent","uniform","1","undefined","1","s","0","0","0","80","80","0","80","80","0","0","0","80","80","80","80","0","Sun Sep 25 15:46:14 2022","600","The main experiment item","yes","Lab21FlankerTask.osexp","/Users/alexisparrish/Desktop","no","mono","no","18","no","white","no","yes","768","legacy","0","79","/Users/alexisparrish/Desktop/EP-subject-2.csv","legacy","Lentiform Loewenfeld","3.3.12","0","s","NA","NA","s","s","s","605","NA","NA","24088","53496","605","2","legacy","1024","2","48000","-16","experiment","SSSSS","2","even","57541","219912","NA","99982","NA","NA","219952","194796","NA","195823","4029","220058","220664","219947","220058","4010","Lab 2.1: Flanker Task","78","43356","81","yes","1024"
"95.1219512195122","95.1219512195122","533.5","533.5","black","legacy","legacy","legacy","0","Incongruent","uniform","0","undefined","0","h","0","0","0","81","81","0","81","81","0","0","0","81","81","81","81","0","Sun Sep 25 15:46:14 2022","600","The main experiment item","yes","Lab21FlankerTask.osexp","/Users/alexisparrish/Desktop","no","mono","no","18","no","white","no","yes","768","legacy","1","79","/Users/alexisparrish/Desktop/EP-subject-2.csv","legacy","Lentiform Loewenfeld","3.3.12","0","s","NA","NA","s","s","s","391","NA","NA","24088","53496","391","2","legacy","1024","2","48000","-16","experiment","SSHSS","2","even","57541","219912","NA","99982","220675","NA","222237","221180","NA","195823","4029","222341","222733","222232","222341","4010","Lab 2.1: Flanker Task","78","43747","82","yes","1024"
"95.18072289156626","95.18072289156626","531.9759036144578","531.9759036144578","black","legacy","legacy","legacy","0","Incongruent","uniform","1","undefined","1","h","0","0","0","82","82","0","82","82","0","0","0","82","82","82","82","0","Sun Sep 25 15:46:14 2022","600","The main experiment item","yes","Lab21FlankerTask.osexp","/Users/alexisparrish/Desktop","no","mono","no","18","no","white","no","yes","768","legacy","2","79","/Users/alexisparrish/Desktop/EP-subject-2.csv","legacy","Lentiform Loewenfeld","3.3.12","0","h","NA","NA","s","s","h","407","NA","NA","24088","53496","407","2","legacy","1024","2","48000","-16","experiment","SSHSS","2","even","57541","219912","NA","222745","220675","NA","224308","223251","NA","195823","4029","224413","224821","224304","224413","4010","Lab 2.1: Flanker Task","79","44154","83","yes","1024"
"95.23809523809524","95.23809523809524","530.6428571428571","530.6428571428571","black","legacy","legacy","legacy","0","Congruent","uniform","1","undefined","1","h","0","0","0","83","83","0","83","83","0","0","0","83","83","83","83","0","Sun Sep 25 15:46:14 2022","600","The main experiment item","yes","Lab21FlankerTask.osexp","/Users/alexisparrish/Desktop","no","mono","no","18","no","white","no","yes","768","legacy","3","79","/Users/alexisparrish/Desktop/EP-subject-2.csv","legacy","Lentiform Loewenfeld","3.3.12","0","h","NA","NA","s","s","h","420","NA","NA","24088","53496","420","2","legacy","1024","2","48000","-16","experiment","HHHHH","2","even","57541","219912","NA","222745","220675","NA","225892","224831","NA","195823","4029","225996","226417","225882","225996","4010","Lab 2.1: Flanker Task","80","44574","84","yes","1024"
"95.29411764705883","95.29411764705883","529.8705882352941","529.8705882352941","black","legacy","legacy","legacy","0","Incongruent","uniform","1","undefined","1","h","0","0","0","84","84","0","84","84","0","0","0","84","84","84","84","0","Sun Sep 25 15:46:14 2022","600","The main experiment item","yes","Lab21FlankerTask.osexp","/Users/alexisparrish/Desktop","no","mono","no","18","no","white","no","yes","768","legacy","4","79","/Users/alexisparrish/Desktop/EP-subject-2.csv","legacy","Lentiform Loewenfeld","3.3.12","0","h","NA","NA","s","s","h","465","NA","NA","24088","53496","465","2","legacy","1024","2","48000","-16","experiment","SSHSS","2","even","57541","219912","NA","222745","220675","NA","227490","226428","NA","195823","4029","227594","228060","227481","227594","4010","Lab 2.1: Flanker Task","81","45039","85","yes","1024"
"95.34883720930233","95.34883720930233","530.2325581395348","530.2325581395348","black","legacy","legacy","legacy","0","Incongruent","uniform","1","undefined","1","s","0","0","0","85","85","0","85","85","0","0","0","85","85","85","85","0","Sun Sep 25 15:46:14 2022","600","The main experiment item","yes","Lab21FlankerTask.osexp","/Users/alexisparrish/Desktop","no","mono","no","18","no","white","no","yes","768","legacy","5","79","/Users/alexisparrish/Desktop/EP-subject-2.csv","legacy","Lentiform Loewenfeld","3.3.12","0","s","NA","NA","s","s","s","561","NA","NA","24088","53496","561","2","legacy","1024","2","48000","-16","experiment","HHSHH","2","even","57541","219912","NA","222745","220675","NA","229133","228071","NA","195823","4029","229237","229799","229124","229237","4010","Lab 2.1: Flanker Task","82","45600","86","yes","1024"
"95.40229885057471","95.40229885057471","529.183908045977","529.183908045977","black","legacy","legacy","legacy","0","Incongruent","uniform","1","undefined","1","s","0","0","0","86","86","0","86","86","0","0","0","86","86","86","86","0","Sun Sep 25 15:46:14 2022","600","The main experiment item","yes","Lab21FlankerTask.osexp","/Users/alexisparrish/Desktop","no","mono","no","18","no","white","no","yes","768","legacy","6","79","/Users/alexisparrish/Desktop/EP-subject-2.csv","legacy","Lentiform Loewenfeld","3.3.12","0","s","NA","NA","s","s","s","439","NA","NA","24088","53496","439","2","legacy","1024","2","48000","-16","experiment","HHSHH","2","even","57541","219912","NA","222745","220675","NA","230873","229810","NA","195823","4029","230977","231417","230865","230977","4010","Lab 2.1: Flanker Task","83","46039","87","yes","1024"
"95.45454545454545","95.45454545454545","528.0568181818181","528.0568181818181","black","legacy","legacy","legacy","0","Congruent","uniform","1","undefined","1","h","0","0","0","87","87","0","87","87","0","0","0","87","87","87","87","0","Sun Sep 25 15:46:14 2022","600","The main experiment item","yes","Lab21FlankerTask.osexp","/Users/alexisparrish/Desktop","no","mono","no","18","no","white","no","yes","768","legacy","7","79","/Users/alexisparrish/Desktop/EP-subject-2.csv","legacy","Lentiform Loewenfeld","3.3.12","0","h","NA","NA","s","s","h","430","NA","NA","24088","53496","430","2","legacy","1024","2","48000","-16","experiment","HHHHH","2","even","57541","219912","NA","222745","220675","NA","232488","231428","NA","195823","4029","232592","233023","232483","232592","4010","Lab 2.1: Flanker Task","84","46469","88","yes","1024"
"95.50561797752809","95.50561797752809","527.4943820224719","527.4943820224719","black","legacy","legacy","legacy","0","Incongruent","uniform","1","undefined","1","s","0","0","0","88","88","0","88","88","0","0","0","88","88","88","88","0","Sun Sep 25 15:46:14 2022","600","The main experiment item","yes","Lab21FlankerTask.osexp","/Users/alexisparrish/Desktop","no","mono","no","18","no","white","no","yes","768","legacy","8","79","/Users/alexisparrish/Desktop/EP-subject-2.csv","legacy","Lentiform Loewenfeld","3.3.12","0","s","NA","NA","s","s","s","478","NA","NA","24088","53496","478","2","legacy","1024","2","48000","-16","experiment","HHSHH","2","even","57541","219912","NA","222745","220675","NA","234097","233035","NA","195823","4029","234201","234680","234093","234201","4010","Lab 2.1: Flanker Task","85","46947","89","yes","1024"
"95.55555555555556","95.55555555555556","525.6222222222223","525.6222222222223","black","legacy","legacy","legacy","0","Congruent","uniform","1","undefined","1","h","0","0","0","89","89","0","89","89","0","0","0","89","89","89","89","0","Sun Sep 25 15:46:14 2022","600","The main experiment item","yes","Lab21FlankerTask.osexp","/Users/alexisparrish/Desktop","no","mono","no","18","no","white","no","yes","768","legacy","9","79","/Users/alexisparrish/Desktop/EP-subject-2.csv","legacy","Lentiform Loewenfeld","3.3.12","0","h","NA","NA","s","s","h","359","NA","NA","24088","53496","359","2","legacy","1024","2","48000","-16","experiment","HHHHH","2","even","57541","219912","NA","222745","220675","NA","235748","234691","NA","195823","4029","235852","236212","235744","235852","4010","Lab 2.1: Flanker Task","86","47306","90","yes","1024"
"94.50549450549451","94.50549450549451","524.6593406593406","524.6593406593406","black","legacy","legacy","legacy","0","Incongruent","uniform","0","undefined","0","h","0","0","0","90","90","0","90","90","0","0","0","90","90","90","90","0","Sun Sep 25 15:46:14 2022","600","The main experiment item","yes","Lab21FlankerTask.osexp","/Users/alexisparrish/Desktop","no","mono","no","18","no","white","no","yes","768","legacy","10","79","/Users/alexisparrish/Desktop/EP-subject-2.csv","legacy","Lentiform Loewenfeld","3.3.12","0","s","NA","NA","s","s","s","438","NA","NA","24088","53496","438","2","legacy","1024","2","48000","-16","experiment","SSHSS","2","even","57541","219912","NA","222745","220675","NA","237284","236223","NA","195823","4029","237388","237827","237279","237388","4010","Lab 2.1: Flanker Task","86","47744","91","yes","1024"
"94.56521739130434","94.56521739130434","523.8260869565217","523.8260869565217","black","legacy","legacy","legacy","0","Congruent","uniform","1","undefined","1","h","0","0","0","91","91","0","91","91","0","0","0","91","91","91","91","0","Sun Sep 25 15:46:14 2022","600","The main experiment item","yes","Lab21FlankerTask.osexp","/Users/alexisparrish/Desktop","no","mono","no","18","no","white","no","yes","768","legacy","11","79","/Users/alexisparrish/Desktop/EP-subject-2.csv","legacy","Lentiform Loewenfeld","3.3.12","0","h","NA","NA","s","s","h","448","NA","NA","24088","53496","448","2","legacy","1024","2","48000","-16","experiment","HHHHH","2","even","57541","219912","NA","237839","220675","NA","239405","238343","NA","195823","4029","239510","239959","239401","239510","4010","Lab 2.1: Flanker Task","87","48192","92","yes","1024"
"94.6236559139785","94.6236559139785","523.7956989247311","523.7956989247311","black","legacy","legacy","legacy","0","Incongruent","uniform","1","undefined","1","h","0","0","0","92","92","0","92","92","0","0","0","92","92","92","92","0","Sun Sep 25 15:46:14 2022","600","The main experiment item","yes","Lab21FlankerTask.osexp","/Users/alexisparrish/Desktop","no","mono","no","18","no","white","no","yes","768","legacy","12","79","/Users/alexisparrish/Desktop/EP-subject-2.csv","legacy","Lentiform Loewenfeld","3.3.12","0","h","NA","NA","s","s","h","521","NA","NA","24088","53496","521","2","legacy","1024","2","48000","-16","experiment","SSHSS","2","even","57541","219912","NA","237839","220675","NA","241032","239970","NA","195823","4029","241136","241658","241027","241136","4010","Lab 2.1: Flanker Task","88","48713","93","yes","1024"
"94.68085106382979","94.68085106382979","522.531914893617","522.531914893617","black","legacy","legacy","legacy","0","Congruent","uniform","1","undefined","1","h","0","0","0","93","93","0","93","93","0","0","0","93","93","93","93","0","Sun Sep 25 15:46:14 2022","600","The main experiment item","yes","Lab21FlankerTask.osexp","/Users/alexisparrish/Desktop","no","mono","no","18","no","white","no","yes","768","legacy","13","79","/Users/alexisparrish/Desktop/EP-subject-2.csv","legacy","Lentiform Loewenfeld","3.3.12","0","h","NA","NA","s","s","h","405","NA","NA","24088","53496","405","2","legacy","1024","2","48000","-16","experiment","HHHHH","2","even","57541","219912","NA","237839","220675","NA","242733","241671","NA","195823","4029","242837","243243","242728","242837","4010","Lab 2.1: Flanker Task","89","49118","94","yes","1024"
"94.73684210526316","94.73684210526316","522.2947368421053","522.2947368421053","black","legacy","legacy","legacy","0","Incongruent","uniform","1","undefined","1","s","0","0","0","94","94","0","94","94","0","0","0","94","94","94","94","0","Sun Sep 25 15:46:14 2022","600","The main experiment item","yes","Lab21FlankerTask.osexp","/Users/alexisparrish/Desktop","no","mono","no","18","no","white","no","yes","768","legacy","14","79","/Users/alexisparrish/Desktop/EP-subject-2.csv","legacy","Lentiform Loewenfeld","3.3.12","0","s","NA","NA","s","s","s","500","NA","NA","24088","53496","500","2","legacy","1024","2","48000","-16","experiment","HHSHH","2","even","57541","219912","NA","237839","220675","NA","244317","243255","NA","195823","4029","244421","244922","244312","244421","4010","Lab 2.1: Flanker Task","90","49618","95","yes","1024"
"93.75","93.75","521.3125","521.3125","black","legacy","legacy","legacy","0","Incongruent","uniform","0","undefined","0","s","0","0","0","95","95","0","95","95","0","0","0","95","95","95","95","0","Sun Sep 25 15:46:14 2022","600","The main experiment item","yes","Lab21FlankerTask.osexp","/Users/alexisparrish/Desktop","no","mono","no","18","no","white","no","yes","768","legacy","15","79","/Users/alexisparrish/Desktop/EP-subject-2.csv","legacy","Lentiform Loewenfeld","3.3.12","0","h","NA","NA","s","s","h","428","NA","NA","24088","53496","428","2","legacy","1024","2","48000","-16","experiment","HHSHH","2","even","57541","219912","NA","237839","220675","NA","245997","244934","NA","195823","4029","246101","246530","245992","246101","4010","Lab 2.1: Flanker Task","90","50046","96","yes","1024"
"93.81443298969072","93.81443298969072","521.9278350515464","521.9278350515464","black","legacy","legacy","legacy","0","Congruent","uniform","1","undefined","1","s","0","0","0","96","96","0","96","96","0","0","0","96","96","96","96","0","Sun Sep 25 15:46:14 2022","600","The main experiment item","yes","Lab21FlankerTask.osexp","/Users/alexisparrish/Desktop","no","mono","no","18","no","white","no","yes","768","legacy","16","79","/Users/alexisparrish/Desktop/EP-subject-2.csv","legacy","Lentiform Loewenfeld","3.3.12","0","s","NA","NA","s","s","s","581","NA","NA","24088","53496","581","2","legacy","1024","2","48000","-16","experiment","SSSSS","2","even","57541","219912","NA","246540","220675","NA","248107","247045","NA","195823","4029","248211","248793","248102","248211","4010","Lab 2.1: Flanker Task","91","50627","97","yes","1024"
"93.87755102040816","93.87755102040816","519.969387755102","519.969387755102","black","legacy","legacy","legacy","0","Congruent","uniform","1","undefined","1","s","0","0","0","97","97","0","97","97","0","0","0","97","97","97","97","0","Sun Sep 25 15:46:14 2022","600","The main experiment item","yes","Lab21FlankerTask.osexp","/Users/alexisparrish/Desktop","no","mono","no","18","no","white","no","yes","768","legacy","17","79","/Users/alexisparrish/Desktop/EP-subject-2.csv","legacy","Lentiform Loewenfeld","3.3.12","0","s","NA","NA","s","s","s","330","NA","NA","24088","53496","330","2","legacy","1024","2","48000","-16","experiment","SSSSS","2","even","57541","219912","NA","246540","220675","NA","249866","248805","NA","195823","4029","249970","250301","249861","249970","4010","Lab 2.1: Flanker Task","92","50957","98","yes","1024"
"93.93939393939394","93.93939393939394","519.5959595959596","519.5959595959596","black","legacy","legacy","legacy","0","Incongruent","uniform","1","undefined","1","h","0","0","0","98","98","0","98","98","0","0","0","98","98","98","98","0","Sun Sep 25 15:46:14 2022","600","The main experiment item","yes","Lab21FlankerTask.osexp","/Users/alexisparrish/Desktop","no","mono","no","18","no","white","no","yes","768","legacy","18","79","/Users/alexisparrish/Desktop/EP-subject-2.csv","legacy","Lentiform Loewenfeld","3.3.12","0","h","NA","NA","s","s","h","483","NA","NA","24088","53496","483","2","legacy","1024","2","48000","-16","experiment","SSHSS","2","even","57541","219912","NA","246540","220675","NA","251370","250312","NA","195823","4029","251474","251958","251365","251474","4010","Lab 2.1: Flanker Task","93","51440","99","yes","1024"
"94","94","520.31","520.31","black","legacy","legacy","legacy","0","Incongruent","uniform","1","undefined","1","h","0","0","0","99","99","0","99","99","0","0","0","99","99","99","99","0","Sun Sep 25 15:46:14 2022","600","The main experiment item","yes","Lab21FlankerTask.osexp","/Users/alexisparrish/Desktop","no","mono","no","18","no","white","no","yes","768","legacy","19","79","/Users/alexisparrish/Desktop/EP-subject-2.csv","legacy","Lentiform Loewenfeld","3.3.12","0","h","NA","NA","s","s","h","591","NA","NA","24088","53496","591","2","legacy","1024","2","48000","-16","experiment","SSHSS","2","even","57541","219912","NA","246540","220675","NA","253029","251968","NA","195823","4029","253133","253725","253025","253133","4010","Lab 2.1: Flanker Task","94","52031","100","yes","1024"
"94.05940594059406","94.05940594059406","519.7920792079208","519.7920792079208","black","legacy","legacy","legacy","0","Incongruent","uniform","1","undefined","1","h","0","0","0","100","100","0","100","100","0","0","0","100","100","100","100","0","Sun Sep 25 15:46:14 2022","600","The main experiment item","yes","Lab21FlankerTask.osexp","/Users/alexisparrish/Desktop","no","mono","no","18","no","white","no","yes","768","legacy","20","79","/Users/alexisparrish/Desktop/EP-subject-2.csv","legacy","Lentiform Loewenfeld","3.3.12","0","h","NA","NA","s","s","h","468","NA","NA","24088","53496","468","2","legacy","1024","2","48000","-16","experiment","SSHSS","2","even","57541","219912","NA","246540","220675","NA","254799","253737","NA","195823","4029","254903","255372","254795","254903","4010","Lab 2.1: Flanker Task","95","52499","101","yes","1024"
"94.11764705882354","94.11764705882354","519.6764705882352","519.6764705882352","black","legacy","legacy","legacy","0","Incongruent","uniform","1","undefined","1","h","0","0","0","101","101","0","101","101","0","0","0","101","101","101","101","0","Sun Sep 25 15:46:14 2022","600","The main experiment item","yes","Lab21FlankerTask.osexp","/Users/alexisparrish/Desktop","no","mono","no","18","no","white","no","yes","768","legacy","21","79","/Users/alexisparrish/Desktop/EP-subject-2.csv","legacy","Lentiform Loewenfeld","3.3.12","0","h","NA","NA","s","s","h","508","NA","NA","24088","53496","508","2","legacy","1024","2","48000","-16","experiment","SSHSS","2","even","57541","219912","NA","246540","220675","NA","256445","255383","NA","195823","4029","256549","257058","256440","256549","4010","Lab 2.1: Flanker Task","96","53007","102","yes","1024"
"94.1747572815534","94.1747572815534","519.1262135922331","519.1262135922331","black","legacy","legacy","legacy","0","Incongruent","uniform","1","undefined","1","h","0","0","0","102","102","0","102","102","0","0","0","102","102","102","102","0","Sun Sep 25 15:46:14 2022","600","The main experiment item","yes","Lab21FlankerTask.osexp","/Users/alexisparrish/Desktop","no","mono","no","18","no","white","no","yes","768","legacy","22","79","/Users/alexisparrish/Desktop/EP-subject-2.csv","legacy","Lentiform Loewenfeld","3.3.12","0","h","NA","NA","s","s","h","463","NA","NA","24088","53496","463","2","legacy","1024","2","48000","-16","experiment","SSHSS","2","even","57541","219912","NA","246540","220675","NA","258126","257068","NA","195823","4029","258230","258695","258122","258230","4010","Lab 2.1: Flanker Task","97","53470","103","yes","1024"
"94.23076923076923","94.23076923076923","518.7788461538462","518.7788461538462","black","legacy","legacy","legacy","0","Incongruent","uniform","1","undefined","1","h","0","0","0","103","103","0","103","103","0","0","0","103","103","103","103","0","Sun Sep 25 15:46:14 2022","600","The main experiment item","yes","Lab21FlankerTask.osexp","/Users/alexisparrish/Desktop","no","mono","no","18","no","white","no","yes","768","legacy","23","79","/Users/alexisparrish/Desktop/EP-subject-2.csv","legacy","Lentiform Loewenfeld","3.3.12","0","h","NA","NA","s","s","h","483","NA","NA","24088","53496","483","2","legacy","1024","2","48000","-16","experiment","SSHSS","2","even","57541","219912","NA","246540","220675","NA","259764","258706","NA","195823","4029","259868","260352","259759","259868","4010","Lab 2.1: Flanker Task","98","53953","104","yes","1024"
"94.28571428571429","94.28571428571429","518.3428571428572","518.3428571428572","black","legacy","legacy","legacy","0","Congruent","uniform","1","undefined","1","h","0","0","0","104","104","0","104","104","0","0","0","104","104","104","104","0","Sun Sep 25 15:46:14 2022","600","The main experiment item","yes","Lab21FlankerTask.osexp","/Users/alexisparrish/Desktop","no","mono","no","18","no","white","no","yes","768","legacy","24","79","/Users/alexisparrish/Desktop/EP-subject-2.csv","legacy","Lentiform Loewenfeld","3.3.12","0","h","NA","NA","s","s","h","473","NA","NA","24088","53496","473","2","legacy","1024","2","48000","-16","experiment","HHHHH","2","even","57541","219912","NA","246540","220675","NA","261428","260363","NA","195823","4029","261532","262006","261423","261532","4010","Lab 2.1: Flanker Task","99","54426","105","yes","1024"
"94.33962264150944","94.33962264150944","516.933962264151","516.933962264151","black","legacy","legacy","legacy","0","Congruent","uniform","1","undefined","1","h","0","0","0","105","105","0","105","105","0","0","0","105","105","105","105","0","Sun Sep 25 15:46:14 2022","600","The main experiment item","yes","Lab21FlankerTask.osexp","/Users/alexisparrish/Desktop","no","mono","no","18","no","white","no","yes","768","legacy","25","79","/Users/alexisparrish/Desktop/EP-subject-2.csv","legacy","Lentiform Loewenfeld","3.3.12","0","h","NA","NA","s","s","h","369","NA","NA","24088","53496","369","2","legacy","1024","2","48000","-16","experiment","HHHHH","2","even","57541","219912","NA","246540","220675","NA","263077","262017","NA","195823","4029","263181","263552","263072","263181","4010","Lab 2.1: Flanker Task","100","54795","106","yes","1024"
"94.39252336448598","94.39252336448598","516.4766355140187","516.4766355140187","black","legacy","legacy","legacy","0","Congruent","uniform","1","undefined","1","s","0","0","0","106","106","0","106","106","0","0","0","106","106","106","106","0","Sun Sep 25 15:46:14 2022","600","The main experiment item","yes","Lab21FlankerTask.osexp","/Users/alexisparrish/Desktop","no","mono","no","18","no","white","no","yes","768","legacy","26","79","/Users/alexisparrish/Desktop/EP-subject-2.csv","legacy","Lentiform Loewenfeld","3.3.12","0","s","NA","NA","s","s","s","468","NA","NA","24088","53496","468","2","legacy","1024","2","48000","-16","experiment","SSSSS","2","even","57541","219912","NA","246540","220675","NA","264621","263563","NA","195823","4029","264725","265195","264616","264725","4010","Lab 2.1: Flanker Task","101","55263","107","yes","1024"
"94.44444444444444","94.44444444444444","516.0277777777778","516.0277777777778","black","legacy","legacy","legacy","0","Incongruent","uniform","1","undefined","1","s","0","0","0","107","107","0","107","107","0","0","0","107","107","107","107","0","Sun Sep 25 15:46:14 2022","600","The main experiment item","yes","Lab21FlankerTask.osexp","/Users/alexisparrish/Desktop","no","mono","no","18","no","white","no","yes","768","legacy","27","79","/Users/alexisparrish/Desktop/EP-subject-2.csv","legacy","Lentiform Loewenfeld","3.3.12","0","s","NA","NA","s","s","s","468","NA","NA","24088","53496","468","2","legacy","1024","2","48000","-16","experiment","HHSHH","2","even","57541","219912","NA","246540","220675","NA","266260","265202","NA","195823","4029","266364","266834","266255","266364","4010","Lab 2.1: Flanker Task","102","55731","108","yes","1024"
"94.4954128440367","94.4954128440367","515.9816513761468","515.9816513761468","black","legacy","legacy","legacy","0","Incongruent","uniform","1","undefined","1","s","0","0","0","108","108","0","108","108","0","0","0","108","108","108","108","0","Sun Sep 25 15:46:14 2022","600","The main experiment item","yes","Lab21FlankerTask.osexp","/Users/alexisparrish/Desktop","no","mono","no","18","no","white","no","yes","768","legacy","28","79","/Users/alexisparrish/Desktop/EP-subject-2.csv","legacy","Lentiform Loewenfeld","3.3.12","0","s","NA","NA","s","s","s","511","NA","NA","24088","53496","511","2","legacy","1024","2","48000","-16","experiment","HHSHH","2","even","57541","219912","NA","246540","220675","NA","267903","266845","NA","195823","4029","268008","268521","267899","268008","4010","Lab 2.1: Flanker Task","103","56242","109","yes","1024"
"94.54545454545455","94.54545454545455","514.8909090909091","514.8909090909091","black","legacy","legacy","legacy","0","Congruent","uniform","1","undefined","1","s","0","0","0","109","109","0","109","109","0","0","0","109","109","109","109","0","Sun Sep 25 15:46:14 2022","600","The main experiment item","yes","Lab21FlankerTask.osexp","/Users/alexisparrish/Desktop","no","mono","no","18","no","white","no","yes","768","legacy","29","79","/Users/alexisparrish/Desktop/EP-subject-2.csv","legacy","Lentiform Loewenfeld","3.3.12","0","s","NA","NA","s","s","s","396","NA","NA","24088","53496","396","2","legacy","1024","2","48000","-16","experiment","SSSSS","2","even","57541","219912","NA","246540","220675","NA","269593","268532","NA","195823","4029","269697","270095","269588","269697","4010","Lab 2.1: Flanker Task","104","56638","110","yes","1024"
"94.5945945945946","94.5945945945946","514.3873873873874","514.3873873873874","black","legacy","legacy","legacy","0","Congruent","uniform","1","undefined","1","h","0","0","0","110","110","0","110","110","0","0","0","110","110","110","110","0","Sun Sep 25 15:46:14 2022","600","The main experiment item","yes","Lab21FlankerTask.osexp","/Users/alexisparrish/Desktop","no","mono","no","18","no","white","no","yes","768","legacy","30","79","/Users/alexisparrish/Desktop/EP-subject-2.csv","legacy","Lentiform Loewenfeld","3.3.12","0","h","NA","NA","s","s","h","459","NA","NA","24088","53496","459","2","legacy","1024","2","48000","-16","experiment","HHHHH","2","even","57541","219912","NA","246540","220675","NA","271162","270105","NA","195823","4029","271266","271726","271157","271266","4010","Lab 2.1: Flanker Task","105","57097","111","yes","1024"
"94.64285714285714","94.64285714285714","513.8125","513.8125","black","legacy","legacy","legacy","0","Incongruent","uniform","1","undefined","1","s","0","0","0","111","111","0","111","111","0","0","0","111","111","111","111","0","Sun Sep 25 15:46:14 2022","600","The main experiment item","yes","Lab21FlankerTask.osexp","/Users/alexisparrish/Desktop","no","mono","no","18","no","white","no","yes","768","legacy","31","79","/Users/alexisparrish/Desktop/EP-subject-2.csv","legacy","Lentiform Loewenfeld","3.3.12","0","s","NA","NA","s","s","s","450","NA","NA","24088","53496","450","2","legacy","1024","2","48000","-16","experiment","HHSHH","2","even","57541","219912","NA","246540","220675","NA","272796","271739","NA","195823","4029","272900","273351","272792","272900","4010","Lab 2.1: Flanker Task","106","57547","112","yes","1024"
"94.69026548672566","94.69026548672566","513.3982300884956","513.3982300884956","black","legacy","legacy","legacy","0","Congruent","uniform","1","undefined","1","s","0","0","0","112","112","0","112","112","0","0","0","112","112","112","112","0","Sun Sep 25 15:46:14 2022","600","The main experiment item","yes","Lab21FlankerTask.osexp","/Users/alexisparrish/Desktop","no","mono","no","18","no","white","no","yes","768","legacy","32","79","/Users/alexisparrish/Desktop/EP-subject-2.csv","legacy","Lentiform Loewenfeld","3.3.12","0","s","NA","NA","s","s","s","467","NA","NA","24088","53496","467","2","legacy","1024","2","48000","-16","experiment","SSSSS","2","even","57541","219912","NA","246540","220675","NA","274422","273363","NA","195823","4029","274526","274995","274417","274526","4010","Lab 2.1: Flanker Task","107","58014","113","yes","1024"
"94.73684210526316","94.73684210526316","512.6315789473684","512.6315789473684","black","legacy","legacy","legacy","0","Incongruent","uniform","1","undefined","1","s","0","0","0","113","113","0","113","113","0","0","0","113","113","113","113","0","Sun Sep 25 15:46:14 2022","600","The main experiment item","yes","Lab21FlankerTask.osexp","/Users/alexisparrish/Desktop","no","mono","no","18","no","white","no","yes","768","legacy","33","79","/Users/alexisparrish/Desktop/EP-subject-2.csv","legacy","Lentiform Loewenfeld","3.3.12","0","s","NA","NA","s","s","s","426","NA","NA","24088","53496","426","2","legacy","1024","2","48000","-16","experiment","HHSHH","2","even","57541","219912","NA","246540","220675","NA","276064","275005","NA","195823","4029","276168","276595","276059","276168","4010","Lab 2.1: Flanker Task","108","58440","114","yes","1024"
"94.78260869565217","94.78260869565217","511.9478260869565","511.9478260869565","black","legacy","legacy","legacy","0","Congruent","uniform","1","undefined","1","h","0","0","0","114","114","0","114","114","0","0","0","114","114","114","114","0","Sun Sep 25 15:46:14 2022","600","The main experiment item","yes","Lab21FlankerTask.osexp","/Users/alexisparrish/Desktop","no","mono","no","18","no","white","no","yes","768","legacy","34","79","/Users/alexisparrish/Desktop/EP-subject-2.csv","legacy","Lentiform Loewenfeld","3.3.12","0","h","NA","NA","s","s","h","434","NA","NA","24088","53496","434","2","legacy","1024","2","48000","-16","experiment","HHHHH","2","even","57541","219912","NA","246540","220675","NA","277669","276607","NA","195823","4029","277773","278208","277665","277773","4010","Lab 2.1: Flanker Task","109","58874","115","yes","1024"
"94.82758620689656","94.82758620689656","511.62931034482756","511.62931034482756","black","legacy","legacy","legacy","0","Incongruent","uniform","1","undefined","1","h","0","0","0","115","115","0","115","115","0","0","0","115","115","115","115","0","Sun Sep 25 15:46:14 2022","600","The main experiment item","yes","Lab21FlankerTask.osexp","/Users/alexisparrish/Desktop","no","mono","no","18","no","white","no","yes","768","legacy","35","79","/Users/alexisparrish/Desktop/EP-subject-2.csv","legacy","Lentiform Loewenfeld","3.3.12","0","h","NA","NA","s","s","h","475","NA","NA","24088","53496","475","2","legacy","1024","2","48000","-16","experiment","SSHSS","2","even","57541","219912","NA","246540","220675","NA","279281","278220","NA","195823","4029","279385","279861","279276","279385","4010","Lab 2.1: Flanker Task","110","59349","116","yes","1024"
"94.01709401709402","94.01709401709402","510.8974358974359","510.8974358974359","black","legacy","legacy","legacy","0","Incongruent","uniform","0","undefined","0","s","0","0","0","116","116","0","116","116","0","0","0","116","116","116","116","0","Sun Sep 25 15:46:14 2022","600","The main experiment item","yes","Lab21FlankerTask.osexp","/Users/alexisparrish/Desktop","no","mono","no","18","no","white","no","yes","768","legacy","36","79","/Users/alexisparrish/Desktop/EP-subject-2.csv","legacy","Lentiform Loewenfeld","3.3.12","0","h","NA","NA","s","s","h","426","NA","NA","24088","53496","426","2","legacy","1024","2","48000","-16","experiment","HHSHH","2","even","57541","219912","NA","246540","220675","NA","280935","279873","NA","195823","4029","281039","281466","280930","281039","4010","Lab 2.1: Flanker Task","110","59775","117","yes","1024"
"94.0677966101695","94.0677966101695","511.1694915254237","511.1694915254237","black","legacy","legacy","legacy","0","Congruent","uniform","1","undefined","1","h","0","0","0","117","117","0","117","117","0","0","0","117","117","117","117","0","Sun Sep 25 15:46:14 2022","600","The main experiment item","yes","Lab21FlankerTask.osexp","/Users/alexisparrish/Desktop","no","mono","no","18","no","white","no","yes","768","legacy","37","79","/Users/alexisparrish/Desktop/EP-subject-2.csv","legacy","Lentiform Loewenfeld","3.3.12","0","h","NA","NA","s","s","h","543","NA","NA","24088","53496","543","2","legacy","1024","2","48000","-16","experiment","HHHHH","2","even","57541","219912","NA","281477","220675","NA","283043","281981","NA","195823","4029","283147","283691","283039","283147","4010","Lab 2.1: Flanker Task","111","60318","118","yes","1024"
"94.11764705882354","94.11764705882354","510.4033613445378","510.4033613445378","black","legacy","legacy","legacy","0","Congruent","uniform","1","undefined","1","h","0","0","0","118","118","0","118","118","0","0","0","118","118","118","118","0","Sun Sep 25 15:46:14 2022","600","The main experiment item","yes","Lab21FlankerTask.osexp","/Users/alexisparrish/Desktop","no","mono","no","18","no","white","no","yes","768","legacy","38","79","/Users/alexisparrish/Desktop/EP-subject-2.csv","legacy","Lentiform Loewenfeld","3.3.12","0","h","NA","NA","s","s","h","420","NA","NA","24088","53496","420","2","legacy","1024","2","48000","-16","experiment","HHHHH","2","even","57541","219912","NA","281477","220675","NA","284766","283703","NA","195823","4029","284870","285291","284762","284870","4010","Lab 2.1: Flanker Task","112","60738","119","yes","1024"
