"acc","accuracy","average_response_time","avg_rt","background","canvas_backend","clock_backend","color_backend","compensation","condition","coordinates","correct","correct_instructions1","correct_keyboard_response","correct_response","count_Block1","count_Block2","count_Block3","count_errorFeedback","count_experiment","count_faster","count_finish","count_fixation","count_instructions1","count_instructions2","count_instructions3","count_isi","count_keyboard_response","count_logger","count_sequence","count_stimulus","datetime","deadline","description","disable_garbage_collection","experiment_file","experiment_path","font_bold","font_family","font_italic","font_size","font_underline","foreground","form_clicks","fullscreen","height","keyboard_backend","live_row","live_row_Block1","logfile","mouse_backend","opensesame_codename","opensesame_version","repeat_cycle","response","response_finish","response_instructions1","response_instructions2","response_instructions3","response_keyboard_response","response_time","response_time_finish","response_time_instructions1","response_time_instructions2","response_time_instructions3","response_time_keyboard_response","round_decimals","sampler_backend","sound_buf_size","sound_channels","sound_freq","sound_sample_size","start","stimulus","subject_nr","subject_parity","time_Block1","time_Block2","time_Block3","time_errorFeedback","time_experiment","time_faster","time_finish","time_fixation","time_instructions1","time_instructions2","time_instructions3","time_isi","time_keyboard_response","time_logger","time_sequence","time_stimulus","title","total_correct","total_response_time","total_responses","uniform_coordinates","width"
"0","0","1500","1500","black","legacy","legacy","legacy","0","incongruent","uniform","0","undefined","0","s","0","0","0","0","0","0","0","0","0","0","0","0","0","0","0","0","Sun Sep 25 17:27:14 2022","1500","The main experiment item","yes","FlankerTask.osexp","/Users/keelyn/Library/CloudStorage/OneDrive-Personal","no","mono","no","18","no","white","no","yes","768","legacy","0","0","/Users/keelyn/Library/CloudStorage/OneDrive-Personal/subject-4.csv","legacy","Lentiform Loewenfeld","3.3.12","0","None","NA","h","NA","NA","None","1500","NA","136090","NA","NA","1500","2","legacy","1024","2","48000","-16","experiment","HHSHH","4","even","137032","NA","NA","NA","927","NA","NA","137064","939","NA","NA","NA","137172","138672","137060","137171","Flanker Task","0","1500","1","yes","1024"
"50","50","1299","1299","black","legacy","legacy","legacy","0","congruent","uniform","1","undefined","1","s","0","0","0","1","0","1","0","1","0","0","0","1","1","1","1","1","Sun Sep 25 17:27:14 2022","1500","The main experiment item","yes","FlankerTask.osexp","/Users/keelyn/Library/CloudStorage/OneDrive-Personal","no","mono","no","18","no","white","no","yes","768","legacy","1","1","/Users/keelyn/Library/CloudStorage/OneDrive-Personal/subject-4.csv","legacy","Lentiform Loewenfeld","3.3.12","0","s","NA","h","NA","NA","s","1098","NA","136090","NA","NA","1098","2","legacy","1024","2","48000","-16","experiment","SSSSS","4","even","137032","NA","NA","138678","927","NA","NA","140263","939","NA","NA","139191","140370","141475","140256","140370","Flanker Task","1","2598","2","yes","1024"
"66.66666666666667","66.66666666666667","1112","1112","black","legacy","legacy","legacy","0","incongruent","uniform","1","undefined","1","h","0","0","0","2","0","2","0","2","0","0","0","2","2","2","2","2","Sun Sep 25 17:27:14 2022","1500","The main experiment item","yes","FlankerTask.osexp","/Users/keelyn/Library/CloudStorage/OneDrive-Personal","no","mono","no","18","no","white","no","yes","768","legacy","2","2","/Users/keelyn/Library/CloudStorage/OneDrive-Personal/subject-4.csv","legacy","Lentiform Loewenfeld","3.3.12","0","h","NA","h","NA","NA","h","738","NA","136090","NA","NA","738","2","legacy","1024","2","48000","-16","experiment","SSHSS","4","even","137032","NA","NA","138678","927","NA","NA","142548","939","NA","NA","141481","142656","143395","142541","142656","Flanker Task","2","3336","3","yes","1024"
"75","75","982.75","982.75","black","legacy","legacy","legacy","0","incongruent","uniform","1","undefined","1","h","0","0","0","3","0","3","0","3","0","0","0","3","3","3","3","3","Sun Sep 25 17:27:14 2022","1500","The main experiment item","yes","FlankerTask.osexp","/Users/keelyn/Library/CloudStorage/OneDrive-Personal","no","mono","no","18","no","white","no","yes","768","legacy","3","3","/Users/keelyn/Library/CloudStorage/OneDrive-Personal/subject-4.csv","legacy","Lentiform Loewenfeld","3.3.12","0","h","NA","h","NA","NA","h","595","NA","136090","NA","NA","595","2","legacy","1024","2","48000","-16","experiment","SSHSS","4","even","137032","NA","NA","138678","927","NA","NA","144471","939","NA","NA","143400","144579","145175","144465","144579","Flanker Task","3","3931","4","yes","1024"
"80","80","949.4","949.4","black","legacy","legacy","legacy","0","incongruent","uniform","1","undefined","1","h","0","0","0","4","0","4","0","4","0","0","0","4","4","4","4","4","Sun Sep 25 17:27:14 2022","1500","The main experiment item","yes","FlankerTask.osexp","/Users/keelyn/Library/CloudStorage/OneDrive-Personal","no","mono","no","18","no","white","no","yes","768","legacy","4","4","/Users/keelyn/Library/CloudStorage/OneDrive-Personal/subject-4.csv","legacy","Lentiform Loewenfeld","3.3.12","0","h","NA","h","NA","NA","h","816","NA","136090","NA","NA","816","2","legacy","1024","2","48000","-16","experiment","SSHSS","4","even","137032","NA","NA","138678","927","NA","NA","146244","939","NA","NA","145180","146353","147169","146238","146353","Flanker Task","4","4747","5","yes","1024"
"83.33333333333333","83.33333333333333","888.1666666666666","888.1666666666666","black","legacy","legacy","legacy","0","incongruent","uniform","1","undefined","1","s","0","0","0","5","0","5","0","5","0","0","0","5","5","5","5","5","Sun Sep 25 17:27:14 2022","1500","The main experiment item","yes","FlankerTask.osexp","/Users/keelyn/Library/CloudStorage/OneDrive-Personal","no","mono","no","18","no","white","no","yes","768","legacy","5","5","/Users/keelyn/Library/CloudStorage/OneDrive-Personal/subject-4.csv","legacy","Lentiform Loewenfeld","3.3.12","0","s","NA","h","NA","NA","s","582","NA","136090","NA","NA","582","2","legacy","1024","2","48000","-16","experiment","HHSHH","4","even","137032","NA","NA","138678","927","NA","NA","148237","939","NA","NA","147174","148345","148928","148231","148345","Flanker Task","5","5329","6","yes","1024"
"85.71428571428571","85.71428571428571","882.8571428571429","882.8571428571429","black","legacy","legacy","legacy","0","congruent","uniform","1","undefined","1","s","0","0","0","6","0","6","0","6","0","0","0","6","6","6","6","6","Sun Sep 25 17:27:14 2022","1500","The main experiment item","yes","FlankerTask.osexp","/Users/keelyn/Library/CloudStorage/OneDrive-Personal","no","mono","no","18","no","white","no","yes","768","legacy","6","6","/Users/keelyn/Library/CloudStorage/OneDrive-Personal/subject-4.csv","legacy","Lentiform Loewenfeld","3.3.12","0","s","NA","h","NA","NA","s","851","NA","136090","NA","NA","851","2","legacy","1024","2","48000","-16","experiment","SSSSS","4","even","137032","NA","NA","138678","927","NA","NA","149994","939","NA","NA","148933","150103","150955","149988","150103","Flanker Task","6","6180","7","yes","1024"
"87.5","87.5","855.5","855.5","black","legacy","legacy","legacy","0","congruent","uniform","1","undefined","1","h","0","0","0","7","0","7","0","7","0","0","0","7","7","7","7","7","Sun Sep 25 17:27:14 2022","1500","The main experiment item","yes","FlankerTask.osexp","/Users/keelyn/Library/CloudStorage/OneDrive-Personal","no","mono","no","18","no","white","no","yes","768","legacy","7","7","/Users/keelyn/Library/CloudStorage/OneDrive-Personal/subject-4.csv","legacy","Lentiform Loewenfeld","3.3.12","0","h","NA","h","NA","NA","h","664","NA","136090","NA","NA","664","2","legacy","1024","2","48000","-16","experiment","HHHHH","4","even","137032","NA","NA","138678","927","NA","NA","152022","939","NA","NA","150960","152131","152795","152016","152131","Flanker Task","7","6844","8","yes","1024"
"88.88888888888889","88.88888888888889","851.8888888888889","851.8888888888889","black","legacy","legacy","legacy","0","incongruent","uniform","1","undefined","1","s","0","0","0","8","0","8","0","8","0","0","0","8","8","8","8","8","Sun Sep 25 17:27:14 2022","1500","The main experiment item","yes","FlankerTask.osexp","/Users/keelyn/Library/CloudStorage/OneDrive-Personal","no","mono","no","18","no","white","no","yes","768","legacy","8","8","/Users/keelyn/Library/CloudStorage/OneDrive-Personal/subject-4.csv","legacy","Lentiform Loewenfeld","3.3.12","0","s","NA","h","NA","NA","s","823","NA","136090","NA","NA","823","2","legacy","1024","2","48000","-16","experiment","HHSHH","4","even","137032","NA","NA","138678","927","NA","NA","153865","939","NA","NA","152801","153973","154797","153858","153973","Flanker Task","8","7667","9","yes","1024"
"90","90","822.2","822.2","black","legacy","legacy","legacy","0","congruent","uniform","1","undefined","1","h","0","0","0","9","0","9","0","9","0","0","0","9","9","9","9","9","Sun Sep 25 17:27:14 2022","1500","The main experiment item","yes","FlankerTask.osexp","/Users/keelyn/Library/CloudStorage/OneDrive-Personal","no","mono","no","18","no","white","no","yes","768","legacy","9","9","/Users/keelyn/Library/CloudStorage/OneDrive-Personal/subject-4.csv","legacy","Lentiform Loewenfeld","3.3.12","0","h","NA","h","NA","NA","h","555","NA","136090","NA","NA","555","2","legacy","1024","2","48000","-16","experiment","HHHHH","4","even","137032","NA","NA","138678","927","NA","NA","155863","939","NA","NA","154802","155972","156527","155856","155972","Flanker Task","9","8222","10","yes","1024"
"90.9090909090909","90.9090909090909","803","803","black","legacy","legacy","legacy","0","congruent","uniform","1","undefined","1","s","0","0","0","10","0","10","0","10","0","0","0","10","10","10","10","10","Sun Sep 25 17:27:14 2022","1500","The main experiment item","yes","FlankerTask.osexp","/Users/keelyn/Library/CloudStorage/OneDrive-Personal","no","mono","no","18","no","white","no","yes","768","legacy","10","10","/Users/keelyn/Library/CloudStorage/OneDrive-Personal/subject-4.csv","legacy","Lentiform Loewenfeld","3.3.12","0","s","NA","h","NA","NA","s","611","NA","136090","NA","NA","611","2","legacy","1024","2","48000","-16","experiment","SSSSS","4","even","137032","NA","NA","138678","927","NA","NA","157595","939","NA","NA","156532","157704","158316","157589","157704","Flanker Task","10","8833","11","yes","1024"
"91.66666666666667","91.66666666666667","785.6666666666666","785.6666666666666","black","legacy","legacy","legacy","0","incongruent","uniform","1","undefined","1","h","0","0","0","11","0","11","0","11","0","0","0","11","11","11","11","11","Sun Sep 25 17:27:14 2022","1500","The main experiment item","yes","FlankerTask.osexp","/Users/keelyn/Library/CloudStorage/OneDrive-Personal","no","mono","no","18","no","white","no","yes","768","legacy","11","11","/Users/keelyn/Library/CloudStorage/OneDrive-Personal/subject-4.csv","legacy","Lentiform Loewenfeld","3.3.12","0","h","NA","h","NA","NA","h","595","NA","136090","NA","NA","595","2","legacy","1024","2","48000","-16","experiment","SSHSS","4","even","137032","NA","NA","138678","927","NA","NA","159383","939","NA","NA","158321","159492","160088","159376","159492","Flanker Task","11","9428","12","yes","1024"
"92.3076923076923","92.3076923076923","775.5384615384615","775.5384615384615","black","legacy","legacy","legacy","0","incongruent","uniform","1","undefined","1","h","0","0","0","12","0","12","0","12","0","0","0","12","12","12","12","12","Sun Sep 25 17:27:14 2022","1500","The main experiment item","yes","FlankerTask.osexp","/Users/keelyn/Library/CloudStorage/OneDrive-Personal","no","mono","no","18","no","white","no","yes","768","legacy","12","12","/Users/keelyn/Library/CloudStorage/OneDrive-Personal/subject-4.csv","legacy","Lentiform Loewenfeld","3.3.12","0","h","NA","h","NA","NA","h","654","NA","136090","NA","NA","654","2","legacy","1024","2","48000","-16","experiment","SSHSS","4","even","137032","NA","NA","138678","927","NA","NA","161155","939","NA","NA","160093","161264","161918","161149","161263","Flanker Task","12","10082","13","yes","1024"
"92.85714285714286","92.85714285714286","767.5714285714286","767.5714285714286","black","legacy","legacy","legacy","0","congruent","uniform","1","undefined","1","h","0","0","0","13","0","13","0","13","0","0","0","13","13","13","13","13","Sun Sep 25 17:27:14 2022","1500","The main experiment item","yes","FlankerTask.osexp","/Users/keelyn/Library/CloudStorage/OneDrive-Personal","no","mono","no","18","no","white","no","yes","768","legacy","13","13","/Users/keelyn/Library/CloudStorage/OneDrive-Personal/subject-4.csv","legacy","Lentiform Loewenfeld","3.3.12","0","h","NA","h","NA","NA","h","664","NA","136090","NA","NA","664","2","legacy","1024","2","48000","-16","experiment","HHHHH","4","even","137032","NA","NA","138678","927","NA","NA","162989","939","NA","NA","161923","163098","163763","162983","163098","Flanker Task","13","10746","14","yes","1024"
"93.33333333333333","93.33333333333333","752.8666666666667","752.8666666666667","black","legacy","legacy","legacy","0","congruent","uniform","1","undefined","1","h","0","0","0","14","0","14","0","14","0","0","0","14","14","14","14","14","Sun Sep 25 17:27:14 2022","1500","The main experiment item","yes","FlankerTask.osexp","/Users/keelyn/Library/CloudStorage/OneDrive-Personal","no","mono","no","18","no","white","no","yes","768","legacy","14","14","/Users/keelyn/Library/CloudStorage/OneDrive-Personal/subject-4.csv","legacy","Lentiform Loewenfeld","3.3.12","0","h","NA","h","NA","NA","h","547","NA","136090","NA","NA","547","2","legacy","1024","2","48000","-16","experiment","HHHHH","4","even","137032","NA","NA","138678","927","NA","NA","164828","939","NA","NA","163768","164937","165485","164822","164937","Flanker Task","14","11293","15","yes","1024"
"93.75","93.75","749.625","749.625","black","legacy","legacy","legacy","0","incongruent","uniform","1","undefined","1","s","0","0","0","15","0","15","0","15","0","0","0","15","15","15","15","15","Sun Sep 25 17:27:14 2022","1500","The main experiment item","yes","FlankerTask.osexp","/Users/keelyn/Library/CloudStorage/OneDrive-Personal","no","mono","no","18","no","white","no","yes","768","legacy","15","15","/Users/keelyn/Library/CloudStorage/OneDrive-Personal/subject-4.csv","legacy","Lentiform Loewenfeld","3.3.12","0","s","NA","h","NA","NA","s","701","NA","136090","NA","NA","701","2","legacy","1024","2","48000","-16","experiment","HHSHH","4","even","137032","NA","NA","138678","927","NA","NA","166548","939","NA","NA","165490","166657","167359","166542","166657","Flanker Task","15","11994","16","yes","1024"
"94.11764705882354","94.11764705882354","740.5294117647059","740.5294117647059","black","legacy","legacy","legacy","0","congruent","uniform","1","undefined","1","h","0","0","0","16","0","16","0","16","0","0","0","16","16","16","16","16","Sun Sep 25 17:27:14 2022","1500","The main experiment item","yes","FlankerTask.osexp","/Users/keelyn/Library/CloudStorage/OneDrive-Personal","no","mono","no","18","no","white","no","yes","768","legacy","16","16","/Users/keelyn/Library/CloudStorage/OneDrive-Personal/subject-4.csv","legacy","Lentiform Loewenfeld","3.3.12","0","h","NA","h","NA","NA","h","595","NA","136090","NA","NA","595","2","legacy","1024","2","48000","-16","experiment","HHHHH","4","even","137032","NA","NA","138678","927","NA","NA","168426","939","NA","NA","167364","168535","169131","168420","168535","Flanker Task","16","12589","17","yes","1024"
"94.44444444444444","94.44444444444444","739.8333333333334","739.8333333333334","black","legacy","legacy","legacy","0","congruent","uniform","1","undefined","1","h","0","0","0","17","0","17","0","17","0","0","0","17","17","17","17","17","Sun Sep 25 17:27:14 2022","1500","The main experiment item","yes","FlankerTask.osexp","/Users/keelyn/Library/CloudStorage/OneDrive-Personal","no","mono","no","18","no","white","no","yes","768","legacy","17","17","/Users/keelyn/Library/CloudStorage/OneDrive-Personal/subject-4.csv","legacy","Lentiform Loewenfeld","3.3.12","0","h","NA","h","NA","NA","h","728","NA","136090","NA","NA","728","2","legacy","1024","2","48000","-16","experiment","HHHHH","4","even","137032","NA","NA","138678","927","NA","NA","170198","939","NA","NA","169136","170306","171035","170192","170306","Flanker Task","17","13317","18","yes","1024"
"94.73684210526316","94.73684210526316","732.6315789473684","732.6315789473684","black","legacy","legacy","legacy","0","congruent","uniform","1","undefined","1","s","0","0","0","18","0","18","0","18","0","0","0","18","18","18","18","18","Sun Sep 25 17:27:14 2022","1500","The main experiment item","yes","FlankerTask.osexp","/Users/keelyn/Library/CloudStorage/OneDrive-Personal","no","mono","no","18","no","white","no","yes","768","legacy","18","18","/Users/keelyn/Library/CloudStorage/OneDrive-Personal/subject-4.csv","legacy","Lentiform Loewenfeld","3.3.12","0","s","NA","h","NA","NA","s","603","NA","136090","NA","NA","603","2","legacy","1024","2","48000","-16","experiment","SSSSS","4","even","137032","NA","NA","138678","927","NA","NA","172101","939","NA","NA","171040","172210","172814","172095","172210","Flanker Task","18","13920","19","yes","1024"
"95","95","731.9","731.9","black","legacy","legacy","legacy","0","incongruent","uniform","1","undefined","1","s","0","0","0","19","0","19","0","19","0","0","0","19","19","19","19","19","Sun Sep 25 17:27:14 2022","1500","The main experiment item","yes","FlankerTask.osexp","/Users/keelyn/Library/CloudStorage/OneDrive-Personal","no","mono","no","18","no","white","no","yes","768","legacy","19","19","/Users/keelyn/Library/CloudStorage/OneDrive-Personal/subject-4.csv","legacy","Lentiform Loewenfeld","3.3.12","0","s","NA","h","NA","NA","s","718","NA","136090","NA","NA","718","2","legacy","1024","2","48000","-16","experiment","HHSHH","4","even","137032","NA","NA","138678","927","NA","NA","173881","939","NA","NA","172819","173989","174708","173874","173989","Flanker Task","19","14638","20","yes","1024"
"95.23809523809524","95.23809523809524","723.1428571428571","723.1428571428571","black","legacy","legacy","legacy","0","congruent","uniform","1","undefined","1","h","0","0","0","20","0","20","0","20","0","0","0","20","20","20","20","20","Sun Sep 25 17:27:14 2022","1500","The main experiment item","yes","FlankerTask.osexp","/Users/keelyn/Library/CloudStorage/OneDrive-Personal","no","mono","no","18","no","white","no","yes","768","legacy","20","20","/Users/keelyn/Library/CloudStorage/OneDrive-Personal/subject-4.csv","legacy","Lentiform Loewenfeld","3.3.12","0","h","NA","h","NA","NA","h","548","NA","136090","NA","NA","548","2","legacy","1024","2","48000","-16","experiment","HHHHH","4","even","137032","NA","NA","138678","927","NA","NA","175779","939","NA","NA","174713","175887","176436","175774","175887","Flanker Task","20","15186","21","yes","1024"
"95.45454545454545","95.45454545454545","716.4090909090909","716.4090909090909","black","legacy","legacy","legacy","0","incongruent","uniform","1","undefined","1","s","0","0","0","21","0","21","0","21","0","0","0","21","21","21","21","21","Sun Sep 25 17:27:14 2022","1500","The main experiment item","yes","FlankerTask.osexp","/Users/keelyn/Library/CloudStorage/OneDrive-Personal","no","mono","no","18","no","white","no","yes","768","legacy","21","21","/Users/keelyn/Library/CloudStorage/OneDrive-Personal/subject-4.csv","legacy","Lentiform Loewenfeld","3.3.12","0","s","NA","h","NA","NA","s","575","NA","136090","NA","NA","575","2","legacy","1024","2","48000","-16","experiment","HHSHH","4","even","137032","NA","NA","138678","927","NA","NA","177502","939","NA","NA","176441","177611","178187","177496","177611","Flanker Task","21","15761","22","yes","1024"
"95.65217391304348","95.65217391304348","716.4782608695652","716.4782608695652","black","legacy","legacy","legacy","0","incongruent","uniform","1","undefined","1","s","0","0","0","22","0","22","0","22","0","0","0","22","22","22","22","22","Sun Sep 25 17:27:14 2022","1500","The main experiment item","yes","FlankerTask.osexp","/Users/keelyn/Library/CloudStorage/OneDrive-Personal","no","mono","no","18","no","white","no","yes","768","legacy","22","22","/Users/keelyn/Library/CloudStorage/OneDrive-Personal/subject-4.csv","legacy","Lentiform Loewenfeld","3.3.12","0","s","NA","h","NA","NA","s","718","NA","136090","NA","NA","718","2","legacy","1024","2","48000","-16","experiment","HHSHH","4","even","137032","NA","NA","138678","927","NA","NA","179255","939","NA","NA","178192","179364","180083","179249","179364","Flanker Task","22","16479","23","yes","1024"
"95.83333333333333","95.83333333333333","717.3333333333334","717.3333333333334","black","legacy","legacy","legacy","0","congruent","uniform","1","undefined","1","s","0","0","0","23","0","23","0","23","0","0","0","23","23","23","23","23","Sun Sep 25 17:27:14 2022","1500","The main experiment item","yes","FlankerTask.osexp","/Users/keelyn/Library/CloudStorage/OneDrive-Personal","no","mono","no","18","no","white","no","yes","768","legacy","23","23","/Users/keelyn/Library/CloudStorage/OneDrive-Personal/subject-4.csv","legacy","Lentiform Loewenfeld","3.3.12","0","s","NA","h","NA","NA","s","737","NA","136090","NA","NA","737","2","legacy","1024","2","48000","-16","experiment","SSSSS","4","even","137032","NA","NA","138678","927","NA","NA","181150","939","NA","NA","180088","181259","181997","181144","181258","Flanker Task","23","17216","24","yes","1024"
"96","96","715.08","715.08","black","legacy","legacy","legacy","0","incongruent","uniform","1","undefined","1","h","0","0","0","24","0","24","0","24","0","0","0","24","24","24","24","24","Sun Sep 25 17:27:14 2022","1500","The main experiment item","yes","FlankerTask.osexp","/Users/keelyn/Library/CloudStorage/OneDrive-Personal","no","mono","no","18","no","white","no","yes","768","legacy","24","24","/Users/keelyn/Library/CloudStorage/OneDrive-Personal/subject-4.csv","legacy","Lentiform Loewenfeld","3.3.12","0","h","NA","h","NA","NA","h","661","NA","136090","NA","NA","661","2","legacy","1024","2","48000","-16","experiment","SSHSS","4","even","137032","NA","NA","138678","927","NA","NA","183065","939","NA","NA","182002","183174","183836","183059","183174","Flanker Task","24","17877","25","yes","1024"
"96.15384615384616","96.15384615384616","713.3461538461538","713.3461538461538","black","legacy","legacy","legacy","0","incongruent","uniform","1","undefined","1","h","0","0","0","25","0","25","0","25","0","0","0","25","25","25","25","25","Sun Sep 25 17:27:14 2022","1500","The main experiment item","yes","FlankerTask.osexp","/Users/keelyn/Library/CloudStorage/OneDrive-Personal","no","mono","no","18","no","white","no","yes","768","legacy","25","25","/Users/keelyn/Library/CloudStorage/OneDrive-Personal/subject-4.csv","legacy","Lentiform Loewenfeld","3.3.12","0","h","NA","h","NA","NA","h","670","NA","136090","NA","NA","670","2","legacy","1024","2","48000","-16","experiment","SSHSS","4","even","137032","NA","NA","138678","927","NA","NA","184902","939","NA","NA","183841","185011","185682","184896","185011","Flanker Task","25","18547","26","yes","1024"
"96.29629629629629","96.29629629629629","711.0370370370371","711.0370370370371","black","legacy","legacy","legacy","0","incongruent","uniform","1","undefined","1","h","0","0","0","26","0","26","0","26","0","0","0","26","26","26","26","26","Sun Sep 25 17:27:14 2022","1500","The main experiment item","yes","FlankerTask.osexp","/Users/keelyn/Library/CloudStorage/OneDrive-Personal","no","mono","no","18","no","white","no","yes","768","legacy","26","26","/Users/keelyn/Library/CloudStorage/OneDrive-Personal/subject-4.csv","legacy","Lentiform Loewenfeld","3.3.12","0","h","NA","h","NA","NA","h","651","NA","136090","NA","NA","651","2","legacy","1024","2","48000","-16","experiment","SSHSS","4","even","137032","NA","NA","138678","927","NA","NA","186748","939","NA","NA","185687","186857","187509","186742","186856","Flanker Task","26","19198","27","yes","1024"
"96.42857142857143","96.42857142857143","706.1428571428571","706.1428571428571","black","legacy","legacy","legacy","0","congruent","uniform","1","undefined","1","s","0","0","0","27","0","27","0","27","0","0","0","27","27","27","27","27","Sun Sep 25 17:27:14 2022","1500","The main experiment item","yes","FlankerTask.osexp","/Users/keelyn/Library/CloudStorage/OneDrive-Personal","no","mono","no","18","no","white","no","yes","768","legacy","27","27","/Users/keelyn/Library/CloudStorage/OneDrive-Personal/subject-4.csv","legacy","Lentiform Loewenfeld","3.3.12","0","s","NA","h","NA","NA","s","574","NA","136090","NA","NA","574","2","legacy","1024","2","48000","-16","experiment","SSSSS","4","even","137032","NA","NA","138678","927","NA","NA","188569","939","NA","NA","187514","188677","189252","188563","188677","Flanker Task","27","19772","28","yes","1024"
"96.55172413793103","96.55172413793103","708.551724137931","708.551724137931","black","legacy","legacy","legacy","0","incongruent","uniform","1","undefined","1","s","0","0","0","28","0","28","0","28","0","0","0","28","28","28","28","28","Sun Sep 25 17:27:14 2022","1500","The main experiment item","yes","FlankerTask.osexp","/Users/keelyn/Library/CloudStorage/OneDrive-Personal","no","mono","no","18","no","white","no","yes","768","legacy","28","28","/Users/keelyn/Library/CloudStorage/OneDrive-Personal/subject-4.csv","legacy","Lentiform Loewenfeld","3.3.12","0","s","NA","h","NA","NA","s","776","NA","136090","NA","NA","776","2","legacy","1024","2","48000","-16","experiment","HHSHH","4","even","137032","NA","NA","138678","927","NA","NA","190318","939","NA","NA","189257","190426","191202","190312","190426","Flanker Task","28","20548","29","yes","1024"
"96.66666666666667","96.66666666666667","704.2666666666667","704.2666666666667","black","legacy","legacy","legacy","0","congruent","uniform","1","undefined","1","s","0","0","0","29","0","29","0","29","0","0","0","29","29","29","29","29","Sun Sep 25 17:27:14 2022","1500","The main experiment item","yes","FlankerTask.osexp","/Users/keelyn/Library/CloudStorage/OneDrive-Personal","no","mono","no","18","no","white","no","yes","768","legacy","29","29","/Users/keelyn/Library/CloudStorage/OneDrive-Personal/subject-4.csv","legacy","Lentiform Loewenfeld","3.3.12","0","s","NA","h","NA","NA","s","580","NA","136090","NA","NA","580","2","legacy","1024","2","48000","-16","experiment","SSSSS","4","even","137032","NA","NA","138678","927","NA","NA","192271","939","NA","NA","191207","192380","192961","192265","192380","Flanker Task","29","21128","30","yes","1024"
"96.7741935483871","96.7741935483871","697.4516129032259","697.4516129032259","black","legacy","legacy","legacy","0","congruent","uniform","1","undefined","1","s","0","0","0","30","0","30","0","30","0","0","0","30","30","30","30","30","Sun Sep 25 17:27:14 2022","1500","The main experiment item","yes","FlankerTask.osexp","/Users/keelyn/Library/CloudStorage/OneDrive-Personal","no","mono","no","18","no","white","no","yes","768","legacy","30","30","/Users/keelyn/Library/CloudStorage/OneDrive-Personal/subject-4.csv","legacy","Lentiform Loewenfeld","3.3.12","0","s","NA","h","NA","NA","s","493","NA","136090","NA","NA","493","2","legacy","1024","2","48000","-16","experiment","SSSSS","4","even","137032","NA","NA","138678","927","NA","NA","194029","939","NA","NA","192966","194138","194632","194023","194137","Flanker Task","30","21621","31","yes","1024"
"96.875","96.875","692.5625","692.5625","black","legacy","legacy","legacy","0","congruent","uniform","1","undefined","1","s","0","0","0","31","0","31","0","31","0","0","0","31","31","31","31","31","Sun Sep 25 17:27:14 2022","1500","The main experiment item","yes","FlankerTask.osexp","/Users/keelyn/Library/CloudStorage/OneDrive-Personal","no","mono","no","18","no","white","no","yes","768","legacy","31","31","/Users/keelyn/Library/CloudStorage/OneDrive-Personal/subject-4.csv","legacy","Lentiform Loewenfeld","3.3.12","0","s","NA","h","NA","NA","s","541","NA","136090","NA","NA","541","2","legacy","1024","2","48000","-16","experiment","SSSSS","4","even","137032","NA","NA","138678","927","NA","NA","195697","939","NA","NA","194637","195806","196348","195691","195806","Flanker Task","31","22162","32","yes","1024"
"96.96969696969697","96.96969696969697","690.4242424242424","690.4242424242424","black","legacy","legacy","legacy","0","incongruent","uniform","1","undefined","1","h","0","0","0","32","0","32","0","32","0","0","0","32","32","32","32","32","Sun Sep 25 17:27:14 2022","1500","The main experiment item","yes","FlankerTask.osexp","/Users/keelyn/Library/CloudStorage/OneDrive-Personal","no","mono","no","18","no","white","no","yes","768","legacy","32","32","/Users/keelyn/Library/CloudStorage/OneDrive-Personal/subject-4.csv","legacy","Lentiform Loewenfeld","3.3.12","0","h","NA","h","NA","NA","h","622","NA","136090","NA","NA","622","2","legacy","1024","2","48000","-16","experiment","SSHSS","4","even","137032","NA","NA","138678","927","NA","NA","197415","939","NA","NA","196353","197524","198147","197409","197524","Flanker Task","32","22784","33","yes","1024"
"97.05882352941177","97.05882352941177","691.9117647058823","691.9117647058823","black","legacy","legacy","legacy","0","incongruent","uniform","1","undefined","1","h","0","0","0","33","0","33","0","33","0","0","0","33","33","33","33","33","Sun Sep 25 17:27:14 2022","1500","The main experiment item","yes","FlankerTask.osexp","/Users/keelyn/Library/CloudStorage/OneDrive-Personal","no","mono","no","18","no","white","no","yes","768","legacy","33","33","/Users/keelyn/Library/CloudStorage/OneDrive-Personal/subject-4.csv","legacy","Lentiform Loewenfeld","3.3.12","0","h","NA","h","NA","NA","h","741","NA","136090","NA","NA","741","2","legacy","1024","2","48000","-16","experiment","SSHSS","4","even","137032","NA","NA","138678","927","NA","NA","199214","939","NA","NA","198152","199323","200065","199208","199323","Flanker Task","33","23525","34","yes","1024"
"97.14285714285714","97.14285714285714","689.6","689.6","black","legacy","legacy","legacy","0","congruent","uniform","1","undefined","1","h","0","0","0","34","0","34","0","34","0","0","0","34","34","34","34","34","Sun Sep 25 17:27:14 2022","1500","The main experiment item","yes","FlankerTask.osexp","/Users/keelyn/Library/CloudStorage/OneDrive-Personal","no","mono","no","18","no","white","no","yes","768","legacy","34","34","/Users/keelyn/Library/CloudStorage/OneDrive-Personal/subject-4.csv","legacy","Lentiform Loewenfeld","3.3.12","0","h","NA","h","NA","NA","h","611","NA","136090","NA","NA","611","2","legacy","1024","2","48000","-16","experiment","HHHHH","4","even","137032","NA","NA","138678","927","NA","NA","201131","939","NA","NA","200070","201239","201851","201125","201239","Flanker Task","34","24136","35","yes","1024"
"97.22222222222223","97.22222222222223","689.0833333333334","689.0833333333334","black","legacy","legacy","legacy","0","congruent","uniform","1","undefined","1","s","0","0","0","35","0","35","0","35","0","0","0","35","35","35","35","35","Sun Sep 25 17:27:14 2022","1500","The main experiment item","yes","FlankerTask.osexp","/Users/keelyn/Library/CloudStorage/OneDrive-Personal","no","mono","no","18","no","white","no","yes","768","legacy","35","35","/Users/keelyn/Library/CloudStorage/OneDrive-Personal/subject-4.csv","legacy","Lentiform Loewenfeld","3.3.12","0","s","NA","h","NA","NA","s","671","NA","136090","NA","NA","671","2","legacy","1024","2","48000","-16","experiment","SSSSS","4","even","137032","NA","NA","138678","927","NA","NA","202916","939","NA","NA","201855","203025","203697","202910","203025","Flanker Task","35","24807","36","yes","1024"
"97.29729729729729","97.29729729729729","688.6486486486486","688.6486486486486","black","legacy","legacy","legacy","0","congruent","uniform","1","undefined","1","h","0","0","0","36","0","36","0","36","0","0","0","36","36","36","36","36","Sun Sep 25 17:27:14 2022","1500","The main experiment item","yes","FlankerTask.osexp","/Users/keelyn/Library/CloudStorage/OneDrive-Personal","no","mono","no","18","no","white","no","yes","768","legacy","36","36","/Users/keelyn/Library/CloudStorage/OneDrive-Personal/subject-4.csv","legacy","Lentiform Loewenfeld","3.3.12","0","h","NA","h","NA","NA","h","673","NA","136090","NA","NA","673","2","legacy","1024","2","48000","-16","experiment","HHHHH","4","even","137032","NA","NA","138678","927","NA","NA","204763","939","NA","NA","203702","204872","205546","204757","204872","Flanker Task","36","25480","37","yes","1024"
"97.36842105263158","97.36842105263158","688.4736842105264","688.4736842105264","black","legacy","legacy","legacy","0","congruent","uniform","1","undefined","1","h","0","0","0","37","0","37","0","37","0","0","0","37","37","37","37","37","Sun Sep 25 17:27:14 2022","1500","The main experiment item","yes","FlankerTask.osexp","/Users/keelyn/Library/CloudStorage/OneDrive-Personal","no","mono","no","18","no","white","no","yes","768","legacy","37","37","/Users/keelyn/Library/CloudStorage/OneDrive-Personal/subject-4.csv","legacy","Lentiform Loewenfeld","3.3.12","0","h","NA","h","NA","NA","h","682","NA","136090","NA","NA","682","2","legacy","1024","2","48000","-16","experiment","HHHHH","4","even","137032","NA","NA","138678","927","NA","NA","206612","939","NA","NA","205551","206721","207404","206605","206721","Flanker Task","37","26162","38","yes","1024"
"97.43589743589743","97.43589743589743","684.1794871794872","684.1794871794872","black","legacy","legacy","legacy","0","congruent","uniform","1","undefined","1","h","0","0","0","38","0","38","0","38","0","0","0","38","38","38","38","38","Sun Sep 25 17:27:14 2022","1500","The main experiment item","yes","FlankerTask.osexp","/Users/keelyn/Library/CloudStorage/OneDrive-Personal","no","mono","no","18","no","white","no","yes","768","legacy","38","38","/Users/keelyn/Library/CloudStorage/OneDrive-Personal/subject-4.csv","legacy","Lentiform Loewenfeld","3.3.12","0","h","NA","h","NA","NA","h","521","NA","136090","NA","NA","521","2","legacy","1024","2","48000","-16","experiment","HHHHH","4","even","137032","NA","NA","138678","927","NA","NA","208470","939","NA","NA","207409","208578","209100","208464","208578","Flanker Task","38","26683","39","yes","1024"
"97.5","97.5","685.175","685.175","black","legacy","legacy","legacy","0","incongruent","uniform","1","undefined","1","h","0","0","0","39","0","39","0","39","0","0","0","39","39","39","39","39","Sun Sep 25 17:27:14 2022","1500","The main experiment item","yes","FlankerTask.osexp","/Users/keelyn/Library/CloudStorage/OneDrive-Personal","no","mono","no","18","no","white","no","yes","768","legacy","39","39","/Users/keelyn/Library/CloudStorage/OneDrive-Personal/subject-4.csv","legacy","Lentiform Loewenfeld","3.3.12","0","h","NA","h","NA","NA","h","724","NA","136090","NA","NA","724","2","legacy","1024","2","48000","-16","experiment","SSHSS","4","even","137032","NA","NA","138678","927","NA","NA","210168","939","NA","NA","209104","210277","211002","210162","210277","Flanker Task","39","27407","40","yes","1024"
"97.5609756097561","97.5609756097561","683.6585365853658","683.6585365853658","black","legacy","legacy","legacy","0","congruent","uniform","1","undefined","1","h","0","0","0","40","0","40","0","40","0","0","0","40","40","40","40","40","Sun Sep 25 17:27:14 2022","1500","The main experiment item","yes","FlankerTask.osexp","/Users/keelyn/Library/CloudStorage/OneDrive-Personal","no","mono","no","18","no","white","no","yes","768","legacy","40","40","/Users/keelyn/Library/CloudStorage/OneDrive-Personal/subject-4.csv","legacy","Lentiform Loewenfeld","3.3.12","0","h","NA","h","NA","NA","h","623","NA","136090","NA","NA","623","2","legacy","1024","2","48000","-16","experiment","HHHHH","4","even","137032","NA","NA","138678","927","NA","NA","212066","939","NA","NA","211007","212174","212798","212060","212174","Flanker Task","40","28030","41","yes","1024"
"97.61904761904762","97.61904761904762","682.2619047619048","682.2619047619048","black","legacy","legacy","legacy","0","incongruent","uniform","1","undefined","1","s","0","0","0","41","0","41","0","41","0","0","0","41","41","41","41","41","Sun Sep 25 17:27:14 2022","1500","The main experiment item","yes","FlankerTask.osexp","/Users/keelyn/Library/CloudStorage/OneDrive-Personal","no","mono","no","18","no","white","no","yes","768","legacy","41","41","/Users/keelyn/Library/CloudStorage/OneDrive-Personal/subject-4.csv","legacy","Lentiform Loewenfeld","3.3.12","0","s","NA","h","NA","NA","s","625","NA","136090","NA","NA","625","2","legacy","1024","2","48000","-16","experiment","HHSHH","4","even","137032","NA","NA","138678","927","NA","NA","213864","939","NA","NA","212803","213973","214598","213857","213973","Flanker Task","41","28655","42","yes","1024"
"97.67441860465117","97.67441860465117","679.1627906976744","679.1627906976744","black","legacy","legacy","legacy","0","congruent","uniform","1","undefined","1","s","0","0","0","42","0","42","0","42","0","0","0","42","42","42","42","42","Sun Sep 25 17:27:14 2022","1500","The main experiment item","yes","FlankerTask.osexp","/Users/keelyn/Library/CloudStorage/OneDrive-Personal","no","mono","no","18","no","white","no","yes","768","legacy","42","42","/Users/keelyn/Library/CloudStorage/OneDrive-Personal/subject-4.csv","legacy","Lentiform Loewenfeld","3.3.12","0","s","NA","h","NA","NA","s","549","NA","136090","NA","NA","549","2","legacy","1024","2","48000","-16","experiment","SSSSS","4","even","137032","NA","NA","138678","927","NA","NA","215664","939","NA","NA","214604","215772","216322","215658","215772","Flanker Task","42","29204","43","yes","1024"
"97.72727272727273","97.72727272727273","676.3409090909091","676.3409090909091","black","legacy","legacy","legacy","0","incongruent","uniform","1","undefined","1","h","0","0","0","43","0","43","0","43","0","0","0","43","43","43","43","43","Sun Sep 25 17:27:14 2022","1500","The main experiment item","yes","FlankerTask.osexp","/Users/keelyn/Library/CloudStorage/OneDrive-Personal","no","mono","no","18","no","white","no","yes","768","legacy","43","43","/Users/keelyn/Library/CloudStorage/OneDrive-Personal/subject-4.csv","legacy","Lentiform Loewenfeld","3.3.12","0","h","NA","h","NA","NA","h","555","NA","136090","NA","NA","555","2","legacy","1024","2","48000","-16","experiment","SSHSS","4","even","137032","NA","NA","138678","927","NA","NA","217389","939","NA","NA","216327","217498","218054","217383","217498","Flanker Task","43","29759","44","yes","1024"
"97.77777777777777","97.77777777777777","675.1555555555556","675.1555555555556","black","legacy","legacy","legacy","0","incongruent","uniform","1","undefined","1","s","0","0","0","44","0","44","0","44","0","0","0","44","44","44","44","44","Sun Sep 25 17:27:14 2022","1500","The main experiment item","yes","FlankerTask.osexp","/Users/keelyn/Library/CloudStorage/OneDrive-Personal","no","mono","no","18","no","white","no","yes","768","legacy","44","44","/Users/keelyn/Library/CloudStorage/OneDrive-Personal/subject-4.csv","legacy","Lentiform Loewenfeld","3.3.12","0","s","NA","h","NA","NA","s","623","NA","136090","NA","NA","623","2","legacy","1024","2","48000","-16","experiment","HHSHH","4","even","137032","NA","NA","138678","927","NA","NA","219116","939","NA","NA","218059","219224","219848","219110","219224","Flanker Task","44","30382","45","yes","1024"
"97.82608695652173","97.82608695652173","675.8913043478261","675.8913043478261","black","legacy","legacy","legacy","0","congruent","uniform","1","undefined","1","s","0","0","0","45","0","45","0","45","0","0","0","45","45","45","45","45","Sun Sep 25 17:27:14 2022","1500","The main experiment item","yes","FlankerTask.osexp","/Users/keelyn/Library/CloudStorage/OneDrive-Personal","no","mono","no","18","no","white","no","yes","768","legacy","45","45","/Users/keelyn/Library/CloudStorage/OneDrive-Personal/subject-4.csv","legacy","Lentiform Loewenfeld","3.3.12","0","s","NA","h","NA","NA","s","709","NA","136090","NA","NA","709","2","legacy","1024","2","48000","-16","experiment","SSSSS","4","even","137032","NA","NA","138678","927","NA","NA","220913","939","NA","NA","219853","221021","221731","220907","221021","Flanker Task","45","31091","46","yes","1024"
"97.87234042553192","97.87234042553192","672.8936170212766","672.8936170212766","black","legacy","legacy","legacy","0","congruent","uniform","1","undefined","1","h","0","0","0","46","0","46","0","46","0","0","0","46","46","46","46","46","Sun Sep 25 17:27:14 2022","1500","The main experiment item","yes","FlankerTask.osexp","/Users/keelyn/Library/CloudStorage/OneDrive-Personal","no","mono","no","18","no","white","no","yes","768","legacy","46","46","/Users/keelyn/Library/CloudStorage/OneDrive-Personal/subject-4.csv","legacy","Lentiform Loewenfeld","3.3.12","0","h","NA","h","NA","NA","h","535","NA","136090","NA","NA","535","2","legacy","1024","2","48000","-16","experiment","HHHHH","4","even","137032","NA","NA","138678","927","NA","NA","222797","939","NA","NA","221736","222906","223442","222791","222906","Flanker Task","46","31626","47","yes","1024"
"97.91666666666667","97.91666666666667","672.6666666666666","672.6666666666666","black","legacy","legacy","legacy","0","incongruent","uniform","1","undefined","1","s","0","0","0","47","0","47","0","47","0","0","0","47","47","47","47","47","Sun Sep 25 17:27:14 2022","1500","The main experiment item","yes","FlankerTask.osexp","/Users/keelyn/Library/CloudStorage/OneDrive-Personal","no","mono","no","18","no","white","no","yes","768","legacy","47","47","/Users/keelyn/Library/CloudStorage/OneDrive-Personal/subject-4.csv","legacy","Lentiform Loewenfeld","3.3.12","0","s","NA","h","NA","NA","s","662","NA","136090","NA","NA","662","2","legacy","1024","2","48000","-16","experiment","HHSHH","4","even","137032","NA","NA","138678","927","NA","NA","224510","939","NA","NA","223447","224619","225281","224504","224619","Flanker Task","47","32288","48","yes","1024"
"97.95918367346938","97.95918367346938","672.5102040816327","672.5102040816327","black","legacy","legacy","legacy","0","incongruent","uniform","1","undefined","1","h","0","0","0","48","0","48","0","48","0","0","0","48","48","48","48","48","Sun Sep 25 17:27:14 2022","1500","The main experiment item","yes","FlankerTask.osexp","/Users/keelyn/Library/CloudStorage/OneDrive-Personal","no","mono","no","18","no","white","no","yes","768","legacy","48","48","/Users/keelyn/Library/CloudStorage/OneDrive-Personal/subject-4.csv","legacy","Lentiform Loewenfeld","3.3.12","0","h","NA","h","NA","NA","h","665","NA","136090","NA","NA","665","2","legacy","1024","2","48000","-16","experiment","SSHSS","4","even","137032","NA","NA","138678","927","NA","NA","226347","939","NA","NA","225286","226455","227121","226341","226455","Flanker Task","48","32953","49","yes","1024"
"98","98","672.44","672.44","black","legacy","legacy","legacy","0","incongruent","uniform","1","undefined","1","s","0","0","0","49","0","49","0","49","0","0","0","49","49","49","49","49","Sun Sep 25 17:27:14 2022","1500","The main experiment item","yes","FlankerTask.osexp","/Users/keelyn/Library/CloudStorage/OneDrive-Personal","no","mono","no","18","no","white","no","yes","768","legacy","49","49","/Users/keelyn/Library/CloudStorage/OneDrive-Personal/subject-4.csv","legacy","Lentiform Loewenfeld","3.3.12","0","s","NA","h","NA","NA","s","669","NA","136090","NA","NA","669","2","legacy","1024","2","48000","-16","experiment","HHSHH","4","even","137032","NA","NA","138678","927","NA","NA","228187","939","NA","NA","227126","228296","228966","228180","228296","Flanker Task","49","33622","50","yes","1024"
"98.03921568627452","98.03921568627452","672.1176470588235","672.1176470588235","black","legacy","legacy","legacy","0","incongruent","uniform","1","undefined","1","s","0","0","0","50","0","50","0","50","0","0","0","50","50","50","50","50","Sun Sep 25 17:27:14 2022","1500","The main experiment item","yes","FlankerTask.osexp","/Users/keelyn/Library/CloudStorage/OneDrive-Personal","no","mono","no","18","no","white","no","yes","768","legacy","50","50","/Users/keelyn/Library/CloudStorage/OneDrive-Personal/subject-4.csv","legacy","Lentiform Loewenfeld","3.3.12","0","s","NA","h","NA","NA","s","656","NA","136090","NA","NA","656","2","legacy","1024","2","48000","-16","experiment","HHSHH","4","even","137032","NA","NA","138678","927","NA","NA","230032","939","NA","NA","228971","230140","230797","230026","230140","Flanker Task","50","34278","51","yes","1024"
"98.07692307692308","98.07692307692308","668.8076923076923","668.8076923076923","black","legacy","legacy","legacy","0","congruent","uniform","1","undefined","1","h","0","0","0","51","0","51","0","51","0","0","0","51","51","51","51","51","Sun Sep 25 17:27:14 2022","1500","The main experiment item","yes","FlankerTask.osexp","/Users/keelyn/Library/CloudStorage/OneDrive-Personal","no","mono","no","18","no","white","no","yes","768","legacy","51","51","/Users/keelyn/Library/CloudStorage/OneDrive-Personal/subject-4.csv","legacy","Lentiform Loewenfeld","3.3.12","0","h","NA","h","NA","NA","h","500","NA","136090","NA","NA","500","2","legacy","1024","2","48000","-16","experiment","HHHHH","4","even","137032","NA","NA","138678","927","NA","NA","231863","939","NA","NA","230802","231972","232473","231857","231972","Flanker Task","51","34778","52","yes","1024"
"98.11320754716981","98.11320754716981","666.0754716981132","666.0754716981132","black","legacy","legacy","legacy","0","congruent","uniform","1","undefined","1","h","0","0","0","52","0","52","0","52","0","0","0","52","52","52","52","52","Sun Sep 25 17:27:14 2022","1500","The main experiment item","yes","FlankerTask.osexp","/Users/keelyn/Library/CloudStorage/OneDrive-Personal","no","mono","no","18","no","white","no","yes","768","legacy","52","52","/Users/keelyn/Library/CloudStorage/OneDrive-Personal/subject-4.csv","legacy","Lentiform Loewenfeld","3.3.12","0","h","NA","h","NA","NA","h","524","NA","136090","NA","NA","524","2","legacy","1024","2","48000","-16","experiment","HHHHH","4","even","137032","NA","NA","138678","927","NA","NA","233539","939","NA","NA","232478","233648","234173","233533","233648","Flanker Task","52","35302","53","yes","1024"
"98.14814814814815","98.14814814814815","664.2222222222222","664.2222222222222","black","legacy","legacy","legacy","0","incongruent","uniform","1","undefined","1","s","0","0","0","53","0","53","0","53","0","0","0","53","53","53","53","53","Sun Sep 25 17:27:14 2022","1500","The main experiment item","yes","FlankerTask.osexp","/Users/keelyn/Library/CloudStorage/OneDrive-Personal","no","mono","no","18","no","white","no","yes","768","legacy","53","53","/Users/keelyn/Library/CloudStorage/OneDrive-Personal/subject-4.csv","legacy","Lentiform Loewenfeld","3.3.12","0","s","NA","h","NA","NA","s","566","NA","136090","NA","NA","566","2","legacy","1024","2","48000","-16","experiment","HHSHH","4","even","137032","NA","NA","138678","927","NA","NA","235236","939","NA","NA","234178","235344","235911","235230","235344","Flanker Task","53","35868","54","yes","1024"
"98.18181818181819","98.18181818181819","662.2727272727273","662.2727272727273","black","legacy","legacy","legacy","0","incongruent","uniform","1","undefined","1","s","0","0","0","54","0","54","0","54","0","0","0","54","54","54","54","54","Sun Sep 25 17:27:14 2022","1500","The main experiment item","yes","FlankerTask.osexp","/Users/keelyn/Library/CloudStorage/OneDrive-Personal","no","mono","no","18","no","white","no","yes","768","legacy","54","54","/Users/keelyn/Library/CloudStorage/OneDrive-Personal/subject-4.csv","legacy","Lentiform Loewenfeld","3.3.12","0","s","NA","h","NA","NA","s","557","NA","136090","NA","NA","557","2","legacy","1024","2","48000","-16","experiment","HHSHH","4","even","137032","NA","NA","138678","927","NA","NA","236978","939","NA","NA","235916","237086","237644","236972","237086","Flanker Task","54","36425","55","yes","1024"
"98.21428571428571","98.21428571428571","660.5","660.5","black","legacy","legacy","legacy","0","congruent","uniform","1","undefined","1","h","0","0","0","55","0","55","0","55","0","0","0","55","55","55","55","55","Sun Sep 25 17:27:14 2022","1500","The main experiment item","yes","FlankerTask.osexp","/Users/keelyn/Library/CloudStorage/OneDrive-Personal","no","mono","no","18","no","white","no","yes","768","legacy","55","55","/Users/keelyn/Library/CloudStorage/OneDrive-Personal/subject-4.csv","legacy","Lentiform Loewenfeld","3.3.12","0","h","NA","h","NA","NA","h","563","NA","136090","NA","NA","563","2","legacy","1024","2","48000","-16","experiment","HHHHH","4","even","137032","NA","NA","138678","927","NA","NA","238710","939","NA","NA","237649","238819","239383","238704","238818","Flanker Task","55","36988","56","yes","1024"
"98.24561403508773","98.24561403508773","669.4035087719299","669.4035087719299","black","legacy","legacy","legacy","0","incongruent","uniform","1","undefined","1","h","0","0","0","56","0","56","0","56","0","0","0","56","56","56","56","56","Sun Sep 25 17:27:14 2022","1500","The main experiment item","yes","FlankerTask.osexp","/Users/keelyn/Library/CloudStorage/OneDrive-Personal","no","mono","no","18","no","white","no","yes","768","legacy","56","56","/Users/keelyn/Library/CloudStorage/OneDrive-Personal/subject-4.csv","legacy","Lentiform Loewenfeld","3.3.12","0","h","NA","h","NA","NA","h","1168","NA","136090","NA","NA","1168","2","legacy","1024","2","48000","-16","experiment","SSHSS","4","even","137032","NA","NA","138678","927","NA","NA","240452","939","NA","NA","239388","240561","241730","240446","240561","Flanker Task","56","38156","57","yes","1024"
"98.27586206896552","98.27586206896552","668.1206896551724","668.1206896551724","black","legacy","legacy","legacy","0","congruent","uniform","1","undefined","1","h","0","0","0","57","0","57","0","57","0","0","0","57","57","57","57","57","Sun Sep 25 17:27:14 2022","1500","The main experiment item","yes","FlankerTask.osexp","/Users/keelyn/Library/CloudStorage/OneDrive-Personal","no","mono","no","18","no","white","no","yes","768","legacy","57","57","/Users/keelyn/Library/CloudStorage/OneDrive-Personal/subject-4.csv","legacy","Lentiform Loewenfeld","3.3.12","0","h","NA","h","NA","NA","h","595","NA","136090","NA","NA","595","2","legacy","1024","2","48000","-16","experiment","HHHHH","4","even","137032","NA","NA","138678","927","NA","NA","242796","939","NA","NA","241735","242904","243500","242789","242904","Flanker Task","57","38751","58","yes","1024"
"98.30508474576271","98.30508474576271","665.6779661016949","665.6779661016949","black","legacy","legacy","legacy","0","congruent","uniform","1","undefined","1","h","0","0","0","58","0","58","0","58","0","0","0","58","58","58","58","58","Sun Sep 25 17:27:14 2022","1500","The main experiment item","yes","FlankerTask.osexp","/Users/keelyn/Library/CloudStorage/OneDrive-Personal","no","mono","no","18","no","white","no","yes","768","legacy","58","58","/Users/keelyn/Library/CloudStorage/OneDrive-Personal/subject-4.csv","legacy","Lentiform Loewenfeld","3.3.12","0","h","NA","h","NA","NA","h","524","NA","136090","NA","NA","524","2","legacy","1024","2","48000","-16","experiment","HHHHH","4","even","137032","NA","NA","138678","927","NA","NA","244561","939","NA","NA","243505","244669","245194","244555","244669","Flanker Task","58","39275","59","yes","1024"
"98.33333333333333","98.33333333333333","662.7166666666667","662.7166666666667","black","legacy","legacy","legacy","0","congruent","uniform","1","undefined","1","s","0","0","0","59","0","59","0","59","0","0","0","59","59","59","59","59","Sun Sep 25 17:27:14 2022","1500","The main experiment item","yes","FlankerTask.osexp","/Users/keelyn/Library/CloudStorage/OneDrive-Personal","no","mono","no","18","no","white","no","yes","768","legacy","59","59","/Users/keelyn/Library/CloudStorage/OneDrive-Personal/subject-4.csv","legacy","Lentiform Loewenfeld","3.3.12","0","s","NA","h","NA","NA","s","488","NA","136090","NA","NA","488","2","legacy","1024","2","48000","-16","experiment","SSSSS","4","even","137032","NA","NA","138678","927","NA","NA","246265","939","NA","NA","245199","246374","246863","246258","246374","Flanker Task","59","39763","60","yes","1024"
"98.36065573770492","98.36065573770492","661.4262295081967","661.4262295081967","black","legacy","legacy","legacy","0","congruent","uniform","1","undefined","1","h","0","0","0","60","0","60","0","60","0","0","0","60","60","60","60","60","Sun Sep 25 17:27:14 2022","1500","The main experiment item","yes","FlankerTask.osexp","/Users/keelyn/Library/CloudStorage/OneDrive-Personal","no","mono","no","18","no","white","no","yes","768","legacy","60","60","/Users/keelyn/Library/CloudStorage/OneDrive-Personal/subject-4.csv","legacy","Lentiform Loewenfeld","3.3.12","0","h","NA","h","NA","NA","h","584","NA","136090","NA","NA","584","2","legacy","1024","2","48000","-16","experiment","HHHHH","4","even","137032","NA","NA","138678","927","NA","NA","247929","939","NA","NA","246868","248038","248623","247923","248038","Flanker Task","60","40347","61","yes","1024"
"98.38709677419355","98.38709677419355","660.2741935483871","660.2741935483871","black","legacy","legacy","legacy","0","congruent","uniform","1","undefined","1","h","0","0","0","61","0","61","0","61","0","0","0","61","61","61","61","61","Sun Sep 25 17:27:14 2022","1500","The main experiment item","yes","FlankerTask.osexp","/Users/keelyn/Library/CloudStorage/OneDrive-Personal","no","mono","no","18","no","white","no","yes","768","legacy","61","61","/Users/keelyn/Library/CloudStorage/OneDrive-Personal/subject-4.csv","legacy","Lentiform Loewenfeld","3.3.12","0","h","NA","h","NA","NA","h","590","NA","136090","NA","NA","590","2","legacy","1024","2","48000","-16","experiment","HHHHH","4","even","137032","NA","NA","138678","927","NA","NA","249691","939","NA","NA","248628","249800","250391","249685","249800","Flanker Task","61","40937","62","yes","1024"
"98.41269841269842","98.41269841269842","657.9047619047619","657.9047619047619","black","legacy","legacy","legacy","0","incongruent","uniform","1","undefined","1","s","0","0","0","62","0","62","0","62","0","0","0","62","62","62","62","62","Sun Sep 25 17:27:14 2022","1500","The main experiment item","yes","FlankerTask.osexp","/Users/keelyn/Library/CloudStorage/OneDrive-Personal","no","mono","no","18","no","white","no","yes","768","legacy","62","62","/Users/keelyn/Library/CloudStorage/OneDrive-Personal/subject-4.csv","legacy","Lentiform Loewenfeld","3.3.12","0","s","NA","h","NA","NA","s","511","NA","136090","NA","NA","511","2","legacy","1024","2","48000","-16","experiment","HHSHH","4","even","137032","NA","NA","138678","927","NA","NA","251452","939","NA","NA","250396","251560","252072","251446","251560","Flanker Task","62","41448","63","yes","1024"
"98.4375","98.4375","655.453125","655.453125","black","legacy","legacy","legacy","0","congruent","uniform","1","undefined","1","s","0","0","0","63","0","63","0","63","0","0","0","63","63","63","63","63","Sun Sep 25 17:27:14 2022","1500","The main experiment item","yes","FlankerTask.osexp","/Users/keelyn/Library/CloudStorage/OneDrive-Personal","no","mono","no","18","no","white","no","yes","768","legacy","63","63","/Users/keelyn/Library/CloudStorage/OneDrive-Personal/subject-4.csv","legacy","Lentiform Loewenfeld","3.3.12","0","s","NA","h","NA","NA","s","501","NA","136090","NA","NA","501","2","legacy","1024","2","48000","-16","experiment","SSSSS","4","even","137032","NA","NA","138678","927","NA","NA","253139","939","NA","NA","252077","253248","253750","253132","253248","Flanker Task","63","41949","64","yes","1024"
"98.46153846153847","98.46153846153847","657.5846153846154","657.5846153846154","black","legacy","legacy","legacy","0","incongruent","uniform","1","undefined","1","s","0","0","0","64","0","64","0","64","0","0","0","64","64","64","64","64","Sun Sep 25 17:27:14 2022","1500","The main experiment item","yes","FlankerTask.osexp","/Users/keelyn/Library/CloudStorage/OneDrive-Personal","no","mono","no","18","no","white","no","yes","768","legacy","64","64","/Users/keelyn/Library/CloudStorage/OneDrive-Personal/subject-4.csv","legacy","Lentiform Loewenfeld","3.3.12","0","s","NA","h","NA","NA","s","794","NA","136090","NA","NA","794","2","legacy","1024","2","48000","-16","experiment","HHSHH","4","even","137032","NA","NA","138678","927","NA","NA","254816","939","NA","NA","253755","254925","255720","254810","254925","Flanker Task","64","42743","65","yes","1024"
"98.48484848484848","98.48484848484848","655.6969696969697","655.6969696969697","black","legacy","legacy","legacy","0","incongruent","uniform","1","undefined","1","h","0","0","0","65","0","65","0","65","0","0","0","65","65","65","65","65","Sun Sep 25 17:27:14 2022","1500","The main experiment item","yes","FlankerTask.osexp","/Users/keelyn/Library/CloudStorage/OneDrive-Personal","no","mono","no","18","no","white","no","yes","768","legacy","65","65","/Users/keelyn/Library/CloudStorage/OneDrive-Personal/subject-4.csv","legacy","Lentiform Loewenfeld","3.3.12","0","h","NA","h","NA","NA","h","533","NA","136090","NA","NA","533","2","legacy","1024","2","48000","-16","experiment","SSHSS","4","even","137032","NA","NA","138678","927","NA","NA","256785","939","NA","NA","255725","256894","257427","256779","256893","Flanker Task","65","43276","66","yes","1024"
"98.50746268656717","98.50746268656717","655.6716417910447","655.6716417910447","black","legacy","legacy","legacy","0","congruent","uniform","1","undefined","1","s","0","0","0","66","0","66","0","66","0","0","0","66","66","66","66","66","Sun Sep 25 17:27:14 2022","1500","The main experiment item","yes","FlankerTask.osexp","/Users/keelyn/Library/CloudStorage/OneDrive-Personal","no","mono","no","18","no","white","no","yes","768","legacy","66","66","/Users/keelyn/Library/CloudStorage/OneDrive-Personal/subject-4.csv","legacy","Lentiform Loewenfeld","3.3.12","0","s","NA","h","NA","NA","s","654","NA","136090","NA","NA","654","2","legacy","1024","2","48000","-16","experiment","SSSSS","4","even","137032","NA","NA","138678","927","NA","NA","258495","939","NA","NA","257432","258604","259259","258489","258604","Flanker Task","66","43930","67","yes","1024"
"98.52941176470588","98.52941176470588","653.2794117647059","653.2794117647059","black","legacy","legacy","legacy","0","congruent","uniform","1","undefined","1","s","0","0","0","67","0","67","0","67","0","0","0","67","67","67","67","67","Sun Sep 25 17:27:14 2022","1500","The main experiment item","yes","FlankerTask.osexp","/Users/keelyn/Library/CloudStorage/OneDrive-Personal","no","mono","no","18","no","white","no","yes","768","legacy","67","67","/Users/keelyn/Library/CloudStorage/OneDrive-Personal/subject-4.csv","legacy","Lentiform Loewenfeld","3.3.12","0","s","NA","h","NA","NA","s","493","NA","136090","NA","NA","493","2","legacy","1024","2","48000","-16","experiment","SSSSS","4","even","137032","NA","NA","138678","927","NA","NA","260325","939","NA","NA","259264","260434","260928","260319","260434","Flanker Task","67","44423","68","yes","1024"
"98.55072463768116","98.55072463768116","652.0289855072464","652.0289855072464","black","legacy","legacy","legacy","0","incongruent","uniform","1","undefined","1","h","0","0","0","68","0","68","0","68","0","0","0","68","68","68","68","68","Sun Sep 25 17:27:14 2022","1500","The main experiment item","yes","FlankerTask.osexp","/Users/keelyn/Library/CloudStorage/OneDrive-Personal","no","mono","no","18","no","white","no","yes","768","legacy","68","68","/Users/keelyn/Library/CloudStorage/OneDrive-Personal/subject-4.csv","legacy","Lentiform Loewenfeld","3.3.12","0","h","NA","h","NA","NA","h","567","NA","136090","NA","NA","567","2","legacy","1024","2","48000","-16","experiment","SSHSS","4","even","137032","NA","NA","138678","927","NA","NA","261995","939","NA","NA","260933","262104","262671","261989","262104","Flanker Task","68","44990","69","yes","1024"
"98.57142857142857","98.57142857142857","651.7","651.7","black","legacy","legacy","legacy","0","incongruent","uniform","1","undefined","1","s","0","0","0","69","0","69","0","69","0","0","0","69","69","69","69","69","Sun Sep 25 17:27:14 2022","1500","The main experiment item","yes","FlankerTask.osexp","/Users/keelyn/Library/CloudStorage/OneDrive-Personal","no","mono","no","18","no","white","no","yes","768","legacy","69","69","/Users/keelyn/Library/CloudStorage/OneDrive-Personal/subject-4.csv","legacy","Lentiform Loewenfeld","3.3.12","0","s","NA","h","NA","NA","s","629","NA","136090","NA","NA","629","2","legacy","1024","2","48000","-16","experiment","HHSHH","4","even","137032","NA","NA","138678","927","NA","NA","263737","939","NA","NA","262676","263846","264476","263731","263845","Flanker Task","69","45619","70","yes","1024"
"98.59154929577464","98.59154929577464","651.3239436619718","651.3239436619718","black","legacy","legacy","legacy","0","incongruent","uniform","1","undefined","1","h","0","0","0","70","0","70","0","70","0","0","0","70","70","70","70","70","Sun Sep 25 17:27:14 2022","1500","The main experiment item","yes","FlankerTask.osexp","/Users/keelyn/Library/CloudStorage/OneDrive-Personal","no","mono","no","18","no","white","no","yes","768","legacy","70","70","/Users/keelyn/Library/CloudStorage/OneDrive-Personal/subject-4.csv","legacy","Lentiform Loewenfeld","3.3.12","0","h","NA","h","NA","NA","h","625","NA","136090","NA","NA","625","2","legacy","1024","2","48000","-16","experiment","SSHSS","4","even","137032","NA","NA","138678","927","NA","NA","265540","939","NA","NA","264481","265648","266274","265534","265648","Flanker Task","70","46244","71","yes","1024"
"98.61111111111111","98.61111111111111","651.0555555555555","651.0555555555555","black","legacy","legacy","legacy","0","incongruent","uniform","1","undefined","1","h","0","0","0","71","0","71","0","71","0","0","0","71","71","71","71","71","Sun Sep 25 17:27:14 2022","1500","The main experiment item","yes","FlankerTask.osexp","/Users/keelyn/Library/CloudStorage/OneDrive-Personal","no","mono","no","18","no","white","no","yes","768","legacy","71","71","/Users/keelyn/Library/CloudStorage/OneDrive-Personal/subject-4.csv","legacy","Lentiform Loewenfeld","3.3.12","0","h","NA","h","NA","NA","h","632","NA","136090","NA","NA","632","2","legacy","1024","2","48000","-16","experiment","SSHSS","4","even","137032","NA","NA","138678","927","NA","NA","267340","939","NA","NA","266279","267449","268082","267334","267449","Flanker Task","71","46876","72","yes","1024"
"98.63013698630137","98.63013698630137","651.8767123287671","651.8767123287671","black","legacy","legacy","legacy","0","incongruent","uniform","1","undefined","1","s","0","0","0","72","0","72","0","72","0","0","0","72","72","72","72","72","Sun Sep 25 17:27:14 2022","1500","The main experiment item","yes","FlankerTask.osexp","/Users/keelyn/Library/CloudStorage/OneDrive-Personal","no","mono","no","18","no","white","no","yes","768","legacy","72","72","/Users/keelyn/Library/CloudStorage/OneDrive-Personal/subject-4.csv","legacy","Lentiform Loewenfeld","3.3.12","0","s","NA","h","NA","NA","s","711","NA","136090","NA","NA","711","2","legacy","1024","2","48000","-16","experiment","HHSHH","4","even","137032","NA","NA","138678","927","NA","NA","269150","939","NA","NA","268087","269259","269971","269144","269259","Flanker Task","72","47587","73","yes","1024"
"98.64864864864865","98.64864864864865","650.5","650.5","black","legacy","legacy","legacy","0","congruent","uniform","1","undefined","1","s","0","0","0","73","0","73","0","73","0","0","0","73","73","73","73","73","Sun Sep 25 17:27:14 2022","1500","The main experiment item","yes","FlankerTask.osexp","/Users/keelyn/Library/CloudStorage/OneDrive-Personal","no","mono","no","18","no","white","no","yes","768","legacy","73","73","/Users/keelyn/Library/CloudStorage/OneDrive-Personal/subject-4.csv","legacy","Lentiform Loewenfeld","3.3.12","0","s","NA","h","NA","NA","s","550","NA","136090","NA","NA","550","2","legacy","1024","2","48000","-16","experiment","SSSSS","4","even","137032","NA","NA","138678","927","NA","NA","271038","939","NA","NA","269976","271147","271697","271032","271147","Flanker Task","73","48137","74","yes","1024"
"98.66666666666667","98.66666666666667","648.4666666666667","648.4666666666667","black","legacy","legacy","legacy","0","congruent","uniform","1","undefined","1","s","0","0","0","74","0","74","0","74","0","0","0","74","74","74","74","74","Sun Sep 25 17:27:14 2022","1500","The main experiment item","yes","FlankerTask.osexp","/Users/keelyn/Library/CloudStorage/OneDrive-Personal","no","mono","no","18","no","white","no","yes","768","legacy","74","74","/Users/keelyn/Library/CloudStorage/OneDrive-Personal/subject-4.csv","legacy","Lentiform Loewenfeld","3.3.12","0","s","NA","h","NA","NA","s","498","NA","136090","NA","NA","498","2","legacy","1024","2","48000","-16","experiment","SSSSS","4","even","137032","NA","NA","138678","927","NA","NA","272763","939","NA","NA","271702","272872","273370","272757","272871","Flanker Task","74","48635","75","yes","1024"
"98.6842105263158","98.6842105263158","645.3552631578947","645.3552631578947","black","legacy","legacy","legacy","0","congruent","uniform","1","undefined","1","s","0","0","0","75","0","75","0","75","0","0","0","75","75","75","75","75","Sun Sep 25 17:27:14 2022","1500","The main experiment item","yes","FlankerTask.osexp","/Users/keelyn/Library/CloudStorage/OneDrive-Personal","no","mono","no","18","no","white","no","yes","768","legacy","75","75","/Users/keelyn/Library/CloudStorage/OneDrive-Personal/subject-4.csv","legacy","Lentiform Loewenfeld","3.3.12","0","s","NA","h","NA","NA","s","412","NA","136090","NA","NA","412","2","legacy","1024","2","48000","-16","experiment","SSSSS","4","even","137032","NA","NA","138678","927","NA","NA","274438","939","NA","NA","273375","274547","274960","274432","274547","Flanker Task","75","49047","76","yes","1024"
"98.7012987012987","98.7012987012987","643.9090909090909","643.9090909090909","black","legacy","legacy","legacy","0","incongruent","uniform","1","undefined","1","h","0","0","0","76","0","76","0","76","0","0","0","76","76","76","76","76","Sun Sep 25 17:27:14 2022","1500","The main experiment item","yes","FlankerTask.osexp","/Users/keelyn/Library/CloudStorage/OneDrive-Personal","no","mono","no","18","no","white","no","yes","768","legacy","76","76","/Users/keelyn/Library/CloudStorage/OneDrive-Personal/subject-4.csv","legacy","Lentiform Loewenfeld","3.3.12","0","h","NA","h","NA","NA","h","534","NA","136090","NA","NA","534","2","legacy","1024","2","48000","-16","experiment","SSHSS","4","even","137032","NA","NA","138678","927","NA","NA","276026","939","NA","NA","274965","276135","276669","276020","276135","Flanker Task","76","49581","77","yes","1024"
"98.71794871794872","98.71794871794872","642.6666666666666","642.6666666666666","black","legacy","legacy","legacy","0","incongruent","uniform","1","undefined","1","s","0","0","0","77","0","77","0","77","0","0","0","77","77","77","77","77","Sun Sep 25 17:27:14 2022","1500","The main experiment item","yes","FlankerTask.osexp","/Users/keelyn/Library/CloudStorage/OneDrive-Personal","no","mono","no","18","no","white","no","yes","768","legacy","77","77","/Users/keelyn/Library/CloudStorage/OneDrive-Personal/subject-4.csv","legacy","Lentiform Loewenfeld","3.3.12","0","s","NA","h","NA","NA","s","547","NA","136090","NA","NA","547","2","legacy","1024","2","48000","-16","experiment","HHSHH","4","even","137032","NA","NA","138678","927","NA","NA","277735","939","NA","NA","276674","277844","278392","277729","277844","Flanker Task","77","50128","78","yes","1024"
"98.73417721518987","98.73417721518987","641.2658227848101","641.2658227848101","black","legacy","legacy","legacy","0","incongruent","uniform","1","undefined","1","h","0","0","0","78","0","78","0","78","0","0","0","78","78","78","78","78","Sun Sep 25 17:27:14 2022","1500","The main experiment item","yes","FlankerTask.osexp","/Users/keelyn/Library/CloudStorage/OneDrive-Personal","no","mono","no","18","no","white","no","yes","768","legacy","78","78","/Users/keelyn/Library/CloudStorage/OneDrive-Personal/subject-4.csv","legacy","Lentiform Loewenfeld","3.3.12","0","h","NA","h","NA","NA","h","532","NA","136090","NA","NA","532","2","legacy","1024","2","48000","-16","experiment","SSHSS","4","even","137032","NA","NA","138678","927","NA","NA","279457","939","NA","NA","278397","279566","280099","279451","279566","Flanker Task","78","50660","79","yes","1024"
"98.75","98.75","639.25","639.25","black","legacy","legacy","legacy","0","congruent","uniform","1","undefined","1","s","0","0","0","79","0","79","0","79","0","0","0","79","79","79","79","79","Sun Sep 25 17:27:14 2022","1500","The main experiment item","yes","FlankerTask.osexp","/Users/keelyn/Library/CloudStorage/OneDrive-Personal","no","mono","no","18","no","white","no","yes","768","legacy","79","79","/Users/keelyn/Library/CloudStorage/OneDrive-Personal/subject-4.csv","legacy","Lentiform Loewenfeld","3.3.12","0","s","NA","h","NA","NA","s","480","NA","136090","NA","NA","480","2","legacy","1024","2","48000","-16","experiment","SSSSS","4","even","137032","NA","NA","138678","927","NA","NA","281162","939","NA","NA","280104","281270","281751","281156","281270","Flanker Task","79","51140","80","yes","1024"
"97.53086419753086","97.53086419753086","638.9753086419753","638.9753086419753","black","legacy","legacy","legacy","0","incongruent","uniform","0","undefined","0","s","0","0","0","80","0","80","0","80","0","0","0","80","80","80","80","80","Sun Sep 25 17:27:14 2022","600","The main experiment item","yes","FlankerTask.osexp","/Users/keelyn/Library/CloudStorage/OneDrive-Personal","no","mono","no","18","no","white","no","yes","768","legacy","0","79","/Users/keelyn/Library/CloudStorage/OneDrive-Personal/subject-4.csv","legacy","Lentiform Loewenfeld","3.3.12","0","h","NA","h","s","NA","h","617","NA","136090","19047","NA","617","2","legacy","1024","2","48000","-16","experiment","HHSHH","4","even","137032","301840","NA","138678","927","NA","NA","301863","939","282792","NA","281756","301970","302588","301859","301970","Flanker Task","79","51757","81","yes","1024"
"97.5609756097561","97.5609756097561","640.0731707317074","640.0731707317074","black","legacy","legacy","legacy","0","congruent","uniform","1","undefined","1","h","0","0","0","81","0","81","0","81","0","0","0","81","81","81","81","81","Sun Sep 25 17:27:14 2022","600","The main experiment item","yes","FlankerTask.osexp","/Users/keelyn/Library/CloudStorage/OneDrive-Personal","no","mono","no","18","no","white","no","yes","768","legacy","1","79","/Users/keelyn/Library/CloudStorage/OneDrive-Personal/subject-4.csv","legacy","Lentiform Loewenfeld","3.3.12","0","h","NA","h","s","NA","h","729","NA","136090","19047","NA","729","2","legacy","1024","2","48000","-16","experiment","HHHHH","4","even","137032","301840","NA","302593","927","303105","NA","304681","939","282792","NA","303618","304790","305520","304675","304789","Flanker Task","80","52486","82","yes","1024"
"97.59036144578313","97.59036144578313","638.1927710843373","638.1927710843373","black","legacy","legacy","legacy","0","congruent","uniform","1","undefined","1","s","0","0","0","82","0","82","0","82","0","0","0","82","82","82","82","82","Sun Sep 25 17:27:14 2022","600","The main experiment item","yes","FlankerTask.osexp","/Users/keelyn/Library/CloudStorage/OneDrive-Personal","no","mono","no","18","no","white","no","yes","768","legacy","2","79","/Users/keelyn/Library/CloudStorage/OneDrive-Personal/subject-4.csv","legacy","Lentiform Loewenfeld","3.3.12","0","s","NA","h","s","NA","s","484","NA","136090","19047","NA","484","2","legacy","1024","2","48000","-16","experiment","SSSSS","4","even","137032","301840","NA","302593","927","305525","NA","307098","939","282792","NA","306039","307206","307691","307092","307206","Flanker Task","81","52970","83","yes","1024"
"97.61904761904762","97.61904761904762","637.9404761904761","637.9404761904761","black","legacy","legacy","legacy","0","incongruent","uniform","1","undefined","1","s","0","0","0","83","0","83","0","83","0","0","0","83","83","83","83","83","Sun Sep 25 17:27:14 2022","600","The main experiment item","yes","FlankerTask.osexp","/Users/keelyn/Library/CloudStorage/OneDrive-Personal","no","mono","no","18","no","white","no","yes","768","legacy","3","79","/Users/keelyn/Library/CloudStorage/OneDrive-Personal/subject-4.csv","legacy","Lentiform Loewenfeld","3.3.12","0","s","NA","h","s","NA","s","617","NA","136090","19047","NA","617","2","legacy","1024","2","48000","-16","experiment","HHSHH","4","even","137032","301840","NA","302593","927","305525","NA","308761","939","282792","NA","307696","308870","309487","308755","308869","Flanker Task","82","53587","84","yes","1024"
"97.6470588235294","97.6470588235294","635.9294117647058","635.9294117647058","black","legacy","legacy","legacy","0","congruent","uniform","1","undefined","1","h","0","0","0","84","0","84","0","84","0","0","0","84","84","84","84","84","Sun Sep 25 17:27:14 2022","600","The main experiment item","yes","FlankerTask.osexp","/Users/keelyn/Library/CloudStorage/OneDrive-Personal","no","mono","no","18","no","white","no","yes","768","legacy","4","79","/Users/keelyn/Library/CloudStorage/OneDrive-Personal/subject-4.csv","legacy","Lentiform Loewenfeld","3.3.12","0","h","NA","h","s","NA","h","467","NA","136090","19047","NA","467","2","legacy","1024","2","48000","-16","experiment","HHHHH","4","even","137032","301840","NA","302593","927","309492","NA","311063","939","282792","NA","310004","311171","311639","311058","311171","Flanker Task","83","54054","85","yes","1024"
"96.51162790697674","96.51162790697674","633.3837209302326","633.3837209302326","black","legacy","legacy","legacy","0","incongruent","uniform","0","undefined","0","s","0","0","0","85","0","85","0","85","0","0","0","85","85","85","85","85","Sun Sep 25 17:27:14 2022","600","The main experiment item","yes","FlankerTask.osexp","/Users/keelyn/Library/CloudStorage/OneDrive-Personal","no","mono","no","18","no","white","no","yes","768","legacy","5","79","/Users/keelyn/Library/CloudStorage/OneDrive-Personal/subject-4.csv","legacy","Lentiform Loewenfeld","3.3.12","0","h","NA","h","s","NA","h","417","NA","136090","19047","NA","417","2","legacy","1024","2","48000","-16","experiment","HHSHH","4","even","137032","301840","NA","302593","927","309492","NA","312704","939","282792","NA","311644","312812","313230","312698","312812","Flanker Task","83","54471","86","yes","1024"
"96.55172413793103","96.55172413793103","632.0229885057471","632.0229885057471","black","legacy","legacy","legacy","0","congruent","uniform","1","undefined","1","s","0","0","0","86","0","86","0","86","0","0","0","86","86","86","86","86","Sun Sep 25 17:27:14 2022","600","The main experiment item","yes","FlankerTask.osexp","/Users/keelyn/Library/CloudStorage/OneDrive-Personal","no","mono","no","18","no","white","no","yes","768","legacy","6","79","/Users/keelyn/Library/CloudStorage/OneDrive-Personal/subject-4.csv","legacy","Lentiform Loewenfeld","3.3.12","0","s","NA","h","s","NA","s","515","NA","136090","19047","NA","515","2","legacy","1024","2","48000","-16","experiment","SSSSS","4","even","137032","301840","NA","313235","927","309492","NA","314810","939","282792","NA","313747","314919","315435","314804","314919","Flanker Task","84","54986","87","yes","1024"
"96.5909090909091","96.5909090909091","630.0568181818181","630.0568181818181","black","legacy","legacy","legacy","0","congruent","uniform","1","undefined","1","s","0","0","0","87","0","87","0","87","0","0","0","87","87","87","87","87","Sun Sep 25 17:27:14 2022","600","The main experiment item","yes","FlankerTask.osexp","/Users/keelyn/Library/CloudStorage/OneDrive-Personal","no","mono","no","18","no","white","no","yes","768","legacy","7","79","/Users/keelyn/Library/CloudStorage/OneDrive-Personal/subject-4.csv","legacy","Lentiform Loewenfeld","3.3.12","0","s","NA","h","s","NA","s","459","NA","136090","19047","NA","459","2","legacy","1024","2","48000","-16","experiment","SSSSS","4","even","137032","301840","NA","313235","927","309492","NA","316501","939","282792","NA","315440","316610","317070","316495","316610","Flanker Task","85","55445","88","yes","1024"
"96.62921348314607","96.62921348314607","629.9101123595506","629.9101123595506","black","legacy","legacy","legacy","0","congruent","uniform","1","undefined","1","h","0","0","0","88","0","88","0","88","0","0","0","88","88","88","88","88","Sun Sep 25 17:27:14 2022","600","The main experiment item","yes","FlankerTask.osexp","/Users/keelyn/Library/CloudStorage/OneDrive-Personal","no","mono","no","18","no","white","no","yes","768","legacy","8","79","/Users/keelyn/Library/CloudStorage/OneDrive-Personal/subject-4.csv","legacy","Lentiform Loewenfeld","3.3.12","0","h","NA","h","s","NA","h","617","NA","136090","19047","NA","617","2","legacy","1024","2","48000","-16","experiment","HHHHH","4","even","137032","301840","NA","313235","927","309492","NA","318140","939","282792","NA","317075","318249","318867","318133","318249","Flanker Task","86","56062","89","yes","1024"
"96.66666666666667","96.66666666666667","628.2","628.2","black","legacy","legacy","legacy","0","congruent","uniform","1","undefined","1","h","0","0","0","89","0","89","0","89","0","0","0","89","89","89","89","89","Sun Sep 25 17:27:14 2022","600","The main experiment item","yes","FlankerTask.osexp","/Users/keelyn/Library/CloudStorage/OneDrive-Personal","no","mono","no","18","no","white","no","yes","768","legacy","9","79","/Users/keelyn/Library/CloudStorage/OneDrive-Personal/subject-4.csv","legacy","Lentiform Loewenfeld","3.3.12","0","h","NA","h","s","NA","h","476","NA","136090","19047","NA","476","2","legacy","1024","2","48000","-16","experiment","HHHHH","4","even","137032","301840","NA","313235","927","318872","NA","320446","939","282792","NA","319384","320555","321032","320440","320555","Flanker Task","87","56538","90","yes","1024"
"96.7032967032967","96.7032967032967","626.1758241758242","626.1758241758242","black","legacy","legacy","legacy","0","incongruent","uniform","1","undefined","1","s","0","0","0","90","0","90","0","90","0","0","0","90","90","90","90","90","Sun Sep 25 17:27:14 2022","600","The main experiment item","yes","FlankerTask.osexp","/Users/keelyn/Library/CloudStorage/OneDrive-Personal","no","mono","no","18","no","white","no","yes","768","legacy","10","79","/Users/keelyn/Library/CloudStorage/OneDrive-Personal/subject-4.csv","legacy","Lentiform Loewenfeld","3.3.12","0","s","NA","h","s","NA","s","444","NA","136090","19047","NA","444","2","legacy","1024","2","48000","-16","experiment","HHSHH","4","even","137032","301840","NA","313235","927","318872","NA","322100","939","282792","NA","321037","322209","322654","322094","322209","Flanker Task","88","56982","91","yes","1024"
"96.73913043478261","96.73913043478261","625.8913043478261","625.8913043478261","black","legacy","legacy","legacy","0","incongruent","uniform","1","undefined","1","h","0","0","0","91","0","91","0","91","0","0","0","91","91","91","91","91","Sun Sep 25 17:27:14 2022","600","The main experiment item","yes","FlankerTask.osexp","/Users/keelyn/Library/CloudStorage/OneDrive-Personal","no","mono","no","18","no","white","no","yes","768","legacy","11","79","/Users/keelyn/Library/CloudStorage/OneDrive-Personal/subject-4.csv","legacy","Lentiform Loewenfeld","3.3.12","0","h","NA","h","s","NA","h","600","NA","136090","19047","NA","600","2","legacy","1024","2","48000","-16","experiment","SSHSS","4","even","137032","301840","NA","313235","927","318872","NA","323721","939","282792","NA","322659","323830","324431","323715","323830","Flanker Task","89","57582","92","yes","1024"
"96.7741935483871","96.7741935483871","624.9569892473119","624.9569892473119","black","legacy","legacy","legacy","0","incongruent","uniform","1","undefined","1","h","0","0","0","92","0","92","0","92","0","0","0","92","92","92","92","92","Sun Sep 25 17:27:14 2022","600","The main experiment item","yes","FlankerTask.osexp","/Users/keelyn/Library/CloudStorage/OneDrive-Personal","no","mono","no","18","no","white","no","yes","768","legacy","12","79","/Users/keelyn/Library/CloudStorage/OneDrive-Personal/subject-4.csv","legacy","Lentiform Loewenfeld","3.3.12","0","h","NA","h","s","NA","h","539","NA","136090","19047","NA","539","2","legacy","1024","2","48000","-16","experiment","SSHSS","4","even","137032","301840","NA","313235","927","318872","NA","325497","939","282792","NA","324436","325606","326145","325491","325606","Flanker Task","90","58121","93","yes","1024"
"96.80851063829788","96.80851063829788","624.8829787234042","624.8829787234042","black","legacy","legacy","legacy","0","incongruent","uniform","1","undefined","1","h","0","0","0","93","0","93","0","93","0","0","0","93","93","93","93","93","Sun Sep 25 17:27:14 2022","600","The main experiment item","yes","FlankerTask.osexp","/Users/keelyn/Library/CloudStorage/OneDrive-Personal","no","mono","no","18","no","white","no","yes","768","legacy","13","79","/Users/keelyn/Library/CloudStorage/OneDrive-Personal/subject-4.csv","legacy","Lentiform Loewenfeld","3.3.12","0","h","NA","h","s","NA","h","618","NA","136090","19047","NA","618","2","legacy","1024","2","48000","-16","experiment","SSHSS","4","even","137032","301840","NA","313235","927","318872","NA","327212","939","282792","NA","326150","327321","327940","327206","327321","Flanker Task","91","58739","94","yes","1024"
"96.84210526315789","96.84210526315789","624.1578947368421","624.1578947368421","black","legacy","legacy","legacy","0","incongruent","uniform","1","undefined","1","h","0","0","0","94","0","94","0","94","0","0","0","94","94","94","94","94","Sun Sep 25 17:27:14 2022","600","The main experiment item","yes","FlankerTask.osexp","/Users/keelyn/Library/CloudStorage/OneDrive-Personal","no","mono","no","18","no","white","no","yes","768","legacy","14","79","/Users/keelyn/Library/CloudStorage/OneDrive-Personal/subject-4.csv","legacy","Lentiform Loewenfeld","3.3.12","0","h","NA","h","s","NA","h","556","NA","136090","19047","NA","556","2","legacy","1024","2","48000","-16","experiment","SSHSS","4","even","137032","301840","NA","313235","927","327944","NA","329519","939","282792","NA","328457","329628","330185","329512","329628","Flanker Task","92","59295","95","yes","1024"
"96.875","96.875","622.90625","622.90625","black","legacy","legacy","legacy","0","congruent","uniform","1","undefined","1","s","0","0","0","95","0","95","0","95","0","0","0","95","95","95","95","95","Sun Sep 25 17:27:14 2022","600","The main experiment item","yes","FlankerTask.osexp","/Users/keelyn/Library/CloudStorage/OneDrive-Personal","no","mono","no","18","no","white","no","yes","768","legacy","15","79","/Users/keelyn/Library/CloudStorage/OneDrive-Personal/subject-4.csv","legacy","Lentiform Loewenfeld","3.3.12","0","s","NA","h","s","NA","s","504","NA","136090","19047","NA","504","2","legacy","1024","2","48000","-16","experiment","SSSSS","4","even","137032","301840","NA","313235","927","327944","NA","331252","939","282792","NA","330190","331361","331865","331246","331361","Flanker Task","93","59799","96","yes","1024"
"96.90721649484536","96.90721649484536","622.3917525773196","622.3917525773196","black","legacy","legacy","legacy","0","incongruent","uniform","1","undefined","1","h","0","0","0","96","0","96","0","96","0","0","0","96","96","96","96","96","Sun Sep 25 17:27:14 2022","600","The main experiment item","yes","FlankerTask.osexp","/Users/keelyn/Library/CloudStorage/OneDrive-Personal","no","mono","no","18","no","white","no","yes","768","legacy","16","79","/Users/keelyn/Library/CloudStorage/OneDrive-Personal/subject-4.csv","legacy","Lentiform Loewenfeld","3.3.12","0","h","NA","h","s","NA","h","573","NA","136090","19047","NA","573","2","legacy","1024","2","48000","-16","experiment","SSHSS","4","even","137032","301840","NA","313235","927","327944","NA","332952","939","282792","NA","331891","333061","333635","332946","333061","Flanker Task","94","60372","97","yes","1024"
"96.93877551020408","96.93877551020408","620.8571428571429","620.8571428571429","black","legacy","legacy","legacy","0","congruent","uniform","1","undefined","1","s","0","0","0","97","0","97","0","97","0","0","0","97","97","97","97","97","Sun Sep 25 17:27:14 2022","600","The main experiment item","yes","FlankerTask.osexp","/Users/keelyn/Library/CloudStorage/OneDrive-Personal","no","mono","no","18","no","white","no","yes","768","legacy","17","79","/Users/keelyn/Library/CloudStorage/OneDrive-Personal/subject-4.csv","legacy","Lentiform Loewenfeld","3.3.12","0","s","NA","h","s","NA","s","472","NA","136090","19047","NA","472","2","legacy","1024","2","48000","-16","experiment","SSSSS","4","even","137032","301840","NA","313235","927","327944","NA","334701","939","282792","NA","333639","334810","335283","334695","334810","Flanker Task","95","60844","98","yes","1024"
"95.95959595959596","95.95959595959596","618.4747474747475","618.4747474747475","black","legacy","legacy","legacy","0","incongruent","uniform","0","undefined","0","s","0","0","0","98","0","98","0","98","0","0","0","98","98","98","98","98","Sun Sep 25 17:27:14 2022","600","The main experiment item","yes","FlankerTask.osexp","/Users/keelyn/Library/CloudStorage/OneDrive-Personal","no","mono","no","18","no","white","no","yes","768","legacy","18","79","/Users/keelyn/Library/CloudStorage/OneDrive-Personal/subject-4.csv","legacy","Lentiform Loewenfeld","3.3.12","0","h","NA","h","s","NA","h","385","NA","136090","19047","NA","385","2","legacy","1024","2","48000","-16","experiment","HHSHH","4","even","137032","301840","NA","313235","927","327944","NA","336349","939","282792","NA","335288","336458","336844","336343","336458","Flanker Task","95","61229","99","yes","1024"
"96","96","617.72","617.72","black","legacy","legacy","legacy","0","congruent","uniform","1","undefined","1","h","0","0","0","99","0","99","0","99","0","0","0","99","99","99","99","99","Sun Sep 25 17:27:14 2022","600","The main experiment item","yes","FlankerTask.osexp","/Users/keelyn/Library/CloudStorage/OneDrive-Personal","no","mono","no","18","no","white","no","yes","768","legacy","19","79","/Users/keelyn/Library/CloudStorage/OneDrive-Personal/subject-4.csv","legacy","Lentiform Loewenfeld","3.3.12","0","h","NA","h","s","NA","h","543","NA","136090","19047","NA","543","2","legacy","1024","2","48000","-16","experiment","HHHHH","4","even","137032","301840","NA","336849","927","327944","NA","338423","939","282792","NA","337361","338532","339076","338417","338531","Flanker Task","96","61772","100","yes","1024"
"96.03960396039604","96.03960396039604","616.3267326732673","616.3267326732673","black","legacy","legacy","legacy","0","congruent","uniform","1","undefined","1","h","0","0","0","100","0","100","0","100","0","0","0","100","100","100","100","100","Sun Sep 25 17:27:14 2022","600","The main experiment item","yes","FlankerTask.osexp","/Users/keelyn/Library/CloudStorage/OneDrive-Personal","no","mono","no","18","no","white","no","yes","768","legacy","20","79","/Users/keelyn/Library/CloudStorage/OneDrive-Personal/subject-4.csv","legacy","Lentiform Loewenfeld","3.3.12","0","h","NA","h","s","NA","h","477","NA","136090","19047","NA","477","2","legacy","1024","2","48000","-16","experiment","HHHHH","4","even","137032","301840","NA","336849","927","327944","NA","340140","939","282792","NA","339081","340248","340726","340134","340248","Flanker Task","97","62249","101","yes","1024"
"96.07843137254902","96.07843137254902","614.6862745098039","614.6862745098039","black","legacy","legacy","legacy","0","congruent","uniform","1","undefined","1","h","0","0","0","101","0","101","0","101","0","0","0","101","101","101","101","101","Sun Sep 25 17:27:14 2022","600","The main experiment item","yes","FlankerTask.osexp","/Users/keelyn/Library/CloudStorage/OneDrive-Personal","no","mono","no","18","no","white","no","yes","768","legacy","21","79","/Users/keelyn/Library/CloudStorage/OneDrive-Personal/subject-4.csv","legacy","Lentiform Loewenfeld","3.3.12","0","h","NA","h","s","NA","h","449","NA","136090","19047","NA","449","2","legacy","1024","2","48000","-16","experiment","HHHHH","4","even","137032","301840","NA","336849","927","327944","NA","341792","939","282792","NA","340731","341902","342352","341786","341902","Flanker Task","98","62698","102","yes","1024"
"96.11650485436893","96.11650485436893","613.6407766990292","613.6407766990292","black","legacy","legacy","legacy","0","congruent","uniform","1","undefined","1","s","0","0","0","102","0","102","0","102","0","0","0","102","102","102","102","102","Sun Sep 25 17:27:14 2022","600","The main experiment item","yes","FlankerTask.osexp","/Users/keelyn/Library/CloudStorage/OneDrive-Personal","no","mono","no","18","no","white","no","yes","768","legacy","22","79","/Users/keelyn/Library/CloudStorage/OneDrive-Personal/subject-4.csv","legacy","Lentiform Loewenfeld","3.3.12","0","s","NA","h","s","NA","s","507","NA","136090","19047","NA","507","2","legacy","1024","2","48000","-16","experiment","SSSSS","4","even","137032","301840","NA","336849","927","327944","NA","343417","939","282792","NA","342357","343526","344033","343411","343526","Flanker Task","99","63205","103","yes","1024"
"96.15384615384616","96.15384615384616","612.7019230769231","612.7019230769231","black","legacy","legacy","legacy","0","congruent","uniform","1","undefined","1","s","0","0","0","103","0","103","0","103","0","0","0","103","103","103","103","103","Sun Sep 25 17:27:14 2022","600","The main experiment item","yes","FlankerTask.osexp","/Users/keelyn/Library/CloudStorage/OneDrive-Personal","no","mono","no","18","no","white","no","yes","768","legacy","23","79","/Users/keelyn/Library/CloudStorage/OneDrive-Personal/subject-4.csv","legacy","Lentiform Loewenfeld","3.3.12","0","s","NA","h","s","NA","s","516","NA","136090","19047","NA","516","2","legacy","1024","2","48000","-16","experiment","SSSSS","4","even","137032","301840","NA","336849","927","327944","NA","345099","939","282792","NA","344038","345208","345725","345093","345208","Flanker Task","100","63721","104","yes","1024"
"96.19047619047619","96.19047619047619","612.0857142857143","612.0857142857143","black","legacy","legacy","legacy","0","congruent","uniform","1","undefined","1","s","0","0","0","104","0","104","0","104","0","0","0","104","104","104","104","104","Sun Sep 25 17:27:14 2022","600","The main experiment item","yes","FlankerTask.osexp","/Users/keelyn/Library/CloudStorage/OneDrive-Personal","no","mono","no","18","no","white","no","yes","768","legacy","24","79","/Users/keelyn/Library/CloudStorage/OneDrive-Personal/subject-4.csv","legacy","Lentiform Loewenfeld","3.3.12","0","s","NA","h","s","NA","s","548","NA","136090","19047","NA","548","2","legacy","1024","2","48000","-16","experiment","SSSSS","4","even","137032","301840","NA","336849","927","327944","NA","346791","939","282792","NA","345730","346900","347449","346785","346900","Flanker Task","101","64269","105","yes","1024"
"95.28301886792453","95.28301886792453","614.1603773584906","614.1603773584906","black","legacy","legacy","legacy","0","incongruent","uniform","0","undefined","0","s","0","0","0","105","0","105","0","105","0","0","0","105","105","105","105","105","Sun Sep 25 17:27:14 2022","600","The main experiment item","yes","FlankerTask.osexp","/Users/keelyn/Library/CloudStorage/OneDrive-Personal","no","mono","no","18","no","white","no","yes","768","legacy","25","79","/Users/keelyn/Library/CloudStorage/OneDrive-Personal/subject-4.csv","legacy","Lentiform Loewenfeld","3.3.12","0","h","NA","h","s","NA","h","832","NA","136090","19047","NA","832","2","legacy","1024","2","48000","-16","experiment","HHSHH","4","even","137032","301840","NA","336849","927","327944","NA","348511","939","282792","NA","347454","348619","349452","348505","348619","Flanker Task","101","65101","106","yes","1024"
"95.32710280373831","95.32710280373831","615.0841121495328","615.0841121495328","black","legacy","legacy","legacy","0","incongruent","uniform","1","undefined","1","s","0","0","0","106","0","106","0","106","0","0","0","106","106","106","106","106","Sun Sep 25 17:27:14 2022","600","The main experiment item","yes","FlankerTask.osexp","/Users/keelyn/Library/CloudStorage/OneDrive-Personal","no","mono","no","18","no","white","no","yes","768","legacy","26","79","/Users/keelyn/Library/CloudStorage/OneDrive-Personal/subject-4.csv","legacy","Lentiform Loewenfeld","3.3.12","0","s","NA","h","s","NA","s","713","NA","136090","19047","NA","713","2","legacy","1024","2","48000","-16","experiment","HHSHH","4","even","137032","301840","NA","349457","927","349966","NA","351538","939","282792","NA","350477","351647","352361","351532","351647","Flanker Task","102","65814","107","yes","1024"
"95.37037037037037","95.37037037037037","614.6111111111111","614.6111111111111","black","legacy","legacy","legacy","0","incongruent","uniform","1","undefined","1","s","0","0","0","107","0","107","0","107","0","0","0","107","107","107","107","107","Sun Sep 25 17:27:14 2022","600","The main experiment item","yes","FlankerTask.osexp","/Users/keelyn/Library/CloudStorage/OneDrive-Personal","no","mono","no","18","no","white","no","yes","768","legacy","27","79","/Users/keelyn/Library/CloudStorage/OneDrive-Personal/subject-4.csv","legacy","Lentiform Loewenfeld","3.3.12","0","s","NA","h","s","NA","s","564","NA","136090","19047","NA","564","2","legacy","1024","2","48000","-16","experiment","HHSHH","4","even","137032","301840","NA","349457","927","352366","NA","353939","939","282792","NA","352878","354047","354612","353933","354047","Flanker Task","103","66378","108","yes","1024"
"95.41284403669725","95.41284403669725","613.6146788990826","613.6146788990826","black","legacy","legacy","legacy","0","congruent","uniform","1","undefined","1","h","0","0","0","108","0","108","0","108","0","0","0","108","108","108","108","108","Sun Sep 25 17:27:14 2022","600","The main experiment item","yes","FlankerTask.osexp","/Users/keelyn/Library/CloudStorage/OneDrive-Personal","no","mono","no","18","no","white","no","yes","768","legacy","28","79","/Users/keelyn/Library/CloudStorage/OneDrive-Personal/subject-4.csv","legacy","Lentiform Loewenfeld","3.3.12","0","h","NA","h","s","NA","h","506","NA","136090","19047","NA","506","2","legacy","1024","2","48000","-16","experiment","HHHHH","4","even","137032","301840","NA","349457","927","352366","NA","355678","939","282792","NA","354617","355787","356294","355672","355787","Flanker Task","104","66884","109","yes","1024"
"95.45454545454545","95.45454545454545","613.0636363636364","613.0636363636364","black","legacy","legacy","legacy","0","incongruent","uniform","1","undefined","1","s","0","0","0","109","0","109","0","109","0","0","0","109","109","109","109","109","Sun Sep 25 17:27:14 2022","600","The main experiment item","yes","FlankerTask.osexp","/Users/keelyn/Library/CloudStorage/OneDrive-Personal","no","mono","no","18","no","white","no","yes","768","legacy","29","79","/Users/keelyn/Library/CloudStorage/OneDrive-Personal/subject-4.csv","legacy","Lentiform Loewenfeld","3.3.12","0","s","NA","h","s","NA","s","553","NA","136090","19047","NA","553","2","legacy","1024","2","48000","-16","experiment","HHSHH","4","even","137032","301840","NA","349457","927","352366","NA","357360","939","282792","NA","356299","357468","358022","357354","357468","Flanker Task","105","67437","110","yes","1024"
"95.49549549549549","95.49549549549549","611.7657657657658","611.7657657657658","black","legacy","legacy","legacy","0","congruent","uniform","1","undefined","1","h","0","0","0","110","0","110","0","110","0","0","0","110","110","110","110","110","Sun Sep 25 17:27:14 2022","600","The main experiment item","yes","FlankerTask.osexp","/Users/keelyn/Library/CloudStorage/OneDrive-Personal","no","mono","no","18","no","white","no","yes","768","legacy","30","79","/Users/keelyn/Library/CloudStorage/OneDrive-Personal/subject-4.csv","legacy","Lentiform Loewenfeld","3.3.12","0","h","NA","h","s","NA","h","469","NA","136090","19047","NA","469","2","legacy","1024","2","48000","-16","experiment","HHHHH","4","even","137032","301840","NA","349457","927","352366","NA","359087","939","282792","NA","358027","359196","359665","359081","359195","Flanker Task","106","67906","111","yes","1024"
"95.53571428571429","95.53571428571429","612.1339285714286","612.1339285714286","black","legacy","legacy","legacy","0","incongruent","uniform","1","undefined","1","h","0","0","0","111","0","111","0","111","0","0","0","111","111","111","111","111","Sun Sep 25 17:27:14 2022","600","The main experiment item","yes","FlankerTask.osexp","/Users/keelyn/Library/CloudStorage/OneDrive-Personal","no","mono","no","18","no","white","no","yes","768","legacy","31","79","/Users/keelyn/Library/CloudStorage/OneDrive-Personal/subject-4.csv","legacy","Lentiform Loewenfeld","3.3.12","0","h","NA","h","s","NA","h","653","NA","136090","19047","NA","653","2","legacy","1024","2","48000","-16","experiment","SSHSS","4","even","137032","301840","NA","349457","927","352366","NA","360732","939","282792","NA","359670","360841","361495","360726","360841","Flanker Task","107","68559","112","yes","1024"
"95.57522123893806","95.57522123893806","611.8407079646017","611.8407079646017","black","legacy","legacy","legacy","0","incongruent","uniform","1","undefined","1","h","0","0","0","112","0","112","0","112","0","0","0","112","112","112","112","112","Sun Sep 25 17:27:14 2022","600","The main experiment item","yes","FlankerTask.osexp","/Users/keelyn/Library/CloudStorage/OneDrive-Personal","no","mono","no","18","no","white","no","yes","768","legacy","32","79","/Users/keelyn/Library/CloudStorage/OneDrive-Personal/subject-4.csv","legacy","Lentiform Loewenfeld","3.3.12","0","h","NA","h","s","NA","h","579","NA","136090","19047","NA","579","2","legacy","1024","2","48000","-16","experiment","SSHSS","4","even","137032","301840","NA","349457","927","361499","NA","363071","939","282792","NA","362010","363180","363760","363065","363180","Flanker Task","108","69138","113","yes","1024"
"94.73684210526316","94.73684210526316","611.0964912280701","611.0964912280701","black","legacy","legacy","legacy","0","congruent","uniform","0","undefined","0","h","0","0","0","113","0","113","0","113","0","0","0","113","113","113","113","113","Sun Sep 25 17:27:14 2022","600","The main experiment item","yes","FlankerTask.osexp","/Users/keelyn/Library/CloudStorage/OneDrive-Personal","no","mono","no","18","no","white","no","yes","768","legacy","33","79","/Users/keelyn/Library/CloudStorage/OneDrive-Personal/subject-4.csv","legacy","Lentiform Loewenfeld","3.3.12","0","s","NA","h","s","NA","s","527","NA","136090","19047","NA","527","2","legacy","1024","2","48000","-16","experiment","HHHHH","4","even","137032","301840","NA","349457","927","361499","NA","364826","939","282792","NA","363765","364936","365464","364820","364936","Flanker Task","108","69665","114","yes","1024"
"94.78260869565217","94.78260869565217","610.8347826086956","610.8347826086956","black","legacy","legacy","legacy","0","incongruent","uniform","1","undefined","1","s","0","0","0","114","0","114","0","114","0","0","0","114","114","114","114","114","Sun Sep 25 17:27:14 2022","600","The main experiment item","yes","FlankerTask.osexp","/Users/keelyn/Library/CloudStorage/OneDrive-Personal","no","mono","no","18","no","white","no","yes","768","legacy","34","79","/Users/keelyn/Library/CloudStorage/OneDrive-Personal/subject-4.csv","legacy","Lentiform Loewenfeld","3.3.12","0","s","NA","h","s","NA","s","581","NA","136090","19047","NA","581","2","legacy","1024","2","48000","-16","experiment","HHSHH","4","even","137032","301840","NA","365469","927","361499","NA","367045","939","282792","NA","365982","367154","367736","367039","367154","Flanker Task","109","70246","115","yes","1024"
