"acc","accuracy","average_response_time","avg_rt","background","canvas_backend","clock_backend","color_backend","compensation","condition","coordinates","correct","correct_instructions1","correct_keyboard_response","correct_response","count_Block1","count_Block2","count_Block3","count_errorFeedback","count_experiment","count_faster","count_finish","count_fixation","count_instructions1","count_instructions2","count_instructions3","count_isi","count_keyboard_response","count_logger","count_sequence","count_stimulus","datetime","deadline","description","disable_garbage_collection","experiment_file","experiment_path","font_bold","font_family","font_italic","font_size","font_underline","foreground","form_clicks","fullscreen","height","keyboard_backend","live_row","live_row_Block1","logfile","mouse_backend","opensesame_codename","opensesame_version","repeat_cycle","response","response_finish","response_instructions1","response_instructions2","response_instructions3","response_keyboard_response","response_time","response_time_finish","response_time_instructions1","response_time_instructions2","response_time_instructions3","response_time_keyboard_response","round_decimals","sampler_backend","sound_buf_size","sound_channels","sound_freq","sound_sample_size","start","stimulus","subject_nr","subject_parity","time_Block1","time_Block2","time_Block3","time_errorFeedback","time_experiment","time_faster","time_finish","time_fixation","time_instructions1","time_instructions2","time_instructions3","time_isi","time_keyboard_response","time_logger","time_sequence","time_stimulus","title","total_correct","total_response_time","total_responses","uniform_coordinates","width"
"100","100","635","635","black","legacy","legacy","legacy","0","congruent","uniform","1","undefined","1","h","0","0","0","0","0","0","0","0","0","0","0","0","0","0","0","0","Wed Sep 14 13:07:10 2022","1500","The main experiment item","yes","FlankerTask.osexp","/Users/keelyn/Library/CloudStorage/OneDrive-Personal","no","mono","no","18","no","white","no","yes","768","legacy","0","0","/Users/keelyn/Library/CloudStorage/OneDrive-Personal/KB-subject-1.csv","legacy","Lentiform Loewenfeld","3.3.12","0","h","NA","s","NA","NA","h","635","NA","5729","NA","NA","635","2","legacy","1024","2","48000","-16","experiment","HHHHH","1","odd","7069","NA","NA","NA","1323","NA","NA","7101","1334","NA","NA","NA","7209","7844","7097","7209","Flanker Task","1","635","1","yes","1024"
"100","100","569.5","569.5","black","legacy","legacy","legacy","0","congruent","uniform","1","undefined","1","h","0","0","0","1","0","1","0","1","0","0","0","1","1","1","1","1","Wed Sep 14 13:07:10 2022","1500","The main experiment item","yes","FlankerTask.osexp","/Users/keelyn/Library/CloudStorage/OneDrive-Personal","no","mono","no","18","no","white","no","yes","768","legacy","1","1","/Users/keelyn/Library/CloudStorage/OneDrive-Personal/KB-subject-1.csv","legacy","Lentiform Loewenfeld","3.3.12","0","h","NA","s","NA","NA","h","504","NA","5729","NA","NA","504","2","legacy","1024","2","48000","-16","experiment","HHHHH","1","odd","7069","NA","NA","NA","1323","NA","NA","8918","1334","NA","NA","7851","9026","9535","8912","9026","Flanker Task","2","1139","2","yes","1024"
"100","100","521","521","black","legacy","legacy","legacy","0","congruent","uniform","1","undefined","1","h","0","0","0","2","0","2","0","2","0","0","0","2","2","2","2","2","Wed Sep 14 13:07:10 2022","1500","The main experiment item","yes","FlankerTask.osexp","/Users/keelyn/Library/CloudStorage/OneDrive-Personal","no","mono","no","18","no","white","no","yes","768","legacy","2","2","/Users/keelyn/Library/CloudStorage/OneDrive-Personal/KB-subject-1.csv","legacy","Lentiform Loewenfeld","3.3.12","0","h","NA","s","NA","NA","h","424","NA","5729","NA","NA","424","2","legacy","1024","2","48000","-16","experiment","HHHHH","1","odd","7069","NA","NA","NA","1323","NA","NA","10606","1334","NA","NA","9540","10714","11138","10600","10714","Flanker Task","3","1563","3","yes","1024"
"100","100","483.75","483.75","black","legacy","legacy","legacy","0","congruent","uniform","1","undefined","1","h","0","0","0","3","0","3","0","3","0","0","0","3","3","3","3","3","Wed Sep 14 13:07:10 2022","1500","The main experiment item","yes","FlankerTask.osexp","/Users/keelyn/Library/CloudStorage/OneDrive-Personal","no","mono","no","18","no","white","no","yes","768","legacy","3","3","/Users/keelyn/Library/CloudStorage/OneDrive-Personal/KB-subject-1.csv","legacy","Lentiform Loewenfeld","3.3.12","0","h","NA","s","NA","NA","h","372","NA","5729","NA","NA","372","2","legacy","1024","2","48000","-16","experiment","HHHHH","1","odd","7069","NA","NA","NA","1323","NA","NA","12206","1334","NA","NA","11143","12314","12687","12200","12314","Flanker Task","4","1935","4","yes","1024"
"100","100","486.4","486.4","black","legacy","legacy","legacy","0","incongruent","uniform","1","undefined","1","s","0","0","0","4","0","4","0","4","0","0","0","4","4","4","4","4","Wed Sep 14 13:07:10 2022","1500","The main experiment item","yes","FlankerTask.osexp","/Users/keelyn/Library/CloudStorage/OneDrive-Personal","no","mono","no","18","no","white","no","yes","768","legacy","4","4","/Users/keelyn/Library/CloudStorage/OneDrive-Personal/KB-subject-1.csv","legacy","Lentiform Loewenfeld","3.3.12","0","s","NA","s","NA","NA","s","497","NA","5729","NA","NA","497","2","legacy","1024","2","48000","-16","experiment","HHSHH","1","odd","7069","NA","NA","NA","1323","NA","NA","13754","1334","NA","NA","12692","13863","14361","13748","13863","Flanker Task","5","2432","5","yes","1024"
"100","100","484.6666666666667","484.6666666666667","black","legacy","legacy","legacy","0","congruent","uniform","1","undefined","1","h","0","0","0","5","0","5","0","5","0","0","0","5","5","5","5","5","Wed Sep 14 13:07:10 2022","1500","The main experiment item","yes","FlankerTask.osexp","/Users/keelyn/Library/CloudStorage/OneDrive-Personal","no","mono","no","18","no","white","no","yes","768","legacy","5","5","/Users/keelyn/Library/CloudStorage/OneDrive-Personal/KB-subject-1.csv","legacy","Lentiform Loewenfeld","3.3.12","0","h","NA","s","NA","NA","h","476","NA","5729","NA","NA","476","2","legacy","1024","2","48000","-16","experiment","HHHHH","1","odd","7069","NA","NA","NA","1323","NA","NA","15431","1334","NA","NA","14366","15540","16016","15425","15540","Flanker Task","6","2908","6","yes","1024"
"100","100","474.7142857142857","474.7142857142857","black","legacy","legacy","legacy","0","congruent","uniform","1","undefined","1","s","0","0","0","6","0","6","0","6","0","0","0","6","6","6","6","6","Wed Sep 14 13:07:10 2022","1500","The main experiment item","yes","FlankerTask.osexp","/Users/keelyn/Library/CloudStorage/OneDrive-Personal","no","mono","no","18","no","white","no","yes","768","legacy","6","6","/Users/keelyn/Library/CloudStorage/OneDrive-Personal/KB-subject-1.csv","legacy","Lentiform Loewenfeld","3.3.12","0","s","NA","s","NA","NA","s","415","NA","5729","NA","NA","415","2","legacy","1024","2","48000","-16","experiment","SSSSS","1","odd","7069","NA","NA","NA","1323","NA","NA","17082","1334","NA","NA","16021","17191","17607","17075","17191","Flanker Task","7","3323","7","yes","1024"
"100","100","471.25","471.25","black","legacy","legacy","legacy","0","congruent","uniform","1","undefined","1","s","0","0","0","7","0","7","0","7","0","0","0","7","7","7","7","7","Wed Sep 14 13:07:10 2022","1500","The main experiment item","yes","FlankerTask.osexp","/Users/keelyn/Library/CloudStorage/OneDrive-Personal","no","mono","no","18","no","white","no","yes","768","legacy","7","7","/Users/keelyn/Library/CloudStorage/OneDrive-Personal/KB-subject-1.csv","legacy","Lentiform Loewenfeld","3.3.12","0","s","NA","s","NA","NA","s","447","NA","5729","NA","NA","447","2","legacy","1024","2","48000","-16","experiment","SSSSS","1","odd","7069","NA","NA","NA","1323","NA","NA","18671","1334","NA","NA","17612","18780","19227","18665","18780","Flanker Task","8","3770","8","yes","1024"
"100","100","469.6666666666667","469.6666666666667","black","legacy","legacy","legacy","0","incongruent","uniform","1","undefined","1","s","0","0","0","8","0","8","0","8","0","0","0","8","8","8","8","8","Wed Sep 14 13:07:10 2022","1500","The main experiment item","yes","FlankerTask.osexp","/Users/keelyn/Library/CloudStorage/OneDrive-Personal","no","mono","no","18","no","white","no","yes","768","legacy","8","8","/Users/keelyn/Library/CloudStorage/OneDrive-Personal/KB-subject-1.csv","legacy","Lentiform Loewenfeld","3.3.12","0","s","NA","s","NA","NA","s","457","NA","5729","NA","NA","457","2","legacy","1024","2","48000","-16","experiment","HHSHH","1","odd","7069","NA","NA","NA","1323","NA","NA","20293","1334","NA","NA","19232","20402","20859","20287","20401","Flanker Task","9","4227","9","yes","1024"
"100","100","464.9","464.9","black","legacy","legacy","legacy","0","congruent","uniform","1","undefined","1","s","0","0","0","9","0","9","0","9","0","0","0","9","9","9","9","9","Wed Sep 14 13:07:10 2022","1500","The main experiment item","yes","FlankerTask.osexp","/Users/keelyn/Library/CloudStorage/OneDrive-Personal","no","mono","no","18","no","white","no","yes","768","legacy","9","9","/Users/keelyn/Library/CloudStorage/OneDrive-Personal/KB-subject-1.csv","legacy","Lentiform Loewenfeld","3.3.12","0","s","NA","s","NA","NA","s","422","NA","5729","NA","NA","422","2","legacy","1024","2","48000","-16","experiment","SSSSS","1","odd","7069","NA","NA","NA","1323","NA","NA","21925","1334","NA","NA","20864","22033","22455","21919","22033","Flanker Task","10","4649","10","yes","1024"
"100","100","459.45454545454544","459.45454545454544","black","legacy","legacy","legacy","0","congruent","uniform","1","undefined","1","s","0","0","0","10","0","10","0","10","0","0","0","10","10","10","10","10","Wed Sep 14 13:07:10 2022","1500","The main experiment item","yes","FlankerTask.osexp","/Users/keelyn/Library/CloudStorage/OneDrive-Personal","no","mono","no","18","no","white","no","yes","768","legacy","10","10","/Users/keelyn/Library/CloudStorage/OneDrive-Personal/KB-subject-1.csv","legacy","Lentiform Loewenfeld","3.3.12","0","s","NA","s","NA","NA","s","405","NA","5729","NA","NA","405","2","legacy","1024","2","48000","-16","experiment","SSSSS","1","odd","7069","NA","NA","NA","1323","NA","NA","23516","1334","NA","NA","22460","23624","24030","23510","23624","Flanker Task","11","5054","11","yes","1024"
"91.66666666666667","91.66666666666667","452.0833333333333","452.0833333333333","black","legacy","legacy","legacy","0","incongruent","uniform","0","undefined","0","h","0","0","0","11","0","11","0","11","0","0","0","11","11","11","11","11","Wed Sep 14 13:07:10 2022","1500","The main experiment item","yes","FlankerTask.osexp","/Users/keelyn/Library/CloudStorage/OneDrive-Personal","no","mono","no","18","no","white","no","yes","768","legacy","11","11","/Users/keelyn/Library/CloudStorage/OneDrive-Personal/KB-subject-1.csv","legacy","Lentiform Loewenfeld","3.3.12","0","s","NA","s","NA","NA","s","371","NA","5729","NA","NA","371","2","legacy","1024","2","48000","-16","experiment","SSHSS","1","odd","7069","NA","NA","NA","1323","NA","NA","25096","1334","NA","NA","24035","25205","25577","25089","25205","Flanker Task","11","5425","12","yes","1024"
"92.3076923076923","92.3076923076923","453.46153846153845","453.46153846153845","black","legacy","legacy","legacy","0","incongruent","uniform","1","undefined","1","h","0","0","0","12","0","12","0","12","0","0","0","12","12","12","12","12","Wed Sep 14 13:07:10 2022","1500","The main experiment item","yes","FlankerTask.osexp","/Users/keelyn/Library/CloudStorage/OneDrive-Personal","no","mono","no","18","no","white","no","yes","768","legacy","12","12","/Users/keelyn/Library/CloudStorage/OneDrive-Personal/KB-subject-1.csv","legacy","Lentiform Loewenfeld","3.3.12","0","h","NA","s","NA","NA","h","470","NA","5729","NA","NA","470","2","legacy","1024","2","48000","-16","experiment","SSHSS","1","odd","7069","NA","NA","25582","1323","NA","NA","27155","1334","NA","NA","26094","27263","27734","27149","27263","Flanker Task","12","5895","13","yes","1024"
"92.85714285714286","92.85714285714286","464.2857142857143","464.2857142857143","black","legacy","legacy","legacy","0","incongruent","uniform","1","undefined","1","s","0","0","0","13","0","13","0","13","0","0","0","13","13","13","13","13","Wed Sep 14 13:07:10 2022","1500","The main experiment item","yes","FlankerTask.osexp","/Users/keelyn/Library/CloudStorage/OneDrive-Personal","no","mono","no","18","no","white","no","yes","768","legacy","13","13","/Users/keelyn/Library/CloudStorage/OneDrive-Personal/KB-subject-1.csv","legacy","Lentiform Loewenfeld","3.3.12","0","s","NA","s","NA","NA","s","605","NA","5729","NA","NA","605","2","legacy","1024","2","48000","-16","experiment","HHSHH","1","odd","7069","NA","NA","25582","1323","NA","NA","28804","1334","NA","NA","27739","28913","29519","28798","28913","Flanker Task","13","6500","14","yes","1024"
"93.33333333333333","93.33333333333333","466.3333333333333","466.3333333333333","black","legacy","legacy","legacy","0","incongruent","uniform","1","undefined","1","s","0","0","0","14","0","14","0","14","0","0","0","14","14","14","14","14","Wed Sep 14 13:07:10 2022","1500","The main experiment item","yes","FlankerTask.osexp","/Users/keelyn/Library/CloudStorage/OneDrive-Personal","no","mono","no","18","no","white","no","yes","768","legacy","14","14","/Users/keelyn/Library/CloudStorage/OneDrive-Personal/KB-subject-1.csv","legacy","Lentiform Loewenfeld","3.3.12","0","s","NA","s","NA","NA","s","495","NA","5729","NA","NA","495","2","legacy","1024","2","48000","-16","experiment","HHSHH","1","odd","7069","NA","NA","25582","1323","NA","NA","30586","1334","NA","NA","29524","30695","31190","30580","30695","Flanker Task","14","6995","15","yes","1024"
"93.75","93.75","468.0625","468.0625","black","legacy","legacy","legacy","0","incongruent","uniform","1","undefined","1","h","0","0","0","15","0","15","0","15","0","0","0","15","15","15","15","15","Wed Sep 14 13:07:10 2022","1500","The main experiment item","yes","FlankerTask.osexp","/Users/keelyn/Library/CloudStorage/OneDrive-Personal","no","mono","no","18","no","white","no","yes","768","legacy","15","15","/Users/keelyn/Library/CloudStorage/OneDrive-Personal/KB-subject-1.csv","legacy","Lentiform Loewenfeld","3.3.12","0","h","NA","s","NA","NA","h","494","NA","5729","NA","NA","494","2","legacy","1024","2","48000","-16","experiment","SSHSS","1","odd","7069","NA","NA","25582","1323","NA","NA","32256","1334","NA","NA","31195","32365","32860","32249","32365","Flanker Task","15","7489","16","yes","1024"
"94.11764705882354","94.11764705882354","468.70588235294116","468.70588235294116","black","legacy","legacy","legacy","0","incongruent","uniform","1","undefined","1","h","0","0","0","16","0","16","0","16","0","0","0","16","16","16","16","16","Wed Sep 14 13:07:10 2022","1500","The main experiment item","yes","FlankerTask.osexp","/Users/keelyn/Library/CloudStorage/OneDrive-Personal","no","mono","no","18","no","white","no","yes","768","legacy","16","16","/Users/keelyn/Library/CloudStorage/OneDrive-Personal/KB-subject-1.csv","legacy","Lentiform Loewenfeld","3.3.12","0","h","NA","s","NA","NA","h","479","NA","5729","NA","NA","479","2","legacy","1024","2","48000","-16","experiment","SSHSS","1","odd","7069","NA","NA","25582","1323","NA","NA","33925","1334","NA","NA","32865","34033","34512","33918","34033","Flanker Task","16","7968","17","yes","1024"
"94.44444444444444","94.44444444444444","467.22222222222223","467.22222222222223","black","legacy","legacy","legacy","0","incongruent","uniform","1","undefined","1","h","0","0","0","17","0","17","0","17","0","0","0","17","17","17","17","17","Wed Sep 14 13:07:10 2022","1500","The main experiment item","yes","FlankerTask.osexp","/Users/keelyn/Library/CloudStorage/OneDrive-Personal","no","mono","no","18","no","white","no","yes","768","legacy","17","17","/Users/keelyn/Library/CloudStorage/OneDrive-Personal/KB-subject-1.csv","legacy","Lentiform Loewenfeld","3.3.12","0","h","NA","s","NA","NA","h","442","NA","5729","NA","NA","442","2","legacy","1024","2","48000","-16","experiment","SSHSS","1","odd","7069","NA","NA","25582","1323","NA","NA","35577","1334","NA","NA","34517","35686","36128","35571","35686","Flanker Task","17","8410","18","yes","1024"
"94.73684210526316","94.73684210526316","463.3157894736842","463.3157894736842","black","legacy","legacy","legacy","0","incongruent","uniform","1","undefined","1","s","0","0","0","18","0","18","0","18","0","0","0","18","18","18","18","18","Wed Sep 14 13:07:10 2022","1500","The main experiment item","yes","FlankerTask.osexp","/Users/keelyn/Library/CloudStorage/OneDrive-Personal","no","mono","no","18","no","white","no","yes","768","legacy","18","18","/Users/keelyn/Library/CloudStorage/OneDrive-Personal/KB-subject-1.csv","legacy","Lentiform Loewenfeld","3.3.12","0","s","NA","s","NA","NA","s","393","NA","5729","NA","NA","393","2","legacy","1024","2","48000","-16","experiment","HHSHH","1","odd","7069","NA","NA","25582","1323","NA","NA","37194","1334","NA","NA","36134","37303","37696","37188","37303","Flanker Task","18","8803","19","yes","1024"
"95","95","460.5","460.5","black","legacy","legacy","legacy","0","congruent","uniform","1","undefined","1","s","0","0","0","19","0","19","0","19","0","0","0","19","19","19","19","19","Wed Sep 14 13:07:10 2022","1500","The main experiment item","yes","FlankerTask.osexp","/Users/keelyn/Library/CloudStorage/OneDrive-Personal","no","mono","no","18","no","white","no","yes","768","legacy","19","19","/Users/keelyn/Library/CloudStorage/OneDrive-Personal/KB-subject-1.csv","legacy","Lentiform Loewenfeld","3.3.12","0","s","NA","s","NA","NA","s","407","NA","5729","NA","NA","407","2","legacy","1024","2","48000","-16","experiment","SSSSS","1","odd","7069","NA","NA","25582","1323","NA","NA","38762","1334","NA","NA","37701","38871","39279","38756","38871","Flanker Task","19","9210","20","yes","1024"
"95.23809523809524","95.23809523809524","459.9047619047619","459.9047619047619","black","legacy","legacy","legacy","0","congruent","uniform","1","undefined","1","h","0","0","0","20","0","20","0","20","0","0","0","20","20","20","20","20","Wed Sep 14 13:07:10 2022","1500","The main experiment item","yes","FlankerTask.osexp","/Users/keelyn/Library/CloudStorage/OneDrive-Personal","no","mono","no","18","no","white","no","yes","768","legacy","20","20","/Users/keelyn/Library/CloudStorage/OneDrive-Personal/KB-subject-1.csv","legacy","Lentiform Loewenfeld","3.3.12","0","h","NA","s","NA","NA","h","448","NA","5729","NA","NA","448","2","legacy","1024","2","48000","-16","experiment","HHHHH","1","odd","7069","NA","NA","25582","1323","NA","NA","40344","1334","NA","NA","39284","40453","40901","40338","40453","Flanker Task","20","9658","21","yes","1024"
"95.45454545454545","95.45454545454545","457.59090909090907","457.59090909090907","black","legacy","legacy","legacy","0","congruent","uniform","1","undefined","1","h","0","0","0","21","0","21","0","21","0","0","0","21","21","21","21","21","Wed Sep 14 13:07:10 2022","1500","The main experiment item","yes","FlankerTask.osexp","/Users/keelyn/Library/CloudStorage/OneDrive-Personal","no","mono","no","18","no","white","no","yes","768","legacy","21","21","/Users/keelyn/Library/CloudStorage/OneDrive-Personal/KB-subject-1.csv","legacy","Lentiform Loewenfeld","3.3.12","0","h","NA","s","NA","NA","h","409","NA","5729","NA","NA","409","2","legacy","1024","2","48000","-16","experiment","HHHHH","1","odd","7069","NA","NA","25582","1323","NA","NA","41968","1334","NA","NA","40907","42077","42487","41962","42077","Flanker Task","21","10067","22","yes","1024"
"95.65217391304348","95.65217391304348","455.3478260869565","455.3478260869565","black","legacy","legacy","legacy","0","congruent","uniform","1","undefined","1","h","0","0","0","22","0","22","0","22","0","0","0","22","22","22","22","22","Wed Sep 14 13:07:10 2022","1500","The main experiment item","yes","FlankerTask.osexp","/Users/keelyn/Library/CloudStorage/OneDrive-Personal","no","mono","no","18","no","white","no","yes","768","legacy","22","22","/Users/keelyn/Library/CloudStorage/OneDrive-Personal/KB-subject-1.csv","legacy","Lentiform Loewenfeld","3.3.12","0","h","NA","s","NA","NA","h","406","NA","5729","NA","NA","406","2","legacy","1024","2","48000","-16","experiment","HHHHH","1","odd","7069","NA","NA","25582","1323","NA","NA","43554","1334","NA","NA","42491","43663","44070","43548","43663","Flanker Task","22","10473","23","yes","1024"
"95.83333333333333","95.83333333333333","453.1666666666667","453.1666666666667","black","legacy","legacy","legacy","0","congruent","uniform","1","undefined","1","h","0","0","0","23","0","23","0","23","0","0","0","23","23","23","23","23","Wed Sep 14 13:07:10 2022","1500","The main experiment item","yes","FlankerTask.osexp","/Users/keelyn/Library/CloudStorage/OneDrive-Personal","no","mono","no","18","no","white","no","yes","768","legacy","23","23","/Users/keelyn/Library/CloudStorage/OneDrive-Personal/KB-subject-1.csv","legacy","Lentiform Loewenfeld","3.3.12","0","h","NA","s","NA","NA","h","403","NA","5729","NA","NA","403","2","legacy","1024","2","48000","-16","experiment","HHHHH","1","odd","7069","NA","NA","25582","1323","NA","NA","45136","1334","NA","NA","44075","45245","45648","45130","45245","Flanker Task","23","10876","24","yes","1024"
"96","96","452.4","452.4","black","legacy","legacy","legacy","0","incongruent","uniform","1","undefined","1","s","0","0","0","24","0","24","0","24","0","0","0","24","24","24","24","24","Wed Sep 14 13:07:10 2022","1500","The main experiment item","yes","FlankerTask.osexp","/Users/keelyn/Library/CloudStorage/OneDrive-Personal","no","mono","no","18","no","white","no","yes","768","legacy","24","24","/Users/keelyn/Library/CloudStorage/OneDrive-Personal/KB-subject-1.csv","legacy","Lentiform Loewenfeld","3.3.12","0","s","NA","s","NA","NA","s","434","NA","5729","NA","NA","434","2","legacy","1024","2","48000","-16","experiment","HHSHH","1","odd","7069","NA","NA","25582","1323","NA","NA","46715","1334","NA","NA","45653","46824","47258","46709","46823","Flanker Task","24","11310","25","yes","1024"
"96.15384615384616","96.15384615384616","454.88461538461536","454.88461538461536","black","legacy","legacy","legacy","0","congruent","uniform","1","undefined","1","s","0","0","0","25","0","25","0","25","0","0","0","25","25","25","25","25","Wed Sep 14 13:07:10 2022","1500","The main experiment item","yes","FlankerTask.osexp","/Users/keelyn/Library/CloudStorage/OneDrive-Personal","no","mono","no","18","no","white","no","yes","768","legacy","25","25","/Users/keelyn/Library/CloudStorage/OneDrive-Personal/KB-subject-1.csv","legacy","Lentiform Loewenfeld","3.3.12","0","s","NA","s","NA","NA","s","517","NA","5729","NA","NA","517","2","legacy","1024","2","48000","-16","experiment","SSSSS","1","odd","7069","NA","NA","25582","1323","NA","NA","48327","1334","NA","NA","47263","48436","48954","48321","48436","Flanker Task","25","11827","26","yes","1024"
"96.29629629629629","96.29629629629629","455.77777777777777","455.77777777777777","black","legacy","legacy","legacy","0","incongruent","uniform","1","undefined","1","h","0","0","0","26","0","26","0","26","0","0","0","26","26","26","26","26","Wed Sep 14 13:07:10 2022","1500","The main experiment item","yes","FlankerTask.osexp","/Users/keelyn/Library/CloudStorage/OneDrive-Personal","no","mono","no","18","no","white","no","yes","768","legacy","26","26","/Users/keelyn/Library/CloudStorage/OneDrive-Personal/KB-subject-1.csv","legacy","Lentiform Loewenfeld","3.3.12","0","h","NA","s","NA","NA","h","479","NA","5729","NA","NA","479","2","legacy","1024","2","48000","-16","experiment","SSHSS","1","odd","7069","NA","NA","25582","1323","NA","NA","50026","1334","NA","NA","48959","50135","50615","50019","50135","Flanker Task","26","12306","27","yes","1024"
"96.42857142857143","96.42857142857143","455.60714285714283","455.60714285714283","black","legacy","legacy","legacy","0","congruent","uniform","1","undefined","1","h","0","0","0","27","0","27","0","27","0","0","0","27","27","27","27","27","Wed Sep 14 13:07:10 2022","1500","The main experiment item","yes","FlankerTask.osexp","/Users/keelyn/Library/CloudStorage/OneDrive-Personal","no","mono","no","18","no","white","no","yes","768","legacy","27","27","/Users/keelyn/Library/CloudStorage/OneDrive-Personal/KB-subject-1.csv","legacy","Lentiform Loewenfeld","3.3.12","0","h","NA","s","NA","NA","h","451","NA","5729","NA","NA","451","2","legacy","1024","2","48000","-16","experiment","HHHHH","1","odd","7069","NA","NA","25582","1323","NA","NA","51674","1334","NA","NA","50620","51782","52233","51668","51781","Flanker Task","27","12757","28","yes","1024"
"96.55172413793103","96.55172413793103","457.7586206896552","457.7586206896552","black","legacy","legacy","legacy","0","incongruent","uniform","1","undefined","1","h","0","0","0","28","0","28","0","28","0","0","0","28","28","28","28","28","Wed Sep 14 13:07:10 2022","1500","The main experiment item","yes","FlankerTask.osexp","/Users/keelyn/Library/CloudStorage/OneDrive-Personal","no","mono","no","18","no","white","no","yes","768","legacy","28","28","/Users/keelyn/Library/CloudStorage/OneDrive-Personal/KB-subject-1.csv","legacy","Lentiform Loewenfeld","3.3.12","0","h","NA","s","NA","NA","h","518","NA","5729","NA","NA","518","2","legacy","1024","2","48000","-16","experiment","SSHSS","1","odd","7069","NA","NA","25582","1323","NA","NA","53300","1334","NA","NA","52238","53409","53928","53294","53408","Flanker Task","28","13275","29","yes","1024"
"96.66666666666667","96.66666666666667","456.46666666666664","456.46666666666664","black","legacy","legacy","legacy","0","congruent","uniform","1","undefined","1","s","0","0","0","29","0","29","0","29","0","0","0","29","29","29","29","29","Wed Sep 14 13:07:10 2022","1500","The main experiment item","yes","FlankerTask.osexp","/Users/keelyn/Library/CloudStorage/OneDrive-Personal","no","mono","no","18","no","white","no","yes","768","legacy","29","29","/Users/keelyn/Library/CloudStorage/OneDrive-Personal/KB-subject-1.csv","legacy","Lentiform Loewenfeld","3.3.12","0","s","NA","s","NA","NA","s","419","NA","5729","NA","NA","419","2","legacy","1024","2","48000","-16","experiment","SSSSS","1","odd","7069","NA","NA","25582","1323","NA","NA","54992","1334","NA","NA","53933","55101","55521","54986","55101","Flanker Task","29","13694","30","yes","1024"
"96.7741935483871","96.7741935483871","456.35483870967744","456.35483870967744","black","legacy","legacy","legacy","0","congruent","uniform","1","undefined","1","s","0","0","0","30","0","30","0","30","0","0","0","30","30","30","30","30","Wed Sep 14 13:07:10 2022","1500","The main experiment item","yes","FlankerTask.osexp","/Users/keelyn/Library/CloudStorage/OneDrive-Personal","no","mono","no","18","no","white","no","yes","768","legacy","30","30","/Users/keelyn/Library/CloudStorage/OneDrive-Personal/KB-subject-1.csv","legacy","Lentiform Loewenfeld","3.3.12","0","s","NA","s","NA","NA","s","453","NA","5729","NA","NA","453","2","legacy","1024","2","48000","-16","experiment","SSSSS","1","odd","7069","NA","NA","25582","1323","NA","NA","56588","1334","NA","NA","55526","56697","57151","56582","56697","Flanker Task","30","14147","31","yes","1024"
"96.875","96.875","455.625","455.625","black","legacy","legacy","legacy","0","congruent","uniform","1","undefined","1","s","0","0","0","31","0","31","0","31","0","0","0","31","31","31","31","31","Wed Sep 14 13:07:10 2022","1500","The main experiment item","yes","FlankerTask.osexp","/Users/keelyn/Library/CloudStorage/OneDrive-Personal","no","mono","no","18","no","white","no","yes","768","legacy","31","31","/Users/keelyn/Library/CloudStorage/OneDrive-Personal/KB-subject-1.csv","legacy","Lentiform Loewenfeld","3.3.12","0","s","NA","s","NA","NA","s","433","NA","5729","NA","NA","433","2","legacy","1024","2","48000","-16","experiment","SSSSS","1","odd","7069","NA","NA","25582","1323","NA","NA","58217","1334","NA","NA","57156","58326","58759","58210","58325","Flanker Task","31","14580","32","yes","1024"
"96.96969696969697","96.96969696969697","457.3939393939394","457.3939393939394","black","legacy","legacy","legacy","0","congruent","uniform","1","undefined","1","h","0","0","0","32","0","32","0","32","0","0","0","32","32","32","32","32","Wed Sep 14 13:07:10 2022","1500","The main experiment item","yes","FlankerTask.osexp","/Users/keelyn/Library/CloudStorage/OneDrive-Personal","no","mono","no","18","no","white","no","yes","768","legacy","32","32","/Users/keelyn/Library/CloudStorage/OneDrive-Personal/KB-subject-1.csv","legacy","Lentiform Loewenfeld","3.3.12","0","h","NA","s","NA","NA","h","514","NA","5729","NA","NA","514","2","legacy","1024","2","48000","-16","experiment","HHHHH","1","odd","7069","NA","NA","25582","1323","NA","NA","59828","1334","NA","NA","58764","59937","60452","59822","59937","Flanker Task","32","15094","33","yes","1024"
"97.05882352941177","97.05882352941177","459.2352941176471","459.2352941176471","black","legacy","legacy","legacy","0","incongruent","uniform","1","undefined","1","h","0","0","0","33","0","33","0","33","0","0","0","33","33","33","33","33","Wed Sep 14 13:07:10 2022","1500","The main experiment item","yes","FlankerTask.osexp","/Users/keelyn/Library/CloudStorage/OneDrive-Personal","no","mono","no","18","no","white","no","yes","768","legacy","33","33","/Users/keelyn/Library/CloudStorage/OneDrive-Personal/KB-subject-1.csv","legacy","Lentiform Loewenfeld","3.3.12","0","h","NA","s","NA","NA","h","520","NA","5729","NA","NA","520","2","legacy","1024","2","48000","-16","experiment","SSHSS","1","odd","7069","NA","NA","25582","1323","NA","NA","61519","1334","NA","NA","60457","61628","62149","61513","61628","Flanker Task","33","15614","34","yes","1024"
"97.14285714285714","97.14285714285714","457.3142857142857","457.3142857142857","black","legacy","legacy","legacy","0","incongruent","uniform","1","undefined","1","h","0","0","0","34","0","34","0","34","0","0","0","34","34","34","34","34","Wed Sep 14 13:07:10 2022","1500","The main experiment item","yes","FlankerTask.osexp","/Users/keelyn/Library/CloudStorage/OneDrive-Personal","no","mono","no","18","no","white","no","yes","768","legacy","34","34","/Users/keelyn/Library/CloudStorage/OneDrive-Personal/KB-subject-1.csv","legacy","Lentiform Loewenfeld","3.3.12","0","h","NA","s","NA","NA","h","392","NA","5729","NA","NA","392","2","legacy","1024","2","48000","-16","experiment","SSHSS","1","odd","7069","NA","NA","25582","1323","NA","NA","63216","1334","NA","NA","62154","63324","63717","63210","63324","Flanker Task","34","16006","35","yes","1024"
"97.22222222222223","97.22222222222223","458.27777777777777","458.27777777777777","black","legacy","legacy","legacy","0","incongruent","uniform","1","undefined","1","h","0","0","0","35","0","35","0","35","0","0","0","35","35","35","35","35","Wed Sep 14 13:07:10 2022","1500","The main experiment item","yes","FlankerTask.osexp","/Users/keelyn/Library/CloudStorage/OneDrive-Personal","no","mono","no","18","no","white","no","yes","768","legacy","35","35","/Users/keelyn/Library/CloudStorage/OneDrive-Personal/KB-subject-1.csv","legacy","Lentiform Loewenfeld","3.3.12","0","h","NA","s","NA","NA","h","492","NA","5729","NA","NA","492","2","legacy","1024","2","48000","-16","experiment","SSHSS","1","odd","7069","NA","NA","25582","1323","NA","NA","64780","1334","NA","NA","63722","64889","65381","64774","64889","Flanker Task","35","16498","36","yes","1024"
"97.29729729729729","97.29729729729729","456.02702702702703","456.02702702702703","black","legacy","legacy","legacy","0","congruent","uniform","1","undefined","1","s","0","0","0","36","0","36","0","36","0","0","0","36","36","36","36","36","Wed Sep 14 13:07:10 2022","1500","The main experiment item","yes","FlankerTask.osexp","/Users/keelyn/Library/CloudStorage/OneDrive-Personal","no","mono","no","18","no","white","no","yes","768","legacy","36","36","/Users/keelyn/Library/CloudStorage/OneDrive-Personal/KB-subject-1.csv","legacy","Lentiform Loewenfeld","3.3.12","0","s","NA","s","NA","NA","s","375","NA","5729","NA","NA","375","2","legacy","1024","2","48000","-16","experiment","SSSSS","1","odd","7069","NA","NA","25582","1323","NA","NA","66448","1334","NA","NA","65386","66557","66932","66442","66557","Flanker Task","36","16873","37","yes","1024"
"97.36842105263158","97.36842105263158","454.42105263157896","454.42105263157896","black","legacy","legacy","legacy","0","congruent","uniform","1","undefined","1","h","0","0","0","37","0","37","0","37","0","0","0","37","37","37","37","37","Wed Sep 14 13:07:10 2022","1500","The main experiment item","yes","FlankerTask.osexp","/Users/keelyn/Library/CloudStorage/OneDrive-Personal","no","mono","no","18","no","white","no","yes","768","legacy","37","37","/Users/keelyn/Library/CloudStorage/OneDrive-Personal/KB-subject-1.csv","legacy","Lentiform Loewenfeld","3.3.12","0","h","NA","s","NA","NA","h","395","NA","5729","NA","NA","395","2","legacy","1024","2","48000","-16","experiment","HHHHH","1","odd","7069","NA","NA","25582","1323","NA","NA","67998","1334","NA","NA","66937","68107","68503","67992","68107","Flanker Task","37","17268","38","yes","1024"
"97.43589743589743","97.43589743589743","454.64102564102564","454.64102564102564","black","legacy","legacy","legacy","0","incongruent","uniform","1","undefined","1","h","0","0","0","38","0","38","0","38","0","0","0","38","38","38","38","38","Wed Sep 14 13:07:10 2022","1500","The main experiment item","yes","FlankerTask.osexp","/Users/keelyn/Library/CloudStorage/OneDrive-Personal","no","mono","no","18","no","white","no","yes","768","legacy","38","38","/Users/keelyn/Library/CloudStorage/OneDrive-Personal/KB-subject-1.csv","legacy","Lentiform Loewenfeld","3.3.12","0","h","NA","s","NA","NA","h","463","NA","5729","NA","NA","463","2","legacy","1024","2","48000","-16","experiment","SSHSS","1","odd","7069","NA","NA","25582","1323","NA","NA","69568","1334","NA","NA","68508","69676","70140","69562","69676","Flanker Task","38","17731","39","yes","1024"
"97.5","97.5","452.375","452.375","black","legacy","legacy","legacy","0","congruent","uniform","1","undefined","1","s","0","0","0","39","0","39","0","39","0","0","0","39","39","39","39","39","Wed Sep 14 13:07:10 2022","1500","The main experiment item","yes","FlankerTask.osexp","/Users/keelyn/Library/CloudStorage/OneDrive-Personal","no","mono","no","18","no","white","no","yes","768","legacy","39","39","/Users/keelyn/Library/CloudStorage/OneDrive-Personal/KB-subject-1.csv","legacy","Lentiform Loewenfeld","3.3.12","0","s","NA","s","NA","NA","s","364","NA","5729","NA","NA","364","2","legacy","1024","2","48000","-16","experiment","SSSSS","1","odd","7069","NA","NA","25582","1323","NA","NA","71206","1334","NA","NA","70145","71315","71679","71200","71315","Flanker Task","39","18095","40","yes","1024"
"97.5609756097561","97.5609756097561","451.1951219512195","451.1951219512195","black","legacy","legacy","legacy","0","congruent","uniform","1","undefined","1","h","0","0","0","40","0","40","0","40","0","0","0","40","40","40","40","40","Wed Sep 14 13:07:10 2022","1500","The main experiment item","yes","FlankerTask.osexp","/Users/keelyn/Library/CloudStorage/OneDrive-Personal","no","mono","no","18","no","white","no","yes","768","legacy","40","40","/Users/keelyn/Library/CloudStorage/OneDrive-Personal/KB-subject-1.csv","legacy","Lentiform Loewenfeld","3.3.12","0","h","NA","s","NA","NA","h","404","NA","5729","NA","NA","404","2","legacy","1024","2","48000","-16","experiment","HHHHH","1","odd","7069","NA","NA","25582","1323","NA","NA","72742","1334","NA","NA","71684","72850","73255","72736","72850","Flanker Task","40","18499","41","yes","1024"
"97.61904761904762","97.61904761904762","449.54761904761904","449.54761904761904","black","legacy","legacy","legacy","0","incongruent","uniform","1","undefined","1","h","0","0","0","41","0","41","0","41","0","0","0","41","41","41","41","41","Wed Sep 14 13:07:10 2022","1500","The main experiment item","yes","FlankerTask.osexp","/Users/keelyn/Library/CloudStorage/OneDrive-Personal","no","mono","no","18","no","white","no","yes","768","legacy","41","41","/Users/keelyn/Library/CloudStorage/OneDrive-Personal/KB-subject-1.csv","legacy","Lentiform Loewenfeld","3.3.12","0","h","NA","s","NA","NA","h","382","NA","5729","NA","NA","382","2","legacy","1024","2","48000","-16","experiment","SSHSS","1","odd","7069","NA","NA","25582","1323","NA","NA","74313","1334","NA","NA","73259","74420","74803","74307","74420","Flanker Task","41","18881","42","yes","1024"
"97.67441860465117","97.67441860465117","447.9767441860465","447.9767441860465","black","legacy","legacy","legacy","0","incongruent","uniform","1","undefined","1","s","0","0","0","42","0","42","0","42","0","0","0","42","42","42","42","42","Wed Sep 14 13:07:10 2022","1500","The main experiment item","yes","FlankerTask.osexp","/Users/keelyn/Library/CloudStorage/OneDrive-Personal","no","mono","no","18","no","white","no","yes","768","legacy","42","42","/Users/keelyn/Library/CloudStorage/OneDrive-Personal/KB-subject-1.csv","legacy","Lentiform Loewenfeld","3.3.12","0","s","NA","s","NA","NA","s","382","NA","5729","NA","NA","382","2","legacy","1024","2","48000","-16","experiment","HHSHH","1","odd","7069","NA","NA","25582","1323","NA","NA","75870","1334","NA","NA","74808","75979","76362","75864","75978","Flanker Task","42","19263","43","yes","1024"
"97.72727272727273","97.72727272727273","447.1363636363636","447.1363636363636","black","legacy","legacy","legacy","0","congruent","uniform","1","undefined","1","s","0","0","0","43","0","43","0","43","0","0","0","43","43","43","43","43","Wed Sep 14 13:07:10 2022","1500","The main experiment item","yes","FlankerTask.osexp","/Users/keelyn/Library/CloudStorage/OneDrive-Personal","no","mono","no","18","no","white","no","yes","768","legacy","43","43","/Users/keelyn/Library/CloudStorage/OneDrive-Personal/KB-subject-1.csv","legacy","Lentiform Loewenfeld","3.3.12","0","s","NA","s","NA","NA","s","411","NA","5729","NA","NA","411","2","legacy","1024","2","48000","-16","experiment","SSSSS","1","odd","7069","NA","NA","25582","1323","NA","NA","77419","1334","NA","NA","76367","77526","77938","77414","77526","Flanker Task","43","19674","44","yes","1024"
"97.77777777777777","97.77777777777777","446.8888888888889","446.8888888888889","black","legacy","legacy","legacy","0","congruent","uniform","1","undefined","1","h","0","0","0","44","0","44","0","44","0","0","0","44","44","44","44","44","Wed Sep 14 13:07:10 2022","1500","The main experiment item","yes","FlankerTask.osexp","/Users/keelyn/Library/CloudStorage/OneDrive-Personal","no","mono","no","18","no","white","no","yes","768","legacy","44","44","/Users/keelyn/Library/CloudStorage/OneDrive-Personal/KB-subject-1.csv","legacy","Lentiform Loewenfeld","3.3.12","0","h","NA","s","NA","NA","h","436","NA","5729","NA","NA","436","2","legacy","1024","2","48000","-16","experiment","HHHHH","1","odd","7069","NA","NA","25582","1323","NA","NA","79003","1334","NA","NA","77943","79112","79549","78997","79112","Flanker Task","44","20110","45","yes","1024"
"97.82608695652173","97.82608695652173","444.2826086956522","444.2826086956522","black","legacy","legacy","legacy","0","congruent","uniform","1","undefined","1","h","0","0","0","45","0","45","0","45","0","0","0","45","45","45","45","45","Wed Sep 14 13:07:10 2022","1500","The main experiment item","yes","FlankerTask.osexp","/Users/keelyn/Library/CloudStorage/OneDrive-Personal","no","mono","no","18","no","white","no","yes","768","legacy","45","45","/Users/keelyn/Library/CloudStorage/OneDrive-Personal/KB-subject-1.csv","legacy","Lentiform Loewenfeld","3.3.12","0","h","NA","s","NA","NA","h","327","NA","5729","NA","NA","327","2","legacy","1024","2","48000","-16","experiment","HHHHH","1","odd","7069","NA","NA","25582","1323","NA","NA","80615","1334","NA","NA","79554","80724","81051","80609","80723","Flanker Task","45","20437","46","yes","1024"
"97.87234042553192","97.87234042553192","444.4468085106383","444.4468085106383","black","legacy","legacy","legacy","0","incongruent","uniform","1","undefined","1","h","0","0","0","46","0","46","0","46","0","0","0","46","46","46","46","46","Wed Sep 14 13:07:10 2022","1500","The main experiment item","yes","FlankerTask.osexp","/Users/keelyn/Library/CloudStorage/OneDrive-Personal","no","mono","no","18","no","white","no","yes","768","legacy","46","46","/Users/keelyn/Library/CloudStorage/OneDrive-Personal/KB-subject-1.csv","legacy","Lentiform Loewenfeld","3.3.12","0","h","NA","s","NA","NA","h","452","NA","5729","NA","NA","452","2","legacy","1024","2","48000","-16","experiment","SSHSS","1","odd","7069","NA","NA","25582","1323","NA","NA","82116","1334","NA","NA","81057","82225","82678","82110","82225","Flanker Task","46","20889","47","yes","1024"
"97.91666666666667","97.91666666666667","443.5833333333333","443.5833333333333","black","legacy","legacy","legacy","0","congruent","uniform","1","undefined","1","h","0","0","0","47","0","47","0","47","0","0","0","47","47","47","47","47","Wed Sep 14 13:07:10 2022","1500","The main experiment item","yes","FlankerTask.osexp","/Users/keelyn/Library/CloudStorage/OneDrive-Personal","no","mono","no","18","no","white","no","yes","768","legacy","47","47","/Users/keelyn/Library/CloudStorage/OneDrive-Personal/KB-subject-1.csv","legacy","Lentiform Loewenfeld","3.3.12","0","h","NA","s","NA","NA","h","403","NA","5729","NA","NA","403","2","legacy","1024","2","48000","-16","experiment","HHHHH","1","odd","7069","NA","NA","25582","1323","NA","NA","83743","1334","NA","NA","82683","83853","84257","83737","83853","Flanker Task","47","21292","48","yes","1024"
"97.95918367346938","97.95918367346938","444.6326530612245","444.6326530612245","black","legacy","legacy","legacy","0","incongruent","uniform","1","undefined","1","s","0","0","0","48","0","48","0","48","0","0","0","48","48","48","48","48","Wed Sep 14 13:07:10 2022","1500","The main experiment item","yes","FlankerTask.osexp","/Users/keelyn/Library/CloudStorage/OneDrive-Personal","no","mono","no","18","no","white","no","yes","768","legacy","48","48","/Users/keelyn/Library/CloudStorage/OneDrive-Personal/KB-subject-1.csv","legacy","Lentiform Loewenfeld","3.3.12","0","s","NA","s","NA","NA","s","495","NA","5729","NA","NA","495","2","legacy","1024","2","48000","-16","experiment","HHSHH","1","odd","7069","NA","NA","25582","1323","NA","NA","85326","1334","NA","NA","84262","85435","85931","85319","85434","Flanker Task","48","21787","49","yes","1024"
"98","98","443.6","443.6","black","legacy","legacy","legacy","0","congruent","uniform","1","undefined","1","s","0","0","0","49","0","49","0","49","0","0","0","49","49","49","49","49","Wed Sep 14 13:07:10 2022","1500","The main experiment item","yes","FlankerTask.osexp","/Users/keelyn/Library/CloudStorage/OneDrive-Personal","no","mono","no","18","no","white","no","yes","768","legacy","49","49","/Users/keelyn/Library/CloudStorage/OneDrive-Personal/KB-subject-1.csv","legacy","Lentiform Loewenfeld","3.3.12","0","s","NA","s","NA","NA","s","393","NA","5729","NA","NA","393","2","legacy","1024","2","48000","-16","experiment","SSSSS","1","odd","7069","NA","NA","25582","1323","NA","NA","86996","1334","NA","NA","85936","87106","87500","86990","87106","Flanker Task","49","22180","50","yes","1024"
"98.03921568627452","98.03921568627452","444.05882352941177","444.05882352941177","black","legacy","legacy","legacy","0","incongruent","uniform","1","undefined","1","h","0","0","0","50","0","50","0","50","0","0","0","50","50","50","50","50","Wed Sep 14 13:07:10 2022","1500","The main experiment item","yes","FlankerTask.osexp","/Users/keelyn/Library/CloudStorage/OneDrive-Personal","no","mono","no","18","no","white","no","yes","768","legacy","50","50","/Users/keelyn/Library/CloudStorage/OneDrive-Personal/KB-subject-1.csv","legacy","Lentiform Loewenfeld","3.3.12","0","h","NA","s","NA","NA","h","467","NA","5729","NA","NA","467","2","legacy","1024","2","48000","-16","experiment","SSHSS","1","odd","7069","NA","NA","25582","1323","NA","NA","88566","1334","NA","NA","87505","88675","89142","88560","88675","Flanker Task","50","22647","51","yes","1024"
"98.07692307692308","98.07692307692308","444.36538461538464","444.36538461538464","black","legacy","legacy","legacy","0","incongruent","uniform","1","undefined","1","h","0","0","0","51","0","51","0","51","0","0","0","51","51","51","51","51","Wed Sep 14 13:07:10 2022","1500","The main experiment item","yes","FlankerTask.osexp","/Users/keelyn/Library/CloudStorage/OneDrive-Personal","no","mono","no","18","no","white","no","yes","768","legacy","51","51","/Users/keelyn/Library/CloudStorage/OneDrive-Personal/KB-subject-1.csv","legacy","Lentiform Loewenfeld","3.3.12","0","h","NA","s","NA","NA","h","460","NA","5729","NA","NA","460","2","legacy","1024","2","48000","-16","experiment","SSHSS","1","odd","7069","NA","NA","25582","1323","NA","NA","90213","1334","NA","NA","89148","90321","90782","90207","90321","Flanker Task","51","23107","52","yes","1024"
"98.11320754716981","98.11320754716981","443.24528301886795","443.24528301886795","black","legacy","legacy","legacy","0","congruent","uniform","1","undefined","1","s","0","0","0","52","0","52","0","52","0","0","0","52","52","52","52","52","Wed Sep 14 13:07:10 2022","1500","The main experiment item","yes","FlankerTask.osexp","/Users/keelyn/Library/CloudStorage/OneDrive-Personal","no","mono","no","18","no","white","no","yes","768","legacy","52","52","/Users/keelyn/Library/CloudStorage/OneDrive-Personal/KB-subject-1.csv","legacy","Lentiform Loewenfeld","3.3.12","0","s","NA","s","NA","NA","s","385","NA","5729","NA","NA","385","2","legacy","1024","2","48000","-16","experiment","SSSSS","1","odd","7069","NA","NA","25582","1323","NA","NA","91848","1334","NA","NA","90787","91957","92343","91842","91956","Flanker Task","52","23492","53","yes","1024"
"98.14814814814815","98.14814814814815","442.2037037037037","442.2037037037037","black","legacy","legacy","legacy","0","congruent","uniform","1","undefined","1","h","0","0","0","53","0","53","0","53","0","0","0","53","53","53","53","53","Wed Sep 14 13:07:10 2022","1500","The main experiment item","yes","FlankerTask.osexp","/Users/keelyn/Library/CloudStorage/OneDrive-Personal","no","mono","no","18","no","white","no","yes","768","legacy","53","53","/Users/keelyn/Library/CloudStorage/OneDrive-Personal/KB-subject-1.csv","legacy","Lentiform Loewenfeld","3.3.12","0","h","NA","s","NA","NA","h","387","NA","5729","NA","NA","387","2","legacy","1024","2","48000","-16","experiment","HHHHH","1","odd","7069","NA","NA","25582","1323","NA","NA","93410","1334","NA","NA","92348","93518","93906","93403","93518","Flanker Task","53","23879","54","yes","1024"
"98.18181818181819","98.18181818181819","442.56363636363636","442.56363636363636","black","legacy","legacy","legacy","0","incongruent","uniform","1","undefined","1","h","0","0","0","54","0","54","0","54","0","0","0","54","54","54","54","54","Wed Sep 14 13:07:10 2022","1500","The main experiment item","yes","FlankerTask.osexp","/Users/keelyn/Library/CloudStorage/OneDrive-Personal","no","mono","no","18","no","white","no","yes","768","legacy","54","54","/Users/keelyn/Library/CloudStorage/OneDrive-Personal/KB-subject-1.csv","legacy","Lentiform Loewenfeld","3.3.12","0","h","NA","s","NA","NA","h","462","NA","5729","NA","NA","462","2","legacy","1024","2","48000","-16","experiment","SSHSS","1","odd","7069","NA","NA","25582","1323","NA","NA","94970","1334","NA","NA","93911","95079","95542","94964","95079","Flanker Task","54","24341","55","yes","1024"
"98.21428571428571","98.21428571428571","443.35714285714283","443.35714285714283","black","legacy","legacy","legacy","0","incongruent","uniform","1","undefined","1","s","0","0","0","55","0","55","0","55","0","0","0","55","55","55","55","55","Wed Sep 14 13:07:10 2022","1500","The main experiment item","yes","FlankerTask.osexp","/Users/keelyn/Library/CloudStorage/OneDrive-Personal","no","mono","no","18","no","white","no","yes","768","legacy","55","55","/Users/keelyn/Library/CloudStorage/OneDrive-Personal/KB-subject-1.csv","legacy","Lentiform Loewenfeld","3.3.12","0","s","NA","s","NA","NA","s","487","NA","5729","NA","NA","487","2","legacy","1024","2","48000","-16","experiment","HHSHH","1","odd","7069","NA","NA","25582","1323","NA","NA","96597","1334","NA","NA","95547","96705","97193","96592","96705","Flanker Task","55","24828","56","yes","1024"
"98.24561403508773","98.24561403508773","444.50877192982455","444.50877192982455","black","legacy","legacy","legacy","0","incongruent","uniform","1","undefined","1","s","0","0","0","56","0","56","0","56","0","0","0","56","56","56","56","56","Wed Sep 14 13:07:10 2022","1500","The main experiment item","yes","FlankerTask.osexp","/Users/keelyn/Library/CloudStorage/OneDrive-Personal","no","mono","no","18","no","white","no","yes","768","legacy","56","56","/Users/keelyn/Library/CloudStorage/OneDrive-Personal/KB-subject-1.csv","legacy","Lentiform Loewenfeld","3.3.12","0","s","NA","s","NA","NA","s","509","NA","5729","NA","NA","509","2","legacy","1024","2","48000","-16","experiment","HHSHH","1","odd","7069","NA","NA","25582","1323","NA","NA","98266","1334","NA","NA","97198","98376","98886","98260","98376","Flanker Task","56","25337","57","yes","1024"
"98.27586206896552","98.27586206896552","444.94827586206895","444.94827586206895","black","legacy","legacy","legacy","0","incongruent","uniform","1","undefined","1","h","0","0","0","57","0","57","0","57","0","0","0","57","57","57","57","57","Wed Sep 14 13:07:10 2022","1500","The main experiment item","yes","FlankerTask.osexp","/Users/keelyn/Library/CloudStorage/OneDrive-Personal","no","mono","no","18","no","white","no","yes","768","legacy","57","57","/Users/keelyn/Library/CloudStorage/OneDrive-Personal/KB-subject-1.csv","legacy","Lentiform Loewenfeld","3.3.12","0","h","NA","s","NA","NA","h","470","NA","5729","NA","NA","470","2","legacy","1024","2","48000","-16","experiment","SSHSS","1","odd","7069","NA","NA","25582","1323","NA","NA","99948","1334","NA","NA","98891","100057","100527","99942","100057","Flanker Task","57","25807","58","yes","1024"
"98.30508474576271","98.30508474576271","444.1525423728813","444.1525423728813","black","legacy","legacy","legacy","0","congruent","uniform","1","undefined","1","h","0","0","0","58","0","58","0","58","0","0","0","58","58","58","58","58","Wed Sep 14 13:07:10 2022","1500","The main experiment item","yes","FlankerTask.osexp","/Users/keelyn/Library/CloudStorage/OneDrive-Personal","no","mono","no","18","no","white","no","yes","768","legacy","58","58","/Users/keelyn/Library/CloudStorage/OneDrive-Personal/KB-subject-1.csv","legacy","Lentiform Loewenfeld","3.3.12","0","h","NA","s","NA","NA","h","398","NA","5729","NA","NA","398","2","legacy","1024","2","48000","-16","experiment","HHHHH","1","odd","7069","NA","NA","25582","1323","NA","NA","101596","1334","NA","NA","100532","101705","102104","101590","101705","Flanker Task","58","26205","59","yes","1024"
"98.33333333333333","98.33333333333333","443.6166666666667","443.6166666666667","black","legacy","legacy","legacy","0","incongruent","uniform","1","undefined","1","s","0","0","0","59","0","59","0","59","0","0","0","59","59","59","59","59","Wed Sep 14 13:07:10 2022","1500","The main experiment item","yes","FlankerTask.osexp","/Users/keelyn/Library/CloudStorage/OneDrive-Personal","no","mono","no","18","no","white","no","yes","768","legacy","59","59","/Users/keelyn/Library/CloudStorage/OneDrive-Personal/KB-subject-1.csv","legacy","Lentiform Loewenfeld","3.3.12","0","s","NA","s","NA","NA","s","412","NA","5729","NA","NA","412","2","legacy","1024","2","48000","-16","experiment","HHSHH","1","odd","7069","NA","NA","25582","1323","NA","NA","103169","1334","NA","NA","102109","103278","103691","103163","103278","Flanker Task","59","26617","60","yes","1024"
"98.36065573770492","98.36065573770492","443.327868852459","443.327868852459","black","legacy","legacy","legacy","0","incongruent","uniform","1","undefined","1","s","0","0","0","60","0","60","0","60","0","0","0","60","60","60","60","60","Wed Sep 14 13:07:10 2022","1500","The main experiment item","yes","FlankerTask.osexp","/Users/keelyn/Library/CloudStorage/OneDrive-Personal","no","mono","no","18","no","white","no","yes","768","legacy","60","60","/Users/keelyn/Library/CloudStorage/OneDrive-Personal/KB-subject-1.csv","legacy","Lentiform Loewenfeld","3.3.12","0","s","NA","s","NA","NA","s","426","NA","5729","NA","NA","426","2","legacy","1024","2","48000","-16","experiment","HHSHH","1","odd","7069","NA","NA","25582","1323","NA","NA","104754","1334","NA","NA","103696","104862","105288","104748","104862","Flanker Task","60","27043","61","yes","1024"
"98.38709677419355","98.38709677419355","442.80645161290323","442.80645161290323","black","legacy","legacy","legacy","0","incongruent","uniform","1","undefined","1","s","0","0","0","61","0","61","0","61","0","0","0","61","61","61","61","61","Wed Sep 14 13:07:10 2022","1500","The main experiment item","yes","FlankerTask.osexp","/Users/keelyn/Library/CloudStorage/OneDrive-Personal","no","mono","no","18","no","white","no","yes","768","legacy","61","61","/Users/keelyn/Library/CloudStorage/OneDrive-Personal/KB-subject-1.csv","legacy","Lentiform Loewenfeld","3.3.12","0","s","NA","s","NA","NA","s","411","NA","5729","NA","NA","411","2","legacy","1024","2","48000","-16","experiment","HHSHH","1","odd","7069","NA","NA","25582","1323","NA","NA","106354","1334","NA","NA","105294","106463","106875","106348","106463","Flanker Task","61","27454","62","yes","1024"
"98.41269841269842","98.41269841269842","441.5238095238095","441.5238095238095","black","legacy","legacy","legacy","0","congruent","uniform","1","undefined","1","h","0","0","0","62","0","62","0","62","0","0","0","62","62","62","62","62","Wed Sep 14 13:07:10 2022","1500","The main experiment item","yes","FlankerTask.osexp","/Users/keelyn/Library/CloudStorage/OneDrive-Personal","no","mono","no","18","no","white","no","yes","768","legacy","62","62","/Users/keelyn/Library/CloudStorage/OneDrive-Personal/KB-subject-1.csv","legacy","Lentiform Loewenfeld","3.3.12","0","h","NA","s","NA","NA","h","362","NA","5729","NA","NA","362","2","legacy","1024","2","48000","-16","experiment","HHHHH","1","odd","7069","NA","NA","25582","1323","NA","NA","107938","1334","NA","NA","106880","108046","108408","107932","108046","Flanker Task","62","27816","63","yes","1024"
"98.4375","98.4375","441.4375","441.4375","black","legacy","legacy","legacy","0","incongruent","uniform","1","undefined","1","s","0","0","0","63","0","63","0","63","0","0","0","63","63","63","63","63","Wed Sep 14 13:07:10 2022","1500","The main experiment item","yes","FlankerTask.osexp","/Users/keelyn/Library/CloudStorage/OneDrive-Personal","no","mono","no","18","no","white","no","yes","768","legacy","63","63","/Users/keelyn/Library/CloudStorage/OneDrive-Personal/KB-subject-1.csv","legacy","Lentiform Loewenfeld","3.3.12","0","s","NA","s","NA","NA","s","436","NA","5729","NA","NA","436","2","legacy","1024","2","48000","-16","experiment","HHSHH","1","odd","7069","NA","NA","25582","1323","NA","NA","109474","1334","NA","NA","108413","109583","110020","109468","109583","Flanker Task","63","28252","64","yes","1024"
"98.46153846153847","98.46153846153847","441.2923076923077","441.2923076923077","black","legacy","legacy","legacy","0","congruent","uniform","1","undefined","1","h","0","0","0","64","0","64","0","64","0","0","0","64","64","64","64","64","Wed Sep 14 13:07:10 2022","1500","The main experiment item","yes","FlankerTask.osexp","/Users/keelyn/Library/CloudStorage/OneDrive-Personal","no","mono","no","18","no","white","no","yes","768","legacy","64","64","/Users/keelyn/Library/CloudStorage/OneDrive-Personal/KB-subject-1.csv","legacy","Lentiform Loewenfeld","3.3.12","0","h","NA","s","NA","NA","h","432","NA","5729","NA","NA","432","2","legacy","1024","2","48000","-16","experiment","HHHHH","1","odd","7069","NA","NA","25582","1323","NA","NA","111082","1334","NA","NA","110025","111190","111623","111076","111190","Flanker Task","64","28684","65","yes","1024"
"98.48484848484848","98.48484848484848","440.8939393939394","440.8939393939394","black","legacy","legacy","legacy","0","congruent","uniform","1","undefined","1","s","0","0","0","65","0","65","0","65","0","0","0","65","65","65","65","65","Wed Sep 14 13:07:10 2022","1500","The main experiment item","yes","FlankerTask.osexp","/Users/keelyn/Library/CloudStorage/OneDrive-Personal","no","mono","no","18","no","white","no","yes","768","legacy","65","65","/Users/keelyn/Library/CloudStorage/OneDrive-Personal/KB-subject-1.csv","legacy","Lentiform Loewenfeld","3.3.12","0","s","NA","s","NA","NA","s","415","NA","5729","NA","NA","415","2","legacy","1024","2","48000","-16","experiment","SSSSS","1","odd","7069","NA","NA","25582","1323","NA","NA","112687","1334","NA","NA","111628","112796","113212","112681","112796","Flanker Task","65","29099","66","yes","1024"
"98.50746268656717","98.50746268656717","440.3134328358209","440.3134328358209","black","legacy","legacy","legacy","0","incongruent","uniform","1","undefined","1","h","0","0","0","66","0","66","0","66","0","0","0","66","66","66","66","66","Wed Sep 14 13:07:10 2022","1500","The main experiment item","yes","FlankerTask.osexp","/Users/keelyn/Library/CloudStorage/OneDrive-Personal","no","mono","no","18","no","white","no","yes","768","legacy","66","66","/Users/keelyn/Library/CloudStorage/OneDrive-Personal/KB-subject-1.csv","legacy","Lentiform Loewenfeld","3.3.12","0","h","NA","s","NA","NA","h","402","NA","5729","NA","NA","402","2","legacy","1024","2","48000","-16","experiment","SSHSS","1","odd","7069","NA","NA","25582","1323","NA","NA","114276","1334","NA","NA","113217","114384","114787","114269","114384","Flanker Task","66","29501","67","yes","1024"
"98.52941176470588","98.52941176470588","439.05882352941177","439.05882352941177","black","legacy","legacy","legacy","0","incongruent","uniform","1","undefined","1","s","0","0","0","67","0","67","0","67","0","0","0","67","67","67","67","67","Wed Sep 14 13:07:10 2022","1500","The main experiment item","yes","FlankerTask.osexp","/Users/keelyn/Library/CloudStorage/OneDrive-Personal","no","mono","no","18","no","white","no","yes","768","legacy","67","67","/Users/keelyn/Library/CloudStorage/OneDrive-Personal/KB-subject-1.csv","legacy","Lentiform Loewenfeld","3.3.12","0","s","NA","s","NA","NA","s","355","NA","5729","NA","NA","355","2","legacy","1024","2","48000","-16","experiment","HHSHH","1","odd","7069","NA","NA","25582","1323","NA","NA","115856","1334","NA","NA","114792","115965","116321","115850","115965","Flanker Task","67","29856","68","yes","1024"
"98.55072463768116","98.55072463768116","438.0144927536232","438.0144927536232","black","legacy","legacy","legacy","0","incongruent","uniform","1","undefined","1","s","0","0","0","68","0","68","0","68","0","0","0","68","68","68","68","68","Wed Sep 14 13:07:10 2022","1500","The main experiment item","yes","FlankerTask.osexp","/Users/keelyn/Library/CloudStorage/OneDrive-Personal","no","mono","no","18","no","white","no","yes","768","legacy","68","68","/Users/keelyn/Library/CloudStorage/OneDrive-Personal/KB-subject-1.csv","legacy","Lentiform Loewenfeld","3.3.12","0","s","NA","s","NA","NA","s","367","NA","5729","NA","NA","367","2","legacy","1024","2","48000","-16","experiment","HHSHH","1","odd","7069","NA","NA","25582","1323","NA","NA","117384","1334","NA","NA","116326","117492","117859","117378","117492","Flanker Task","68","30223","69","yes","1024"
"98.57142857142857","98.57142857142857","437.57142857142856","437.57142857142856","black","legacy","legacy","legacy","0","congruent","uniform","1","undefined","1","s","0","0","0","69","0","69","0","69","0","0","0","69","69","69","69","69","Wed Sep 14 13:07:10 2022","1500","The main experiment item","yes","FlankerTask.osexp","/Users/keelyn/Library/CloudStorage/OneDrive-Personal","no","mono","no","18","no","white","no","yes","768","legacy","69","69","/Users/keelyn/Library/CloudStorage/OneDrive-Personal/KB-subject-1.csv","legacy","Lentiform Loewenfeld","3.3.12","0","s","NA","s","NA","NA","s","407","NA","5729","NA","NA","407","2","legacy","1024","2","48000","-16","experiment","SSSSS","1","odd","7069","NA","NA","25582","1323","NA","NA","118925","1334","NA","NA","117864","119033","119441","118919","119033","Flanker Task","69","30630","70","yes","1024"
"98.59154929577464","98.59154929577464","437","437","black","legacy","legacy","legacy","0","incongruent","uniform","1","undefined","1","s","0","0","0","70","0","70","0","70","0","0","0","70","70","70","70","70","Wed Sep 14 13:07:10 2022","1500","The main experiment item","yes","FlankerTask.osexp","/Users/keelyn/Library/CloudStorage/OneDrive-Personal","no","mono","no","18","no","white","no","yes","768","legacy","70","70","/Users/keelyn/Library/CloudStorage/OneDrive-Personal/KB-subject-1.csv","legacy","Lentiform Loewenfeld","3.3.12","0","s","NA","s","NA","NA","s","397","NA","5729","NA","NA","397","2","legacy","1024","2","48000","-16","experiment","HHSHH","1","odd","7069","NA","NA","25582","1323","NA","NA","120506","1334","NA","NA","119446","120615","121012","120500","120614","Flanker Task","70","31027","71","yes","1024"
"98.61111111111111","98.61111111111111","437.7083333333333","437.7083333333333","black","legacy","legacy","legacy","0","incongruent","uniform","1","undefined","1","h","0","0","0","71","0","71","0","71","0","0","0","71","71","71","71","71","Wed Sep 14 13:07:10 2022","1500","The main experiment item","yes","FlankerTask.osexp","/Users/keelyn/Library/CloudStorage/OneDrive-Personal","no","mono","no","18","no","white","no","yes","768","legacy","71","71","/Users/keelyn/Library/CloudStorage/OneDrive-Personal/KB-subject-1.csv","legacy","Lentiform Loewenfeld","3.3.12","0","h","NA","s","NA","NA","h","488","NA","5729","NA","NA","488","2","legacy","1024","2","48000","-16","experiment","SSHSS","1","odd","7069","NA","NA","25582","1323","NA","NA","122089","1334","NA","NA","121017","122198","122686","122083","122198","Flanker Task","71","31515","72","yes","1024"
"98.63013698630137","98.63013698630137","437.35616438356163","437.35616438356163","black","legacy","legacy","legacy","0","congruent","uniform","1","undefined","1","s","0","0","0","72","0","72","0","72","0","0","0","72","72","72","72","72","Wed Sep 14 13:07:10 2022","1500","The main experiment item","yes","FlankerTask.osexp","/Users/keelyn/Library/CloudStorage/OneDrive-Personal","no","mono","no","18","no","white","no","yes","768","legacy","72","72","/Users/keelyn/Library/CloudStorage/OneDrive-Personal/KB-subject-1.csv","legacy","Lentiform Loewenfeld","3.3.12","0","s","NA","s","NA","NA","s","412","NA","5729","NA","NA","412","2","legacy","1024","2","48000","-16","experiment","SSSSS","1","odd","7069","NA","NA","25582","1323","NA","NA","123750","1334","NA","NA","122692","123858","124270","123744","123858","Flanker Task","72","31927","73","yes","1024"
"98.64864864864865","98.64864864864865","437.9864864864865","437.9864864864865","black","legacy","legacy","legacy","0","incongruent","uniform","1","undefined","1","h","0","0","0","73","0","73","0","73","0","0","0","73","73","73","73","73","Wed Sep 14 13:07:10 2022","1500","The main experiment item","yes","FlankerTask.osexp","/Users/keelyn/Library/CloudStorage/OneDrive-Personal","no","mono","no","18","no","white","no","yes","768","legacy","73","73","/Users/keelyn/Library/CloudStorage/OneDrive-Personal/KB-subject-1.csv","legacy","Lentiform Loewenfeld","3.3.12","0","h","NA","s","NA","NA","h","484","NA","5729","NA","NA","484","2","legacy","1024","2","48000","-16","experiment","SSHSS","1","odd","7069","NA","NA","25582","1323","NA","NA","125338","1334","NA","NA","124275","125447","125932","125332","125447","Flanker Task","73","32411","74","yes","1024"
"98.66666666666667","98.66666666666667","436.97333333333336","436.97333333333336","black","legacy","legacy","legacy","0","incongruent","uniform","1","undefined","1","s","0","0","0","74","0","74","0","74","0","0","0","74","74","74","74","74","Wed Sep 14 13:07:10 2022","1500","The main experiment item","yes","FlankerTask.osexp","/Users/keelyn/Library/CloudStorage/OneDrive-Personal","no","mono","no","18","no","white","no","yes","768","legacy","74","74","/Users/keelyn/Library/CloudStorage/OneDrive-Personal/KB-subject-1.csv","legacy","Lentiform Loewenfeld","3.3.12","0","s","NA","s","NA","NA","s","362","NA","5729","NA","NA","362","2","legacy","1024","2","48000","-16","experiment","HHSHH","1","odd","7069","NA","NA","25582","1323","NA","NA","126998","1334","NA","NA","125937","127107","127470","126992","127107","Flanker Task","74","32773","75","yes","1024"
"98.6842105263158","98.6842105263158","436.39473684210526","436.39473684210526","black","legacy","legacy","legacy","0","congruent","uniform","1","undefined","1","s","0","0","0","75","0","75","0","75","0","0","0","75","75","75","75","75","Wed Sep 14 13:07:10 2022","1500","The main experiment item","yes","FlankerTask.osexp","/Users/keelyn/Library/CloudStorage/OneDrive-Personal","no","mono","no","18","no","white","no","yes","768","legacy","75","75","/Users/keelyn/Library/CloudStorage/OneDrive-Personal/KB-subject-1.csv","legacy","Lentiform Loewenfeld","3.3.12","0","s","NA","s","NA","NA","s","393","NA","5729","NA","NA","393","2","legacy","1024","2","48000","-16","experiment","SSSSS","1","odd","7069","NA","NA","25582","1323","NA","NA","128536","1334","NA","NA","127475","128645","129039","128530","128645","Flanker Task","75","33166","76","yes","1024"
"98.7012987012987","98.7012987012987","435.7402597402597","435.7402597402597","black","legacy","legacy","legacy","0","incongruent","uniform","1","undefined","1","s","0","0","0","76","0","76","0","76","0","0","0","76","76","76","76","76","Wed Sep 14 13:07:10 2022","1500","The main experiment item","yes","FlankerTask.osexp","/Users/keelyn/Library/CloudStorage/OneDrive-Personal","no","mono","no","18","no","white","no","yes","768","legacy","76","76","/Users/keelyn/Library/CloudStorage/OneDrive-Personal/KB-subject-1.csv","legacy","Lentiform Loewenfeld","3.3.12","0","s","NA","s","NA","NA","s","386","NA","5729","NA","NA","386","2","legacy","1024","2","48000","-16","experiment","HHSHH","1","odd","7069","NA","NA","25582","1323","NA","NA","130105","1334","NA","NA","129044","130214","130601","130099","130213","Flanker Task","76","33552","77","yes","1024"
"98.71794871794872","98.71794871794872","435.15384615384613","435.15384615384613","black","legacy","legacy","legacy","0","congruent","uniform","1","undefined","1","s","0","0","0","77","0","77","0","77","0","0","0","77","77","77","77","77","Wed Sep 14 13:07:10 2022","1500","The main experiment item","yes","FlankerTask.osexp","/Users/keelyn/Library/CloudStorage/OneDrive-Personal","no","mono","no","18","no","white","no","yes","768","legacy","77","77","/Users/keelyn/Library/CloudStorage/OneDrive-Personal/KB-subject-1.csv","legacy","Lentiform Loewenfeld","3.3.12","0","s","NA","s","NA","NA","s","390","NA","5729","NA","NA","390","2","legacy","1024","2","48000","-16","experiment","SSSSS","1","odd","7069","NA","NA","25582","1323","NA","NA","131658","1334","NA","NA","130606","131766","132157","131653","131766","Flanker Task","77","33942","78","yes","1024"
"98.73417721518987","98.73417721518987","434.3164556962025","434.3164556962025","black","legacy","legacy","legacy","0","congruent","uniform","1","undefined","1","s","0","0","0","78","0","78","0","78","0","0","0","78","78","78","78","78","Wed Sep 14 13:07:10 2022","1500","The main experiment item","yes","FlankerTask.osexp","/Users/keelyn/Library/CloudStorage/OneDrive-Personal","no","mono","no","18","no","white","no","yes","768","legacy","78","78","/Users/keelyn/Library/CloudStorage/OneDrive-Personal/KB-subject-1.csv","legacy","Lentiform Loewenfeld","3.3.12","0","s","NA","s","NA","NA","s","369","NA","5729","NA","NA","369","2","legacy","1024","2","48000","-16","experiment","SSSSS","1","odd","7069","NA","NA","25582","1323","NA","NA","133223","1334","NA","NA","132162","133332","133702","133217","133332","Flanker Task","78","34311","79","yes","1024"
"98.75","98.75","433.1625","433.1625","black","legacy","legacy","legacy","0","incongruent","uniform","1","undefined","1","s","0","0","0","79","0","79","0","79","0","0","0","79","79","79","79","79","Wed Sep 14 13:07:10 2022","1500","The main experiment item","yes","FlankerTask.osexp","/Users/keelyn/Library/CloudStorage/OneDrive-Personal","no","mono","no","18","no","white","no","yes","768","legacy","79","79","/Users/keelyn/Library/CloudStorage/OneDrive-Personal/KB-subject-1.csv","legacy","Lentiform Loewenfeld","3.3.12","0","s","NA","s","NA","NA","s","342","NA","5729","NA","NA","342","2","legacy","1024","2","48000","-16","experiment","HHSHH","1","odd","7069","NA","NA","25582","1323","NA","NA","134768","1334","NA","NA","133707","134877","135220","134762","134877","Flanker Task","79","34653","80","yes","1024"
"98.76543209876543","98.76543209876543","434.320987654321","434.320987654321","black","legacy","legacy","legacy","0","congruent","uniform","1","undefined","1","s","0","0","0","80","0","80","0","80","0","0","0","80","80","80","80","80","Wed Sep 14 13:07:10 2022","600","The main experiment item","yes","FlankerTask.osexp","/Users/keelyn/Library/CloudStorage/OneDrive-Personal","no","mono","no","18","no","white","no","yes","768","legacy","0","79","/Users/keelyn/Library/CloudStorage/OneDrive-Personal/KB-subject-1.csv","legacy","Lentiform Loewenfeld","3.3.12","0","s","NA","s","s","NA","s","527","NA","5729","38320","NA","527","2","legacy","1024","2","48000","-16","experiment","SSSSS","1","odd","7069","174582","NA","25582","1323","NA","NA","174606","1334","136262","NA","135225","174713","175241","174601","174713","Flanker Task","80","35180","81","yes","1024"
"98.78048780487805","98.78048780487805","435.280487804878","435.280487804878","black","legacy","legacy","legacy","0","incongruent","uniform","1","undefined","1","h","0","0","0","81","0","81","0","81","0","0","0","81","81","81","81","81","Wed Sep 14 13:07:10 2022","600","The main experiment item","yes","FlankerTask.osexp","/Users/keelyn/Library/CloudStorage/OneDrive-Personal","no","mono","no","18","no","white","no","yes","768","legacy","1","79","/Users/keelyn/Library/CloudStorage/OneDrive-Personal/KB-subject-1.csv","legacy","Lentiform Loewenfeld","3.3.12","0","h","NA","s","s","NA","h","513","NA","5729","38320","NA","513","2","legacy","1024","2","48000","-16","experiment","SSHSS","1","odd","7069","174582","NA","25582","1323","NA","NA","176303","1334","136262","NA","175246","176411","176925","176297","176411","Flanker Task","81","35693","82","yes","1024"
"98.79518072289157","98.79518072289157","435.49397590361446","435.49397590361446","black","legacy","legacy","legacy","0","incongruent","uniform","1","undefined","1","h","0","0","0","82","0","82","0","82","0","0","0","82","82","82","82","82","Wed Sep 14 13:07:10 2022","600","The main experiment item","yes","FlankerTask.osexp","/Users/keelyn/Library/CloudStorage/OneDrive-Personal","no","mono","no","18","no","white","no","yes","768","legacy","2","79","/Users/keelyn/Library/CloudStorage/OneDrive-Personal/KB-subject-1.csv","legacy","Lentiform Loewenfeld","3.3.12","0","h","NA","s","s","NA","h","453","NA","5729","38320","NA","453","2","legacy","1024","2","48000","-16","experiment","SSHSS","1","odd","7069","174582","NA","25582","1323","NA","NA","177991","1334","136262","NA","176930","178100","178554","177985","178100","Flanker Task","82","36146","83","yes","1024"
"98.80952380952381","98.80952380952381","434.7142857142857","434.7142857142857","black","legacy","legacy","legacy","0","incongruent","uniform","1","undefined","1","h","0","0","0","83","0","83","0","83","0","0","0","83","83","83","83","83","Wed Sep 14 13:07:10 2022","600","The main experiment item","yes","FlankerTask.osexp","/Users/keelyn/Library/CloudStorage/OneDrive-Personal","no","mono","no","18","no","white","no","yes","768","legacy","3","79","/Users/keelyn/Library/CloudStorage/OneDrive-Personal/KB-subject-1.csv","legacy","Lentiform Loewenfeld","3.3.12","0","h","NA","s","s","NA","h","370","NA","5729","38320","NA","370","2","legacy","1024","2","48000","-16","experiment","SSHSS","1","odd","7069","174582","NA","25582","1323","NA","NA","179618","1334","136262","NA","178559","179727","180098","179611","179727","Flanker Task","83","36516","84","yes","1024"
"98.82352941176471","98.82352941176471","434.7176470588235","434.7176470588235","black","legacy","legacy","legacy","0","incongruent","uniform","1","undefined","1","s","0","0","0","84","0","84","0","84","0","0","0","84","84","84","84","84","Wed Sep 14 13:07:10 2022","600","The main experiment item","yes","FlankerTask.osexp","/Users/keelyn/Library/CloudStorage/OneDrive-Personal","no","mono","no","18","no","white","no","yes","768","legacy","4","79","/Users/keelyn/Library/CloudStorage/OneDrive-Personal/KB-subject-1.csv","legacy","Lentiform Loewenfeld","3.3.12","0","s","NA","s","s","NA","s","435","NA","5729","38320","NA","435","2","legacy","1024","2","48000","-16","experiment","HHSHH","1","odd","7069","174582","NA","25582","1323","NA","NA","181164","1334","136262","NA","180103","181273","181709","181157","181272","Flanker Task","84","36951","85","yes","1024"
"98.83720930232558","98.83720930232558","434.45348837209303","434.45348837209303","black","legacy","legacy","legacy","0","incongruent","uniform","1","undefined","1","s","0","0","0","85","0","85","0","85","0","0","0","85","85","85","85","85","Wed Sep 14 13:07:10 2022","600","The main experiment item","yes","FlankerTask.osexp","/Users/keelyn/Library/CloudStorage/OneDrive-Personal","no","mono","no","18","no","white","no","yes","768","legacy","5","79","/Users/keelyn/Library/CloudStorage/OneDrive-Personal/KB-subject-1.csv","legacy","Lentiform Loewenfeld","3.3.12","0","s","NA","s","s","NA","s","412","NA","5729","38320","NA","412","2","legacy","1024","2","48000","-16","experiment","HHSHH","1","odd","7069","174582","NA","25582","1323","NA","NA","182775","1334","136262","NA","181714","182884","183297","182769","182884","Flanker Task","85","37363","86","yes","1024"
"98.85057471264368","98.85057471264368","435.17241379310343","435.17241379310343","black","legacy","legacy","legacy","0","incongruent","uniform","1","undefined","1","h","0","0","0","86","0","86","0","86","0","0","0","86","86","86","86","86","Wed Sep 14 13:07:10 2022","600","The main experiment item","yes","FlankerTask.osexp","/Users/keelyn/Library/CloudStorage/OneDrive-Personal","no","mono","no","18","no","white","no","yes","768","legacy","6","79","/Users/keelyn/Library/CloudStorage/OneDrive-Personal/KB-subject-1.csv","legacy","Lentiform Loewenfeld","3.3.12","0","h","NA","s","s","NA","h","497","NA","5729","38320","NA","497","2","legacy","1024","2","48000","-16","experiment","SSHSS","1","odd","7069","174582","NA","25582","1323","NA","NA","184363","1334","136262","NA","183302","184473","184970","184357","184473","Flanker Task","86","37860","87","yes","1024"
"98.86363636363636","98.86363636363636","435.47727272727275","435.47727272727275","black","legacy","legacy","legacy","0","congruent","uniform","1","undefined","1","s","0","0","0","87","0","87","0","87","0","0","0","87","87","87","87","87","Wed Sep 14 13:07:10 2022","600","The main experiment item","yes","FlankerTask.osexp","/Users/keelyn/Library/CloudStorage/OneDrive-Personal","no","mono","no","18","no","white","no","yes","768","legacy","7","79","/Users/keelyn/Library/CloudStorage/OneDrive-Personal/KB-subject-1.csv","legacy","Lentiform Loewenfeld","3.3.12","0","s","NA","s","s","NA","s","462","NA","5729","38320","NA","462","2","legacy","1024","2","48000","-16","experiment","SSSSS","1","odd","7069","174582","NA","25582","1323","NA","NA","186036","1334","136262","NA","184976","186145","186608","186030","186145","Flanker Task","87","38322","88","yes","1024"
"98.87640449438203","98.87640449438203","434.60674157303373","434.60674157303373","black","legacy","legacy","legacy","0","congruent","uniform","1","undefined","1","h","0","0","0","88","0","88","0","88","0","0","0","88","88","88","88","88","Wed Sep 14 13:07:10 2022","600","The main experiment item","yes","FlankerTask.osexp","/Users/keelyn/Library/CloudStorage/OneDrive-Personal","no","mono","no","18","no","white","no","yes","768","legacy","8","79","/Users/keelyn/Library/CloudStorage/OneDrive-Personal/KB-subject-1.csv","legacy","Lentiform Loewenfeld","3.3.12","0","h","NA","s","s","NA","h","358","NA","5729","38320","NA","358","2","legacy","1024","2","48000","-16","experiment","HHHHH","1","odd","7069","174582","NA","25582","1323","NA","NA","187678","1334","136262","NA","186614","187786","188144","187670","187786","Flanker Task","88","38680","89","yes","1024"
"98.88888888888889","98.88888888888889","434.96666666666664","434.96666666666664","black","legacy","legacy","legacy","0","incongruent","uniform","1","undefined","1","s","0","0","0","89","0","89","0","89","0","0","0","89","89","89","89","89","Wed Sep 14 13:07:10 2022","600","The main experiment item","yes","FlankerTask.osexp","/Users/keelyn/Library/CloudStorage/OneDrive-Personal","no","mono","no","18","no","white","no","yes","768","legacy","9","79","/Users/keelyn/Library/CloudStorage/OneDrive-Personal/KB-subject-1.csv","legacy","Lentiform Loewenfeld","3.3.12","0","s","NA","s","s","NA","s","467","NA","5729","38320","NA","467","2","legacy","1024","2","48000","-16","experiment","HHSHH","1","odd","7069","174582","NA","25582","1323","NA","NA","189214","1334","136262","NA","188150","189322","189790","189206","189322","Flanker Task","89","39147","90","yes","1024"
"98.9010989010989","98.9010989010989","434.86813186813185","434.86813186813185","black","legacy","legacy","legacy","0","incongruent","uniform","1","undefined","1","h","0","0","0","90","0","90","0","90","0","0","0","90","90","90","90","90","Wed Sep 14 13:07:10 2022","600","The main experiment item","yes","FlankerTask.osexp","/Users/keelyn/Library/CloudStorage/OneDrive-Personal","no","mono","no","18","no","white","no","yes","768","legacy","10","79","/Users/keelyn/Library/CloudStorage/OneDrive-Personal/KB-subject-1.csv","legacy","Lentiform Loewenfeld","3.3.12","0","h","NA","s","s","NA","h","426","NA","5729","38320","NA","426","2","legacy","1024","2","48000","-16","experiment","SSHSS","1","odd","7069","174582","NA","25582","1323","NA","NA","190856","1334","136262","NA","189795","190965","191392","190850","190965","Flanker Task","90","39573","91","yes","1024"
"98.91304347826087","98.91304347826087","434.4782608695652","434.4782608695652","black","legacy","legacy","legacy","0","incongruent","uniform","1","undefined","1","h","0","0","0","91","0","91","0","91","0","0","0","91","91","91","91","91","Wed Sep 14 13:07:10 2022","600","The main experiment item","yes","FlankerTask.osexp","/Users/keelyn/Library/CloudStorage/OneDrive-Personal","no","mono","no","18","no","white","no","yes","768","legacy","11","79","/Users/keelyn/Library/CloudStorage/OneDrive-Personal/KB-subject-1.csv","legacy","Lentiform Loewenfeld","3.3.12","0","h","NA","s","s","NA","h","399","NA","5729","38320","NA","399","2","legacy","1024","2","48000","-16","experiment","SSHSS","1","odd","7069","174582","NA","25582","1323","NA","NA","192459","1334","136262","NA","191397","192568","192968","192453","192568","Flanker Task","91","39972","92","yes","1024"
"98.9247311827957","98.9247311827957","434.60215053763443","434.60215053763443","black","legacy","legacy","legacy","0","incongruent","uniform","1","undefined","1","h","0","0","0","92","0","92","0","92","0","0","0","92","92","92","92","92","Wed Sep 14 13:07:10 2022","600","The main experiment item","yes","FlankerTask.osexp","/Users/keelyn/Library/CloudStorage/OneDrive-Personal","no","mono","no","18","no","white","no","yes","768","legacy","12","79","/Users/keelyn/Library/CloudStorage/OneDrive-Personal/KB-subject-1.csv","legacy","Lentiform Loewenfeld","3.3.12","0","h","NA","s","s","NA","h","446","NA","5729","38320","NA","446","2","legacy","1024","2","48000","-16","experiment","SSHSS","1","odd","7069","174582","NA","25582","1323","NA","NA","194036","1334","136262","NA","192973","194145","194592","194029","194145","Flanker Task","92","40418","93","yes","1024"
"98.93617021276596","98.93617021276596","434.24468085106383","434.24468085106383","black","legacy","legacy","legacy","0","incongruent","uniform","1","undefined","1","h","0","0","0","93","0","93","0","93","0","0","0","93","93","93","93","93","Wed Sep 14 13:07:10 2022","600","The main experiment item","yes","FlankerTask.osexp","/Users/keelyn/Library/CloudStorage/OneDrive-Personal","no","mono","no","18","no","white","no","yes","768","legacy","13","79","/Users/keelyn/Library/CloudStorage/OneDrive-Personal/KB-subject-1.csv","legacy","Lentiform Loewenfeld","3.3.12","0","h","NA","s","s","NA","h","401","NA","5729","38320","NA","401","2","legacy","1024","2","48000","-16","experiment","SSHSS","1","odd","7069","174582","NA","25582","1323","NA","NA","195665","1334","136262","NA","194598","195774","196176","195658","195774","Flanker Task","93","40819","94","yes","1024"
"98.94736842105263","98.94736842105263","433.5473684210526","433.5473684210526","black","legacy","legacy","legacy","0","incongruent","uniform","1","undefined","1","s","0","0","0","94","0","94","0","94","0","0","0","94","94","94","94","94","Wed Sep 14 13:07:10 2022","600","The main experiment item","yes","FlankerTask.osexp","/Users/keelyn/Library/CloudStorage/OneDrive-Personal","no","mono","no","18","no","white","no","yes","768","legacy","14","79","/Users/keelyn/Library/CloudStorage/OneDrive-Personal/KB-subject-1.csv","legacy","Lentiform Loewenfeld","3.3.12","0","s","NA","s","s","NA","s","368","NA","5729","38320","NA","368","2","legacy","1024","2","48000","-16","experiment","HHSHH","1","odd","7069","174582","NA","25582","1323","NA","NA","197247","1334","136262","NA","196181","197356","197725","197241","197355","Flanker Task","94","41187","95","yes","1024"
"98.95833333333333","98.95833333333333","433.21875","433.21875","black","legacy","legacy","legacy","0","congruent","uniform","1","undefined","1","h","0","0","0","95","0","95","0","95","0","0","0","95","95","95","95","95","Wed Sep 14 13:07:10 2022","600","The main experiment item","yes","FlankerTask.osexp","/Users/keelyn/Library/CloudStorage/OneDrive-Personal","no","mono","no","18","no","white","no","yes","768","legacy","15","79","/Users/keelyn/Library/CloudStorage/OneDrive-Personal/KB-subject-1.csv","legacy","Lentiform Loewenfeld","3.3.12","0","h","NA","s","s","NA","h","402","NA","5729","38320","NA","402","2","legacy","1024","2","48000","-16","experiment","HHHHH","1","odd","7069","174582","NA","25582","1323","NA","NA","198785","1334","136262","NA","197730","198893","199296","198779","198893","Flanker Task","95","41589","96","yes","1024"
"98.96907216494846","98.96907216494846","432.83505154639175","432.83505154639175","black","legacy","legacy","legacy","0","incongruent","uniform","1","undefined","1","s","0","0","0","96","0","96","0","96","0","0","0","96","96","96","96","96","Wed Sep 14 13:07:10 2022","600","The main experiment item","yes","FlankerTask.osexp","/Users/keelyn/Library/CloudStorage/OneDrive-Personal","no","mono","no","18","no","white","no","yes","768","legacy","16","79","/Users/keelyn/Library/CloudStorage/OneDrive-Personal/KB-subject-1.csv","legacy","Lentiform Loewenfeld","3.3.12","0","s","NA","s","s","NA","s","396","NA","5729","38320","NA","396","2","legacy","1024","2","48000","-16","experiment","HHSHH","1","odd","7069","174582","NA","25582","1323","NA","NA","200364","1334","136262","NA","199301","200473","200870","200357","200473","Flanker Task","96","41985","97","yes","1024"
"98.9795918367347","98.9795918367347","432.09183673469386","432.09183673469386","black","legacy","legacy","legacy","0","incongruent","uniform","1","undefined","1","h","0","0","0","97","0","97","0","97","0","0","0","97","97","97","97","97","Wed Sep 14 13:07:10 2022","600","The main experiment item","yes","FlankerTask.osexp","/Users/keelyn/Library/CloudStorage/OneDrive-Personal","no","mono","no","18","no","white","no","yes","768","legacy","17","79","/Users/keelyn/Library/CloudStorage/OneDrive-Personal/KB-subject-1.csv","legacy","Lentiform Loewenfeld","3.3.12","0","h","NA","s","s","NA","h","360","NA","5729","38320","NA","360","2","legacy","1024","2","48000","-16","experiment","SSHSS","1","odd","7069","174582","NA","25582","1323","NA","NA","201936","1334","136262","NA","200875","202045","202406","201930","202045","Flanker Task","97","42345","98","yes","1024"
"98.98989898989899","98.98989898989899","431.93939393939394","431.93939393939394","black","legacy","legacy","legacy","0","incongruent","uniform","1","undefined","1","h","0","0","0","98","0","98","0","98","0","0","0","98","98","98","98","98","Wed Sep 14 13:07:10 2022","600","The main experiment item","yes","FlankerTask.osexp","/Users/keelyn/Library/CloudStorage/OneDrive-Personal","no","mono","no","18","no","white","no","yes","768","legacy","18","79","/Users/keelyn/Library/CloudStorage/OneDrive-Personal/KB-subject-1.csv","legacy","Lentiform Loewenfeld","3.3.12","0","h","NA","s","s","NA","h","417","NA","5729","38320","NA","417","2","legacy","1024","2","48000","-16","experiment","SSHSS","1","odd","7069","174582","NA","25582","1323","NA","NA","203468","1334","136262","NA","202411","203576","203994","203462","203576","Flanker Task","98","42762","99","yes","1024"
"99","99","431.55","431.55","black","legacy","legacy","legacy","0","congruent","uniform","1","undefined","1","h","0","0","0","99","0","99","0","99","0","0","0","99","99","99","99","99","Wed Sep 14 13:07:10 2022","600","The main experiment item","yes","FlankerTask.osexp","/Users/keelyn/Library/CloudStorage/OneDrive-Personal","no","mono","no","18","no","white","no","yes","768","legacy","19","79","/Users/keelyn/Library/CloudStorage/OneDrive-Personal/KB-subject-1.csv","legacy","Lentiform Loewenfeld","3.3.12","0","h","NA","s","s","NA","h","393","NA","5729","38320","NA","393","2","legacy","1024","2","48000","-16","experiment","HHHHH","1","odd","7069","174582","NA","25582","1323","NA","NA","205060","1334","136262","NA","203999","205169","205563","205053","205169","Flanker Task","99","43155","100","yes","1024"
"99.00990099009901","99.00990099009901","431.1980198019802","431.1980198019802","black","legacy","legacy","legacy","0","congruent","uniform","1","undefined","1","h","0","0","0","100","0","100","0","100","0","0","0","100","100","100","100","100","Wed Sep 14 13:07:10 2022","600","The main experiment item","yes","FlankerTask.osexp","/Users/keelyn/Library/CloudStorage/OneDrive-Personal","no","mono","no","18","no","white","no","yes","768","legacy","20","79","/Users/keelyn/Library/CloudStorage/OneDrive-Personal/KB-subject-1.csv","legacy","Lentiform Loewenfeld","3.3.12","0","h","NA","s","s","NA","h","396","NA","5729","38320","NA","396","2","legacy","1024","2","48000","-16","experiment","HHHHH","1","odd","7069","174582","NA","25582","1323","NA","NA","206626","1334","136262","NA","205568","206734","207131","206620","206734","Flanker Task","100","43551","101","yes","1024"
"99.01960784313725","99.01960784313725","432.421568627451","432.421568627451","black","legacy","legacy","legacy","0","congruent","uniform","1","undefined","1","h","0","0","0","101","0","101","0","101","0","0","0","101","101","101","101","101","Wed Sep 14 13:07:10 2022","600","The main experiment item","yes","FlankerTask.osexp","/Users/keelyn/Library/CloudStorage/OneDrive-Personal","no","mono","no","18","no","white","no","yes","768","legacy","21","79","/Users/keelyn/Library/CloudStorage/OneDrive-Personal/KB-subject-1.csv","legacy","Lentiform Loewenfeld","3.3.12","0","h","NA","s","s","NA","h","556","NA","5729","38320","NA","556","2","legacy","1024","2","48000","-16","experiment","HHHHH","1","odd","7069","174582","NA","25582","1323","NA","NA","208196","1334","136262","NA","207136","208305","208862","208190","208305","Flanker Task","101","44107","102","yes","1024"
"99.02912621359224","99.02912621359224","432.70873786407765","432.70873786407765","black","legacy","legacy","legacy","0","incongruent","uniform","1","undefined","1","h","0","0","0","102","0","102","0","102","0","0","0","102","102","102","102","102","Wed Sep 14 13:07:10 2022","600","The main experiment item","yes","FlankerTask.osexp","/Users/keelyn/Library/CloudStorage/OneDrive-Personal","no","mono","no","18","no","white","no","yes","768","legacy","22","79","/Users/keelyn/Library/CloudStorage/OneDrive-Personal/KB-subject-1.csv","legacy","Lentiform Loewenfeld","3.3.12","0","h","NA","s","s","NA","h","462","NA","5729","38320","NA","462","2","legacy","1024","2","48000","-16","experiment","SSHSS","1","odd","7069","174582","NA","25582","1323","NA","NA","209928","1334","136262","NA","208867","210037","210500","209922","210037","Flanker Task","102","44569","103","yes","1024"
"99.03846153846153","99.03846153846153","432.1730769230769","432.1730769230769","black","legacy","legacy","legacy","0","congruent","uniform","1","undefined","1","h","0","0","0","103","0","103","0","103","0","0","0","103","103","103","103","103","Wed Sep 14 13:07:10 2022","600","The main experiment item","yes","FlankerTask.osexp","/Users/keelyn/Library/CloudStorage/OneDrive-Personal","no","mono","no","18","no","white","no","yes","768","legacy","23","79","/Users/keelyn/Library/CloudStorage/OneDrive-Personal/KB-subject-1.csv","legacy","Lentiform Loewenfeld","3.3.12","0","h","NA","s","s","NA","h","377","NA","5729","38320","NA","377","2","legacy","1024","2","48000","-16","experiment","HHHHH","1","odd","7069","174582","NA","25582","1323","NA","NA","211566","1334","136262","NA","210505","211675","212053","211559","211675","Flanker Task","103","44946","104","yes","1024"
"99.04761904761905","99.04761904761905","431.77142857142854","431.77142857142854","black","legacy","legacy","legacy","0","congruent","uniform","1","undefined","1","h","0","0","0","104","0","104","0","104","0","0","0","104","104","104","104","104","Wed Sep 14 13:07:10 2022","600","The main experiment item","yes","FlankerTask.osexp","/Users/keelyn/Library/CloudStorage/OneDrive-Personal","no","mono","no","18","no","white","no","yes","768","legacy","24","79","/Users/keelyn/Library/CloudStorage/OneDrive-Personal/KB-subject-1.csv","legacy","Lentiform Loewenfeld","3.3.12","0","h","NA","s","s","NA","h","390","NA","5729","38320","NA","390","2","legacy","1024","2","48000","-16","experiment","HHHHH","1","odd","7069","174582","NA","25582","1323","NA","NA","213120","1334","136262","NA","212058","213229","213620","213113","213229","Flanker Task","104","45336","105","yes","1024"
"99.05660377358491","99.05660377358491","430.7169811320755","430.7169811320755","black","legacy","legacy","legacy","0","congruent","uniform","1","undefined","1","s","0","0","0","105","0","105","0","105","0","0","0","105","105","105","105","105","Wed Sep 14 13:07:10 2022","600","The main experiment item","yes","FlankerTask.osexp","/Users/keelyn/Library/CloudStorage/OneDrive-Personal","no","mono","no","18","no","white","no","yes","768","legacy","25","79","/Users/keelyn/Library/CloudStorage/OneDrive-Personal/KB-subject-1.csv","legacy","Lentiform Loewenfeld","3.3.12","0","s","NA","s","s","NA","s","320","NA","5729","38320","NA","320","2","legacy","1024","2","48000","-16","experiment","SSSSS","1","odd","7069","174582","NA","25582","1323","NA","NA","214682","1334","136262","NA","213625","214790","215111","214676","214790","Flanker Task","105","45656","106","yes","1024"
"99.06542056074767","99.06542056074767","430.3644859813084","430.3644859813084","black","legacy","legacy","legacy","0","incongruent","uniform","1","undefined","1","s","0","0","0","106","0","106","0","106","0","0","0","106","106","106","106","106","Wed Sep 14 13:07:10 2022","600","The main experiment item","yes","FlankerTask.osexp","/Users/keelyn/Library/CloudStorage/OneDrive-Personal","no","mono","no","18","no","white","no","yes","768","legacy","26","79","/Users/keelyn/Library/CloudStorage/OneDrive-Personal/KB-subject-1.csv","legacy","Lentiform Loewenfeld","3.3.12","0","s","NA","s","s","NA","s","393","NA","5729","38320","NA","393","2","legacy","1024","2","48000","-16","experiment","HHSHH","1","odd","7069","174582","NA","25582","1323","NA","NA","216167","1334","136262","NA","215116","216275","216669","216161","216275","Flanker Task","106","46049","107","yes","1024"
"99.07407407407408","99.07407407407408","430.05555555555554","430.05555555555554","black","legacy","legacy","legacy","0","incongruent","uniform","1","undefined","1","s","0","0","0","107","0","107","0","107","0","0","0","107","107","107","107","107","Wed Sep 14 13:07:10 2022","600","The main experiment item","yes","FlankerTask.osexp","/Users/keelyn/Library/CloudStorage/OneDrive-Personal","no","mono","no","18","no","white","no","yes","768","legacy","27","79","/Users/keelyn/Library/CloudStorage/OneDrive-Personal/KB-subject-1.csv","legacy","Lentiform Loewenfeld","3.3.12","0","s","NA","s","s","NA","s","397","NA","5729","38320","NA","397","2","legacy","1024","2","48000","-16","experiment","HHSHH","1","odd","7069","174582","NA","25582","1323","NA","NA","217735","1334","136262","NA","216674","217844","218242","217728","217843","Flanker Task","107","46446","108","yes","1024"
"99.08256880733946","99.08256880733946","429.89908256880733","429.89908256880733","black","legacy","legacy","legacy","0","congruent","uniform","1","undefined","1","h","0","0","0","108","0","108","0","108","0","0","0","108","108","108","108","108","Wed Sep 14 13:07:10 2022","600","The main experiment item","yes","FlankerTask.osexp","/Users/keelyn/Library/CloudStorage/OneDrive-Personal","no","mono","no","18","no","white","no","yes","768","legacy","28","79","/Users/keelyn/Library/CloudStorage/OneDrive-Personal/KB-subject-1.csv","legacy","Lentiform Loewenfeld","3.3.12","0","h","NA","s","s","NA","h","413","NA","5729","38320","NA","413","2","legacy","1024","2","48000","-16","experiment","HHHHH","1","odd","7069","174582","NA","25582","1323","NA","NA","219317","1334","136262","NA","218247","219427","219842","219311","219427","Flanker Task","108","46859","109","yes","1024"
"99.0909090909091","99.0909090909091","430.3090909090909","430.3090909090909","black","legacy","legacy","legacy","0","incongruent","uniform","1","undefined","1","s","0","0","0","109","0","109","0","109","0","0","0","109","109","109","109","109","Wed Sep 14 13:07:10 2022","600","The main experiment item","yes","FlankerTask.osexp","/Users/keelyn/Library/CloudStorage/OneDrive-Personal","no","mono","no","18","no","white","no","yes","768","legacy","29","79","/Users/keelyn/Library/CloudStorage/OneDrive-Personal/KB-subject-1.csv","legacy","Lentiform Loewenfeld","3.3.12","0","s","NA","s","s","NA","s","475","NA","5729","38320","NA","475","2","legacy","1024","2","48000","-16","experiment","HHSHH","1","odd","7069","174582","NA","25582","1323","NA","NA","220908","1334","136262","NA","219847","221017","221493","220902","221017","Flanker Task","109","47334","110","yes","1024"
"99.09909909909909","99.09909909909909","430.6126126126126","430.6126126126126","black","legacy","legacy","legacy","0","incongruent","uniform","1","undefined","1","s","0","0","0","110","0","110","0","110","0","0","0","110","110","110","110","110","Wed Sep 14 13:07:10 2022","600","The main experiment item","yes","FlankerTask.osexp","/Users/keelyn/Library/CloudStorage/OneDrive-Personal","no","mono","no","18","no","white","no","yes","768","legacy","30","79","/Users/keelyn/Library/CloudStorage/OneDrive-Personal/KB-subject-1.csv","legacy","Lentiform Loewenfeld","3.3.12","0","s","NA","s","s","NA","s","464","NA","5729","38320","NA","464","2","legacy","1024","2","48000","-16","experiment","HHSHH","1","odd","7069","174582","NA","25582","1323","NA","NA","222559","1334","136262","NA","221498","222667","223132","222553","222667","Flanker Task","110","47798","111","yes","1024"
"99.10714285714286","99.10714285714286","430.35714285714283","430.35714285714283","black","legacy","legacy","legacy","0","congruent","uniform","1","undefined","1","h","0","0","0","111","0","111","0","111","0","0","0","111","111","111","111","111","Wed Sep 14 13:07:10 2022","600","The main experiment item","yes","FlankerTask.osexp","/Users/keelyn/Library/CloudStorage/OneDrive-Personal","no","mono","no","18","no","white","no","yes","768","legacy","31","79","/Users/keelyn/Library/CloudStorage/OneDrive-Personal/KB-subject-1.csv","legacy","Lentiform Loewenfeld","3.3.12","0","h","NA","s","s","NA","h","402","NA","5729","38320","NA","402","2","legacy","1024","2","48000","-16","experiment","HHHHH","1","odd","7069","174582","NA","25582","1323","NA","NA","224193","1334","136262","NA","223137","224301","224704","224188","224301","Flanker Task","111","48200","112","yes","1024"
"99.11504424778761","99.11504424778761","430.11504424778764","430.11504424778764","black","legacy","legacy","legacy","0","congruent","uniform","1","undefined","1","s","0","0","0","112","0","112","0","112","0","0","0","112","112","112","112","112","Wed Sep 14 13:07:10 2022","600","The main experiment item","yes","FlankerTask.osexp","/Users/keelyn/Library/CloudStorage/OneDrive-Personal","no","mono","no","18","no","white","no","yes","768","legacy","32","79","/Users/keelyn/Library/CloudStorage/OneDrive-Personal/KB-subject-1.csv","legacy","Lentiform Loewenfeld","3.3.12","0","s","NA","s","s","NA","s","403","NA","5729","38320","NA","403","2","legacy","1024","2","48000","-16","experiment","SSSSS","1","odd","7069","174582","NA","25582","1323","NA","NA","225771","1334","136262","NA","224709","225880","226284","225764","225879","Flanker Task","112","48603","113","yes","1024"
"99.12280701754386","99.12280701754386","429.7719298245614","429.7719298245614","black","legacy","legacy","legacy","0","congruent","uniform","1","undefined","1","h","0","0","0","113","0","113","0","113","0","0","0","113","113","113","113","113","Wed Sep 14 13:07:10 2022","600","The main experiment item","yes","FlankerTask.osexp","/Users/keelyn/Library/CloudStorage/OneDrive-Personal","no","mono","no","18","no","white","no","yes","768","legacy","33","79","/Users/keelyn/Library/CloudStorage/OneDrive-Personal/KB-subject-1.csv","legacy","Lentiform Loewenfeld","3.3.12","0","h","NA","s","s","NA","h","391","NA","5729","38320","NA","391","2","legacy","1024","2","48000","-16","experiment","HHHHH","1","odd","7069","174582","NA","25582","1323","NA","NA","227357","1334","136262","NA","226289","227466","227858","227350","227466","Flanker Task","113","48994","114","yes","1024"
"99.1304347826087","99.1304347826087","429.60869565217394","429.60869565217394","black","legacy","legacy","legacy","0","congruent","uniform","1","undefined","1","s","0","0","0","114","0","114","0","114","0","0","0","114","114","114","114","114","Wed Sep 14 13:07:10 2022","600","The main experiment item","yes","FlankerTask.osexp","/Users/keelyn/Library/CloudStorage/OneDrive-Personal","no","mono","no","18","no","white","no","yes","768","legacy","34","79","/Users/keelyn/Library/CloudStorage/OneDrive-Personal/KB-subject-1.csv","legacy","Lentiform Loewenfeld","3.3.12","0","s","NA","s","s","NA","s","411","NA","5729","38320","NA","411","2","legacy","1024","2","48000","-16","experiment","SSSSS","1","odd","7069","174582","NA","25582","1323","NA","NA","228924","1334","136262","NA","227863","229033","229445","228917","229033","Flanker Task","114","49405","115","yes","1024"
