"acc","accuracy","average_response_time","avg_rt","background","canvas_backend","clock_backend","color_backend","compensation","condition","coordinates","correct","correct_InstructionsOne","correct_Keyboard_Response","correct_response","count_BlockOne","count_BlockThree","count_BlockTwo","count_Error_Feedback","count_Faster","count_Finish","count_Fixation","count_ISI","count_InstructionsOne","count_InstructionsThree","count_InstructionsTwo","count_Keyboard_Response","count_Logger","count_Sequence","count_Stimulus","count_experiment","datetime","deadline","description","disable_garbage_collection","experiment_file","experiment_path","font_bold","font_family","font_italic","font_size","font_underline","foreground","form_clicks","fullscreen","height","keyboard_backend","live_row","live_row_BlockOne","logfile","mouse_backend","opensesame_codename","opensesame_version","repeat_cycle","response","response_Finish","response_InstructionsOne","response_InstructionsThree","response_InstructionsTwo","response_Keyboard_Response","response_time","response_time_Finish","response_time_InstructionsOne","response_time_InstructionsThree","response_time_InstructionsTwo","response_time_Keyboard_Response","round_decimals","sampler_backend","sound_buf_size","sound_channels","sound_freq","sound_sample_size","start","stimulus","subject_nr","subject_parity","time_BlockOne","time_BlockThree","time_BlockTwo","time_Error_Feedback","time_Faster","time_Finish","time_Fixation","time_ISI","time_InstructionsOne","time_InstructionsThree","time_InstructionsTwo","time_Keyboard_Response","time_Logger","time_Sequence","time_Stimulus","time_experiment","title","total_correct","total_response_time","total_responses","uniform_coordinates","width"
"100","100","691","691","black","legacy","legacy","legacy","0","Incongruent","uniform","1","undefined","1","s","0","0","0","0","0","0","0","0","0","0","0","0","0","0","0","0","Wed Sep 21 12:59:00 2022","1500","The main experiment item","yes","FlankerTask.osexp","C:\Users\Austin\Documents","no","mono","no","18","no","white","no","yes","768","legacy","0","0","C:/Users/Austin/Documents/AH-subject-4.csv","legacy","Lentiform Loewenfeld","3.3.12","0","s","NA","s","NA","NA","s","691","NA","5637","NA","NA","691","2","legacy","1024","2","48000","-16","experiment","HHSHH","4","even","11337","NA","NA","NA","NA","NA","11520","NA","5697","NA","NA","11627","12319","11512","11627","5686","Flanker Task","1","691","1","yes","1024"
"100","100","583","583","black","legacy","legacy","legacy","0","Incongruent","uniform","1","undefined","1","s","0","0","0","1","1","0","1","1","0","0","0","1","1","1","1","0","Wed Sep 21 12:59:00 2022","1500","The main experiment item","yes","FlankerTask.osexp","C:\Users\Austin\Documents","no","mono","no","18","no","white","no","yes","768","legacy","1","1","C:/Users/Austin/Documents/AH-subject-4.csv","legacy","Lentiform Loewenfeld","3.3.12","0","s","NA","s","NA","NA","s","475","NA","5637","NA","NA","475","2","legacy","1024","2","48000","-16","experiment","HHSHH","4","even","11337","NA","NA","NA","NA","NA","13543","12338","5697","NA","NA","13651","14127","13535","13650","5686","Flanker Task","2","1166","2","yes","1024"
"100","100","545","545","black","legacy","legacy","legacy","0","Incongruent","uniform","1","undefined","1","s","0","0","0","2","2","0","2","2","0","0","0","2","2","2","2","0","Wed Sep 21 12:59:00 2022","1500","The main experiment item","yes","FlankerTask.osexp","C:\Users\Austin\Documents","no","mono","no","18","no","white","no","yes","768","legacy","2","2","C:/Users/Austin/Documents/AH-subject-4.csv","legacy","Lentiform Loewenfeld","3.3.12","0","s","NA","s","NA","NA","s","469","NA","5637","NA","NA","469","2","legacy","1024","2","48000","-16","experiment","HHSHH","4","even","11337","NA","NA","NA","NA","NA","15337","14139","5697","NA","NA","15444","15914","15330","15443","5686","Flanker Task","3","1635","3","yes","1024"
"100","100","656.5","656.5","black","legacy","legacy","legacy","0","Incongruent","uniform","1","undefined","1","h","0","0","0","3","3","0","3","3","0","0","0","3","3","3","3","0","Wed Sep 21 12:59:00 2022","1500","The main experiment item","yes","FlankerTask.osexp","C:\Users\Austin\Documents","no","mono","no","18","no","white","no","yes","768","legacy","3","3","C:/Users/Austin/Documents/AH-subject-4.csv","legacy","Lentiform Loewenfeld","3.3.12","0","h","NA","s","NA","NA","h","991","NA","5637","NA","NA","991","2","legacy","1024","2","48000","-16","experiment","SSHSS","4","even","11337","NA","NA","NA","NA","NA","17125","15924","5697","NA","NA","17230","18222","17118","17230","5686","Flanker Task","4","2626","4","yes","1024"
"100","100","600.4","600.4","black","legacy","legacy","legacy","0","Incongruent","uniform","1","undefined","1","h","0","0","0","4","4","0","4","4","0","0","0","4","4","4","4","0","Wed Sep 21 12:59:00 2022","1500","The main experiment item","yes","FlankerTask.osexp","C:\Users\Austin\Documents","no","mono","no","18","no","white","no","yes","768","legacy","4","4","C:/Users/Austin/Documents/AH-subject-4.csv","legacy","Lentiform Loewenfeld","3.3.12","0","h","NA","s","NA","NA","h","376","NA","5637","NA","NA","376","2","legacy","1024","2","48000","-16","experiment","SSHSS","4","even","11337","NA","NA","NA","NA","NA","19452","18234","5697","NA","NA","19558","19935","19445","19558","5686","Flanker Task","5","3002","5","yes","1024"
"100","100","565.3333333333334","565.3333333333334","black","legacy","legacy","legacy","0","Incongruent","uniform","1","undefined","1","h","0","0","0","5","5","0","5","5","0","0","0","5","5","5","5","0","Wed Sep 21 12:59:00 2022","1500","The main experiment item","yes","FlankerTask.osexp","C:\Users\Austin\Documents","no","mono","no","18","no","white","no","yes","768","legacy","5","5","C:/Users/Austin/Documents/AH-subject-4.csv","legacy","Lentiform Loewenfeld","3.3.12","0","h","NA","s","NA","NA","h","390","NA","5637","NA","NA","390","2","legacy","1024","2","48000","-16","experiment","SSHSS","4","even","11337","NA","NA","NA","NA","NA","21186","19947","5697","NA","NA","21293","21684","21179","21292","5686","Flanker Task","6","3392","6","yes","1024"
"100","100","548.1428571428571","548.1428571428571","black","legacy","legacy","legacy","0","Congruent","uniform","1","undefined","1","h","0","0","0","6","6","0","6","6","0","0","0","6","6","6","6","0","Wed Sep 21 12:59:00 2022","1500","The main experiment item","yes","FlankerTask.osexp","C:\Users\Austin\Documents","no","mono","no","18","no","white","no","yes","768","legacy","6","6","C:/Users/Austin/Documents/AH-subject-4.csv","legacy","Lentiform Loewenfeld","3.3.12","0","h","NA","s","NA","NA","h","445","NA","5637","NA","NA","445","2","legacy","1024","2","48000","-16","experiment","HHHHH","4","even","11337","NA","NA","NA","NA","NA","22958","21696","5697","NA","NA","23066","23512","22951","23065","5686","Flanker Task","7","3837","7","yes","1024"
"87.5","87.5","521.5","521.5","black","legacy","legacy","legacy","0","Incongruent","uniform","0","undefined","0","s","0","0","0","7","7","0","7","7","0","0","0","7","7","7","7","0","Wed Sep 21 12:59:00 2022","1500","The main experiment item","yes","FlankerTask.osexp","C:\Users\Austin\Documents","no","mono","no","18","no","white","no","yes","768","legacy","7","7","C:/Users/Austin/Documents/AH-subject-4.csv","legacy","Lentiform Loewenfeld","3.3.12","0","h","NA","s","NA","NA","h","335","NA","5637","NA","NA","335","2","legacy","1024","2","48000","-16","experiment","HHSHH","4","even","11337","NA","NA","NA","NA","NA","24811","23523","5697","NA","NA","24917","25253","24801","24917","5686","Flanker Task","7","4172","8","yes","1024"
"88.88888888888889","88.88888888888889","506","506","black","legacy","legacy","legacy","0","Congruent","uniform","1","undefined","1","s","0","0","0","8","8","0","8","8","0","0","0","8","8","8","8","0","Wed Sep 21 12:59:00 2022","1500","The main experiment item","yes","FlankerTask.osexp","C:\Users\Austin\Documents","no","mono","no","18","no","white","no","yes","768","legacy","8","8","C:/Users/Austin/Documents/AH-subject-4.csv","legacy","Lentiform Loewenfeld","3.3.12","0","s","NA","s","NA","NA","s","382","NA","5637","NA","NA","382","2","legacy","1024","2","48000","-16","experiment","SSSSS","4","even","11337","NA","NA","25264","NA","NA","27006","25772","5697","NA","NA","27113","27497","26999","27112","5686","Flanker Task","8","4554","9","yes","1024"
"90","90","492.8","492.8","black","legacy","legacy","legacy","0","Congruent","uniform","1","undefined","1","s","0","0","0","9","9","0","9","9","0","0","0","9","9","9","9","0","Wed Sep 21 12:59:00 2022","1500","The main experiment item","yes","FlankerTask.osexp","C:\Users\Austin\Documents","no","mono","no","18","no","white","no","yes","768","legacy","9","9","C:/Users/Austin/Documents/AH-subject-4.csv","legacy","Lentiform Loewenfeld","3.3.12","0","s","NA","s","NA","NA","s","374","NA","5637","NA","NA","374","2","legacy","1024","2","48000","-16","experiment","SSSSS","4","even","11337","NA","NA","25264","NA","NA","28748","27508","5697","NA","NA","28856","29231","28741","28856","5686","Flanker Task","9","4928","10","yes","1024"
"90.9090909090909","90.9090909090909","479.09090909090907","479.09090909090907","black","legacy","legacy","legacy","0","Incongruent","uniform","1","undefined","1","s","0","0","0","10","10","0","10","10","0","0","0","10","10","10","10","0","Wed Sep 21 12:59:00 2022","1500","The main experiment item","yes","FlankerTask.osexp","C:\Users\Austin\Documents","no","mono","no","18","no","white","no","yes","768","legacy","10","10","C:/Users/Austin/Documents/AH-subject-4.csv","legacy","Lentiform Loewenfeld","3.3.12","0","s","NA","s","NA","NA","s","342","NA","5637","NA","NA","342","2","legacy","1024","2","48000","-16","experiment","HHSHH","4","even","11337","NA","NA","25264","NA","NA","30522","29242","5697","NA","NA","30631","30974","30511","30631","5686","Flanker Task","10","5270","11","yes","1024"
"91.66666666666667","91.66666666666667","475.8333333333333","475.8333333333333","black","legacy","legacy","legacy","0","Incongruent","uniform","1","undefined","1","s","0","0","0","11","11","0","11","11","0","0","0","11","11","11","11","0","Wed Sep 21 12:59:00 2022","1500","The main experiment item","yes","FlankerTask.osexp","C:\Users\Austin\Documents","no","mono","no","18","no","white","no","yes","768","legacy","11","11","C:/Users/Austin/Documents/AH-subject-4.csv","legacy","Lentiform Loewenfeld","3.3.12","0","s","NA","s","NA","NA","s","440","NA","5637","NA","NA","440","2","legacy","1024","2","48000","-16","experiment","HHSHH","4","even","11337","NA","NA","25264","NA","NA","32262","30984","5697","NA","NA","32369","32810","32252","32369","5686","Flanker Task","11","5710","12","yes","1024"
"84.61538461538461","84.61538461538461","464.53846153846155","464.53846153846155","black","legacy","legacy","legacy","0","Incongruent","uniform","0","undefined","0","h","0","0","0","12","12","0","12","12","0","0","0","12","12","12","12","0","Wed Sep 21 12:59:00 2022","1500","The main experiment item","yes","FlankerTask.osexp","C:\Users\Austin\Documents","no","mono","no","18","no","white","no","yes","768","legacy","12","12","C:/Users/Austin/Documents/AH-subject-4.csv","legacy","Lentiform Loewenfeld","3.3.12","0","s","NA","s","NA","NA","s","329","NA","5637","NA","NA","329","2","legacy","1024","2","48000","-16","experiment","SSHSS","4","even","11337","NA","NA","25264","NA","NA","34037","32821","5697","NA","NA","34146","34477","34030","34145","5686","Flanker Task","11","6039","13","yes","1024"
"85.71428571428571","85.71428571428571","474.7142857142857","474.7142857142857","black","legacy","legacy","legacy","0","Congruent","uniform","1","undefined","1","s","0","0","0","13","13","0","13","13","0","0","0","13","13","13","13","0","Wed Sep 21 12:59:00 2022","1500","The main experiment item","yes","FlankerTask.osexp","C:\Users\Austin\Documents","no","mono","no","18","no","white","no","yes","768","legacy","13","13","C:/Users/Austin/Documents/AH-subject-4.csv","legacy","Lentiform Loewenfeld","3.3.12","0","s","NA","s","NA","NA","s","607","NA","5637","NA","NA","607","2","legacy","1024","2","48000","-16","experiment","SSSSS","4","even","11337","NA","NA","34491","NA","NA","36277","34998","5697","NA","NA","36385","36993","36264","36384","5686","Flanker Task","12","6646","14","yes","1024"
"86.66666666666667","86.66666666666667","466.93333333333334","466.93333333333334","black","legacy","legacy","legacy","0","Congruent","uniform","1","undefined","1","s","0","0","0","14","14","0","14","14","0","0","0","14","14","14","14","0","Wed Sep 21 12:59:00 2022","1500","The main experiment item","yes","FlankerTask.osexp","C:\Users\Austin\Documents","no","mono","no","18","no","white","no","yes","768","legacy","14","14","C:/Users/Austin/Documents/AH-subject-4.csv","legacy","Lentiform Loewenfeld","3.3.12","0","s","NA","s","NA","NA","s","358","NA","5637","NA","NA","358","2","legacy","1024","2","48000","-16","experiment","SSSSS","4","even","11337","NA","NA","34491","NA","NA","38208","37003","5697","NA","NA","38314","38673","38199","38313","5686","Flanker Task","13","7004","15","yes","1024"
"87.5","87.5","472.3125","472.3125","black","legacy","legacy","legacy","0","Incongruent","uniform","1","undefined","1","h","0","0","0","15","15","0","15","15","0","0","0","15","15","15","15","0","Wed Sep 21 12:59:00 2022","1500","The main experiment item","yes","FlankerTask.osexp","C:\Users\Austin\Documents","no","mono","no","18","no","white","no","yes","768","legacy","15","15","C:/Users/Austin/Documents/AH-subject-4.csv","legacy","Lentiform Loewenfeld","3.3.12","0","h","NA","s","NA","NA","h","553","NA","5637","NA","NA","553","2","legacy","1024","2","48000","-16","experiment","SSHSS","4","even","11337","NA","NA","34491","NA","NA","39923","38684","5697","NA","NA","40032","40587","39915","40032","5686","Flanker Task","14","7557","16","yes","1024"
"88.23529411764706","88.23529411764706","469.52941176470586","469.52941176470586","black","legacy","legacy","legacy","0","Congruent","uniform","1","undefined","1","s","0","0","0","16","16","0","16","16","0","0","0","16","16","16","16","0","Wed Sep 21 12:59:00 2022","1500","The main experiment item","yes","FlankerTask.osexp","C:\Users\Austin\Documents","no","mono","no","18","no","white","no","yes","768","legacy","16","16","C:/Users/Austin/Documents/AH-subject-4.csv","legacy","Lentiform Loewenfeld","3.3.12","0","s","NA","s","NA","NA","s","425","NA","5637","NA","NA","425","2","legacy","1024","2","48000","-16","experiment","SSSSS","4","even","11337","NA","NA","34491","NA","NA","41835","40597","5697","NA","NA","41941","42368","41827","41940","5686","Flanker Task","15","7982","17","yes","1024"
"88.88888888888889","88.88888888888889","472.5","472.5","black","legacy","legacy","legacy","0","Incongruent","uniform","1","undefined","1","h","0","0","0","17","17","0","17","17","0","0","0","17","17","17","17","0","Wed Sep 21 12:59:00 2022","1500","The main experiment item","yes","FlankerTask.osexp","C:\Users\Austin\Documents","no","mono","no","18","no","white","no","yes","768","legacy","17","17","C:/Users/Austin/Documents/AH-subject-4.csv","legacy","Lentiform Loewenfeld","3.3.12","0","h","NA","s","NA","NA","h","523","NA","5637","NA","NA","523","2","legacy","1024","2","48000","-16","experiment","SSHSS","4","even","11337","NA","NA","34491","NA","NA","43658","42379","5697","NA","NA","43765","44290","43648","43765","5686","Flanker Task","16","8505","18","yes","1024"
"89.47368421052632","89.47368421052632","472.6842105263158","472.6842105263158","black","legacy","legacy","legacy","0","Congruent","uniform","1","undefined","1","h","0","0","0","18","18","0","18","18","0","0","0","18","18","18","18","0","Wed Sep 21 12:59:00 2022","1500","The main experiment item","yes","FlankerTask.osexp","C:\Users\Austin\Documents","no","mono","no","18","no","white","no","yes","768","legacy","18","18","C:/Users/Austin/Documents/AH-subject-4.csv","legacy","Lentiform Loewenfeld","3.3.12","0","h","NA","s","NA","NA","h","476","NA","5637","NA","NA","476","2","legacy","1024","2","48000","-16","experiment","HHHHH","4","even","11337","NA","NA","34491","NA","NA","45580","44301","5697","NA","NA","45687","46165","45571","45687","5686","Flanker Task","17","8981","19","yes","1024"
"90","90","485","485","black","legacy","legacy","legacy","0","Congruent","uniform","1","undefined","1","h","0","0","0","19","19","0","19","19","0","0","0","19","19","19","19","0","Wed Sep 21 12:59:00 2022","1500","The main experiment item","yes","FlankerTask.osexp","C:\Users\Austin\Documents","no","mono","no","18","no","white","no","yes","768","legacy","19","19","C:/Users/Austin/Documents/AH-subject-4.csv","legacy","Lentiform Loewenfeld","3.3.12","0","h","NA","s","NA","NA","h","719","NA","5637","NA","NA","719","2","legacy","1024","2","48000","-16","experiment","HHHHH","4","even","11337","NA","NA","34491","NA","NA","47376","46175","5697","NA","NA","47482","48202","47369","47482","5686","Flanker Task","18","9700","20","yes","1024"
"90.47619047619048","90.47619047619048","483.8095238095238","483.8095238095238","black","legacy","legacy","legacy","0","Incongruent","uniform","1","undefined","1","s","0","0","0","20","20","0","20","20","0","0","0","20","20","20","20","0","Wed Sep 21 12:59:00 2022","1500","The main experiment item","yes","FlankerTask.osexp","C:\Users\Austin\Documents","no","mono","no","18","no","white","no","yes","768","legacy","20","20","C:/Users/Austin/Documents/AH-subject-4.csv","legacy","Lentiform Loewenfeld","3.3.12","0","s","NA","s","NA","NA","s","460","NA","5637","NA","NA","460","2","legacy","1024","2","48000","-16","experiment","HHSHH","4","even","11337","NA","NA","34491","NA","NA","49480","48213","5697","NA","NA","49589","50051","49473","49588","5686","Flanker Task","19","10160","21","yes","1024"
"90.9090909090909","90.9090909090909","483.6818181818182","483.6818181818182","black","legacy","legacy","legacy","0","Congruent","uniform","1","undefined","1","h","0","0","0","21","21","0","21","21","0","0","0","21","21","21","21","0","Wed Sep 21 12:59:00 2022","1500","The main experiment item","yes","FlankerTask.osexp","C:\Users\Austin\Documents","no","mono","no","18","no","white","no","yes","768","legacy","21","21","C:/Users/Austin/Documents/AH-subject-4.csv","legacy","Lentiform Loewenfeld","3.3.12","0","h","NA","s","NA","NA","h","481","NA","5637","NA","NA","481","2","legacy","1024","2","48000","-16","experiment","HHHHH","4","even","11337","NA","NA","34491","NA","NA","51329","50062","5697","NA","NA","51437","51920","51320","51436","5686","Flanker Task","20","10641","22","yes","1024"
"91.30434782608695","91.30434782608695","482.4347826086956","482.4347826086956","black","legacy","legacy","legacy","0","Congruent","uniform","1","undefined","1","h","0","0","0","22","22","0","22","22","0","0","0","22","22","22","22","0","Wed Sep 21 12:59:00 2022","1500","The main experiment item","yes","FlankerTask.osexp","C:\Users\Austin\Documents","no","mono","no","18","no","white","no","yes","768","legacy","22","22","C:/Users/Austin/Documents/AH-subject-4.csv","legacy","Lentiform Loewenfeld","3.3.12","0","h","NA","s","NA","NA","h","455","NA","5637","NA","NA","455","2","legacy","1024","2","48000","-16","experiment","HHHHH","4","even","11337","NA","NA","34491","NA","NA","53211","51931","5697","NA","NA","53319","53775","53202","53318","5686","Flanker Task","21","11096","23","yes","1024"
"91.66666666666667","91.66666666666667","482.2083333333333","482.2083333333333","black","legacy","legacy","legacy","0","Incongruent","uniform","1","undefined","1","s","0","0","0","23","23","0","23","23","0","0","0","23","23","23","23","0","Wed Sep 21 12:59:00 2022","1500","The main experiment item","yes","FlankerTask.osexp","C:\Users\Austin\Documents","no","mono","no","18","no","white","no","yes","768","legacy","23","23","C:/Users/Austin/Documents/AH-subject-4.csv","legacy","Lentiform Loewenfeld","3.3.12","0","s","NA","s","NA","NA","s","477","NA","5637","NA","NA","477","2","legacy","1024","2","48000","-16","experiment","HHSHH","4","even","11337","NA","NA","34491","NA","NA","55030","53787","5697","NA","NA","55137","55616","55022","55136","5686","Flanker Task","22","11573","24","yes","1024"
"92","92","480.24","480.24","black","legacy","legacy","legacy","0","Incongruent","uniform","1","undefined","1","s","0","0","0","24","24","0","24","24","0","0","0","24","24","24","24","0","Wed Sep 21 12:59:00 2022","1500","The main experiment item","yes","FlankerTask.osexp","C:\Users\Austin\Documents","no","mono","no","18","no","white","no","yes","768","legacy","24","24","C:/Users/Austin/Documents/AH-subject-4.csv","legacy","Lentiform Loewenfeld","3.3.12","0","s","NA","s","NA","NA","s","433","NA","5637","NA","NA","433","2","legacy","1024","2","48000","-16","experiment","HHSHH","4","even","11337","NA","NA","34491","NA","NA","56854","55626","5697","NA","NA","56960","57395","56846","56959","5686","Flanker Task","23","12006","25","yes","1024"
"88.46153846153847","88.46153846153847","476.4230769230769","476.4230769230769","black","legacy","legacy","legacy","0","Incongruent","uniform","0","undefined","0","h","0","0","0","25","25","0","25","25","0","0","0","25","25","25","25","0","Wed Sep 21 12:59:00 2022","1500","The main experiment item","yes","FlankerTask.osexp","C:\Users\Austin\Documents","no","mono","no","18","no","white","no","yes","768","legacy","25","25","C:/Users/Austin/Documents/AH-subject-4.csv","legacy","Lentiform Loewenfeld","3.3.12","0","s","NA","s","NA","NA","s","381","NA","5637","NA","NA","381","2","legacy","1024","2","48000","-16","experiment","SSHSS","4","even","11337","NA","NA","34491","NA","NA","58618","57405","5697","NA","NA","58726","59109","58610","58726","5686","Flanker Task","23","12387","26","yes","1024"
"88.88888888888889","88.88888888888889","475.0740740740741","475.0740740740741","black","legacy","legacy","legacy","0","Incongruent","uniform","1","undefined","1","s","0","0","0","26","26","0","26","26","0","0","0","26","26","26","26","0","Wed Sep 21 12:59:00 2022","1500","The main experiment item","yes","FlankerTask.osexp","C:\Users\Austin\Documents","no","mono","no","18","no","white","no","yes","768","legacy","26","26","C:/Users/Austin/Documents/AH-subject-4.csv","legacy","Lentiform Loewenfeld","3.3.12","0","s","NA","s","NA","NA","s","440","NA","5637","NA","NA","440","2","legacy","1024","2","48000","-16","experiment","HHSHH","4","even","11337","NA","NA","59120","NA","NA","60839","59625","5697","NA","NA","60948","61389","60832","60946","5686","Flanker Task","24","12827","27","yes","1024"
"89.28571428571429","89.28571428571429","503.7857142857143","503.7857142857143","black","legacy","legacy","legacy","0","Congruent","uniform","1","undefined","1","h","0","0","0","27","27","0","27","27","0","0","0","27","27","27","27","0","Wed Sep 21 12:59:00 2022","1500","The main experiment item","yes","FlankerTask.osexp","C:\Users\Austin\Documents","no","mono","no","18","no","white","no","yes","768","legacy","27","27","C:/Users/Austin/Documents/AH-subject-4.csv","legacy","Lentiform Loewenfeld","3.3.12","0","h","NA","s","NA","NA","h","1279","NA","5637","NA","NA","1279","2","legacy","1024","2","48000","-16","experiment","HHHHH","4","even","11337","NA","NA","59120","NA","NA","62680","61400","5697","NA","NA","62788","64068","62671","62787","5686","Flanker Task","25","14106","28","yes","1024"
"89.65517241379311","89.65517241379311","535.6551724137931","535.6551724137931","black","legacy","legacy","legacy","0","Congruent","uniform","1","undefined","1","s","0","0","0","28","28","0","28","28","0","0","0","28","28","28","28","0","Wed Sep 21 12:59:00 2022","1500","The main experiment item","yes","FlankerTask.osexp","C:\Users\Austin\Documents","no","mono","no","18","no","white","no","yes","768","legacy","28","28","C:/Users/Austin/Documents/AH-subject-4.csv","legacy","Lentiform Loewenfeld","3.3.12","0","s","NA","s","NA","NA","s","1428","NA","5637","NA","NA","1428","2","legacy","1024","2","48000","-16","experiment","SSSSS","4","even","11337","NA","NA","59120","NA","NA","65355","64079","5697","NA","NA","65462","66892","65347","65462","5686","Flanker Task","26","15534","29","yes","1024"
"90","90","531.8","531.8","black","legacy","legacy","legacy","0","Congruent","uniform","1","undefined","1","h","0","0","0","29","29","0","29","29","0","0","0","29","29","29","29","0","Wed Sep 21 12:59:00 2022","1500","The main experiment item","yes","FlankerTask.osexp","C:\Users\Austin\Documents","no","mono","no","18","no","white","no","yes","768","legacy","29","29","C:/Users/Austin/Documents/AH-subject-4.csv","legacy","Lentiform Loewenfeld","3.3.12","0","h","NA","s","NA","NA","h","420","NA","5637","NA","NA","420","2","legacy","1024","2","48000","-16","experiment","HHHHH","4","even","11337","NA","NA","59120","NA","NA","68157","66903","5697","NA","NA","68264","68685","68149","68263","5686","Flanker Task","27","15954","30","yes","1024"
"90.3225806451613","90.3225806451613","530.5483870967741","530.5483870967741","black","legacy","legacy","legacy","0","Incongruent","uniform","1","undefined","1","s","0","0","0","30","30","0","30","30","0","0","0","30","30","30","30","0","Wed Sep 21 12:59:00 2022","1500","The main experiment item","yes","FlankerTask.osexp","C:\Users\Austin\Documents","no","mono","no","18","no","white","no","yes","768","legacy","30","30","C:/Users/Austin/Documents/AH-subject-4.csv","legacy","Lentiform Loewenfeld","3.3.12","0","s","NA","s","NA","NA","s","493","NA","5637","NA","NA","493","2","legacy","1024","2","48000","-16","experiment","HHSHH","4","even","11337","NA","NA","59120","NA","NA","69952","68696","5697","NA","NA","70061","70556","69945","70060","5686","Flanker Task","28","16447","31","yes","1024"
"90.625","90.625","528.75","528.75","black","legacy","legacy","legacy","0","Congruent","uniform","1","undefined","1","h","0","0","0","31","31","0","31","31","0","0","0","31","31","31","31","0","Wed Sep 21 12:59:00 2022","1500","The main experiment item","yes","FlankerTask.osexp","C:\Users\Austin\Documents","no","mono","no","18","no","white","no","yes","768","legacy","31","31","C:/Users/Austin/Documents/AH-subject-4.csv","legacy","Lentiform Loewenfeld","3.3.12","0","h","NA","s","NA","NA","h","473","NA","5637","NA","NA","473","2","legacy","1024","2","48000","-16","experiment","HHHHH","4","even","11337","NA","NA","59120","NA","NA","71846","70568","5697","NA","NA","71952","72427","71837","71952","5686","Flanker Task","29","16920","32","yes","1024"
"90.9090909090909","90.9090909090909","528.5757575757576","528.5757575757576","black","legacy","legacy","legacy","0","Incongruent","uniform","1","undefined","1","s","0","0","0","32","32","0","32","32","0","0","0","32","32","32","32","0","Wed Sep 21 12:59:00 2022","1500","The main experiment item","yes","FlankerTask.osexp","C:\Users\Austin\Documents","no","mono","no","18","no","white","no","yes","768","legacy","32","32","C:/Users/Austin/Documents/AH-subject-4.csv","legacy","Lentiform Loewenfeld","3.3.12","0","s","NA","s","NA","NA","s","523","NA","5637","NA","NA","523","2","legacy","1024","2","48000","-16","experiment","HHSHH","4","even","11337","NA","NA","59120","NA","NA","73715","72438","5697","NA","NA","73822","74347","73705","73822","5686","Flanker Task","30","17443","33","yes","1024"
"91.17647058823529","91.17647058823529","526.8235294117648","526.8235294117648","black","legacy","legacy","legacy","0","Congruent","uniform","1","undefined","1","h","0","0","0","33","33","0","33","33","0","0","0","33","33","33","33","0","Wed Sep 21 12:59:00 2022","1500","The main experiment item","yes","FlankerTask.osexp","C:\Users\Austin\Documents","no","mono","no","18","no","white","no","yes","768","legacy","33","33","C:/Users/Austin/Documents/AH-subject-4.csv","legacy","Lentiform Loewenfeld","3.3.12","0","h","NA","s","NA","NA","h","469","NA","5637","NA","NA","469","2","legacy","1024","2","48000","-16","experiment","HHHHH","4","even","11337","NA","NA","59120","NA","NA","75589","74358","5697","NA","NA","75697","76168","75581","75697","5686","Flanker Task","31","17912","34","yes","1024"
"91.42857142857143","91.42857142857143","523.1428571428571","523.1428571428571","black","legacy","legacy","legacy","0","Congruent","uniform","1","undefined","1","h","0","0","0","34","34","0","34","34","0","0","0","34","34","34","34","0","Wed Sep 21 12:59:00 2022","1500","The main experiment item","yes","FlankerTask.osexp","C:\Users\Austin\Documents","no","mono","no","18","no","white","no","yes","768","legacy","34","34","C:/Users/Austin/Documents/AH-subject-4.csv","legacy","Lentiform Loewenfeld","3.3.12","0","h","NA","s","NA","NA","h","398","NA","5637","NA","NA","398","2","legacy","1024","2","48000","-16","experiment","HHHHH","4","even","11337","NA","NA","59120","NA","NA","77404","76179","5697","NA","NA","77512","77912","77397","77512","5686","Flanker Task","32","18310","35","yes","1024"
"91.66666666666667","91.66666666666667","518.6944444444445","518.6944444444445","black","legacy","legacy","legacy","0","Incongruent","uniform","1","undefined","1","s","0","0","0","35","35","0","35","35","0","0","0","35","35","35","35","0","Wed Sep 21 12:59:00 2022","1500","The main experiment item","yes","FlankerTask.osexp","C:\Users\Austin\Documents","no","mono","no","18","no","white","no","yes","768","legacy","35","35","C:/Users/Austin/Documents/AH-subject-4.csv","legacy","Lentiform Loewenfeld","3.3.12","0","s","NA","s","NA","NA","s","363","NA","5637","NA","NA","363","2","legacy","1024","2","48000","-16","experiment","HHSHH","4","even","11337","NA","NA","59120","NA","NA","79202","77923","5697","NA","NA","79309","79673","79193","79309","5686","Flanker Task","33","18673","36","yes","1024"
"91.89189189189189","91.89189189189189","515.8918918918919","515.8918918918919","black","legacy","legacy","legacy","0","Incongruent","uniform","1","undefined","1","h","0","0","0","36","36","0","36","36","0","0","0","36","36","36","36","0","Wed Sep 21 12:59:00 2022","1500","The main experiment item","yes","FlankerTask.osexp","C:\Users\Austin\Documents","no","mono","no","18","no","white","no","yes","768","legacy","36","36","C:/Users/Austin/Documents/AH-subject-4.csv","legacy","Lentiform Loewenfeld","3.3.12","0","h","NA","s","NA","NA","h","415","NA","5637","NA","NA","415","2","legacy","1024","2","48000","-16","experiment","SSHSS","4","even","11337","NA","NA","59120","NA","NA","80951","79685","5697","NA","NA","81059","81476","80944","81058","5686","Flanker Task","34","19088","37","yes","1024"
"92.10526315789474","92.10526315789474","516.4473684210526","516.4473684210526","black","legacy","legacy","legacy","0","Congruent","uniform","1","undefined","1","s","0","0","0","37","37","0","37","37","0","0","0","37","37","37","37","0","Wed Sep 21 12:59:00 2022","1500","The main experiment item","yes","FlankerTask.osexp","C:\Users\Austin\Documents","no","mono","no","18","no","white","no","yes","768","legacy","37","37","C:/Users/Austin/Documents/AH-subject-4.csv","legacy","Lentiform Loewenfeld","3.3.12","0","s","NA","s","NA","NA","s","537","NA","5637","NA","NA","537","2","legacy","1024","2","48000","-16","experiment","SSSSS","4","even","11337","NA","NA","59120","NA","NA","82762","81487","5697","NA","NA","82869","83408","82753","82868","5686","Flanker Task","35","19625","38","yes","1024"
"92.3076923076923","92.3076923076923","513.3076923076923","513.3076923076923","black","legacy","legacy","legacy","0","Congruent","uniform","1","undefined","1","h","0","0","0","38","38","0","38","38","0","0","0","38","38","38","38","0","Wed Sep 21 12:59:00 2022","1500","The main experiment item","yes","FlankerTask.osexp","C:\Users\Austin\Documents","no","mono","no","18","no","white","no","yes","768","legacy","38","38","C:/Users/Austin/Documents/AH-subject-4.csv","legacy","Lentiform Loewenfeld","3.3.12","0","h","NA","s","NA","NA","h","394","NA","5637","NA","NA","394","2","legacy","1024","2","48000","-16","experiment","HHHHH","4","even","11337","NA","NA","59120","NA","NA","84701","83419","5697","NA","NA","84809","85205","84691","84809","5686","Flanker Task","36","20019","39","yes","1024"
"92.5","92.5","513.425","513.425","black","legacy","legacy","legacy","0","Incongruent","uniform","1","undefined","1","h","0","0","0","39","39","0","39","39","0","0","0","39","39","39","39","0","Wed Sep 21 12:59:00 2022","1500","The main experiment item","yes","FlankerTask.osexp","C:\Users\Austin\Documents","no","mono","no","18","no","white","no","yes","768","legacy","39","39","C:/Users/Austin/Documents/AH-subject-4.csv","legacy","Lentiform Loewenfeld","3.3.12","0","h","NA","s","NA","NA","h","518","NA","5637","NA","NA","518","2","legacy","1024","2","48000","-16","experiment","SSHSS","4","even","11337","NA","NA","59120","NA","NA","86491","85217","5697","NA","NA","86599","87119","86483","86599","5686","Flanker Task","37","20537","40","yes","1024"
"92.6829268292683","92.6829268292683","513.1951219512196","513.1951219512196","black","legacy","legacy","legacy","0","Incongruent","uniform","1","undefined","1","h","0","0","0","40","40","0","40","40","0","0","0","40","40","40","40","0","Wed Sep 21 12:59:00 2022","1500","The main experiment item","yes","FlankerTask.osexp","C:\Users\Austin\Documents","no","mono","no","18","no","white","no","yes","768","legacy","40","40","C:/Users/Austin/Documents/AH-subject-4.csv","legacy","Lentiform Loewenfeld","3.3.12","0","h","NA","s","NA","NA","h","504","NA","5637","NA","NA","504","2","legacy","1024","2","48000","-16","experiment","SSHSS","4","even","11337","NA","NA","59120","NA","NA","88409","87130","5697","NA","NA","88518","89024","88398","88518","5686","Flanker Task","38","21041","41","yes","1024"
"90.47619047619048","90.47619047619048","513.547619047619","513.547619047619","black","legacy","legacy","legacy","0","Congruent","uniform","0","undefined","0","h","0","0","0","41","41","0","41","41","0","0","0","41","41","41","41","0","Wed Sep 21 12:59:00 2022","1500","The main experiment item","yes","FlankerTask.osexp","C:\Users\Austin\Documents","no","mono","no","18","no","white","no","yes","768","legacy","41","41","C:/Users/Austin/Documents/AH-subject-4.csv","legacy","Lentiform Loewenfeld","3.3.12","0","s","NA","s","NA","NA","s","528","NA","5637","NA","NA","528","2","legacy","1024","2","48000","-16","experiment","HHHHH","4","even","11337","NA","NA","59120","NA","NA","90311","89036","5697","NA","NA","90417","90947","90303","90417","5686","Flanker Task","38","21569","42","yes","1024"
"90.69767441860465","90.69767441860465","514.5581395348837","514.5581395348837","black","legacy","legacy","legacy","0","Incongruent","uniform","1","undefined","1","h","0","0","0","42","42","0","42","42","0","0","0","42","42","42","42","0","Wed Sep 21 12:59:00 2022","1500","The main experiment item","yes","FlankerTask.osexp","C:\Users\Austin\Documents","no","mono","no","18","no","white","no","yes","768","legacy","42","42","C:/Users/Austin/Documents/AH-subject-4.csv","legacy","Lentiform Loewenfeld","3.3.12","0","h","NA","s","NA","NA","h","557","NA","5637","NA","NA","557","2","legacy","1024","2","48000","-16","experiment","SSHSS","4","even","11337","NA","NA","90959","NA","NA","92721","91467","5697","NA","NA","92828","93387","92712","92828","5686","Flanker Task","39","22126","43","yes","1024"
"90.9090909090909","90.9090909090909","513.3409090909091","513.3409090909091","black","legacy","legacy","legacy","0","Congruent","uniform","1","undefined","1","s","0","0","0","43","43","0","43","43","0","0","0","43","43","43","43","0","Wed Sep 21 12:59:00 2022","1500","The main experiment item","yes","FlankerTask.osexp","C:\Users\Austin\Documents","no","mono","no","18","no","white","no","yes","768","legacy","43","43","C:/Users/Austin/Documents/AH-subject-4.csv","legacy","Lentiform Loewenfeld","3.3.12","0","s","NA","s","NA","NA","s","461","NA","5637","NA","NA","461","2","legacy","1024","2","48000","-16","experiment","SSSSS","4","even","11337","NA","NA","90959","NA","NA","94686","93399","5697","NA","NA","94794","95256","94675","94794","5686","Flanker Task","40","22587","44","yes","1024"
"91.11111111111111","91.11111111111111","510.7111111111111","510.7111111111111","black","legacy","legacy","legacy","0","Incongruent","uniform","1","undefined","1","s","0","0","0","44","44","0","44","44","0","0","0","44","44","44","44","0","Wed Sep 21 12:59:00 2022","1500","The main experiment item","yes","FlankerTask.osexp","C:\Users\Austin\Documents","no","mono","no","18","no","white","no","yes","768","legacy","44","44","C:/Users/Austin/Documents/AH-subject-4.csv","legacy","Lentiform Loewenfeld","3.3.12","0","s","NA","s","NA","NA","s","395","NA","5637","NA","NA","395","2","legacy","1024","2","48000","-16","experiment","HHSHH","4","even","11337","NA","NA","90959","NA","NA","96545","95268","5697","NA","NA","96652","97048","96535","96652","5686","Flanker Task","41","22982","45","yes","1024"
"91.30434782608695","91.30434782608695","507.19565217391306","507.19565217391306","black","legacy","legacy","legacy","0","Congruent","uniform","1","undefined","1","s","0","0","0","45","45","0","45","45","0","0","0","45","45","45","45","0","Wed Sep 21 12:59:00 2022","1500","The main experiment item","yes","FlankerTask.osexp","C:\Users\Austin\Documents","no","mono","no","18","no","white","no","yes","768","legacy","45","45","C:/Users/Austin/Documents/AH-subject-4.csv","legacy","Lentiform Loewenfeld","3.3.12","0","s","NA","s","NA","NA","s","349","NA","5637","NA","NA","349","2","legacy","1024","2","48000","-16","experiment","SSSSS","4","even","11337","NA","NA","90959","NA","NA","98336","97061","5697","NA","NA","98443","98795","98328","98443","5686","Flanker Task","42","23331","46","yes","1024"
"91.48936170212765","91.48936170212765","507.06382978723406","507.06382978723406","black","legacy","legacy","legacy","0","Incongruent","uniform","1","undefined","1","s","0","0","0","46","46","0","46","46","0","0","0","46","46","46","46","0","Wed Sep 21 12:59:00 2022","1500","The main experiment item","yes","FlankerTask.osexp","C:\Users\Austin\Documents","no","mono","no","18","no","white","no","yes","768","legacy","46","46","C:/Users/Austin/Documents/AH-subject-4.csv","legacy","Lentiform Loewenfeld","3.3.12","0","s","NA","s","NA","NA","s","501","NA","5637","NA","NA","501","2","legacy","1024","2","48000","-16","experiment","HHSHH","4","even","11337","NA","NA","90959","NA","NA","100032","98810","5697","NA","NA","100139","100642","100025","100139","5686","Flanker Task","43","23832","47","yes","1024"
"91.66666666666667","91.66666666666667","505.5","505.5","black","legacy","legacy","legacy","0","Congruent","uniform","1","undefined","1","s","0","0","0","47","47","0","47","47","0","0","0","47","47","47","47","0","Wed Sep 21 12:59:00 2022","1500","The main experiment item","yes","FlankerTask.osexp","C:\Users\Austin\Documents","no","mono","no","18","no","white","no","yes","768","legacy","47","47","C:/Users/Austin/Documents/AH-subject-4.csv","legacy","Lentiform Loewenfeld","3.3.12","0","s","NA","s","NA","NA","s","432","NA","5637","NA","NA","432","2","legacy","1024","2","48000","-16","experiment","SSSSS","4","even","11337","NA","NA","90959","NA","NA","101891","100653","5697","NA","NA","101999","102432","101883","101998","5686","Flanker Task","44","24264","48","yes","1024"
"91.83673469387755","91.83673469387755","503.9591836734694","503.9591836734694","black","legacy","legacy","legacy","0","Congruent","uniform","1","undefined","1","s","0","0","0","48","48","0","48","48","0","0","0","48","48","48","48","0","Wed Sep 21 12:59:00 2022","1500","The main experiment item","yes","FlankerTask.osexp","C:\Users\Austin\Documents","no","mono","no","18","no","white","no","yes","768","legacy","48","48","C:/Users/Austin/Documents/AH-subject-4.csv","legacy","Lentiform Loewenfeld","3.3.12","0","s","NA","s","NA","NA","s","430","NA","5637","NA","NA","430","2","legacy","1024","2","48000","-16","experiment","SSSSS","4","even","11337","NA","NA","90959","NA","NA","103720","102443","5697","NA","NA","103827","104259","103711","103826","5686","Flanker Task","45","24694","49","yes","1024"
"92","92","502.76","502.76","black","legacy","legacy","legacy","0","Congruent","uniform","1","undefined","1","h","0","0","0","49","49","0","49","49","0","0","0","49","49","49","49","0","Wed Sep 21 12:59:00 2022","1500","The main experiment item","yes","FlankerTask.osexp","C:\Users\Austin\Documents","no","mono","no","18","no","white","no","yes","768","legacy","49","49","C:/Users/Austin/Documents/AH-subject-4.csv","legacy","Lentiform Loewenfeld","3.3.12","0","h","NA","s","NA","NA","h","444","NA","5637","NA","NA","444","2","legacy","1024","2","48000","-16","experiment","HHHHH","4","even","11337","NA","NA","90959","NA","NA","105546","104270","5697","NA","NA","105653","106099","105538","105653","5686","Flanker Task","46","25138","50","yes","1024"
"92.15686274509804","92.15686274509804","500.5686274509804","500.5686274509804","black","legacy","legacy","legacy","0","Congruent","uniform","1","undefined","1","h","0","0","0","50","50","0","50","50","0","0","0","50","50","50","50","0","Wed Sep 21 12:59:00 2022","1500","The main experiment item","yes","FlankerTask.osexp","C:\Users\Austin\Documents","no","mono","no","18","no","white","no","yes","768","legacy","50","50","C:/Users/Austin/Documents/AH-subject-4.csv","legacy","Lentiform Loewenfeld","3.3.12","0","h","NA","s","NA","NA","h","391","NA","5637","NA","NA","391","2","legacy","1024","2","48000","-16","experiment","HHHHH","4","even","11337","NA","NA","90959","NA","NA","107381","106110","5697","NA","NA","107489","107883","107374","107489","5686","Flanker Task","47","25529","51","yes","1024"
"92.3076923076923","92.3076923076923","500.5","500.5","black","legacy","legacy","legacy","0","Incongruent","uniform","1","undefined","1","s","0","0","0","51","51","0","51","51","0","0","0","51","51","51","51","0","Wed Sep 21 12:59:00 2022","1500","The main experiment item","yes","FlankerTask.osexp","C:\Users\Austin\Documents","no","mono","no","18","no","white","no","yes","768","legacy","51","51","C:/Users/Austin/Documents/AH-subject-4.csv","legacy","Lentiform Loewenfeld","3.3.12","0","s","NA","s","NA","NA","s","497","NA","5637","NA","NA","497","2","legacy","1024","2","48000","-16","experiment","HHSHH","4","even","11337","NA","NA","90959","NA","NA","109175","107897","5697","NA","NA","109282","109780","109165","109281","5686","Flanker Task","48","26026","52","yes","1024"
"92.45283018867924","92.45283018867924","500.45283018867923","500.45283018867923","black","legacy","legacy","legacy","0","Incongruent","uniform","1","undefined","1","h","0","0","0","52","52","0","52","52","0","0","0","52","52","52","52","0","Wed Sep 21 12:59:00 2022","1500","The main experiment item","yes","FlankerTask.osexp","C:\Users\Austin\Documents","no","mono","no","18","no","white","no","yes","768","legacy","52","52","C:/Users/Austin/Documents/AH-subject-4.csv","legacy","Lentiform Loewenfeld","3.3.12","0","h","NA","s","NA","NA","h","498","NA","5637","NA","NA","498","2","legacy","1024","2","48000","-16","experiment","SSHSS","4","even","11337","NA","NA","90959","NA","NA","111023","109791","5697","NA","NA","111132","111631","111016","111131","5686","Flanker Task","49","26524","53","yes","1024"
"92.5925925925926","92.5925925925926","499.1296296296296","499.1296296296296","black","legacy","legacy","legacy","0","Congruent","uniform","1","undefined","1","s","0","0","0","53","53","0","53","53","0","0","0","53","53","53","53","0","Wed Sep 21 12:59:00 2022","1500","The main experiment item","yes","FlankerTask.osexp","C:\Users\Austin\Documents","no","mono","no","18","no","white","no","yes","768","legacy","53","53","C:/Users/Austin/Documents/AH-subject-4.csv","legacy","Lentiform Loewenfeld","3.3.12","0","s","NA","s","NA","NA","s","429","NA","5637","NA","NA","429","2","legacy","1024","2","48000","-16","experiment","SSSSS","4","even","11337","NA","NA","90959","NA","NA","112907","111642","5697","NA","NA","113015","113446","112897","113015","5686","Flanker Task","50","26953","54","yes","1024"
"92.72727272727273","92.72727272727273","499.4909090909091","499.4909090909091","black","legacy","legacy","legacy","0","Incongruent","uniform","1","undefined","1","h","0","0","0","54","54","0","54","54","0","0","0","54","54","54","54","0","Wed Sep 21 12:59:00 2022","1500","The main experiment item","yes","FlankerTask.osexp","C:\Users\Austin\Documents","no","mono","no","18","no","white","no","yes","768","legacy","54","54","C:/Users/Austin/Documents/AH-subject-4.csv","legacy","Lentiform Loewenfeld","3.3.12","0","h","NA","s","NA","NA","h","519","NA","5637","NA","NA","519","2","legacy","1024","2","48000","-16","experiment","SSHSS","4","even","11337","NA","NA","90959","NA","NA","114738","113457","5697","NA","NA","114844","115364","114729","114844","5686","Flanker Task","51","27472","55","yes","1024"
"92.85714285714286","92.85714285714286","499.125","499.125","black","legacy","legacy","legacy","0","Congruent","uniform","1","undefined","1","s","0","0","0","55","55","0","55","55","0","0","0","55","55","55","55","0","Wed Sep 21 12:59:00 2022","1500","The main experiment item","yes","FlankerTask.osexp","C:\Users\Austin\Documents","no","mono","no","18","no","white","no","yes","768","legacy","55","55","C:/Users/Austin/Documents/AH-subject-4.csv","legacy","Lentiform Loewenfeld","3.3.12","0","s","NA","s","NA","NA","s","479","NA","5637","NA","NA","479","2","legacy","1024","2","48000","-16","experiment","SSSSS","4","even","11337","NA","NA","90959","NA","NA","116647","115375","5697","NA","NA","116755","117236","116638","116755","5686","Flanker Task","52","27951","56","yes","1024"
"92.98245614035088","92.98245614035088","498.42105263157896","498.42105263157896","black","legacy","legacy","legacy","0","Incongruent","uniform","1","undefined","1","h","0","0","0","56","56","0","56","56","0","0","0","56","56","56","56","0","Wed Sep 21 12:59:00 2022","1500","The main experiment item","yes","FlankerTask.osexp","C:\Users\Austin\Documents","no","mono","no","18","no","white","no","yes","768","legacy","56","56","C:/Users/Austin/Documents/AH-subject-4.csv","legacy","Lentiform Loewenfeld","3.3.12","0","h","NA","s","NA","NA","h","459","NA","5637","NA","NA","459","2","legacy","1024","2","48000","-16","experiment","SSHSS","4","even","11337","NA","NA","90959","NA","NA","118461","117246","5697","NA","NA","118569","119030","118455","118569","5686","Flanker Task","53","28410","57","yes","1024"
"93.10344827586206","93.10344827586206","498.67241379310343","498.67241379310343","black","legacy","legacy","legacy","0","Incongruent","uniform","1","undefined","1","h","0","0","0","57","57","0","57","57","0","0","0","57","57","57","57","0","Wed Sep 21 12:59:00 2022","1500","The main experiment item","yes","FlankerTask.osexp","C:\Users\Austin\Documents","no","mono","no","18","no","white","no","yes","768","legacy","57","57","C:/Users/Austin/Documents/AH-subject-4.csv","legacy","Lentiform Loewenfeld","3.3.12","0","h","NA","s","NA","NA","h","513","NA","5637","NA","NA","513","2","legacy","1024","2","48000","-16","experiment","SSHSS","4","even","11337","NA","NA","90959","NA","NA","120320","119041","5697","NA","NA","120427","120942","120311","120427","5686","Flanker Task","54","28923","58","yes","1024"
"93.22033898305085","93.22033898305085","499.33898305084745","499.33898305084745","black","legacy","legacy","legacy","0","Incongruent","uniform","1","undefined","1","s","0","0","0","58","58","0","58","58","0","0","0","58","58","58","58","0","Wed Sep 21 12:59:00 2022","1500","The main experiment item","yes","FlankerTask.osexp","C:\Users\Austin\Documents","no","mono","no","18","no","white","no","yes","768","legacy","58","58","C:/Users/Austin/Documents/AH-subject-4.csv","legacy","Lentiform Loewenfeld","3.3.12","0","s","NA","s","NA","NA","s","538","NA","5637","NA","NA","538","2","legacy","1024","2","48000","-16","experiment","HHSHH","4","even","11337","NA","NA","90959","NA","NA","122179","120953","5697","NA","NA","122286","122825","122171","122286","5686","Flanker Task","55","29461","59","yes","1024"
"93.33333333333333","93.33333333333333","497.78333333333336","497.78333333333336","black","legacy","legacy","legacy","0","Congruent","uniform","1","undefined","1","h","0","0","0","59","59","0","59","59","0","0","0","59","59","59","59","0","Wed Sep 21 12:59:00 2022","1500","The main experiment item","yes","FlankerTask.osexp","C:\Users\Austin\Documents","no","mono","no","18","no","white","no","yes","768","legacy","59","59","C:/Users/Austin/Documents/AH-subject-4.csv","legacy","Lentiform Loewenfeld","3.3.12","0","h","NA","s","NA","NA","h","406","NA","5637","NA","NA","406","2","legacy","1024","2","48000","-16","experiment","HHHHH","4","even","11337","NA","NA","90959","NA","NA","124059","122837","5697","NA","NA","124167","124575","124051","124167","5686","Flanker Task","56","29867","60","yes","1024"
"93.44262295081967","93.44262295081967","498.26229508196724","498.26229508196724","black","legacy","legacy","legacy","0","Incongruent","uniform","1","undefined","1","h","0","0","0","60","60","0","60","60","0","0","0","60","60","60","60","0","Wed Sep 21 12:59:00 2022","1500","The main experiment item","yes","FlankerTask.osexp","C:\Users\Austin\Documents","no","mono","no","18","no","white","no","yes","768","legacy","60","60","C:/Users/Austin/Documents/AH-subject-4.csv","legacy","Lentiform Loewenfeld","3.3.12","0","h","NA","s","NA","NA","h","527","NA","5637","NA","NA","527","2","legacy","1024","2","48000","-16","experiment","SSHSS","4","even","11337","NA","NA","90959","NA","NA","125806","124587","5697","NA","NA","125913","126442","125798","125913","5686","Flanker Task","57","30394","61","yes","1024"
"93.54838709677419","93.54838709677419","497.241935483871","497.241935483871","black","legacy","legacy","legacy","0","Incongruent","uniform","1","undefined","1","h","0","0","0","61","61","0","61","61","0","0","0","61","61","61","61","0","Wed Sep 21 12:59:00 2022","1500","The main experiment item","yes","FlankerTask.osexp","C:\Users\Austin\Documents","no","mono","no","18","no","white","no","yes","768","legacy","61","61","C:/Users/Austin/Documents/AH-subject-4.csv","legacy","Lentiform Loewenfeld","3.3.12","0","h","NA","s","NA","NA","h","435","NA","5637","NA","NA","435","2","legacy","1024","2","48000","-16","experiment","SSHSS","4","even","11337","NA","NA","90959","NA","NA","127726","126454","5697","NA","NA","127833","128270","127717","127833","5686","Flanker Task","58","30829","62","yes","1024"
"93.65079365079364","93.65079365079364","496.6031746031746","496.6031746031746","black","legacy","legacy","legacy","0","Congruent","uniform","1","undefined","1","s","0","0","0","62","62","0","62","62","0","0","0","62","62","62","62","0","Wed Sep 21 12:59:00 2022","1500","The main experiment item","yes","FlankerTask.osexp","C:\Users\Austin\Documents","no","mono","no","18","no","white","no","yes","768","legacy","62","62","C:/Users/Austin/Documents/AH-subject-4.csv","legacy","Lentiform Loewenfeld","3.3.12","0","s","NA","s","NA","NA","s","457","NA","5637","NA","NA","457","2","legacy","1024","2","48000","-16","experiment","SSSSS","4","even","11337","NA","NA","90959","NA","NA","129561","128280","5697","NA","NA","129668","130127","129553","129668","5686","Flanker Task","59","31286","63","yes","1024"
"93.75","93.75","495.640625","495.640625","black","legacy","legacy","legacy","0","Congruent","uniform","1","undefined","1","h","0","0","0","63","63","0","63","63","0","0","0","63","63","63","63","0","Wed Sep 21 12:59:00 2022","1500","The main experiment item","yes","FlankerTask.osexp","C:\Users\Austin\Documents","no","mono","no","18","no","white","no","yes","768","legacy","63","63","C:/Users/Austin/Documents/AH-subject-4.csv","legacy","Lentiform Loewenfeld","3.3.12","0","h","NA","s","NA","NA","h","435","NA","5637","NA","NA","435","2","legacy","1024","2","48000","-16","experiment","HHHHH","4","even","11337","NA","NA","90959","NA","NA","131418","130140","5697","NA","NA","131527","131964","131408","131526","5686","Flanker Task","60","31721","64","yes","1024"
"93.84615384615384","93.84615384615384","494.15384615384613","494.15384615384613","black","legacy","legacy","legacy","0","Congruent","uniform","1","undefined","1","h","0","0","0","64","64","0","64","64","0","0","0","64","64","64","64","0","Wed Sep 21 12:59:00 2022","1500","The main experiment item","yes","FlankerTask.osexp","C:\Users\Austin\Documents","no","mono","no","18","no","white","no","yes","768","legacy","64","64","C:/Users/Austin/Documents/AH-subject-4.csv","legacy","Lentiform Loewenfeld","3.3.12","0","h","NA","s","NA","NA","h","399","NA","5637","NA","NA","399","2","legacy","1024","2","48000","-16","experiment","HHHHH","4","even","11337","NA","NA","90959","NA","NA","133213","131977","5697","NA","NA","133321","133722","133205","133321","5686","Flanker Task","61","32120","65","yes","1024"
"93.93939393939394","93.93939393939394","493.8484848484849","493.8484848484849","black","legacy","legacy","legacy","0","Incongruent","uniform","1","undefined","1","s","0","0","0","65","65","0","65","65","0","0","0","65","65","65","65","0","Wed Sep 21 12:59:00 2022","1500","The main experiment item","yes","FlankerTask.osexp","C:\Users\Austin\Documents","no","mono","no","18","no","white","no","yes","768","legacy","65","65","C:/Users/Austin/Documents/AH-subject-4.csv","legacy","Lentiform Loewenfeld","3.3.12","0","s","NA","s","NA","NA","s","474","NA","5637","NA","NA","474","2","legacy","1024","2","48000","-16","experiment","HHSHH","4","even","11337","NA","NA","90959","NA","NA","134975","133733","5697","NA","NA","135082","135559","134967","135081","5686","Flanker Task","62","32594","66","yes","1024"
"94.02985074626865","94.02985074626865","493.7910447761194","493.7910447761194","black","legacy","legacy","legacy","0","Incongruent","uniform","1","undefined","1","h","0","0","0","66","66","0","66","66","0","0","0","66","66","66","66","0","Wed Sep 21 12:59:00 2022","1500","The main experiment item","yes","FlankerTask.osexp","C:\Users\Austin\Documents","no","mono","no","18","no","white","no","yes","768","legacy","66","66","C:/Users/Austin/Documents/AH-subject-4.csv","legacy","Lentiform Loewenfeld","3.3.12","0","h","NA","s","NA","NA","h","490","NA","5637","NA","NA","490","2","legacy","1024","2","48000","-16","experiment","SSHSS","4","even","11337","NA","NA","90959","NA","NA","136802","135570","5697","NA","NA","136910","137402","136794","136910","5686","Flanker Task","63","33084","67","yes","1024"
"94.11764705882354","94.11764705882354","494.8970588235294","494.8970588235294","black","legacy","legacy","legacy","0","Congruent","uniform","1","undefined","1","s","0","0","0","67","67","0","67","67","0","0","0","67","67","67","67","0","Wed Sep 21 12:59:00 2022","1500","The main experiment item","yes","FlankerTask.osexp","C:\Users\Austin\Documents","no","mono","no","18","no","white","no","yes","768","legacy","67","67","C:/Users/Austin/Documents/AH-subject-4.csv","legacy","Lentiform Loewenfeld","3.3.12","0","s","NA","s","NA","NA","s","569","NA","5637","NA","NA","569","2","legacy","1024","2","48000","-16","experiment","SSSSS","4","even","11337","NA","NA","90959","NA","NA","138626","137413","5697","NA","NA","138736","139308","138619","138735","5686","Flanker Task","64","33653","68","yes","1024"
"94.20289855072464","94.20289855072464","494.231884057971","494.231884057971","black","legacy","legacy","legacy","0","Congruent","uniform","1","undefined","1","s","0","0","0","68","68","0","68","68","0","0","0","68","68","68","68","0","Wed Sep 21 12:59:00 2022","1500","The main experiment item","yes","FlankerTask.osexp","C:\Users\Austin\Documents","no","mono","no","18","no","white","no","yes","768","legacy","68","68","C:/Users/Austin/Documents/AH-subject-4.csv","legacy","Lentiform Loewenfeld","3.3.12","0","s","NA","s","NA","NA","s","449","NA","5637","NA","NA","449","2","legacy","1024","2","48000","-16","experiment","SSSSS","4","even","11337","NA","NA","90959","NA","NA","140532","139319","5697","NA","NA","140638","141090","140524","140637","5686","Flanker Task","65","34102","69","yes","1024"
"94.28571428571429","94.28571428571429","493.9428571428571","493.9428571428571","black","legacy","legacy","legacy","0","Incongruent","uniform","1","undefined","1","h","0","0","0","69","69","0","69","69","0","0","0","69","69","69","69","0","Wed Sep 21 12:59:00 2022","1500","The main experiment item","yes","FlankerTask.osexp","C:\Users\Austin\Documents","no","mono","no","18","no","white","no","yes","768","legacy","69","69","C:/Users/Austin/Documents/AH-subject-4.csv","legacy","Lentiform Loewenfeld","3.3.12","0","h","NA","s","NA","NA","h","474","NA","5637","NA","NA","474","2","legacy","1024","2","48000","-16","experiment","SSHSS","4","even","11337","NA","NA","90959","NA","NA","142379","141101","5697","NA","NA","142486","142962","142369","142486","5686","Flanker Task","66","34576","70","yes","1024"
"94.36619718309859","94.36619718309859","492.943661971831","492.943661971831","black","legacy","legacy","legacy","0","Congruent","uniform","1","undefined","1","s","0","0","0","70","70","0","70","70","0","0","0","70","70","70","70","0","Wed Sep 21 12:59:00 2022","1500","The main experiment item","yes","FlankerTask.osexp","C:\Users\Austin\Documents","no","mono","no","18","no","white","no","yes","768","legacy","70","70","C:/Users/Austin/Documents/AH-subject-4.csv","legacy","Lentiform Loewenfeld","3.3.12","0","s","NA","s","NA","NA","s","423","NA","5637","NA","NA","423","2","legacy","1024","2","48000","-16","experiment","SSSSS","4","even","11337","NA","NA","90959","NA","NA","144252","142974","5697","NA","NA","144361","144786","144243","144360","5686","Flanker Task","67","34999","71","yes","1024"
"94.44444444444444","94.44444444444444","493.15277777777777","493.15277777777777","black","legacy","legacy","legacy","0","Congruent","uniform","1","undefined","1","h","0","0","0","71","71","0","71","71","0","0","0","71","71","71","71","0","Wed Sep 21 12:59:00 2022","1500","The main experiment item","yes","FlankerTask.osexp","C:\Users\Austin\Documents","no","mono","no","18","no","white","no","yes","768","legacy","71","71","C:/Users/Austin/Documents/AH-subject-4.csv","legacy","Lentiform Loewenfeld","3.3.12","0","h","NA","s","NA","NA","h","508","NA","5637","NA","NA","508","2","legacy","1024","2","48000","-16","experiment","HHHHH","4","even","11337","NA","NA","90959","NA","NA","146024","144797","5697","NA","NA","146132","146642","146017","146131","5686","Flanker Task","68","35507","72","yes","1024"
"94.52054794520548","94.52054794520548","492.86301369863014","492.86301369863014","black","legacy","legacy","legacy","0","Congruent","uniform","1","undefined","1","s","0","0","0","72","72","0","72","72","0","0","0","72","72","72","72","0","Wed Sep 21 12:59:00 2022","1500","The main experiment item","yes","FlankerTask.osexp","C:\Users\Austin\Documents","no","mono","no","18","no","white","no","yes","768","legacy","72","72","C:/Users/Austin/Documents/AH-subject-4.csv","legacy","Lentiform Loewenfeld","3.3.12","0","s","NA","s","NA","NA","s","472","NA","5637","NA","NA","472","2","legacy","1024","2","48000","-16","experiment","SSSSS","4","even","11337","NA","NA","90959","NA","NA","147933","146653","5697","NA","NA","148040","148514","147924","148040","5686","Flanker Task","69","35979","73","yes","1024"
"94.5945945945946","94.5945945945946","494.5945945945946","494.5945945945946","black","legacy","legacy","legacy","0","Incongruent","uniform","1","undefined","1","s","0","0","0","73","73","0","73","73","0","0","0","73","73","73","73","0","Wed Sep 21 12:59:00 2022","1500","The main experiment item","yes","FlankerTask.osexp","C:\Users\Austin\Documents","no","mono","no","18","no","white","no","yes","768","legacy","73","73","C:/Users/Austin/Documents/AH-subject-4.csv","legacy","Lentiform Loewenfeld","3.3.12","0","s","NA","s","NA","NA","s","621","NA","5637","NA","NA","621","2","legacy","1024","2","48000","-16","experiment","HHSHH","4","even","11337","NA","NA","90959","NA","NA","149743","148525","5697","NA","NA","149851","150475","149736","149850","5686","Flanker Task","70","36600","74","yes","1024"
"94.66666666666667","94.66666666666667","494.08","494.08","black","legacy","legacy","legacy","0","Incongruent","uniform","1","undefined","1","s","0","0","0","74","74","0","74","74","0","0","0","74","74","74","74","0","Wed Sep 21 12:59:00 2022","1500","The main experiment item","yes","FlankerTask.osexp","C:\Users\Austin\Documents","no","mono","no","18","no","white","no","yes","768","legacy","74","74","C:/Users/Austin/Documents/AH-subject-4.csv","legacy","Lentiform Loewenfeld","3.3.12","0","s","NA","s","NA","NA","s","456","NA","5637","NA","NA","456","2","legacy","1024","2","48000","-16","experiment","HHSHH","4","even","11337","NA","NA","90959","NA","NA","151767","150485","5697","NA","NA","151874","152333","151758","151874","5686","Flanker Task","71","37056","75","yes","1024"
"94.73684210526316","94.73684210526316","493.60526315789474","493.60526315789474","black","legacy","legacy","legacy","0","Congruent","uniform","1","undefined","1","s","0","0","0","75","75","0","75","75","0","0","0","75","75","75","75","0","Wed Sep 21 12:59:00 2022","1500","The main experiment item","yes","FlankerTask.osexp","C:\Users\Austin\Documents","no","mono","no","18","no","white","no","yes","768","legacy","75","75","C:/Users/Austin/Documents/AH-subject-4.csv","legacy","Lentiform Loewenfeld","3.3.12","0","s","NA","s","NA","NA","s","458","NA","5637","NA","NA","458","2","legacy","1024","2","48000","-16","experiment","SSSSS","4","even","11337","NA","NA","90959","NA","NA","153587","152344","5697","NA","NA","153693","154154","153578","153693","5686","Flanker Task","72","37514","76","yes","1024"
"94.8051948051948","94.8051948051948","491.68831168831167","491.68831168831167","black","legacy","legacy","legacy","0","Congruent","uniform","1","undefined","1","s","0","0","0","76","76","0","76","76","0","0","0","76","76","76","76","0","Wed Sep 21 12:59:00 2022","1500","The main experiment item","yes","FlankerTask.osexp","C:\Users\Austin\Documents","no","mono","no","18","no","white","no","yes","768","legacy","76","76","C:/Users/Austin/Documents/AH-subject-4.csv","legacy","Lentiform Loewenfeld","3.3.12","0","s","NA","s","NA","NA","s","346","NA","5637","NA","NA","346","2","legacy","1024","2","48000","-16","experiment","SSSSS","4","even","11337","NA","NA","90959","NA","NA","155406","154166","5697","NA","NA","155514","155863","155399","155514","5686","Flanker Task","73","37860","77","yes","1024"
"94.87179487179488","94.87179487179488","491.70512820512823","491.70512820512823","black","legacy","legacy","legacy","0","Congruent","uniform","1","undefined","1","h","0","0","0","77","77","0","77","77","0","0","0","77","77","77","77","0","Wed Sep 21 12:59:00 2022","1500","The main experiment item","yes","FlankerTask.osexp","C:\Users\Austin\Documents","no","mono","no","18","no","white","no","yes","768","legacy","77","77","C:/Users/Austin/Documents/AH-subject-4.csv","legacy","Lentiform Loewenfeld","3.3.12","0","h","NA","s","NA","NA","h","493","NA","5637","NA","NA","493","2","legacy","1024","2","48000","-16","experiment","HHHHH","4","even","11337","NA","NA","90959","NA","NA","157082","155874","5697","NA","NA","157190","157685","157075","157190","5686","Flanker Task","74","38353","78","yes","1024"
"94.9367088607595","94.9367088607595","490.7848101265823","490.7848101265823","black","legacy","legacy","legacy","0","Congruent","uniform","1","undefined","1","h","0","0","0","78","78","0","78","78","0","0","0","78","78","78","78","0","Wed Sep 21 12:59:00 2022","1500","The main experiment item","yes","FlankerTask.osexp","C:\Users\Austin\Documents","no","mono","no","18","no","white","no","yes","768","legacy","78","78","C:/Users/Austin/Documents/AH-subject-4.csv","legacy","Lentiform Loewenfeld","3.3.12","0","h","NA","s","NA","NA","h","419","NA","5637","NA","NA","419","2","legacy","1024","2","48000","-16","experiment","HHHHH","4","even","11337","NA","NA","90959","NA","NA","158951","157696","5697","NA","NA","159058","159480","158942","159057","5686","Flanker Task","75","38772","79","yes","1024"
"95","95","491.175","491.175","black","legacy","legacy","legacy","0","Incongruent","uniform","1","undefined","1","h","0","0","0","79","79","0","79","79","0","0","0","79","79","79","79","0","Wed Sep 21 12:59:00 2022","1500","The main experiment item","yes","FlankerTask.osexp","C:\Users\Austin\Documents","no","mono","no","18","no","white","no","yes","768","legacy","79","79","C:/Users/Austin/Documents/AH-subject-4.csv","legacy","Lentiform Loewenfeld","3.3.12","0","h","NA","s","NA","NA","h","522","NA","5637","NA","NA","522","2","legacy","1024","2","48000","-16","experiment","SSHSS","4","even","11337","NA","NA","90959","NA","NA","160703","159492","5697","NA","NA","160809","161334","160696","160809","5686","Flanker Task","76","39294","80","yes","1024"
"95.06172839506173","95.06172839506173","490.679012345679","490.679012345679","black","legacy","legacy","legacy","0","Congruent","uniform","1","undefined","1","s","0","0","0","80","80","0","80","80","0","0","0","80","80","80","80","0","Wed Sep 21 12:59:00 2022","600","The main experiment item","yes","FlankerTask.osexp","C:\Users\Austin\Documents","no","mono","no","18","no","white","no","yes","768","legacy","0","79","C:/Users/Austin/Documents/AH-subject-4.csv","legacy","Lentiform Loewenfeld","3.3.12","0","s","NA","s","NA","s","s","451","NA","5637","NA","58006","451","2","legacy","1024","2","48000","-16","experiment","SSSSS","4","even","11337","NA","220449","90959","NA","NA","220551","161346","5697","NA","162441","220656","221108","220547","220656","5686","Flanker Task","77","39745","81","yes","1024"
"95.1219512195122","95.1219512195122","489.0487804878049","489.0487804878049","black","legacy","legacy","legacy","0","Congruent","uniform","1","undefined","1","s","0","0","0","81","81","0","81","81","0","0","0","81","81","81","81","0","Wed Sep 21 12:59:00 2022","600","The main experiment item","yes","FlankerTask.osexp","C:\Users\Austin\Documents","no","mono","no","18","no","white","no","yes","768","legacy","1","79","C:/Users/Austin/Documents/AH-subject-4.csv","legacy","Lentiform Loewenfeld","3.3.12","0","s","NA","s","NA","s","s","357","NA","5637","NA","58006","357","2","legacy","1024","2","48000","-16","experiment","SSSSS","4","even","11337","NA","220449","90959","NA","NA","222343","221119","5697","NA","162441","222448","222807","222336","222448","5686","Flanker Task","78","40102","82","yes","1024"
"95.18072289156626","95.18072289156626","487.72289156626505","487.72289156626505","black","legacy","legacy","legacy","0","Congruent","uniform","1","undefined","1","s","0","0","0","82","82","0","82","82","0","0","0","82","82","82","82","0","Wed Sep 21 12:59:00 2022","600","The main experiment item","yes","FlankerTask.osexp","C:\Users\Austin\Documents","no","mono","no","18","no","white","no","yes","768","legacy","2","79","C:/Users/Austin/Documents/AH-subject-4.csv","legacy","Lentiform Loewenfeld","3.3.12","0","s","NA","s","NA","s","s","379","NA","5637","NA","58006","379","2","legacy","1024","2","48000","-16","experiment","SSSSS","4","even","11337","NA","220449","90959","NA","NA","224016","222819","5697","NA","162441","224123","224505","224008","224123","5686","Flanker Task","79","40481","83","yes","1024"
"95.23809523809524","95.23809523809524","489.8809523809524","489.8809523809524","black","legacy","legacy","legacy","0","Congruent","uniform","1","undefined","1","s","0","0","0","83","83","0","83","83","0","0","0","83","83","83","83","0","Wed Sep 21 12:59:00 2022","600","The main experiment item","yes","FlankerTask.osexp","C:\Users\Austin\Documents","no","mono","no","18","no","white","no","yes","768","legacy","3","79","C:/Users/Austin/Documents/AH-subject-4.csv","legacy","Lentiform Loewenfeld","3.3.12","0","s","NA","s","NA","s","s","669","NA","5637","NA","58006","669","2","legacy","1024","2","48000","-16","experiment","SSSSS","4","even","11337","NA","220449","90959","NA","NA","225715","224516","5697","NA","162441","225822","226494","225707","225822","5686","Flanker Task","80","41150","84","yes","1024"
"95.29411764705883","95.29411764705883","489.21176470588233","489.21176470588233","black","legacy","legacy","legacy","0","Congruent","uniform","1","undefined","1","h","0","0","0","84","84","0","84","84","0","0","0","84","84","84","84","0","Wed Sep 21 12:59:00 2022","600","The main experiment item","yes","FlankerTask.osexp","C:\Users\Austin\Documents","no","mono","no","18","no","white","no","yes","768","legacy","4","79","C:/Users/Austin/Documents/AH-subject-4.csv","legacy","Lentiform Loewenfeld","3.3.12","0","h","NA","s","NA","s","h","433","NA","5637","NA","58006","433","2","legacy","1024","2","48000","-16","experiment","HHHHH","4","even","11337","NA","220449","90959","226504","NA","228211","227010","5697","NA","162441","228318","228754","228204","228318","5686","Flanker Task","81","41583","85","yes","1024"
"95.34883720930233","95.34883720930233","487.45348837209303","487.45348837209303","black","legacy","legacy","legacy","0","Congruent","uniform","1","undefined","1","h","0","0","0","85","85","0","85","85","0","0","0","85","85","85","85","0","Wed Sep 21 12:59:00 2022","600","The main experiment item","yes","FlankerTask.osexp","C:\Users\Austin\Documents","no","mono","no","18","no","white","no","yes","768","legacy","5","79","C:/Users/Austin/Documents/AH-subject-4.csv","legacy","Lentiform Loewenfeld","3.3.12","0","h","NA","s","NA","s","h","338","NA","5637","NA","58006","338","2","legacy","1024","2","48000","-16","experiment","HHHHH","4","even","11337","NA","220449","90959","226504","NA","229993","228765","5697","NA","162441","230100","230441","229986","230099","5686","Flanker Task","82","41921","86","yes","1024"
"95.40229885057471","95.40229885057471","486.5287356321839","486.5287356321839","black","legacy","legacy","legacy","0","Congruent","uniform","1","undefined","1","s","0","0","0","86","86","0","86","86","0","0","0","86","86","86","86","0","Wed Sep 21 12:59:00 2022","600","The main experiment item","yes","FlankerTask.osexp","C:\Users\Austin\Documents","no","mono","no","18","no","white","no","yes","768","legacy","6","79","C:/Users/Austin/Documents/AH-subject-4.csv","legacy","Lentiform Loewenfeld","3.3.12","0","s","NA","s","NA","s","s","407","NA","5637","NA","58006","407","2","legacy","1024","2","48000","-16","experiment","SSSSS","4","even","11337","NA","220449","90959","226504","NA","231647","230452","5697","NA","162441","231754","232164","231639","231753","5686","Flanker Task","83","42328","87","yes","1024"
"95.45454545454545","95.45454545454545","484.85227272727275","484.85227272727275","black","legacy","legacy","legacy","0","Congruent","uniform","1","undefined","1","s","0","0","0","87","87","0","87","87","0","0","0","87","87","87","87","0","Wed Sep 21 12:59:00 2022","600","The main experiment item","yes","FlankerTask.osexp","C:\Users\Austin\Documents","no","mono","no","18","no","white","no","yes","768","legacy","7","79","C:/Users/Austin/Documents/AH-subject-4.csv","legacy","Lentiform Loewenfeld","3.3.12","0","s","NA","s","NA","s","s","339","NA","5637","NA","58006","339","2","legacy","1024","2","48000","-16","experiment","SSSSS","4","even","11337","NA","220449","90959","226504","NA","233372","232174","5697","NA","162441","233480","233821","233364","233480","5686","Flanker Task","84","42667","88","yes","1024"
"95.50561797752809","95.50561797752809","483.24719101123594","483.24719101123594","black","legacy","legacy","legacy","0","Incongruent","uniform","1","undefined","1","s","0","0","0","88","88","0","88","88","0","0","0","88","88","88","88","0","Wed Sep 21 12:59:00 2022","600","The main experiment item","yes","FlankerTask.osexp","C:\Users\Austin\Documents","no","mono","no","18","no","white","no","yes","768","legacy","8","79","C:/Users/Austin/Documents/AH-subject-4.csv","legacy","Lentiform Loewenfeld","3.3.12","0","s","NA","s","NA","s","s","342","NA","5637","NA","58006","342","2","legacy","1024","2","48000","-16","experiment","HHSHH","4","even","11337","NA","220449","90959","226504","NA","235038","233832","5697","NA","162441","235146","235491","235031","235146","5686","Flanker Task","85","43009","89","yes","1024"
"95.55555555555556","95.55555555555556","482.65555555555557","482.65555555555557","black","legacy","legacy","legacy","0","Incongruent","uniform","1","undefined","1","s","0","0","0","89","89","0","89","89","0","0","0","89","89","89","89","0","Wed Sep 21 12:59:00 2022","600","The main experiment item","yes","FlankerTask.osexp","C:\Users\Austin\Documents","no","mono","no","18","no","white","no","yes","768","legacy","9","79","C:/Users/Austin/Documents/AH-subject-4.csv","legacy","Lentiform Loewenfeld","3.3.12","0","s","NA","s","NA","s","s","430","NA","5637","NA","58006","430","2","legacy","1024","2","48000","-16","experiment","HHSHH","4","even","11337","NA","220449","90959","226504","NA","236701","235502","5697","NA","162441","236809","237241","236693","236808","5686","Flanker Task","86","43439","90","yes","1024"
"95.6043956043956","95.6043956043956","482.54945054945057","482.54945054945057","black","legacy","legacy","legacy","0","Congruent","uniform","1","undefined","1","h","0","0","0","90","90","0","90","90","0","0","0","90","90","90","90","0","Wed Sep 21 12:59:00 2022","600","The main experiment item","yes","FlankerTask.osexp","C:\Users\Austin\Documents","no","mono","no","18","no","white","no","yes","768","legacy","10","79","C:/Users/Austin/Documents/AH-subject-4.csv","legacy","Lentiform Loewenfeld","3.3.12","0","h","NA","s","NA","s","h","473","NA","5637","NA","58006","473","2","legacy","1024","2","48000","-16","experiment","HHHHH","4","even","11337","NA","220449","90959","226504","NA","238459","237252","5697","NA","162441","238567","239043","238452","238566","5686","Flanker Task","87","43912","91","yes","1024"
"94.56521739130434","94.56521739130434","481.9891304347826","481.9891304347826","black","legacy","legacy","legacy","0","Incongruent","uniform","0","undefined","0","h","0","0","0","91","91","0","91","91","0","0","0","91","91","91","91","0","Wed Sep 21 12:59:00 2022","600","The main experiment item","yes","FlankerTask.osexp","C:\Users\Austin\Documents","no","mono","no","18","no","white","no","yes","768","legacy","11","79","C:/Users/Austin/Documents/AH-subject-4.csv","legacy","Lentiform Loewenfeld","3.3.12","0","s","NA","s","NA","s","s","431","NA","5637","NA","58006","431","2","legacy","1024","2","48000","-16","experiment","SSHSS","4","even","11337","NA","220449","90959","226504","NA","240257","239053","5697","NA","162441","240364","240797","240251","240364","5686","Flanker Task","87","44343","92","yes","1024"
"94.6236559139785","94.6236559139785","482.36559139784947","482.36559139784947","black","legacy","legacy","legacy","0","Incongruent","uniform","1","undefined","1","s","0","0","0","92","92","0","92","92","0","0","0","92","92","92","92","0","Wed Sep 21 12:59:00 2022","600","The main experiment item","yes","FlankerTask.osexp","C:\Users\Austin\Documents","no","mono","no","18","no","white","no","yes","768","legacy","12","79","C:/Users/Austin/Documents/AH-subject-4.csv","legacy","Lentiform Loewenfeld","3.3.12","0","s","NA","s","NA","s","s","517","NA","5637","NA","58006","517","2","legacy","1024","2","48000","-16","experiment","HHSHH","4","even","11337","NA","220449","240808","226504","NA","242508","241315","5697","NA","162441","242614","243133","242501","242614","5686","Flanker Task","88","44860","93","yes","1024"
"94.68085106382979","94.68085106382979","482.13829787234044","482.13829787234044","black","legacy","legacy","legacy","0","Congruent","uniform","1","undefined","1","h","0","0","0","93","93","0","93","93","0","0","0","93","93","93","93","0","Wed Sep 21 12:59:00 2022","600","The main experiment item","yes","FlankerTask.osexp","C:\Users\Austin\Documents","no","mono","no","18","no","white","no","yes","768","legacy","13","79","C:/Users/Austin/Documents/AH-subject-4.csv","legacy","Lentiform Loewenfeld","3.3.12","0","h","NA","s","NA","s","h","461","NA","5637","NA","58006","461","2","legacy","1024","2","48000","-16","experiment","HHHHH","4","even","11337","NA","220449","240808","226504","NA","244340","243143","5697","NA","162441","244445","244909","244333","244445","5686","Flanker Task","89","45321","94","yes","1024"
"94.73684210526316","94.73684210526316","481.30526315789473","481.30526315789473","black","legacy","legacy","legacy","0","Congruent","uniform","1","undefined","1","s","0","0","0","94","94","0","94","94","0","0","0","94","94","94","94","0","Wed Sep 21 12:59:00 2022","600","The main experiment item","yes","FlankerTask.osexp","C:\Users\Austin\Documents","no","mono","no","18","no","white","no","yes","768","legacy","14","79","C:/Users/Austin/Documents/AH-subject-4.csv","legacy","Lentiform Loewenfeld","3.3.12","0","s","NA","s","NA","s","s","403","NA","5637","NA","58006","403","2","legacy","1024","2","48000","-16","experiment","SSSSS","4","even","11337","NA","220449","240808","226504","NA","246119","244919","5697","NA","162441","246225","246631","246112","246225","5686","Flanker Task","90","45724","95","yes","1024"
"94.79166666666667","94.79166666666667","481.6770833333333","481.6770833333333","black","legacy","legacy","legacy","0","Congruent","uniform","1","undefined","1","h","0","0","0","95","95","0","95","95","0","0","0","95","95","95","95","0","Wed Sep 21 12:59:00 2022","600","The main experiment item","yes","FlankerTask.osexp","C:\Users\Austin\Documents","no","mono","no","18","no","white","no","yes","768","legacy","15","79","C:/Users/Austin/Documents/AH-subject-4.csv","legacy","Lentiform Loewenfeld","3.3.12","0","h","NA","s","NA","s","h","517","NA","5637","NA","58006","517","2","legacy","1024","2","48000","-16","experiment","HHHHH","4","even","11337","NA","220449","240808","226504","NA","247839","246641","5697","NA","162441","247947","248466","247833","247947","5686","Flanker Task","91","46241","96","yes","1024"
"94.84536082474227","94.84536082474227","483.50515463917526","483.50515463917526","black","legacy","legacy","legacy","0","Incongruent","uniform","1","undefined","1","s","0","0","0","96","96","0","96","96","0","0","0","96","96","96","96","0","Wed Sep 21 12:59:00 2022","600","The main experiment item","yes","FlankerTask.osexp","C:\Users\Austin\Documents","no","mono","no","18","no","white","no","yes","768","legacy","16","79","C:/Users/Austin/Documents/AH-subject-4.csv","legacy","Lentiform Loewenfeld","3.3.12","0","s","NA","s","NA","s","s","659","NA","5637","NA","58006","659","2","legacy","1024","2","48000","-16","experiment","HHSHH","4","even","11337","NA","220449","240808","226504","NA","249680","248477","5697","NA","162441","249787","250449","249673","249787","5686","Flanker Task","92","46900","97","yes","1024"
"94.89795918367346","94.89795918367346","483.53061224489795","483.53061224489795","black","legacy","legacy","legacy","0","Incongruent","uniform","1","undefined","1","h","0","0","0","97","97","0","97","97","0","0","0","97","97","97","97","0","Wed Sep 21 12:59:00 2022","600","The main experiment item","yes","FlankerTask.osexp","C:\Users\Austin\Documents","no","mono","no","18","no","white","no","yes","768","legacy","17","79","C:/Users/Austin/Documents/AH-subject-4.csv","legacy","Lentiform Loewenfeld","3.3.12","0","h","NA","s","NA","s","h","486","NA","5637","NA","58006","486","2","legacy","1024","2","48000","-16","experiment","SSHSS","4","even","11337","NA","220449","240808","250460","NA","252167","250965","5697","NA","162441","252273","252762","252160","252273","5686","Flanker Task","93","47386","98","yes","1024"
"94.94949494949495","94.94949494949495","483.5151515151515","483.5151515151515","black","legacy","legacy","legacy","0","Congruent","uniform","1","undefined","1","s","0","0","0","98","98","0","98","98","0","0","0","98","98","98","98","0","Wed Sep 21 12:59:00 2022","600","The main experiment item","yes","FlankerTask.osexp","C:\Users\Austin\Documents","no","mono","no","18","no","white","no","yes","768","legacy","18","79","C:/Users/Austin/Documents/AH-subject-4.csv","legacy","Lentiform Loewenfeld","3.3.12","0","s","NA","s","NA","s","s","482","NA","5637","NA","58006","482","2","legacy","1024","2","48000","-16","experiment","SSSSS","4","even","11337","NA","220449","240808","250460","NA","253975","252773","5697","NA","162441","254082","254566","253968","254082","5686","Flanker Task","94","47868","99","yes","1024"
"95","95","484.16","484.16","black","legacy","legacy","legacy","0","Incongruent","uniform","1","undefined","1","h","0","0","0","99","99","0","99","99","0","0","0","99","99","99","99","0","Wed Sep 21 12:59:00 2022","600","The main experiment item","yes","FlankerTask.osexp","C:\Users\Austin\Documents","no","mono","no","18","no","white","no","yes","768","legacy","19","79","C:/Users/Austin/Documents/AH-subject-4.csv","legacy","Lentiform Loewenfeld","3.3.12","0","h","NA","s","NA","s","h","548","NA","5637","NA","58006","548","2","legacy","1024","2","48000","-16","experiment","SSHSS","4","even","11337","NA","220449","240808","250460","NA","255790","254579","5697","NA","162441","255899","256450","255782","255898","5686","Flanker Task","95","48416","100","yes","1024"
"95.04950495049505","95.04950495049505","483.8811881188119","483.8811881188119","black","legacy","legacy","legacy","0","Incongruent","uniform","1","undefined","1","s","0","0","0","100","100","0","100","100","0","0","0","100","100","100","100","0","Wed Sep 21 12:59:00 2022","600","The main experiment item","yes","FlankerTask.osexp","C:\Users\Austin\Documents","no","mono","no","18","no","white","no","yes","768","legacy","20","79","C:/Users/Austin/Documents/AH-subject-4.csv","legacy","Lentiform Loewenfeld","3.3.12","0","s","NA","s","NA","s","s","456","NA","5637","NA","58006","456","2","legacy","1024","2","48000","-16","experiment","HHSHH","4","even","11337","NA","220449","240808","250460","NA","257657","256460","5697","NA","162441","257763","258222","257650","257763","5686","Flanker Task","96","48872","101","yes","1024"
"95.09803921568627","95.09803921568627","483.97058823529414","483.97058823529414","black","legacy","legacy","legacy","0","Congruent","uniform","1","undefined","1","s","0","0","0","101","101","0","101","101","0","0","0","101","101","101","101","0","Wed Sep 21 12:59:00 2022","600","The main experiment item","yes","FlankerTask.osexp","C:\Users\Austin\Documents","no","mono","no","18","no","white","no","yes","768","legacy","21","79","C:/Users/Austin/Documents/AH-subject-4.csv","legacy","Lentiform Loewenfeld","3.3.12","0","s","NA","s","NA","s","s","493","NA","5637","NA","58006","493","2","legacy","1024","2","48000","-16","experiment","SSSSS","4","even","11337","NA","220449","240808","250460","NA","259459","258234","5697","NA","162441","259565","260061","259452","259565","5686","Flanker Task","97","49365","102","yes","1024"
"95.14563106796116","95.14563106796116","484.40776699029124","484.40776699029124","black","legacy","legacy","legacy","0","Incongruent","uniform","1","undefined","1","h","0","0","0","102","102","0","102","102","0","0","0","102","102","102","102","0","Wed Sep 21 12:59:00 2022","600","The main experiment item","yes","FlankerTask.osexp","C:\Users\Austin\Documents","no","mono","no","18","no","white","no","yes","768","legacy","22","79","C:/Users/Austin/Documents/AH-subject-4.csv","legacy","Lentiform Loewenfeld","3.3.12","0","h","NA","s","NA","s","h","529","NA","5637","NA","58006","529","2","legacy","1024","2","48000","-16","experiment","SSHSS","4","even","11337","NA","220449","240808","250460","NA","261273","260072","5697","NA","162441","261380","261913","261266","261380","5686","Flanker Task","98","49894","103","yes","1024"
"95.1923076923077","95.1923076923077","484.63461538461536","484.63461538461536","black","legacy","legacy","legacy","0","Incongruent","uniform","1","undefined","1","h","0","0","0","103","103","0","103","103","0","0","0","103","103","103","103","0","Wed Sep 21 12:59:00 2022","600","The main experiment item","yes","FlankerTask.osexp","C:\Users\Austin\Documents","no","mono","no","18","no","white","no","yes","768","legacy","23","79","C:/Users/Austin/Documents/AH-subject-4.csv","legacy","Lentiform Loewenfeld","3.3.12","0","h","NA","s","NA","s","h","508","NA","5637","NA","58006","508","2","legacy","1024","2","48000","-16","experiment","SSHSS","4","even","11337","NA","220449","240808","250460","NA","263134","261925","5697","NA","162441","263241","263752","263127","263241","5686","Flanker Task","99","50402","104","yes","1024"
"95.23809523809524","95.23809523809524","484.1904761904762","484.1904761904762","black","legacy","legacy","legacy","0","Congruent","uniform","1","undefined","1","s","0","0","0","104","104","0","104","104","0","0","0","104","104","104","104","0","Wed Sep 21 12:59:00 2022","600","The main experiment item","yes","FlankerTask.osexp","C:\Users\Austin\Documents","no","mono","no","18","no","white","no","yes","768","legacy","24","79","C:/Users/Austin/Documents/AH-subject-4.csv","legacy","Lentiform Loewenfeld","3.3.12","0","s","NA","s","NA","s","s","438","NA","5637","NA","58006","438","2","legacy","1024","2","48000","-16","experiment","SSSSS","4","even","11337","NA","220449","240808","250460","NA","264966","263763","5697","NA","162441","265073","265513","264959","265073","5686","Flanker Task","100","50840","105","yes","1024"
"95.28301886792453","95.28301886792453","484.0660377358491","484.0660377358491","black","legacy","legacy","legacy","0","Congruent","uniform","1","undefined","1","h","0","0","0","105","105","0","105","105","0","0","0","105","105","105","105","0","Wed Sep 21 12:59:00 2022","600","The main experiment item","yes","FlankerTask.osexp","C:\Users\Austin\Documents","no","mono","no","18","no","white","no","yes","768","legacy","25","79","C:/Users/Austin/Documents/AH-subject-4.csv","legacy","Lentiform Loewenfeld","3.3.12","0","h","NA","s","NA","s","h","471","NA","5637","NA","58006","471","2","legacy","1024","2","48000","-16","experiment","HHHHH","4","even","11337","NA","220449","240808","250460","NA","266726","265524","5697","NA","162441","266832","267306","266719","266832","5686","Flanker Task","101","51311","106","yes","1024"
"95.32710280373831","95.32710280373831","483.5981308411215","483.5981308411215","black","legacy","legacy","legacy","0","Congruent","uniform","1","undefined","1","s","0","0","0","106","106","0","106","106","0","0","0","106","106","106","106","0","Wed Sep 21 12:59:00 2022","600","The main experiment item","yes","FlankerTask.osexp","C:\Users\Austin\Documents","no","mono","no","18","no","white","no","yes","768","legacy","26","79","C:/Users/Austin/Documents/AH-subject-4.csv","legacy","Lentiform Loewenfeld","3.3.12","0","s","NA","s","NA","s","s","434","NA","5637","NA","58006","434","2","legacy","1024","2","48000","-16","experiment","SSSSS","4","even","11337","NA","220449","240808","250460","NA","268539","267317","5697","NA","162441","268644","269081","268532","268644","5686","Flanker Task","102","51745","107","yes","1024"
"95.37037037037037","95.37037037037037","482.8796296296296","482.8796296296296","black","legacy","legacy","legacy","0","Congruent","uniform","1","undefined","1","s","0","0","0","107","107","0","107","107","0","0","0","107","107","107","107","0","Wed Sep 21 12:59:00 2022","600","The main experiment item","yes","FlankerTask.osexp","C:\Users\Austin\Documents","no","mono","no","18","no","white","no","yes","768","legacy","27","79","C:/Users/Austin/Documents/AH-subject-4.csv","legacy","Lentiform Loewenfeld","3.3.12","0","s","NA","s","NA","s","s","406","NA","5637","NA","58006","406","2","legacy","1024","2","48000","-16","experiment","SSSSS","4","even","11337","NA","220449","240808","250460","NA","270305","269091","5697","NA","162441","270412","270821","270298","270412","5686","Flanker Task","103","52151","108","yes","1024"
"95.41284403669725","95.41284403669725","482.89908256880733","482.89908256880733","black","legacy","legacy","legacy","0","Congruent","uniform","1","undefined","1","h","0","0","0","108","108","0","108","108","0","0","0","108","108","108","108","0","Wed Sep 21 12:59:00 2022","600","The main experiment item","yes","FlankerTask.osexp","C:\Users\Austin\Documents","no","mono","no","18","no","white","no","yes","768","legacy","28","79","C:/Users/Austin/Documents/AH-subject-4.csv","legacy","Lentiform Loewenfeld","3.3.12","0","h","NA","s","NA","s","h","485","NA","5637","NA","58006","485","2","legacy","1024","2","48000","-16","experiment","HHHHH","4","even","11337","NA","220449","240808","250460","NA","272036","270832","5697","NA","162441","272143","272631","272029","272143","5686","Flanker Task","104","52636","109","yes","1024"
"95.45454545454545","95.45454545454545","483.3181818181818","483.3181818181818","black","legacy","legacy","legacy","0","Incongruent","uniform","1","undefined","1","s","0","0","0","109","109","0","109","109","0","0","0","109","109","109","109","0","Wed Sep 21 12:59:00 2022","600","The main experiment item","yes","FlankerTask.osexp","C:\Users\Austin\Documents","no","mono","no","18","no","white","no","yes","768","legacy","29","79","C:/Users/Austin/Documents/AH-subject-4.csv","legacy","Lentiform Loewenfeld","3.3.12","0","s","NA","s","NA","s","s","529","NA","5637","NA","58006","529","2","legacy","1024","2","48000","-16","experiment","HHSHH","4","even","11337","NA","220449","240808","250460","NA","273871","272641","5697","NA","162441","273979","274511","273864","273978","5686","Flanker Task","105","53165","110","yes","1024"
"95.49549549549549","95.49549549549549","482.9009009009009","482.9009009009009","black","legacy","legacy","legacy","0","Incongruent","uniform","1","undefined","1","s","0","0","0","110","110","0","110","110","0","0","0","110","110","110","110","0","Wed Sep 21 12:59:00 2022","600","The main experiment item","yes","FlankerTask.osexp","C:\Users\Austin\Documents","no","mono","no","18","no","white","no","yes","768","legacy","30","79","C:/Users/Austin/Documents/AH-subject-4.csv","legacy","Lentiform Loewenfeld","3.3.12","0","s","NA","s","NA","s","s","437","NA","5637","NA","58006","437","2","legacy","1024","2","48000","-16","experiment","HHSHH","4","even","11337","NA","220449","240808","250460","NA","275718","274520","5697","NA","162441","275824","276264","275711","275824","5686","Flanker Task","106","53602","111","yes","1024"
"95.53571428571429","95.53571428571429","483.32142857142856","483.32142857142856","black","legacy","legacy","legacy","0","Congruent","uniform","1","undefined","1","h","0","0","0","111","111","0","111","111","0","0","0","111","111","111","111","0","Wed Sep 21 12:59:00 2022","600","The main experiment item","yes","FlankerTask.osexp","C:\Users\Austin\Documents","no","mono","no","18","no","white","no","yes","768","legacy","31","79","C:/Users/Austin/Documents/AH-subject-4.csv","legacy","Lentiform Loewenfeld","3.3.12","0","h","NA","s","NA","s","h","530","NA","5637","NA","58006","530","2","legacy","1024","2","48000","-16","experiment","HHHHH","4","even","11337","NA","220449","240808","250460","NA","277475","276274","5697","NA","162441","277581","278114","277468","277581","5686","Flanker Task","107","54132","112","yes","1024"
"95.57522123893806","95.57522123893806","483.7345132743363","483.7345132743363","black","legacy","legacy","legacy","0","Incongruent","uniform","1","undefined","1","s","0","0","0","112","112","0","112","112","0","0","0","112","112","112","112","0","Wed Sep 21 12:59:00 2022","600","The main experiment item","yes","FlankerTask.osexp","C:\Users\Austin\Documents","no","mono","no","18","no","white","no","yes","768","legacy","32","79","C:/Users/Austin/Documents/AH-subject-4.csv","legacy","Lentiform Loewenfeld","3.3.12","0","s","NA","s","NA","s","s","530","NA","5637","NA","58006","530","2","legacy","1024","2","48000","-16","experiment","HHSHH","4","even","11337","NA","220449","240808","250460","NA","279329","278125","5697","NA","162441","279434","279967","279321","279434","5686","Flanker Task","108","54662","113","yes","1024"
"95.6140350877193","95.6140350877193","483.140350877193","483.140350877193","black","legacy","legacy","legacy","0","Incongruent","uniform","1","undefined","1","s","0","0","0","113","113","0","113","113","0","0","0","113","113","113","113","0","Wed Sep 21 12:59:00 2022","600","The main experiment item","yes","FlankerTask.osexp","C:\Users\Austin\Documents","no","mono","no","18","no","white","no","yes","768","legacy","33","79","C:/Users/Austin/Documents/AH-subject-4.csv","legacy","Lentiform Loewenfeld","3.3.12","0","s","NA","s","NA","s","s","416","NA","5637","NA","58006","416","2","legacy","1024","2","48000","-16","experiment","HHSHH","4","even","11337","NA","220449","240808","250460","NA","281180","279977","5697","NA","162441","281286","281705","281173","281286","5686","Flanker Task","109","55078","114","yes","1024"
"95.65217391304348","95.65217391304348","482.8","482.8","black","legacy","legacy","legacy","0","Incongruent","uniform","1","undefined","1","s","0","0","0","114","114","0","114","114","0","0","0","114","114","114","114","0","Wed Sep 21 12:59:00 2022","600","The main experiment item","yes","FlankerTask.osexp","C:\Users\Austin\Documents","no","mono","no","18","no","white","no","yes","768","legacy","34","79","C:/Users/Austin/Documents/AH-subject-4.csv","legacy","Lentiform Loewenfeld","3.3.12","0","s","NA","s","NA","s","s","444","NA","5637","NA","58006","444","2","legacy","1024","2","48000","-16","experiment","HHSHH","4","even","11337","NA","220449","240808","250460","NA","282956","281716","5697","NA","162441","283064","283511","282946","283063","5686","Flanker Task","110","55522","115","yes","1024"
"95.6896551724138","95.6896551724138","482.61206896551727","482.61206896551727","black","legacy","legacy","legacy","0","Congruent","uniform","1","undefined","1","h","0","0","0","115","115","0","115","115","0","0","0","115","115","115","115","0","Wed Sep 21 12:59:00 2022","600","The main experiment item","yes","FlankerTask.osexp","C:\Users\Austin\Documents","no","mono","no","18","no","white","no","yes","768","legacy","35","79","C:/Users/Austin/Documents/AH-subject-4.csv","legacy","Lentiform Loewenfeld","3.3.12","0","h","NA","s","NA","s","h","461","NA","5637","NA","58006","461","2","legacy","1024","2","48000","-16","experiment","HHHHH","4","even","11337","NA","220449","240808","250460","NA","284718","283522","5697","NA","162441","284824","285288","284711","284823","5686","Flanker Task","111","55983","116","yes","1024"
"95.72649572649573","95.72649572649573","483.1623931623932","483.1623931623932","black","legacy","legacy","legacy","0","Incongruent","uniform","1","undefined","1","h","0","0","0","116","116","0","116","116","0","0","0","116","116","116","116","0","Wed Sep 21 12:59:00 2022","600","The main experiment item","yes","FlankerTask.osexp","C:\Users\Austin\Documents","no","mono","no","18","no","white","no","yes","768","legacy","36","79","C:/Users/Austin/Documents/AH-subject-4.csv","legacy","Lentiform Loewenfeld","3.3.12","0","h","NA","s","NA","s","h","547","NA","5637","NA","58006","547","2","legacy","1024","2","48000","-16","experiment","SSHSS","4","even","11337","NA","220449","240808","250460","NA","286501","285299","5697","NA","162441","286609","287159","286494","286608","5686","Flanker Task","112","56530","117","yes","1024"
"95.76271186440678","95.76271186440678","483.4237288135593","483.4237288135593","black","legacy","legacy","legacy","0","Incongruent","uniform","1","undefined","1","h","0","0","0","117","117","0","117","117","0","0","0","117","117","117","117","0","Wed Sep 21 12:59:00 2022","600","The main experiment item","yes","FlankerTask.osexp","C:\Users\Austin\Documents","no","mono","no","18","no","white","no","yes","768","legacy","37","79","C:/Users/Austin/Documents/AH-subject-4.csv","legacy","Lentiform Loewenfeld","3.3.12","0","h","NA","s","NA","s","h","514","NA","5637","NA","58006","514","2","legacy","1024","2","48000","-16","experiment","SSHSS","4","even","11337","NA","220449","240808","250460","NA","288369","287171","5697","NA","162441","288475","288992","288362","288475","5686","Flanker Task","113","57044","118","yes","1024"
"95.7983193277311","95.7983193277311","483.02521008403363","483.02521008403363","black","legacy","legacy","legacy","0","Congruent","uniform","1","undefined","1","h","0","0","0","118","118","0","118","118","0","0","0","118","118","118","118","0","Wed Sep 21 12:59:00 2022","600","The main experiment item","yes","FlankerTask.osexp","C:\Users\Austin\Documents","no","mono","no","18","no","white","no","yes","768","legacy","38","79","C:/Users/Austin/Documents/AH-subject-4.csv","legacy","Lentiform Loewenfeld","3.3.12","0","h","NA","s","NA","s","h","436","NA","5637","NA","58006","436","2","legacy","1024","2","48000","-16","experiment","HHHHH","4","even","11337","NA","220449","240808","250460","NA","290201","289003","5697","NA","162441","290309","290748","290194","290309","5686","Flanker Task","114","57480","119","yes","1024"
"95.83333333333333","95.83333333333333","482.725","482.725","black","legacy","legacy","legacy","0","Incongruent","uniform","1","undefined","1","s","0","0","0","119","119","0","119","119","0","0","0","119","119","119","119","0","Wed Sep 21 12:59:00 2022","600","The main experiment item","yes","FlankerTask.osexp","C:\Users\Austin\Documents","no","mono","no","18","no","white","no","yes","768","legacy","39","79","C:/Users/Austin/Documents/AH-subject-4.csv","legacy","Lentiform Loewenfeld","3.3.12","0","s","NA","s","NA","s","s","447","NA","5637","NA","58006","447","2","legacy","1024","2","48000","-16","experiment","HHSHH","4","even","11337","NA","220449","240808","250460","NA","291958","290759","5697","NA","162441","292065","292515","291951","292065","5686","Flanker Task","115","57927","120","yes","1024"
"95.86776859504133","95.86776859504133","484.4793388429752","484.4793388429752","black","legacy","legacy","legacy","0","Congruent","uniform","1","undefined","1","h","0","0","0","120","120","0","120","120","0","0","0","120","120","120","120","0","Wed Sep 21 12:59:00 2022","600","The main experiment item","yes","FlankerTask.osexp","C:\Users\Austin\Documents","no","mono","no","18","no","white","no","yes","768","legacy","40","79","C:/Users/Austin/Documents/AH-subject-4.csv","legacy","Lentiform Loewenfeld","3.3.12","0","h","NA","s","NA","s","h","695","NA","5637","NA","58006","695","2","legacy","1024","2","48000","-16","experiment","HHHHH","4","even","11337","NA","220449","240808","250460","NA","293726","292525","5697","NA","162441","293833","294531","293720","293833","5686","Flanker Task","116","58622","121","yes","1024"
"95.90163934426229","95.90163934426229","484.2950819672131","484.2950819672131","black","legacy","legacy","legacy","0","Congruent","uniform","1","undefined","1","h","0","0","0","121","121","0","121","121","0","0","0","121","121","121","121","0","Wed Sep 21 12:59:00 2022","600","The main experiment item","yes","FlankerTask.osexp","C:\Users\Austin\Documents","no","mono","no","18","no","white","no","yes","768","legacy","41","79","C:/Users/Austin/Documents/AH-subject-4.csv","legacy","Lentiform Loewenfeld","3.3.12","0","h","NA","s","NA","s","h","462","NA","5637","NA","58006","462","2","legacy","1024","2","48000","-16","experiment","HHHHH","4","even","11337","NA","220449","240808","294542","NA","296249","295049","5697","NA","162441","296356","296822","296242","296356","5686","Flanker Task","117","59084","122","yes","1024"
