acc,accuracy,average_response_time,avg_rt,background,canvas_backend,clock_backend,color_backend,compensation,condition,coordinates,correct,correct_Instructions1,correct_KeyboardResponse,correct_response,count_Block1,count_Block2,count_Block3,count_ErrorFeedback,count_Faster,count_Finish,count_Fixation,count_ISI,count_Instructions1,count_Instructions2,count_Instructions3,count_KeyboardResponse,count_Logger,count_Sequence,count_experiment,count_stimulus,datetime,deadline,description,disable_garbage_collection,experiment_file,experiment_path,font_bold,font_family,font_italic,font_size,font_underline,foreground,form_clicks,fullscreen,height,keyboard_backend,live_row,live_row_Block1,logfile,mouse_backend,opensesame_codename,opensesame_version,repeat_cycle,response,response_Finish,response_Instructions1,response_Instructions2,response_Instructions3,response_KeyboardResponse,response_time,response_time_Finish,response_time_Instructions1,response_time_Instructions2,response_time_Instructions3,response_time_KeyboardResponse,round_decimals,sampler_backend,sound_buf_size,sound_channels,sound_freq,sound_sample_size,start,stimulus,subject_nr,subject_parity,time_Block1,time_Block2,time_Block3,time_ErrorFeedback,time_Faster,time_Finish,time_Fixation,time_ISI,time_Instructions1,time_Instructions2,time_Instructions3,time_KeyboardResponse,time_Logger,time_Sequence,time_experiment,time_stimulus,title,total_correct,total_response_time,total_responses,uniform_coordinates,width
100,100,455,455,black,legacy,legacy,legacy,0,Congruent,uniform,1,undefined,1,h,0,0,0,0,0,0,0,0,0,0,0,0,0,0,0,0,Tue Sep 13 19:02:30 2022,1500,The main experiment item,yes,Lab 2.1 FlankerTask.osexp,C:\Users\Melissa\OneDrive\Desktop\ADVANCED QUANT,no,mono,no,18,no,white,no,no,768,legacy,0,0,C:/Users/Melissa/OneDrive/Desktop/ADVANCED QUANT/MM-subject-3.csv,legacy,Lentiform Loewenfeld,3.3.12,0,h,NA,s,NA,NA,h,455,NA,22535,NA,NA,455,2,legacy,1024,2,48000,-16,experiment,HHHHH,3,odd,24497,NA,NA,NA,NA,NA,24572,NA,1960,NA,NA,24673,25129,24570,1958,24673,Flanker Task,1,455,1,yes,1024
100,100,427,427,black,legacy,legacy,legacy,0,Congruent,uniform,1,undefined,1,h,0,0,0,1,1,0,1,1,0,0,0,1,1,1,0,1,Tue Sep 13 19:02:30 2022,1500,The main experiment item,yes,Lab 2.1 FlankerTask.osexp,C:\Users\Melissa\OneDrive\Desktop\ADVANCED QUANT,no,mono,no,18,no,white,no,no,768,legacy,1,1,C:/Users/Melissa/OneDrive/Desktop/ADVANCED QUANT/MM-subject-3.csv,legacy,Lentiform Loewenfeld,3.3.12,0,h,NA,s,NA,NA,h,399,NA,22535,NA,NA,399,2,legacy,1024,2,48000,-16,experiment,HHHHH,3,odd,24497,NA,NA,NA,NA,NA,26250,25172,1960,NA,NA,26352,26751,26248,1958,26351,Flanker Task,2,854,2,yes,1024
100,100,434,434,black,legacy,legacy,legacy,0,Congruent,uniform,1,undefined,1,s,0,0,0,2,2,0,2,2,0,0,0,2,2,2,0,2,Tue Sep 13 19:02:30 2022,1500,The main experiment item,yes,Lab 2.1 FlankerTask.osexp,C:\Users\Melissa\OneDrive\Desktop\ADVANCED QUANT,no,mono,no,18,no,white,no,no,768,legacy,2,2,C:/Users/Melissa/OneDrive/Desktop/ADVANCED QUANT/MM-subject-3.csv,legacy,Lentiform Loewenfeld,3.3.12,0,s,NA,s,NA,NA,s,448,NA,22535,NA,NA,448,2,legacy,1024,2,48000,-16,experiment,SSSSS,3,odd,24497,NA,NA,NA,NA,NA,27878,26775,1960,NA,NA,27979,28428,27875,1958,27979,Flanker Task,3,1302,3,yes,1024
100,100,433.25,433.25,black,legacy,legacy,legacy,0,Congruent,uniform,1,undefined,1,s,0,0,0,3,3,0,3,3,0,0,0,3,3,3,0,3,Tue Sep 13 19:02:30 2022,1500,The main experiment item,yes,Lab 2.1 FlankerTask.osexp,C:\Users\Melissa\OneDrive\Desktop\ADVANCED QUANT,no,mono,no,18,no,white,no,no,768,legacy,3,3,C:/Users/Melissa/OneDrive/Desktop/ADVANCED QUANT/MM-subject-3.csv,legacy,Lentiform Loewenfeld,3.3.12,0,s,NA,s,NA,NA,s,431,NA,22535,NA,NA,431,2,legacy,1024,2,48000,-16,experiment,SSSSS,3,odd,24497,NA,NA,NA,NA,NA,29558,28466,1960,NA,NA,29660,30091,29556,1958,29659,Flanker Task,4,1733,4,yes,1024
100,100,425.4,425.4,black,legacy,legacy,legacy,0,Congruent,uniform,1,undefined,1,s,0,0,0,4,4,0,4,4,0,0,0,4,4,4,0,4,Tue Sep 13 19:02:30 2022,1500,The main experiment item,yes,Lab 2.1 FlankerTask.osexp,C:\Users\Melissa\OneDrive\Desktop\ADVANCED QUANT,no,mono,no,18,no,white,no,no,768,legacy,4,4,C:/Users/Melissa/OneDrive/Desktop/ADVANCED QUANT/MM-subject-3.csv,legacy,Lentiform Loewenfeld,3.3.12,0,s,NA,s,NA,NA,s,394,NA,22535,NA,NA,394,2,legacy,1024,2,48000,-16,experiment,SSSSS,3,odd,24497,NA,NA,NA,NA,NA,31189,30108,1960,NA,NA,31291,31685,31186,1958,31291,Flanker Task,5,2127,5,yes,1024
100,100,422.5,422.5,black,legacy,legacy,legacy,0,Incongruent,uniform,1,undefined,1,h,0,0,0,5,5,0,5,5,0,0,0,5,5,5,0,5,Tue Sep 13 19:02:30 2022,1500,The main experiment item,yes,Lab 2.1 FlankerTask.osexp,C:\Users\Melissa\OneDrive\Desktop\ADVANCED QUANT,no,mono,no,18,no,white,no,no,768,legacy,5,5,C:/Users/Melissa/OneDrive/Desktop/ADVANCED QUANT/MM-subject-3.csv,legacy,Lentiform Loewenfeld,3.3.12,0,h,NA,s,NA,NA,h,408,NA,22535,NA,NA,408,2,legacy,1024,2,48000,-16,experiment,SSHSS,3,odd,24497,NA,NA,NA,NA,NA,32786,31711,1960,NA,NA,32887,33295,32784,1958,32887,Flanker Task,6,2535,6,yes,1024
100,100,428.1428571,428.1428571,black,legacy,legacy,legacy,0,Incongruent,uniform,1,undefined,1,h,0,0,0,6,6,0,6,6,0,0,0,6,6,6,0,6,Tue Sep 13 19:02:30 2022,1500,The main experiment item,yes,Lab 2.1 FlankerTask.osexp,C:\Users\Melissa\OneDrive\Desktop\ADVANCED QUANT,no,mono,no,18,no,white,no,no,768,legacy,6,6,C:/Users/Melissa/OneDrive/Desktop/ADVANCED QUANT/MM-subject-3.csv,legacy,Lentiform Loewenfeld,3.3.12,0,h,NA,s,NA,NA,h,462,NA,22535,NA,NA,462,2,legacy,1024,2,48000,-16,experiment,SSHSS,3,odd,24497,NA,NA,NA,NA,NA,34391,33316,1960,NA,NA,34492,34954,34389,1958,34492,Flanker Task,7,2997,7,yes,1024
100,100,432,432,black,legacy,legacy,legacy,0,Congruent,uniform,1,undefined,1,s,0,0,0,7,7,0,7,7,0,0,0,7,7,7,0,7,Tue Sep 13 19:02:30 2022,1500,The main experiment item,yes,Lab 2.1 FlankerTask.osexp,C:\Users\Melissa\OneDrive\Desktop\ADVANCED QUANT,no,mono,no,18,no,white,no,no,768,legacy,7,7,C:/Users/Melissa/OneDrive/Desktop/ADVANCED QUANT/MM-subject-3.csv,legacy,Lentiform Loewenfeld,3.3.12,0,s,NA,s,NA,NA,s,459,NA,22535,NA,NA,459,2,legacy,1024,2,48000,-16,experiment,SSSSS,3,odd,24497,NA,NA,NA,NA,NA,36050,34974,1960,NA,NA,36151,36611,36048,1958,36151,Flanker Task,8,3456,8,yes,1024
100,100,427.8888889,427.8888889,black,legacy,legacy,legacy,0,Congruent,uniform,1,undefined,1,h,0,0,0,8,8,0,8,8,0,0,0,8,8,8,0,8,Tue Sep 13 19:02:30 2022,1500,The main experiment item,yes,Lab 2.1 FlankerTask.osexp,C:\Users\Melissa\OneDrive\Desktop\ADVANCED QUANT,no,mono,no,18,no,white,no,no,768,legacy,8,8,C:/Users/Melissa/OneDrive/Desktop/ADVANCED QUANT/MM-subject-3.csv,legacy,Lentiform Loewenfeld,3.3.12,0,h,NA,s,NA,NA,h,395,NA,22535,NA,NA,395,2,legacy,1024,2,48000,-16,experiment,HHHHH,3,odd,24497,NA,NA,NA,NA,NA,37742,36666,1960,NA,NA,37843,38238,37740,1958,37843,Flanker Task,9,3851,9,yes,1024
100,100,431,431,black,legacy,legacy,legacy,0,Incongruent,uniform,1,undefined,1,s,0,0,0,9,9,0,9,9,0,0,0,9,9,9,0,9,Tue Sep 13 19:02:30 2022,1500,The main experiment item,yes,Lab 2.1 FlankerTask.osexp,C:\Users\Melissa\OneDrive\Desktop\ADVANCED QUANT,no,mono,no,18,no,white,no,no,768,legacy,9,9,C:/Users/Melissa/OneDrive/Desktop/ADVANCED QUANT/MM-subject-3.csv,legacy,Lentiform Loewenfeld,3.3.12,0,s,NA,s,NA,NA,s,459,NA,22535,NA,NA,459,2,legacy,1024,2,48000,-16,experiment,HHSHH,3,odd,24497,NA,NA,NA,NA,NA,39331,38252,1960,NA,NA,39432,39892,39328,1958,39432,Flanker Task,10,4310,10,yes,1024
100,100,427.1818182,427.1818182,black,legacy,legacy,legacy,0,Congruent,uniform,1,undefined,1,h,0,0,0,10,10,0,10,10,0,0,0,10,10,10,0,10,Tue Sep 13 19:02:30 2022,1500,The main experiment item,yes,Lab 2.1 FlankerTask.osexp,C:\Users\Melissa\OneDrive\Desktop\ADVANCED QUANT,no,mono,no,18,no,white,no,no,768,legacy,10,10,C:/Users/Melissa/OneDrive/Desktop/ADVANCED QUANT/MM-subject-3.csv,legacy,Lentiform Loewenfeld,3.3.12,0,h,NA,s,NA,NA,h,389,NA,22535,NA,NA,389,2,legacy,1024,2,48000,-16,experiment,HHHHH,3,odd,24497,NA,NA,NA,NA,NA,40997,39914,1960,NA,NA,41098,41488,40995,1958,41098,Flanker Task,11,4699,11,yes,1024
100,100,431.0833333,431.0833333,black,legacy,legacy,legacy,0,Incongruent,uniform,1,undefined,1,h,0,0,0,11,11,0,11,11,0,0,0,11,11,11,0,11,Tue Sep 13 19:02:30 2022,1500,The main experiment item,yes,Lab 2.1 FlankerTask.osexp,C:\Users\Melissa\OneDrive\Desktop\ADVANCED QUANT,no,mono,no,18,no,white,no,no,768,legacy,11,11,C:/Users/Melissa/OneDrive/Desktop/ADVANCED QUANT/MM-subject-3.csv,legacy,Lentiform Loewenfeld,3.3.12,0,h,NA,s,NA,NA,h,474,NA,22535,NA,NA,474,2,legacy,1024,2,48000,-16,experiment,SSHSS,3,odd,24497,NA,NA,NA,NA,NA,42566,41494,1960,NA,NA,42667,43142,42564,1958,42667,Flanker Task,12,5173,12,yes,1024
100,100,433.2307692,433.2307692,black,legacy,legacy,legacy,0,Incongruent,uniform,1,undefined,1,s,0,0,0,12,12,0,12,12,0,0,0,12,12,12,0,12,Tue Sep 13 19:02:30 2022,1500,The main experiment item,yes,Lab 2.1 FlankerTask.osexp,C:\Users\Melissa\OneDrive\Desktop\ADVANCED QUANT,no,mono,no,18,no,white,no,no,768,legacy,12,12,C:/Users/Melissa/OneDrive/Desktop/ADVANCED QUANT/MM-subject-3.csv,legacy,Lentiform Loewenfeld,3.3.12,0,s,NA,s,NA,NA,s,459,NA,22535,NA,NA,459,2,legacy,1024,2,48000,-16,experiment,HHSHH,3,odd,24497,NA,NA,NA,NA,NA,44224,43152,1960,NA,NA,44326,44786,44222,1958,44326,Flanker Task,13,5632,13,yes,1024
100,100,427.3571429,427.3571429,black,legacy,legacy,legacy,0,Congruent,uniform,1,undefined,1,s,0,0,0,13,13,0,13,13,0,0,0,13,13,13,0,13,Tue Sep 13 19:02:30 2022,1500,The main experiment item,yes,Lab 2.1 FlankerTask.osexp,C:\Users\Melissa\OneDrive\Desktop\ADVANCED QUANT,no,mono,no,18,no,white,no,no,768,legacy,13,13,C:/Users/Melissa/OneDrive/Desktop/ADVANCED QUANT/MM-subject-3.csv,legacy,Lentiform Loewenfeld,3.3.12,0,s,NA,s,NA,NA,s,351,NA,22535,NA,NA,351,2,legacy,1024,2,48000,-16,experiment,SSSSS,3,odd,24497,NA,NA,NA,NA,NA,45890,44817,1960,NA,NA,45991,46343,45888,1958,45991,Flanker Task,14,5983,14,yes,1024
100,100,430.2666667,430.2666667,black,legacy,legacy,legacy,0,Incongruent,uniform,1,undefined,1,s,0,0,0,14,14,0,14,14,0,0,0,14,14,14,0,14,Tue Sep 13 19:02:30 2022,1500,The main experiment item,yes,Lab 2.1 FlankerTask.osexp,C:\Users\Melissa\OneDrive\Desktop\ADVANCED QUANT,no,mono,no,18,no,white,no,no,768,legacy,14,14,C:/Users/Melissa/OneDrive/Desktop/ADVANCED QUANT/MM-subject-3.csv,legacy,Lentiform Loewenfeld,3.3.12,0,s,NA,s,NA,NA,s,471,NA,22535,NA,NA,471,2,legacy,1024,2,48000,-16,experiment,HHSHH,3,odd,24497,NA,NA,NA,NA,NA,47427,46357,1960,NA,NA,47528,47999,47425,1958,47528,Flanker Task,15,6454,15,yes,1024
100,100,427.375,427.375,black,legacy,legacy,legacy,0,Incongruent,uniform,1,undefined,1,s,0,0,0,15,15,0,15,15,0,0,0,15,15,15,0,15,Tue Sep 13 19:02:30 2022,1500,The main experiment item,yes,Lab 2.1 FlankerTask.osexp,C:\Users\Melissa\OneDrive\Desktop\ADVANCED QUANT,no,mono,no,18,no,white,no,no,768,legacy,15,15,C:/Users/Melissa/OneDrive/Desktop/ADVANCED QUANT/MM-subject-3.csv,legacy,Lentiform Loewenfeld,3.3.12,0,s,NA,s,NA,NA,s,384,NA,22535,NA,NA,384,2,legacy,1024,2,48000,-16,experiment,HHSHH,3,odd,24497,NA,NA,NA,NA,NA,49086,48011,1960,NA,NA,49187,49572,49084,1958,49187,Flanker Task,16,6838,16,yes,1024
100,100,425.0588235,425.0588235,black,legacy,legacy,legacy,0,Congruent,uniform,1,undefined,1,s,0,0,0,16,16,0,16,16,0,0,0,16,16,16,0,16,Tue Sep 13 19:02:30 2022,1500,The main experiment item,yes,Lab 2.1 FlankerTask.osexp,C:\Users\Melissa\OneDrive\Desktop\ADVANCED QUANT,no,mono,no,18,no,white,no,no,768,legacy,16,16,C:/Users/Melissa/OneDrive/Desktop/ADVANCED QUANT/MM-subject-3.csv,legacy,Lentiform Loewenfeld,3.3.12,0,s,NA,s,NA,NA,s,388,NA,22535,NA,NA,388,2,legacy,1024,2,48000,-16,experiment,SSSSS,3,odd,24497,NA,NA,NA,NA,NA,50661,49586,1960,NA,NA,50762,51151,50659,1958,50762,Flanker Task,17,7226,17,yes,1024
100,100,422.1666667,422.1666667,black,legacy,legacy,legacy,0,Incongruent,uniform,1,undefined,1,s,0,0,0,17,17,0,17,17,0,0,0,17,17,17,0,17,Tue Sep 13 19:02:30 2022,1500,The main experiment item,yes,Lab 2.1 FlankerTask.osexp,C:\Users\Melissa\OneDrive\Desktop\ADVANCED QUANT,no,mono,no,18,no,white,no,no,768,legacy,17,17,C:/Users/Melissa/OneDrive/Desktop/ADVANCED QUANT/MM-subject-3.csv,legacy,Lentiform Loewenfeld,3.3.12,0,s,NA,s,NA,NA,s,373,NA,22535,NA,NA,373,2,legacy,1024,2,48000,-16,experiment,HHSHH,3,odd,24497,NA,NA,NA,NA,NA,52271,51174,1960,NA,NA,52373,52747,52269,1958,52373,Flanker Task,18,7599,18,yes,1024
100,100,422.3157895,422.3157895,black,legacy,legacy,legacy,0,Congruent,uniform,1,undefined,1,h,0,0,0,18,18,0,18,18,0,0,0,18,18,18,0,18,Tue Sep 13 19:02:30 2022,1500,The main experiment item,yes,Lab 2.1 FlankerTask.osexp,C:\Users\Melissa\OneDrive\Desktop\ADVANCED QUANT,no,mono,no,18,no,white,no,no,768,legacy,18,18,C:/Users/Melissa/OneDrive/Desktop/ADVANCED QUANT/MM-subject-3.csv,legacy,Lentiform Loewenfeld,3.3.12,0,h,NA,s,NA,NA,h,425,NA,22535,NA,NA,425,2,legacy,1024,2,48000,-16,experiment,HHHHH,3,odd,24497,NA,NA,NA,NA,NA,53835,52761,1960,NA,NA,53936,54362,53833,1958,53936,Flanker Task,19,8024,19,yes,1024
100,100,422.95,422.95,black,legacy,legacy,legacy,0,Incongruent,uniform,1,undefined,1,s,0,0,0,19,19,0,19,19,0,0,0,19,19,19,0,19,Tue Sep 13 19:02:30 2022,1500,The main experiment item,yes,Lab 2.1 FlankerTask.osexp,C:\Users\Melissa\OneDrive\Desktop\ADVANCED QUANT,no,mono,no,18,no,white,no,no,768,legacy,19,19,C:/Users/Melissa/OneDrive/Desktop/ADVANCED QUANT/MM-subject-3.csv,legacy,Lentiform Loewenfeld,3.3.12,0,s,NA,s,NA,NA,s,435,NA,22535,NA,NA,435,2,legacy,1024,2,48000,-16,experiment,HHSHH,3,odd,24497,NA,NA,NA,NA,NA,55453,54378,1960,NA,NA,55554,55990,55451,1958,55554,Flanker Task,20,8459,20,yes,1024
100,100,426.8095238,426.8095238,black,legacy,legacy,legacy,0,Congruent,uniform,1,undefined,1,h,0,0,0,20,20,0,20,20,0,0,0,20,20,20,0,20,Tue Sep 13 19:02:30 2022,1500,The main experiment item,yes,Lab 2.1 FlankerTask.osexp,C:\Users\Melissa\OneDrive\Desktop\ADVANCED QUANT,no,mono,no,18,no,white,no,no,768,legacy,20,20,C:/Users/Melissa/OneDrive/Desktop/ADVANCED QUANT/MM-subject-3.csv,legacy,Lentiform Loewenfeld,3.3.12,0,h,NA,s,NA,NA,h,504,NA,22535,NA,NA,504,2,legacy,1024,2,48000,-16,experiment,HHHHH,3,odd,24497,NA,NA,NA,NA,NA,57083,56007,1960,NA,NA,57184,57689,57081,1958,57184,Flanker Task,21,8963,21,yes,1024
100,100,429.6363636,429.6363636,black,legacy,legacy,legacy,0,Congruent,uniform,1,undefined,1,h,0,0,0,21,21,0,21,21,0,0,0,21,21,21,0,21,Tue Sep 13 19:02:30 2022,1500,The main experiment item,yes,Lab 2.1 FlankerTask.osexp,C:\Users\Melissa\OneDrive\Desktop\ADVANCED QUANT,no,mono,no,18,no,white,no,no,768,legacy,21,21,C:/Users/Melissa/OneDrive/Desktop/ADVANCED QUANT/MM-subject-3.csv,legacy,Lentiform Loewenfeld,3.3.12,0,h,NA,s,NA,NA,h,489,NA,22535,NA,NA,489,2,legacy,1024,2,48000,-16,experiment,HHHHH,3,odd,24497,NA,NA,NA,NA,NA,58761,57693,1960,NA,NA,58863,59353,58760,1958,58863,Flanker Task,22,9452,22,yes,1024
95.65217391,95.65217391,430.9565217,430.9565217,black,legacy,legacy,legacy,0,Incongruent,uniform,0,undefined,0,h,0,0,0,22,22,0,22,22,0,0,0,22,22,22,0,22,Tue Sep 13 19:02:30 2022,1500,The main experiment item,yes,Lab 2.1 FlankerTask.osexp,C:\Users\Melissa\OneDrive\Desktop\ADVANCED QUANT,no,mono,no,18,no,white,no,no,768,legacy,22,22,C:/Users/Melissa/OneDrive/Desktop/ADVANCED QUANT/MM-subject-3.csv,legacy,Lentiform Loewenfeld,3.3.12,0,s,NA,s,NA,NA,s,460,NA,22535,NA,NA,460,2,legacy,1024,2,48000,-16,experiment,SSHSS,3,odd,24497,NA,NA,NA,NA,NA,60445,59366,1960,NA,NA,60546,61007,60443,1958,60546,Flanker Task,22,9912,23,yes,1024
95.83333333,95.83333333,430.875,430.875,black,legacy,legacy,legacy,0,Incongruent,uniform,1,undefined,1,s,0,0,0,23,23,0,23,23,0,0,0,23,23,23,0,23,Tue Sep 13 19:02:30 2022,1500,The main experiment item,yes,Lab 2.1 FlankerTask.osexp,C:\Users\Melissa\OneDrive\Desktop\ADVANCED QUANT,no,mono,no,18,no,white,no,no,768,legacy,23,23,C:/Users/Melissa/OneDrive/Desktop/ADVANCED QUANT/MM-subject-3.csv,legacy,Lentiform Loewenfeld,3.3.12,0,s,NA,s,NA,NA,s,429,NA,22535,NA,NA,429,2,legacy,1024,2,48000,-16,experiment,HHSHH,3,odd,24497,NA,NA,61024,NA,NA,62601,61525,1960,NA,NA,62702,63132,62599,1958,62702,Flanker Task,23,10341,24,yes,1024
96,96,431.68,431.68,black,legacy,legacy,legacy,0,Incongruent,uniform,1,undefined,1,h,0,0,0,24,24,0,24,24,0,0,0,24,24,24,0,24,Tue Sep 13 19:02:30 2022,1500,The main experiment item,yes,Lab 2.1 FlankerTask.osexp,C:\Users\Melissa\OneDrive\Desktop\ADVANCED QUANT,no,mono,no,18,no,white,no,no,768,legacy,24,24,C:/Users/Melissa/OneDrive/Desktop/ADVANCED QUANT/MM-subject-3.csv,legacy,Lentiform Loewenfeld,3.3.12,0,h,NA,s,NA,NA,h,451,NA,22535,NA,NA,451,2,legacy,1024,2,48000,-16,experiment,SSHSS,3,odd,24497,NA,NA,61024,NA,NA,64226,63152,1960,NA,NA,64328,64779,64224,1958,64328,Flanker Task,24,10792,25,yes,1024
96.15384615,96.15384615,429.0384615,429.0384615,black,legacy,legacy,legacy,0,Incongruent,uniform,1,undefined,1,s,0,0,0,25,25,0,25,25,0,0,0,25,25,25,0,25,Tue Sep 13 19:02:30 2022,1500,The main experiment item,yes,Lab 2.1 FlankerTask.osexp,C:\Users\Melissa\OneDrive\Desktop\ADVANCED QUANT,no,mono,no,18,no,white,no,no,768,legacy,25,25,C:/Users/Melissa/OneDrive/Desktop/ADVANCED QUANT/MM-subject-3.csv,legacy,Lentiform Loewenfeld,3.3.12,0,s,NA,s,NA,NA,s,363,NA,22535,NA,NA,363,2,legacy,1024,2,48000,-16,experiment,HHSHH,3,odd,24497,NA,NA,61024,NA,NA,65851,64783,1960,NA,NA,65953,66316,65849,1958,65953,Flanker Task,25,11155,26,yes,1024
96.2962963,96.2962963,428.1111111,428.1111111,black,legacy,legacy,legacy,0,Congruent,uniform,1,undefined,1,s,0,0,0,26,26,0,26,26,0,0,0,26,26,26,0,26,Tue Sep 13 19:02:30 2022,1500,The main experiment item,yes,Lab 2.1 FlankerTask.osexp,C:\Users\Melissa\OneDrive\Desktop\ADVANCED QUANT,no,mono,no,18,no,white,no,no,768,legacy,26,26,C:/Users/Melissa/OneDrive/Desktop/ADVANCED QUANT/MM-subject-3.csv,legacy,Lentiform Loewenfeld,3.3.12,0,s,NA,s,NA,NA,s,404,NA,22535,NA,NA,404,2,legacy,1024,2,48000,-16,experiment,SSSSS,3,odd,24497,NA,NA,61024,NA,NA,67413,66323,1960,NA,NA,67514,67919,67410,1958,67514,Flanker Task,26,11559,27,yes,1024
96.42857143,96.42857143,428.3214286,428.3214286,black,legacy,legacy,legacy,0,Incongruent,uniform,1,undefined,1,h,0,0,0,27,27,0,27,27,0,0,0,27,27,27,0,27,Tue Sep 13 19:02:30 2022,1500,The main experiment item,yes,Lab 2.1 FlankerTask.osexp,C:\Users\Melissa\OneDrive\Desktop\ADVANCED QUANT,no,mono,no,18,no,white,no,no,768,legacy,27,27,C:/Users/Melissa/OneDrive/Desktop/ADVANCED QUANT/MM-subject-3.csv,legacy,Lentiform Loewenfeld,3.3.12,0,h,NA,s,NA,NA,h,434,NA,22535,NA,NA,434,2,legacy,1024,2,48000,-16,experiment,SSHSS,3,odd,24497,NA,NA,61024,NA,NA,69000,67922,1960,NA,NA,69101,69535,68998,1958,69101,Flanker Task,27,11993,28,yes,1024
96.55172414,96.55172414,429.0689655,429.0689655,black,legacy,legacy,legacy,0,Incongruent,uniform,1,undefined,1,h,0,0,0,28,28,0,28,28,0,0,0,28,28,28,0,28,Tue Sep 13 19:02:30 2022,1500,The main experiment item,yes,Lab 2.1 FlankerTask.osexp,C:\Users\Melissa\OneDrive\Desktop\ADVANCED QUANT,no,mono,no,18,no,white,no,no,768,legacy,28,28,C:/Users/Melissa/OneDrive/Desktop/ADVANCED QUANT/MM-subject-3.csv,legacy,Lentiform Loewenfeld,3.3.12,0,h,NA,s,NA,NA,h,450,NA,22535,NA,NA,450,2,legacy,1024,2,48000,-16,experiment,SSHSS,3,odd,24497,NA,NA,61024,NA,NA,70617,69542,1960,NA,NA,70720,71170,70614,1958,70719,Flanker Task,28,12443,29,yes,1024
96.66666667,96.66666667,430.4,430.4,black,legacy,legacy,legacy,0,Incongruent,uniform,1,undefined,1,h,0,0,0,29,29,0,29,29,0,0,0,29,29,29,0,29,Tue Sep 13 19:02:30 2022,1500,The main experiment item,yes,Lab 2.1 FlankerTask.osexp,C:\Users\Melissa\OneDrive\Desktop\ADVANCED QUANT,no,mono,no,18,no,white,no,no,768,legacy,29,29,C:/Users/Melissa/OneDrive/Desktop/ADVANCED QUANT/MM-subject-3.csv,legacy,Lentiform Loewenfeld,3.3.12,0,h,NA,s,NA,NA,h,469,NA,22535,NA,NA,469,2,legacy,1024,2,48000,-16,experiment,SSHSS,3,odd,24497,NA,NA,61024,NA,NA,72250,71180,1960,NA,NA,72351,72820,72247,1958,72351,Flanker Task,29,12912,30,yes,1024
96.77419355,96.77419355,430.8709677,430.8709677,black,legacy,legacy,legacy,0,Congruent,uniform,1,undefined,1,s,0,0,0,30,30,0,30,30,0,0,0,30,30,30,0,30,Tue Sep 13 19:02:30 2022,1500,The main experiment item,yes,Lab 2.1 FlankerTask.osexp,C:\Users\Melissa\OneDrive\Desktop\ADVANCED QUANT,no,mono,no,18,no,white,no,no,768,legacy,30,30,C:/Users/Melissa/OneDrive/Desktop/ADVANCED QUANT/MM-subject-3.csv,legacy,Lentiform Loewenfeld,3.3.12,0,s,NA,s,NA,NA,s,445,NA,22535,NA,NA,445,2,legacy,1024,2,48000,-16,experiment,SSSSS,3,odd,24497,NA,NA,61024,NA,NA,73910,72828,1960,NA,NA,74012,74458,73907,1958,74012,Flanker Task,30,13357,31,yes,1024
96.875,96.875,431.375,431.375,black,legacy,legacy,legacy,0,Congruent,uniform,1,undefined,1,h,0,0,0,31,31,0,31,31,0,0,0,31,31,31,0,31,Tue Sep 13 19:02:30 2022,1500,The main experiment item,yes,Lab 2.1 FlankerTask.osexp,C:\Users\Melissa\OneDrive\Desktop\ADVANCED QUANT,no,mono,no,18,no,white,no,no,768,legacy,31,31,C:/Users/Melissa/OneDrive/Desktop/ADVANCED QUANT/MM-subject-3.csv,legacy,Lentiform Loewenfeld,3.3.12,0,h,NA,s,NA,NA,h,447,NA,22535,NA,NA,447,2,legacy,1024,2,48000,-16,experiment,HHHHH,3,odd,24497,NA,NA,61024,NA,NA,75549,74466,1960,NA,NA,75652,76100,75547,1958,75652,Flanker Task,31,13804,32,yes,1024
96.96969697,96.96969697,433.6363636,433.6363636,black,legacy,legacy,legacy,0,Incongruent,uniform,1,undefined,1,s,0,0,0,32,32,0,32,32,0,0,0,32,32,32,0,32,Tue Sep 13 19:02:30 2022,1500,The main experiment item,yes,Lab 2.1 FlankerTask.osexp,C:\Users\Melissa\OneDrive\Desktop\ADVANCED QUANT,no,mono,no,18,no,white,no,no,768,legacy,32,32,C:/Users/Melissa/OneDrive/Desktop/ADVANCED QUANT/MM-subject-3.csv,legacy,Lentiform Loewenfeld,3.3.12,0,s,NA,s,NA,NA,s,506,NA,22535,NA,NA,506,2,legacy,1024,2,48000,-16,experiment,HHSHH,3,odd,24497,NA,NA,61024,NA,NA,77180,76110,1960,NA,NA,77282,77789,77177,1958,77282,Flanker Task,32,14310,33,yes,1024
97.05882353,97.05882353,435.8823529,435.8823529,black,legacy,legacy,legacy,0,Incongruent,uniform,1,undefined,1,s,0,0,0,33,33,0,33,33,0,0,0,33,33,33,0,33,Tue Sep 13 19:02:30 2022,1500,The main experiment item,yes,Lab 2.1 FlankerTask.osexp,C:\Users\Melissa\OneDrive\Desktop\ADVANCED QUANT,no,mono,no,18,no,white,no,no,768,legacy,33,33,C:/Users/Melissa/OneDrive/Desktop/ADVANCED QUANT/MM-subject-3.csv,legacy,Lentiform Loewenfeld,3.3.12,0,s,NA,s,NA,NA,s,510,NA,22535,NA,NA,510,2,legacy,1024,2,48000,-16,experiment,HHSHH,3,odd,24497,NA,NA,61024,NA,NA,78868,77794,1960,NA,NA,78969,79480,78866,1958,78969,Flanker Task,33,14820,34,yes,1024
97.14285714,97.14285714,433.2285714,433.2285714,black,legacy,legacy,legacy,0,Congruent,uniform,1,undefined,1,s,0,0,0,34,34,0,34,34,0,0,0,34,34,34,0,34,Tue Sep 13 19:02:30 2022,1500,The main experiment item,yes,Lab 2.1 FlankerTask.osexp,C:\Users\Melissa\OneDrive\Desktop\ADVANCED QUANT,no,mono,no,18,no,white,no,no,768,legacy,34,34,C:/Users/Melissa/OneDrive/Desktop/ADVANCED QUANT/MM-subject-3.csv,legacy,Lentiform Loewenfeld,3.3.12,0,s,NA,s,NA,NA,s,343,NA,22535,NA,NA,343,2,legacy,1024,2,48000,-16,experiment,SSSSS,3,odd,24497,NA,NA,61024,NA,NA,80601,79492,1960,NA,NA,80702,81046,80596,1958,80702,Flanker Task,34,15163,35,yes,1024
97.22222222,97.22222222,433.25,433.25,black,legacy,legacy,legacy,0,Congruent,uniform,1,undefined,1,h,0,0,0,35,35,0,35,35,0,0,0,35,35,35,0,35,Tue Sep 13 19:02:30 2022,1500,The main experiment item,yes,Lab 2.1 FlankerTask.osexp,C:\Users\Melissa\OneDrive\Desktop\ADVANCED QUANT,no,mono,no,18,no,white,no,no,768,legacy,35,35,C:/Users/Melissa/OneDrive/Desktop/ADVANCED QUANT/MM-subject-3.csv,legacy,Lentiform Loewenfeld,3.3.12,0,h,NA,s,NA,NA,h,434,NA,22535,NA,NA,434,2,legacy,1024,2,48000,-16,experiment,HHHHH,3,odd,24497,NA,NA,61024,NA,NA,82122,81054,1960,NA,NA,82224,82658,82120,1958,82224,Flanker Task,35,15597,36,yes,1024
97.2972973,97.2972973,434.4054054,434.4054054,black,legacy,legacy,legacy,0,Incongruent,uniform,1,undefined,1,h,0,0,0,36,36,0,36,36,0,0,0,36,36,36,0,36,Tue Sep 13 19:02:30 2022,1500,The main experiment item,yes,Lab 2.1 FlankerTask.osexp,C:\Users\Melissa\OneDrive\Desktop\ADVANCED QUANT,no,mono,no,18,no,white,no,no,768,legacy,36,36,C:/Users/Melissa/OneDrive/Desktop/ADVANCED QUANT/MM-subject-3.csv,legacy,Lentiform Loewenfeld,3.3.12,0,h,NA,s,NA,NA,h,476,NA,22535,NA,NA,476,2,legacy,1024,2,48000,-16,experiment,SSHSS,3,odd,24497,NA,NA,61024,NA,NA,83785,82667,1960,NA,NA,83888,84365,83783,1958,83887,Flanker Task,36,16073,37,yes,1024
97.36842105,97.36842105,438.8684211,438.8684211,black,legacy,legacy,legacy,0,Incongruent,uniform,1,undefined,1,s,0,0,0,37,37,0,37,37,0,0,0,37,37,37,0,37,Tue Sep 13 19:02:30 2022,1500,The main experiment item,yes,Lab 2.1 FlankerTask.osexp,C:\Users\Melissa\OneDrive\Desktop\ADVANCED QUANT,no,mono,no,18,no,white,no,no,768,legacy,37,37,C:/Users/Melissa/OneDrive/Desktop/ADVANCED QUANT/MM-subject-3.csv,legacy,Lentiform Loewenfeld,3.3.12,0,s,NA,s,NA,NA,s,604,NA,22535,NA,NA,604,2,legacy,1024,2,48000,-16,experiment,HHSHH,3,odd,24497,NA,NA,61024,NA,NA,85454,84372,1960,NA,NA,85556,86160,85452,1958,85556,Flanker Task,37,16677,38,yes,1024
97.43589744,97.43589744,437.8461538,437.8461538,black,legacy,legacy,legacy,0,Congruent,uniform,1,undefined,1,h,0,0,0,38,38,0,38,38,0,0,0,38,38,38,0,38,Tue Sep 13 19:02:30 2022,1500,The main experiment item,yes,Lab 2.1 FlankerTask.osexp,C:\Users\Melissa\OneDrive\Desktop\ADVANCED QUANT,no,mono,no,18,no,white,no,no,768,legacy,38,38,C:/Users/Melissa/OneDrive/Desktop/ADVANCED QUANT/MM-subject-3.csv,legacy,Lentiform Loewenfeld,3.3.12,0,h,NA,s,NA,NA,h,399,NA,22535,NA,NA,399,2,legacy,1024,2,48000,-16,experiment,HHHHH,3,odd,24497,NA,NA,61024,NA,NA,87245,86171,1960,NA,NA,87347,87747,87243,1958,87347,Flanker Task,38,17076,39,yes,1024
97.5,97.5,438.15,438.15,black,legacy,legacy,legacy,0,Incongruent,uniform,1,undefined,1,h,0,0,0,39,39,0,39,39,0,0,0,39,39,39,0,39,Tue Sep 13 19:02:30 2022,1500,The main experiment item,yes,Lab 2.1 FlankerTask.osexp,C:\Users\Melissa\OneDrive\Desktop\ADVANCED QUANT,no,mono,no,18,no,white,no,no,768,legacy,39,39,C:/Users/Melissa/OneDrive/Desktop/ADVANCED QUANT/MM-subject-3.csv,legacy,Lentiform Loewenfeld,3.3.12,0,h,NA,s,NA,NA,h,450,NA,22535,NA,NA,450,2,legacy,1024,2,48000,-16,experiment,SSHSS,3,odd,24497,NA,NA,61024,NA,NA,88840,87754,1960,NA,NA,88942,89392,88832,1958,88941,Flanker Task,39,17526,40,yes,1024
97.56097561,97.56097561,438.0487805,438.0487805,black,legacy,legacy,legacy,0,Incongruent,uniform,1,undefined,1,h,0,0,0,40,40,0,40,40,0,0,0,40,40,40,0,40,Tue Sep 13 19:02:30 2022,1500,The main experiment item,yes,Lab 2.1 FlankerTask.osexp,C:\Users\Melissa\OneDrive\Desktop\ADVANCED QUANT,no,mono,no,18,no,white,no,no,768,legacy,40,40,C:/Users/Melissa/OneDrive/Desktop/ADVANCED QUANT/MM-subject-3.csv,legacy,Lentiform Loewenfeld,3.3.12,0,h,NA,s,NA,NA,h,434,NA,22535,NA,NA,434,2,legacy,1024,2,48000,-16,experiment,SSHSS,3,odd,24497,NA,NA,61024,NA,NA,90490,89405,1960,NA,NA,90592,91027,90488,1958,90592,Flanker Task,40,17960,41,yes,1024
97.61904762,97.61904762,437.547619,437.547619,black,legacy,legacy,legacy,0,Congruent,uniform,1,undefined,1,s,0,0,0,41,41,0,41,41,0,0,0,41,41,41,0,41,Tue Sep 13 19:02:30 2022,1500,The main experiment item,yes,Lab 2.1 FlankerTask.osexp,C:\Users\Melissa\OneDrive\Desktop\ADVANCED QUANT,no,mono,no,18,no,white,no,no,768,legacy,41,41,C:/Users/Melissa/OneDrive/Desktop/ADVANCED QUANT/MM-subject-3.csv,legacy,Lentiform Loewenfeld,3.3.12,0,s,NA,s,NA,NA,s,417,NA,22535,NA,NA,417,2,legacy,1024,2,48000,-16,experiment,SSSSS,3,odd,24497,NA,NA,61024,NA,NA,92100,91032,1960,NA,NA,92201,92619,92098,1958,92201,Flanker Task,41,18377,42,yes,1024
97.6744186,97.6744186,437.7674419,437.7674419,black,legacy,legacy,legacy,0,Congruent,uniform,1,undefined,1,h,0,0,0,42,42,0,42,42,0,0,0,42,42,42,0,42,Tue Sep 13 19:02:30 2022,1500,The main experiment item,yes,Lab 2.1 FlankerTask.osexp,C:\Users\Melissa\OneDrive\Desktop\ADVANCED QUANT,no,mono,no,18,no,white,no,no,768,legacy,42,42,C:/Users/Melissa/OneDrive/Desktop/ADVANCED QUANT/MM-subject-3.csv,legacy,Lentiform Loewenfeld,3.3.12,0,h,NA,s,NA,NA,h,447,NA,22535,NA,NA,447,2,legacy,1024,2,48000,-16,experiment,HHHHH,3,odd,24497,NA,NA,61024,NA,NA,93719,92634,1960,NA,NA,93821,94269,93717,1958,93821,Flanker Task,42,18824,43,yes,1024
97.72727273,97.72727273,437.1818182,437.1818182,black,legacy,legacy,legacy,0,Congruent,uniform,1,undefined,1,s,0,0,0,43,43,0,43,43,0,0,0,43,43,43,0,43,Tue Sep 13 19:02:30 2022,1500,The main experiment item,yes,Lab 2.1 FlankerTask.osexp,C:\Users\Melissa\OneDrive\Desktop\ADVANCED QUANT,no,mono,no,18,no,white,no,no,768,legacy,43,43,C:/Users/Melissa/OneDrive/Desktop/ADVANCED QUANT/MM-subject-3.csv,legacy,Lentiform Loewenfeld,3.3.12,0,s,NA,s,NA,NA,s,412,NA,22535,NA,NA,412,2,legacy,1024,2,48000,-16,experiment,SSSSS,3,odd,24497,NA,NA,61024,NA,NA,95351,94281,1960,NA,NA,95453,95866,95349,1958,95453,Flanker Task,43,19236,44,yes,1024
97.77777778,97.77777778,436.3777778,436.3777778,black,legacy,legacy,legacy,0,Incongruent,uniform,1,undefined,1,s,0,0,0,44,44,0,44,44,0,0,0,44,44,44,0,44,Tue Sep 13 19:02:30 2022,1500,The main experiment item,yes,Lab 2.1 FlankerTask.osexp,C:\Users\Melissa\OneDrive\Desktop\ADVANCED QUANT,no,mono,no,18,no,white,no,no,768,legacy,44,44,C:/Users/Melissa/OneDrive/Desktop/ADVANCED QUANT/MM-subject-3.csv,legacy,Lentiform Loewenfeld,3.3.12,0,s,NA,s,NA,NA,s,401,NA,22535,NA,NA,401,2,legacy,1024,2,48000,-16,experiment,HHSHH,3,odd,24497,NA,NA,61024,NA,NA,96960,95877,1960,NA,NA,97061,97462,96957,1958,97061,Flanker Task,44,19637,45,yes,1024
97.82608696,97.82608696,436.5,436.5,black,legacy,legacy,legacy,0,Congruent,uniform,1,undefined,1,s,0,0,0,45,45,0,45,45,0,0,0,45,45,45,0,45,Tue Sep 13 19:02:30 2022,1500,The main experiment item,yes,Lab 2.1 FlankerTask.osexp,C:\Users\Melissa\OneDrive\Desktop\ADVANCED QUANT,no,mono,no,18,no,white,no,no,768,legacy,45,45,C:/Users/Melissa/OneDrive/Desktop/ADVANCED QUANT/MM-subject-3.csv,legacy,Lentiform Loewenfeld,3.3.12,0,s,NA,s,NA,NA,s,442,NA,22535,NA,NA,442,2,legacy,1024,2,48000,-16,experiment,SSSSS,3,odd,24497,NA,NA,61024,NA,NA,98564,97472,1960,NA,NA,98666,99108,98562,1958,98665,Flanker Task,45,20079,46,yes,1024
97.87234043,97.87234043,434.3404255,434.3404255,black,legacy,legacy,legacy,0,Congruent,uniform,1,undefined,1,h,0,0,0,46,46,0,46,46,0,0,0,46,46,46,0,46,Tue Sep 13 19:02:30 2022,1500,The main experiment item,yes,Lab 2.1 FlankerTask.osexp,C:\Users\Melissa\OneDrive\Desktop\ADVANCED QUANT,no,mono,no,18,no,white,no,no,768,legacy,46,46,C:/Users/Melissa/OneDrive/Desktop/ADVANCED QUANT/MM-subject-3.csv,legacy,Lentiform Loewenfeld,3.3.12,0,h,NA,s,NA,NA,h,335,NA,22535,NA,NA,335,2,legacy,1024,2,48000,-16,experiment,HHHHH,3,odd,24497,NA,NA,61024,NA,NA,100187,99115,1960,NA,NA,100289,100625,100185,1958,100289,Flanker Task,46,20414,47,yes,1024
97.91666667,97.91666667,433.5208333,433.5208333,black,legacy,legacy,legacy,0,Congruent,uniform,1,undefined,1,s,0,0,0,47,47,0,47,47,0,0,0,47,47,47,0,47,Tue Sep 13 19:02:30 2022,1500,The main experiment item,yes,Lab 2.1 FlankerTask.osexp,C:\Users\Melissa\OneDrive\Desktop\ADVANCED QUANT,no,mono,no,18,no,white,no,no,768,legacy,47,47,C:/Users/Melissa/OneDrive/Desktop/ADVANCED QUANT/MM-subject-3.csv,legacy,Lentiform Loewenfeld,3.3.12,0,s,NA,s,NA,NA,s,395,NA,22535,NA,NA,395,2,legacy,1024,2,48000,-16,experiment,SSSSS,3,odd,24497,NA,NA,61024,NA,NA,101716,100635,1960,NA,NA,101818,102214,101714,1958,101818,Flanker Task,47,20809,48,yes,1024
97.95918367,97.95918367,434.755102,434.755102,black,legacy,legacy,legacy,0,Incongruent,uniform,1,undefined,1,s,0,0,0,48,48,0,48,48,0,0,0,48,48,48,0,48,Tue Sep 13 19:02:30 2022,1500,The main experiment item,yes,Lab 2.1 FlankerTask.osexp,C:\Users\Melissa\OneDrive\Desktop\ADVANCED QUANT,no,mono,no,18,no,white,no,no,768,legacy,48,48,C:/Users/Melissa/OneDrive/Desktop/ADVANCED QUANT/MM-subject-3.csv,legacy,Lentiform Loewenfeld,3.3.12,0,s,NA,s,NA,NA,s,494,NA,22535,NA,NA,494,2,legacy,1024,2,48000,-16,experiment,HHSHH,3,odd,24497,NA,NA,61024,NA,NA,103292,102221,1960,NA,NA,103393,103888,103290,1958,103393,Flanker Task,48,21303,49,yes,1024
98,98,434.28,434.28,black,legacy,legacy,legacy,0,Incongruent,uniform,1,undefined,1,s,0,0,0,49,49,0,49,49,0,0,0,49,49,49,0,49,Tue Sep 13 19:02:30 2022,1500,The main experiment item,yes,Lab 2.1 FlankerTask.osexp,C:\Users\Melissa\OneDrive\Desktop\ADVANCED QUANT,no,mono,no,18,no,white,no,no,768,legacy,49,49,C:/Users/Melissa/OneDrive/Desktop/ADVANCED QUANT/MM-subject-3.csv,legacy,Lentiform Loewenfeld,3.3.12,0,s,NA,s,NA,NA,s,411,NA,22535,NA,NA,411,2,legacy,1024,2,48000,-16,experiment,HHSHH,3,odd,24497,NA,NA,61024,NA,NA,104968,103896,1960,NA,NA,105069,105481,104965,1958,105069,Flanker Task,49,21714,50,yes,1024
98.03921569,98.03921569,434.627451,434.627451,black,legacy,legacy,legacy,0,Incongruent,uniform,1,undefined,1,h,0,0,0,50,50,0,50,50,0,0,0,50,50,50,0,50,Tue Sep 13 19:02:30 2022,1500,The main experiment item,yes,Lab 2.1 FlankerTask.osexp,C:\Users\Melissa\OneDrive\Desktop\ADVANCED QUANT,no,mono,no,18,no,white,no,no,768,legacy,50,50,C:/Users/Melissa/OneDrive/Desktop/ADVANCED QUANT/MM-subject-3.csv,legacy,Lentiform Loewenfeld,3.3.12,0,h,NA,s,NA,NA,h,452,NA,22535,NA,NA,452,2,legacy,1024,2,48000,-16,experiment,SSHSS,3,odd,24497,NA,NA,61024,NA,NA,106565,105491,1960,NA,NA,106666,107119,106563,1958,106666,Flanker Task,50,22166,51,yes,1024
98.07692308,98.07692308,435.7115385,435.7115385,black,legacy,legacy,legacy,0,Incongruent,uniform,1,undefined,1,h,0,0,0,51,51,0,51,51,0,0,0,51,51,51,0,51,Tue Sep 13 19:02:30 2022,1500,The main experiment item,yes,Lab 2.1 FlankerTask.osexp,C:\Users\Melissa\OneDrive\Desktop\ADVANCED QUANT,no,mono,no,18,no,white,no,no,768,legacy,51,51,C:/Users/Melissa/OneDrive/Desktop/ADVANCED QUANT/MM-subject-3.csv,legacy,Lentiform Loewenfeld,3.3.12,0,h,NA,s,NA,NA,h,491,NA,22535,NA,NA,491,2,legacy,1024,2,48000,-16,experiment,SSHSS,3,odd,24497,NA,NA,61024,NA,NA,108215,107125,1960,NA,NA,108316,108807,108212,1958,108316,Flanker Task,51,22657,52,yes,1024
96.22641509,96.22641509,434.6981132,434.6981132,black,legacy,legacy,legacy,0,Incongruent,uniform,0,undefined,0,s,0,0,0,52,52,0,52,52,0,0,0,52,52,52,0,52,Tue Sep 13 19:02:30 2022,1500,The main experiment item,yes,Lab 2.1 FlankerTask.osexp,C:\Users\Melissa\OneDrive\Desktop\ADVANCED QUANT,no,mono,no,18,no,white,no,no,768,legacy,52,52,C:/Users/Melissa/OneDrive/Desktop/ADVANCED QUANT/MM-subject-3.csv,legacy,Lentiform Loewenfeld,3.3.12,0,h,NA,s,NA,NA,h,382,NA,22535,NA,NA,382,2,legacy,1024,2,48000,-16,experiment,HHSHH,3,odd,24497,NA,NA,61024,NA,NA,109894,108821,1960,NA,NA,109997,110380,109892,1958,109997,Flanker Task,51,23039,53,yes,1024
96.2962963,96.2962963,433.962963,433.962963,black,legacy,legacy,legacy,0,Congruent,uniform,1,undefined,1,h,0,0,0,53,53,0,53,53,0,0,0,53,53,53,0,53,Tue Sep 13 19:02:30 2022,1500,The main experiment item,yes,Lab 2.1 FlankerTask.osexp,C:\Users\Melissa\OneDrive\Desktop\ADVANCED QUANT,no,mono,no,18,no,white,no,no,768,legacy,53,53,C:/Users/Melissa/OneDrive/Desktop/ADVANCED QUANT/MM-subject-3.csv,legacy,Lentiform Loewenfeld,3.3.12,0,h,NA,s,NA,NA,h,395,NA,22535,NA,NA,395,2,legacy,1024,2,48000,-16,experiment,HHHHH,3,odd,24497,NA,NA,110385,NA,NA,111961,110887,1960,NA,NA,112062,112457,111958,1958,112062,Flanker Task,52,23434,54,yes,1024
96.36363636,96.36363636,434.4,434.4,black,legacy,legacy,legacy,0,Incongruent,uniform,1,undefined,1,h,0,0,0,54,54,0,54,54,0,0,0,54,54,54,0,54,Tue Sep 13 19:02:30 2022,1500,The main experiment item,yes,Lab 2.1 FlankerTask.osexp,C:\Users\Melissa\OneDrive\Desktop\ADVANCED QUANT,no,mono,no,18,no,white,no,no,768,legacy,54,54,C:/Users/Melissa/OneDrive/Desktop/ADVANCED QUANT/MM-subject-3.csv,legacy,Lentiform Loewenfeld,3.3.12,0,h,NA,s,NA,NA,h,458,NA,22535,NA,NA,458,2,legacy,1024,2,48000,-16,experiment,SSHSS,3,odd,24497,NA,NA,110385,NA,NA,113549,112472,1960,NA,NA,113650,114109,113546,1958,113650,Flanker Task,53,23892,55,yes,1024
96.42857143,96.42857143,433.6785714,433.6785714,black,legacy,legacy,legacy,0,Congruent,uniform,1,undefined,1,s,0,0,0,55,55,0,55,55,0,0,0,55,55,55,0,55,Tue Sep 13 19:02:30 2022,1500,The main experiment item,yes,Lab 2.1 FlankerTask.osexp,C:\Users\Melissa\OneDrive\Desktop\ADVANCED QUANT,no,mono,no,18,no,white,no,no,768,legacy,55,55,C:/Users/Melissa/OneDrive/Desktop/ADVANCED QUANT/MM-subject-3.csv,legacy,Lentiform Loewenfeld,3.3.12,0,s,NA,s,NA,NA,s,394,NA,22535,NA,NA,394,2,legacy,1024,2,48000,-16,experiment,SSSSS,3,odd,24497,NA,NA,110385,NA,NA,115183,114115,1960,NA,NA,115290,115684,115182,1958,115290,Flanker Task,54,24286,56,yes,1024
96.49122807,96.49122807,433.5263158,433.5263158,black,legacy,legacy,legacy,0,Congruent,uniform,1,undefined,1,s,0,0,0,56,56,0,56,56,0,0,0,56,56,56,0,56,Tue Sep 13 19:02:30 2022,1500,The main experiment item,yes,Lab 2.1 FlankerTask.osexp,C:\Users\Melissa\OneDrive\Desktop\ADVANCED QUANT,no,mono,no,18,no,white,no,no,768,legacy,56,56,C:/Users/Melissa/OneDrive/Desktop/ADVANCED QUANT/MM-subject-3.csv,legacy,Lentiform Loewenfeld,3.3.12,0,s,NA,s,NA,NA,s,425,NA,22535,NA,NA,425,2,legacy,1024,2,48000,-16,experiment,SSSSS,3,odd,24497,NA,NA,110385,NA,NA,116759,115691,1960,NA,NA,116860,117286,116756,1958,116860,Flanker Task,55,24711,57,yes,1024
96.55172414,96.55172414,434.637931,434.637931,black,legacy,legacy,legacy,0,Incongruent,uniform,1,undefined,1,h,0,0,0,57,57,0,57,57,0,0,0,57,57,57,0,57,Tue Sep 13 19:02:30 2022,1500,The main experiment item,yes,Lab 2.1 FlankerTask.osexp,C:\Users\Melissa\OneDrive\Desktop\ADVANCED QUANT,no,mono,no,18,no,white,no,no,768,legacy,57,57,C:/Users/Melissa/OneDrive/Desktop/ADVANCED QUANT/MM-subject-3.csv,legacy,Lentiform Loewenfeld,3.3.12,0,h,NA,s,NA,NA,h,498,NA,22535,NA,NA,498,2,legacy,1024,2,48000,-16,experiment,SSHSS,3,odd,24497,NA,NA,110385,NA,NA,118379,117293,1960,NA,NA,118480,118979,118377,1958,118480,Flanker Task,56,25209,58,yes,1024
96.61016949,96.61016949,437.1525424,437.1525424,black,legacy,legacy,legacy,0,Congruent,uniform,1,undefined,1,h,0,0,0,58,58,0,58,58,0,0,0,58,58,58,0,58,Tue Sep 13 19:02:30 2022,1500,The main experiment item,yes,Lab 2.1 FlankerTask.osexp,C:\Users\Melissa\OneDrive\Desktop\ADVANCED QUANT,no,mono,no,18,no,white,no,no,768,legacy,58,58,C:/Users/Melissa/OneDrive/Desktop/ADVANCED QUANT/MM-subject-3.csv,legacy,Lentiform Loewenfeld,3.3.12,0,h,NA,s,NA,NA,h,583,NA,22535,NA,NA,583,2,legacy,1024,2,48000,-16,experiment,HHHHH,3,odd,24497,NA,NA,110385,NA,NA,120057,118987,1960,NA,NA,120158,120742,120055,1958,120158,Flanker Task,57,25792,59,yes,1024
96.66666667,96.66666667,437.7166667,437.7166667,black,legacy,legacy,legacy,0,Congruent,uniform,1,undefined,1,h,0,0,0,59,59,0,59,59,0,0,0,59,59,59,0,59,Tue Sep 13 19:02:30 2022,1500,The main experiment item,yes,Lab 2.1 FlankerTask.osexp,C:\Users\Melissa\OneDrive\Desktop\ADVANCED QUANT,no,mono,no,18,no,white,no,no,768,legacy,59,59,C:/Users/Melissa/OneDrive/Desktop/ADVANCED QUANT/MM-subject-3.csv,legacy,Lentiform Loewenfeld,3.3.12,0,h,NA,s,NA,NA,h,471,NA,22535,NA,NA,471,2,legacy,1024,2,48000,-16,experiment,HHHHH,3,odd,24497,NA,NA,110385,NA,NA,121812,120746,1960,NA,NA,121913,122385,121810,1958,121913,Flanker Task,58,26263,60,yes,1024
96.72131148,96.72131148,437.9508197,437.9508197,black,legacy,legacy,legacy,0,Incongruent,uniform,1,undefined,1,h,0,0,0,60,60,0,60,60,0,0,0,60,60,60,0,60,Tue Sep 13 19:02:30 2022,1500,The main experiment item,yes,Lab 2.1 FlankerTask.osexp,C:\Users\Melissa\OneDrive\Desktop\ADVANCED QUANT,no,mono,no,18,no,white,no,no,768,legacy,60,60,C:/Users/Melissa/OneDrive/Desktop/ADVANCED QUANT/MM-subject-3.csv,legacy,Lentiform Loewenfeld,3.3.12,0,h,NA,s,NA,NA,h,452,NA,22535,NA,NA,452,2,legacy,1024,2,48000,-16,experiment,SSHSS,3,odd,24497,NA,NA,110385,NA,NA,123480,122400,1960,NA,NA,123581,124033,123478,1958,123581,Flanker Task,59,26715,61,yes,1024
96.77419355,96.77419355,440.8387097,440.8387097,black,legacy,legacy,legacy,0,Congruent,uniform,1,undefined,1,h,0,0,0,61,61,0,61,61,0,0,0,61,61,61,0,61,Tue Sep 13 19:02:30 2022,1500,The main experiment item,yes,Lab 2.1 FlankerTask.osexp,C:\Users\Melissa\OneDrive\Desktop\ADVANCED QUANT,no,mono,no,18,no,white,no,no,768,legacy,61,61,C:/Users/Melissa/OneDrive/Desktop/ADVANCED QUANT/MM-subject-3.csv,legacy,Lentiform Loewenfeld,3.3.12,0,h,NA,s,NA,NA,h,617,NA,22535,NA,NA,617,2,legacy,1024,2,48000,-16,experiment,HHHHH,3,odd,24497,NA,NA,110385,NA,NA,125104,124040,1960,NA,NA,125205,125822,125102,1958,125205,Flanker Task,60,27332,62,yes,1024
96.82539683,96.82539683,441.1904762,441.1904762,black,legacy,legacy,legacy,0,Congruent,uniform,1,undefined,1,s,0,0,0,62,62,0,62,62,0,0,0,62,62,62,0,62,Tue Sep 13 19:02:30 2022,1500,The main experiment item,yes,Lab 2.1 FlankerTask.osexp,C:\Users\Melissa\OneDrive\Desktop\ADVANCED QUANT,no,mono,no,18,no,white,no,no,768,legacy,62,62,C:/Users/Melissa/OneDrive/Desktop/ADVANCED QUANT/MM-subject-3.csv,legacy,Lentiform Loewenfeld,3.3.12,0,s,NA,s,NA,NA,s,463,NA,22535,NA,NA,463,2,legacy,1024,2,48000,-16,experiment,SSSSS,3,odd,24497,NA,NA,110385,NA,NA,126894,125829,1960,NA,NA,126995,127458,126892,1958,126995,Flanker Task,61,27795,63,yes,1024
96.875,96.875,442.109375,442.109375,black,legacy,legacy,legacy,0,Incongruent,uniform,1,undefined,1,s,0,0,0,63,63,0,63,63,0,0,0,63,63,63,0,63,Tue Sep 13 19:02:30 2022,1500,The main experiment item,yes,Lab 2.1 FlankerTask.osexp,C:\Users\Melissa\OneDrive\Desktop\ADVANCED QUANT,no,mono,no,18,no,white,no,no,768,legacy,63,63,C:/Users/Melissa/OneDrive/Desktop/ADVANCED QUANT/MM-subject-3.csv,legacy,Lentiform Loewenfeld,3.3.12,0,s,NA,s,NA,NA,s,500,NA,22535,NA,NA,500,2,legacy,1024,2,48000,-16,experiment,HHSHH,3,odd,24497,NA,NA,110385,NA,NA,128543,127462,1960,NA,NA,128644,129145,128541,1958,128644,Flanker Task,62,28295,64,yes,1024
96.92307692,96.92307692,443.5230769,443.5230769,black,legacy,legacy,legacy,0,Incongruent,uniform,1,undefined,1,s,0,0,0,64,64,0,64,64,0,0,0,64,64,64,0,64,Tue Sep 13 19:02:30 2022,1500,The main experiment item,yes,Lab 2.1 FlankerTask.osexp,C:\Users\Melissa\OneDrive\Desktop\ADVANCED QUANT,no,mono,no,18,no,white,no,no,768,legacy,64,64,C:/Users/Melissa/OneDrive/Desktop/ADVANCED QUANT/MM-subject-3.csv,legacy,Lentiform Loewenfeld,3.3.12,0,s,NA,s,NA,NA,s,534,NA,22535,NA,NA,534,2,legacy,1024,2,48000,-16,experiment,HHSHH,3,odd,24497,NA,NA,110385,NA,NA,130216,129151,1960,NA,NA,130317,130852,130214,1958,130317,Flanker Task,63,28829,65,yes,1024
96.96969697,96.96969697,443.8636364,443.8636364,black,legacy,legacy,legacy,0,Incongruent,uniform,1,undefined,1,s,0,0,0,65,65,0,65,65,0,0,0,65,65,65,0,65,Tue Sep 13 19:02:30 2022,1500,The main experiment item,yes,Lab 2.1 FlankerTask.osexp,C:\Users\Melissa\OneDrive\Desktop\ADVANCED QUANT,no,mono,no,18,no,white,no,no,768,legacy,65,65,C:/Users/Melissa/OneDrive/Desktop/ADVANCED QUANT/MM-subject-3.csv,legacy,Lentiform Loewenfeld,3.3.12,0,s,NA,s,NA,NA,s,466,NA,22535,NA,NA,466,2,legacy,1024,2,48000,-16,experiment,HHSHH,3,odd,24497,NA,NA,110385,NA,NA,131926,130860,1960,NA,NA,132027,132494,131924,1958,132027,Flanker Task,64,29295,66,yes,1024
97.01492537,97.01492537,446.6716418,446.6716418,black,legacy,legacy,legacy,0,Congruent,uniform,1,undefined,1,h,0,0,0,66,66,0,66,66,0,0,0,66,66,66,0,66,Tue Sep 13 19:02:30 2022,1500,The main experiment item,yes,Lab 2.1 FlankerTask.osexp,C:\Users\Melissa\OneDrive\Desktop\ADVANCED QUANT,no,mono,no,18,no,white,no,no,768,legacy,66,66,C:/Users/Melissa/OneDrive/Desktop/ADVANCED QUANT/MM-subject-3.csv,legacy,Lentiform Loewenfeld,3.3.12,0,h,NA,s,NA,NA,h,632,NA,22535,NA,NA,632,2,legacy,1024,2,48000,-16,experiment,HHHHH,3,odd,24497,NA,NA,110385,NA,NA,133575,132500,1960,NA,NA,133676,134308,133573,1958,133676,Flanker Task,65,29927,67,yes,1024
97.05882353,97.05882353,449.6323529,449.6323529,black,legacy,legacy,legacy,0,Congruent,uniform,1,undefined,1,s,0,0,0,67,67,0,67,67,0,0,0,67,67,67,0,67,Tue Sep 13 19:02:30 2022,1500,The main experiment item,yes,Lab 2.1 FlankerTask.osexp,C:\Users\Melissa\OneDrive\Desktop\ADVANCED QUANT,no,mono,no,18,no,white,no,no,768,legacy,67,67,C:/Users/Melissa/OneDrive/Desktop/ADVANCED QUANT/MM-subject-3.csv,legacy,Lentiform Loewenfeld,3.3.12,0,s,NA,s,NA,NA,s,648,NA,22535,NA,NA,648,2,legacy,1024,2,48000,-16,experiment,SSSSS,3,odd,24497,NA,NA,110385,NA,NA,135380,134314,1960,NA,NA,135481,136130,135378,1958,135481,Flanker Task,66,30575,68,yes,1024
97.10144928,97.10144928,449.8695652,449.8695652,black,legacy,legacy,legacy,0,Congruent,uniform,1,undefined,1,s,0,0,0,68,68,0,68,68,0,0,0,68,68,68,0,68,Tue Sep 13 19:02:30 2022,1500,The main experiment item,yes,Lab 2.1 FlankerTask.osexp,C:\Users\Melissa\OneDrive\Desktop\ADVANCED QUANT,no,mono,no,18,no,white,no,no,768,legacy,68,68,C:/Users/Melissa/OneDrive/Desktop/ADVANCED QUANT/MM-subject-3.csv,legacy,Lentiform Loewenfeld,3.3.12,0,s,NA,s,NA,NA,s,466,NA,22535,NA,NA,466,2,legacy,1024,2,48000,-16,experiment,SSSSS,3,odd,24497,NA,NA,110385,NA,NA,137206,136136,1960,NA,NA,137307,137774,137203,1958,137307,Flanker Task,67,31041,69,yes,1024
97.14285714,97.14285714,449.8428571,449.8428571,black,legacy,legacy,legacy,0,Incongruent,uniform,1,undefined,1,h,0,0,0,69,69,0,69,69,0,0,0,69,69,69,0,69,Tue Sep 13 19:02:30 2022,1500,The main experiment item,yes,Lab 2.1 FlankerTask.osexp,C:\Users\Melissa\OneDrive\Desktop\ADVANCED QUANT,no,mono,no,18,no,white,no,no,768,legacy,69,69,C:/Users/Melissa/OneDrive/Desktop/ADVANCED QUANT/MM-subject-3.csv,legacy,Lentiform Loewenfeld,3.3.12,0,h,NA,s,NA,NA,h,448,NA,22535,NA,NA,448,2,legacy,1024,2,48000,-16,experiment,SSHSS,3,odd,24497,NA,NA,110385,NA,NA,138856,137781,1960,NA,NA,138958,139407,138854,1958,138958,Flanker Task,68,31489,70,yes,1024
97.18309859,97.18309859,449.971831,449.971831,black,legacy,legacy,legacy,0,Incongruent,uniform,1,undefined,1,h,0,0,0,70,70,0,70,70,0,0,0,70,70,70,0,70,Tue Sep 13 19:02:30 2022,1500,The main experiment item,yes,Lab 2.1 FlankerTask.osexp,C:\Users\Melissa\OneDrive\Desktop\ADVANCED QUANT,no,mono,no,18,no,white,no,no,768,legacy,70,70,C:/Users/Melissa/OneDrive/Desktop/ADVANCED QUANT/MM-subject-3.csv,legacy,Lentiform Loewenfeld,3.3.12,0,h,NA,s,NA,NA,h,459,NA,22535,NA,NA,459,2,legacy,1024,2,48000,-16,experiment,SSHSS,3,odd,24497,NA,NA,110385,NA,NA,140481,139412,1960,NA,NA,140582,141042,140478,1958,140582,Flanker Task,69,31948,71,yes,1024
97.22222222,97.22222222,449.0555556,449.0555556,black,legacy,legacy,legacy,0,Congruent,uniform,1,undefined,1,h,0,0,0,71,71,0,71,71,0,0,0,71,71,71,0,71,Tue Sep 13 19:02:30 2022,1500,The main experiment item,yes,Lab 2.1 FlankerTask.osexp,C:\Users\Melissa\OneDrive\Desktop\ADVANCED QUANT,no,mono,no,18,no,white,no,no,768,legacy,71,71,C:/Users/Melissa/OneDrive/Desktop/ADVANCED QUANT/MM-subject-3.csv,legacy,Lentiform Loewenfeld,3.3.12,0,h,NA,s,NA,NA,h,384,NA,22535,NA,NA,384,2,legacy,1024,2,48000,-16,experiment,HHHHH,3,odd,24497,NA,NA,110385,NA,NA,142113,141045,1960,NA,NA,142214,142599,142111,1958,142214,Flanker Task,70,32332,72,yes,1024
97.26027397,97.26027397,450.109589,450.109589,black,legacy,legacy,legacy,0,Incongruent,uniform,1,undefined,1,h,0,0,0,72,72,0,72,72,0,0,0,72,72,72,0,72,Tue Sep 13 19:02:30 2022,1500,The main experiment item,yes,Lab 2.1 FlankerTask.osexp,C:\Users\Melissa\OneDrive\Desktop\ADVANCED QUANT,no,mono,no,18,no,white,no,no,768,legacy,72,72,C:/Users/Melissa/OneDrive/Desktop/ADVANCED QUANT/MM-subject-3.csv,legacy,Lentiform Loewenfeld,3.3.12,0,h,NA,s,NA,NA,h,526,NA,22535,NA,NA,526,2,legacy,1024,2,48000,-16,experiment,SSHSS,3,odd,24497,NA,NA,110385,NA,NA,143670,142602,1960,NA,NA,143771,144298,143668,1958,143771,Flanker Task,71,32858,73,yes,1024
97.2972973,97.2972973,450,450,black,legacy,legacy,legacy,0,Congruent,uniform,1,undefined,1,s,0,0,0,73,73,0,73,73,0,0,0,73,73,73,0,73,Tue Sep 13 19:02:30 2022,1500,The main experiment item,yes,Lab 2.1 FlankerTask.osexp,C:\Users\Melissa\OneDrive\Desktop\ADVANCED QUANT,no,mono,no,18,no,white,no,no,768,legacy,73,73,C:/Users/Melissa/OneDrive/Desktop/ADVANCED QUANT/MM-subject-3.csv,legacy,Lentiform Loewenfeld,3.3.12,0,s,NA,s,NA,NA,s,442,NA,22535,NA,NA,442,2,legacy,1024,2,48000,-16,experiment,SSSSS,3,odd,24497,NA,NA,110385,NA,NA,145370,144302,1960,NA,NA,145471,145914,145368,1958,145471,Flanker Task,72,33300,74,yes,1024
97.33333333,97.33333333,450.36,450.36,black,legacy,legacy,legacy,0,Congruent,uniform,1,undefined,1,s,0,0,0,74,74,0,74,74,0,0,0,74,74,74,0,74,Tue Sep 13 19:02:30 2022,1500,The main experiment item,yes,Lab 2.1 FlankerTask.osexp,C:\Users\Melissa\OneDrive\Desktop\ADVANCED QUANT,no,mono,no,18,no,white,no,no,768,legacy,74,74,C:/Users/Melissa/OneDrive/Desktop/ADVANCED QUANT/MM-subject-3.csv,legacy,Lentiform Loewenfeld,3.3.12,0,s,NA,s,NA,NA,s,477,NA,22535,NA,NA,477,2,legacy,1024,2,48000,-16,experiment,SSSSS,3,odd,24497,NA,NA,110385,NA,NA,146988,145922,1960,NA,NA,147089,147567,146986,1958,147089,Flanker Task,73,33777,75,yes,1024
97.36842105,97.36842105,449.9078947,449.9078947,black,legacy,legacy,legacy,0,Congruent,uniform,1,undefined,1,h,0,0,0,75,75,0,75,75,0,0,0,75,75,75,0,75,Tue Sep 13 19:02:30 2022,1500,The main experiment item,yes,Lab 2.1 FlankerTask.osexp,C:\Users\Melissa\OneDrive\Desktop\ADVANCED QUANT,no,mono,no,18,no,white,no,no,768,legacy,75,75,C:/Users/Melissa/OneDrive/Desktop/ADVANCED QUANT/MM-subject-3.csv,legacy,Lentiform Loewenfeld,3.3.12,0,h,NA,s,NA,NA,h,416,NA,22535,NA,NA,416,2,legacy,1024,2,48000,-16,experiment,HHHHH,3,odd,24497,NA,NA,110385,NA,NA,148639,147572,1960,NA,NA,148740,149157,148636,1958,148740,Flanker Task,74,34193,76,yes,1024
97.4025974,97.4025974,449.7532468,449.7532468,black,legacy,legacy,legacy,0,Incongruent,uniform,1,undefined,1,s,0,0,0,76,76,0,76,76,0,0,0,76,76,76,0,76,Tue Sep 13 19:02:30 2022,1500,The main experiment item,yes,Lab 2.1 FlankerTask.osexp,C:\Users\Melissa\OneDrive\Desktop\ADVANCED QUANT,no,mono,no,18,no,white,no,no,768,legacy,76,76,C:/Users/Melissa/OneDrive/Desktop/ADVANCED QUANT/MM-subject-3.csv,legacy,Lentiform Loewenfeld,3.3.12,0,s,NA,s,NA,NA,s,438,NA,22535,NA,NA,438,2,legacy,1024,2,48000,-16,experiment,HHSHH,3,odd,24497,NA,NA,110385,NA,NA,150230,149160,1960,NA,NA,150331,150770,150228,1958,150331,Flanker Task,75,34631,77,yes,1024
97.43589744,97.43589744,450.2820513,450.2820513,black,legacy,legacy,legacy,0,Incongruent,uniform,1,undefined,1,h,0,0,0,77,77,0,77,77,0,0,0,77,77,77,0,77,Tue Sep 13 19:02:30 2022,1500,The main experiment item,yes,Lab 2.1 FlankerTask.osexp,C:\Users\Melissa\OneDrive\Desktop\ADVANCED QUANT,no,mono,no,18,no,white,no,no,768,legacy,77,77,C:/Users/Melissa/OneDrive/Desktop/ADVANCED QUANT/MM-subject-3.csv,legacy,Lentiform Loewenfeld,3.3.12,0,h,NA,s,NA,NA,h,491,NA,22535,NA,NA,491,2,legacy,1024,2,48000,-16,experiment,SSHSS,3,odd,24497,NA,NA,110385,NA,NA,151853,150774,1960,NA,NA,151954,152446,151851,1958,151954,Flanker Task,76,35122,78,yes,1024
97.46835443,97.46835443,449.6455696,449.6455696,black,legacy,legacy,legacy,0,Incongruent,uniform,1,undefined,1,s,0,0,0,78,78,0,78,78,0,0,0,78,78,78,0,78,Tue Sep 13 19:02:30 2022,1500,The main experiment item,yes,Lab 2.1 FlankerTask.osexp,C:\Users\Melissa\OneDrive\Desktop\ADVANCED QUANT,no,mono,no,18,no,white,no,no,768,legacy,78,78,C:/Users/Melissa/OneDrive/Desktop/ADVANCED QUANT/MM-subject-3.csv,legacy,Lentiform Loewenfeld,3.3.12,0,s,NA,s,NA,NA,s,400,NA,22535,NA,NA,400,2,legacy,1024,2,48000,-16,experiment,HHSHH,3,odd,24497,NA,NA,110385,NA,NA,153514,152450,1960,NA,NA,153615,154016,153511,1958,153615,Flanker Task,77,35522,79,yes,1024
97.5,97.5,448.4375,448.4375,black,legacy,legacy,legacy,0,Congruent,uniform,1,undefined,1,h,0,0,0,79,79,0,79,79,0,0,0,79,79,79,0,79,Tue Sep 13 19:02:30 2022,1500,The main experiment item,yes,Lab 2.1 FlankerTask.osexp,C:\Users\Melissa\OneDrive\Desktop\ADVANCED QUANT,no,mono,no,18,no,white,no,no,768,legacy,79,79,C:/Users/Melissa/OneDrive/Desktop/ADVANCED QUANT/MM-subject-3.csv,legacy,Lentiform Loewenfeld,3.3.12,0,h,NA,s,NA,NA,h,353,NA,22535,NA,NA,353,2,legacy,1024,2,48000,-16,experiment,HHHHH,3,odd,24497,NA,NA,110385,NA,NA,155085,154020,1960,NA,NA,155186,155540,155083,1958,155186,Flanker Task,78,35875,80,yes,1024
97.5308642,97.5308642,447.8395062,447.8395062,black,legacy,legacy,legacy,0,Congruent,uniform,1,undefined,1,h,0,0,0,80,80,0,80,80,0,0,0,80,80,80,0,80,Tue Sep 13 19:02:30 2022,600,The main experiment item,yes,Lab 2.1 FlankerTask.osexp,C:\Users\Melissa\OneDrive\Desktop\ADVANCED QUANT,no,mono,no,18,no,white,no,no,768,legacy,0,79,C:/Users/Melissa/OneDrive/Desktop/ADVANCED QUANT/MM-subject-3.csv,legacy,Lentiform Loewenfeld,3.3.12,0,h,NA,s,h,NA,h,400,NA,22535,1794,NA,400,2,legacy,1024,2,48000,-16,experiment,HHHHH,3,odd,24497,158364,NA,110385,NA,NA,158413,155546,1960,156569,NA,158515,158916,158412,1958,158514,Flanker Task,79,36275,81,yes,1024
97.56097561,97.56097561,446.3292683,446.3292683,black,legacy,legacy,legacy,0,Congruent,uniform,1,undefined,1,s,0,0,0,81,81,0,81,81,0,0,0,81,81,81,0,81,Tue Sep 13 19:02:30 2022,600,The main experiment item,yes,Lab 2.1 FlankerTask.osexp,C:\Users\Melissa\OneDrive\Desktop\ADVANCED QUANT,no,mono,no,18,no,white,no,no,768,legacy,1,79,C:/Users/Melissa/OneDrive/Desktop/ADVANCED QUANT/MM-subject-3.csv,legacy,Lentiform Loewenfeld,3.3.12,0,s,NA,s,h,NA,s,324,NA,22535,1794,NA,324,2,legacy,1024,2,48000,-16,experiment,SSSSS,3,odd,24497,158364,NA,110385,NA,NA,160009,158923,1960,156569,NA,160110,160435,160006,1958,160110,Flanker Task,80,36599,82,yes,1024
97.59036145,97.59036145,446.373494,446.373494,black,legacy,legacy,legacy,0,Incongruent,uniform,1,undefined,1,s,0,0,0,82,82,0,82,82,0,0,0,82,82,82,0,82,Tue Sep 13 19:02:30 2022,600,The main experiment item,yes,Lab 2.1 FlankerTask.osexp,C:\Users\Melissa\OneDrive\Desktop\ADVANCED QUANT,no,mono,no,18,no,white,no,no,768,legacy,2,79,C:/Users/Melissa/OneDrive/Desktop/ADVANCED QUANT/MM-subject-3.csv,legacy,Lentiform Loewenfeld,3.3.12,0,s,NA,s,h,NA,s,450,NA,22535,1794,NA,450,2,legacy,1024,2,48000,-16,experiment,HHSHH,3,odd,24497,158364,NA,110385,NA,NA,161507,160440,1960,156569,NA,161608,162059,161505,1958,161608,Flanker Task,81,37049,83,yes,1024
96.42857143,96.42857143,445.5952381,445.5952381,black,legacy,legacy,legacy,0,Congruent,uniform,0,undefined,0,h,0,0,0,83,83,0,83,83,0,0,0,83,83,83,0,83,Tue Sep 13 19:02:30 2022,600,The main experiment item,yes,Lab 2.1 FlankerTask.osexp,C:\Users\Melissa\OneDrive\Desktop\ADVANCED QUANT,no,mono,no,18,no,white,no,no,768,legacy,3,79,C:/Users/Melissa/OneDrive/Desktop/ADVANCED QUANT/MM-subject-3.csv,legacy,Lentiform Loewenfeld,3.3.12,0,s,NA,s,h,NA,s,381,NA,22535,1794,NA,381,2,legacy,1024,2,48000,-16,experiment,HHHHH,3,odd,24497,158364,NA,110385,NA,NA,163130,162064,1960,156569,NA,163231,163612,163128,1958,163231,Flanker Task,81,37430,84,yes,1024
96.47058824,96.47058824,445.4117647,445.4117647,black,legacy,legacy,legacy,0,Congruent,uniform,1,undefined,1,h,0,0,0,84,84,0,84,84,0,0,0,84,84,84,0,84,Tue Sep 13 19:02:30 2022,600,The main experiment item,yes,Lab 2.1 FlankerTask.osexp,C:\Users\Melissa\OneDrive\Desktop\ADVANCED QUANT,no,mono,no,18,no,white,no,no,768,legacy,4,79,C:/Users/Melissa/OneDrive/Desktop/ADVANCED QUANT/MM-subject-3.csv,legacy,Lentiform Loewenfeld,3.3.12,0,h,NA,s,h,NA,h,430,NA,22535,1794,NA,430,2,legacy,1024,2,48000,-16,experiment,HHHHH,3,odd,24497,158364,NA,163617,NA,NA,165187,164118,1960,156569,NA,165288,165719,165184,1958,165288,Flanker Task,82,37860,85,yes,1024
96.51162791,96.51162791,444.5116279,444.5116279,black,legacy,legacy,legacy,0,Congruent,uniform,1,undefined,1,s,0,0,0,85,85,0,85,85,0,0,0,85,85,85,0,85,Tue Sep 13 19:02:30 2022,600,The main experiment item,yes,Lab 2.1 FlankerTask.osexp,C:\Users\Melissa\OneDrive\Desktop\ADVANCED QUANT,no,mono,no,18,no,white,no,no,768,legacy,5,79,C:/Users/Melissa/OneDrive/Desktop/ADVANCED QUANT/MM-subject-3.csv,legacy,Lentiform Loewenfeld,3.3.12,0,s,NA,s,h,NA,s,368,NA,22535,1794,NA,368,2,legacy,1024,2,48000,-16,experiment,SSSSS,3,odd,24497,158364,NA,163617,NA,NA,166792,165727,1960,156569,NA,166893,167262,166789,1958,166893,Flanker Task,83,38228,86,yes,1024
96.55172414,96.55172414,443.908046,443.908046,black,legacy,legacy,legacy,0,Congruent,uniform,1,undefined,1,s,0,0,0,86,86,0,86,86,0,0,0,86,86,86,0,86,Tue Sep 13 19:02:30 2022,600,The main experiment item,yes,Lab 2.1 FlankerTask.osexp,C:\Users\Melissa\OneDrive\Desktop\ADVANCED QUANT,no,mono,no,18,no,white,no,no,768,legacy,6,79,C:/Users/Melissa/OneDrive/Desktop/ADVANCED QUANT/MM-subject-3.csv,legacy,Lentiform Loewenfeld,3.3.12,0,s,NA,s,h,NA,s,392,NA,22535,1794,NA,392,2,legacy,1024,2,48000,-16,experiment,SSSSS,3,odd,24497,158364,NA,163617,NA,NA,168351,167271,1960,156569,NA,168452,168845,168349,1958,168452,Flanker Task,84,38620,87,yes,1024
96.59090909,96.59090909,443.3295455,443.3295455,black,legacy,legacy,legacy,0,Incongruent,uniform,1,undefined,1,s,0,0,0,87,87,0,87,87,0,0,0,87,87,87,0,87,Tue Sep 13 19:02:30 2022,600,The main experiment item,yes,Lab 2.1 FlankerTask.osexp,C:\Users\Melissa\OneDrive\Desktop\ADVANCED QUANT,no,mono,no,18,no,white,no,no,768,legacy,7,79,C:/Users/Melissa/OneDrive/Desktop/ADVANCED QUANT/MM-subject-3.csv,legacy,Lentiform Loewenfeld,3.3.12,0,s,NA,s,h,NA,s,393,NA,22535,1794,NA,393,2,legacy,1024,2,48000,-16,experiment,HHSHH,3,odd,24497,158364,NA,163617,NA,NA,169994,168886,1960,156569,NA,170095,170489,169990,1958,170095,Flanker Task,85,39013,88,yes,1024
96.62921348,96.62921348,444.8988764,444.8988764,black,legacy,legacy,legacy,0,Congruent,uniform,1,undefined,1,h,0,0,0,88,88,0,88,88,0,0,0,88,88,88,0,88,Tue Sep 13 19:02:30 2022,600,The main experiment item,yes,Lab 2.1 FlankerTask.osexp,C:\Users\Melissa\OneDrive\Desktop\ADVANCED QUANT,no,mono,no,18,no,white,no,no,768,legacy,8,79,C:/Users/Melissa/OneDrive/Desktop/ADVANCED QUANT/MM-subject-3.csv,legacy,Lentiform Loewenfeld,3.3.12,0,h,NA,s,h,NA,h,583,NA,22535,1794,NA,583,2,legacy,1024,2,48000,-16,experiment,HHHHH,3,odd,24497,158364,NA,163617,NA,NA,171572,170500,1960,156569,NA,171673,172257,171570,1958,171673,Flanker Task,86,39596,89,yes,1024
96.66666667,96.66666667,445.8222222,445.8222222,black,legacy,legacy,legacy,0,Congruent,uniform,1,undefined,1,s,0,0,0,89,89,0,89,89,0,0,0,89,89,89,0,89,Tue Sep 13 19:02:30 2022,600,The main experiment item,yes,Lab 2.1 FlankerTask.osexp,C:\Users\Melissa\OneDrive\Desktop\ADVANCED QUANT,no,mono,no,18,no,white,no,no,768,legacy,9,79,C:/Users/Melissa/OneDrive/Desktop/ADVANCED QUANT/MM-subject-3.csv,legacy,Lentiform Loewenfeld,3.3.12,0,s,NA,s,h,NA,s,528,NA,22535,1794,NA,528,2,legacy,1024,2,48000,-16,experiment,SSSSS,3,odd,24497,158364,NA,163617,NA,NA,173362,172264,1960,156569,NA,173463,173992,173358,1958,173463,Flanker Task,87,40124,90,yes,1024
96.7032967,96.7032967,447.3076923,447.3076923,black,legacy,legacy,legacy,0,Congruent,uniform,1,undefined,1,h,0,0,0,90,90,0,90,90,0,0,0,90,90,90,0,90,Tue Sep 13 19:02:30 2022,600,The main experiment item,yes,Lab 2.1 FlankerTask.osexp,C:\Users\Melissa\OneDrive\Desktop\ADVANCED QUANT,no,mono,no,18,no,white,no,no,768,legacy,10,79,C:/Users/Melissa/OneDrive/Desktop/ADVANCED QUANT/MM-subject-3.csv,legacy,Lentiform Loewenfeld,3.3.12,0,h,NA,s,h,NA,h,581,NA,22535,1794,NA,581,2,legacy,1024,2,48000,-16,experiment,HHHHH,3,odd,24497,158364,NA,163617,NA,NA,175089,173997,1960,156569,NA,175191,175773,175086,1958,175191,Flanker Task,88,40705,91,yes,1024
96.73913043,96.73913043,447.4891304,447.4891304,black,legacy,legacy,legacy,0,Incongruent,uniform,1,undefined,1,s,0,0,0,91,91,0,91,91,0,0,0,91,91,91,0,91,Tue Sep 13 19:02:30 2022,600,The main experiment item,yes,Lab 2.1 FlankerTask.osexp,C:\Users\Melissa\OneDrive\Desktop\ADVANCED QUANT,no,mono,no,18,no,white,no,no,768,legacy,11,79,C:/Users/Melissa/OneDrive/Desktop/ADVANCED QUANT/MM-subject-3.csv,legacy,Lentiform Loewenfeld,3.3.12,0,s,NA,s,h,NA,s,464,NA,22535,1794,NA,464,2,legacy,1024,2,48000,-16,experiment,HHSHH,3,odd,24497,158364,NA,163617,NA,NA,176855,175780,1960,156569,NA,176956,177421,176852,1958,176956,Flanker Task,89,41169,92,yes,1024
96.77419355,96.77419355,447.6451613,447.6451613,black,legacy,legacy,legacy,0,Incongruent,uniform,1,undefined,1,h,0,0,0,92,92,0,92,92,0,0,0,92,92,92,0,92,Tue Sep 13 19:02:30 2022,600,The main experiment item,yes,Lab 2.1 FlankerTask.osexp,C:\Users\Melissa\OneDrive\Desktop\ADVANCED QUANT,no,mono,no,18,no,white,no,no,768,legacy,12,79,C:/Users/Melissa/OneDrive/Desktop/ADVANCED QUANT/MM-subject-3.csv,legacy,Lentiform Loewenfeld,3.3.12,0,h,NA,s,h,NA,h,462,NA,22535,1794,NA,462,2,legacy,1024,2,48000,-16,experiment,SSHSS,3,odd,24497,158364,NA,163617,NA,NA,178500,177428,1960,156569,NA,178601,179064,178498,1958,178601,Flanker Task,90,41631,93,yes,1024
96.80851064,96.80851064,447.106383,447.106383,black,legacy,legacy,legacy,0,Congruent,uniform,1,undefined,1,h,0,0,0,93,93,0,93,93,0,0,0,93,93,93,0,93,Tue Sep 13 19:02:30 2022,600,The main experiment item,yes,Lab 2.1 FlankerTask.osexp,C:\Users\Melissa\OneDrive\Desktop\ADVANCED QUANT,no,mono,no,18,no,white,no,no,768,legacy,13,79,C:/Users/Melissa/OneDrive/Desktop/ADVANCED QUANT/MM-subject-3.csv,legacy,Lentiform Loewenfeld,3.3.12,0,h,NA,s,h,NA,h,397,NA,22535,1794,NA,397,2,legacy,1024,2,48000,-16,experiment,HHHHH,3,odd,24497,158364,NA,163617,NA,NA,180142,179072,1960,156569,NA,180243,180641,180140,1958,180243,Flanker Task,91,42028,94,yes,1024
96.84210526,96.84210526,449.5052632,449.5052632,black,legacy,legacy,legacy,0,Congruent,uniform,1,undefined,1,s,0,0,0,94,94,0,94,94,0,0,0,94,94,94,0,94,Tue Sep 13 19:02:30 2022,600,The main experiment item,yes,Lab 2.1 FlankerTask.osexp,C:\Users\Melissa\OneDrive\Desktop\ADVANCED QUANT,no,mono,no,18,no,white,no,no,768,legacy,14,79,C:/Users/Melissa/OneDrive/Desktop/ADVANCED QUANT/MM-subject-3.csv,legacy,Lentiform Loewenfeld,3.3.12,0,s,NA,s,h,NA,s,675,NA,22535,1794,NA,675,2,legacy,1024,2,48000,-16,experiment,SSSSS,3,odd,24497,158364,NA,163617,NA,NA,181713,180645,1960,156569,NA,181814,182490,181710,1958,181814,Flanker Task,92,42703,95,yes,1024
96.875,96.875,449.9479167,449.9479167,black,legacy,legacy,legacy,0,Incongruent,uniform,1,undefined,1,s,0,0,0,95,95,0,95,95,0,0,0,95,95,95,0,95,Tue Sep 13 19:02:30 2022,600,The main experiment item,yes,Lab 2.1 FlankerTask.osexp,C:\Users\Melissa\OneDrive\Desktop\ADVANCED QUANT,no,mono,no,18,no,white,no,no,768,legacy,15,79,C:/Users/Melissa/OneDrive/Desktop/ADVANCED QUANT/MM-subject-3.csv,legacy,Lentiform Loewenfeld,3.3.12,0,s,NA,s,h,NA,s,492,NA,22535,1794,NA,492,2,legacy,1024,2,48000,-16,experiment,HHSHH,3,odd,24497,158364,NA,163617,182494,NA,184061,182995,1960,156569,NA,184162,184655,184059,1958,184162,Flanker Task,93,43195,96,yes,1024
96.90721649,96.90721649,449.4948454,449.4948454,black,legacy,legacy,legacy,0,Congruent,uniform,1,undefined,1,s,0,0,0,96,96,0,96,96,0,0,0,96,96,96,0,96,Tue Sep 13 19:02:30 2022,600,The main experiment item,yes,Lab 2.1 FlankerTask.osexp,C:\Users\Melissa\OneDrive\Desktop\ADVANCED QUANT,no,mono,no,18,no,white,no,no,768,legacy,16,79,C:/Users/Melissa/OneDrive/Desktop/ADVANCED QUANT/MM-subject-3.csv,legacy,Lentiform Loewenfeld,3.3.12,0,s,NA,s,h,NA,s,406,NA,22535,1794,NA,406,2,legacy,1024,2,48000,-16,experiment,SSSSS,3,odd,24497,158364,NA,163617,182494,NA,185724,184662,1960,156569,NA,185826,186233,185722,1958,185825,Flanker Task,94,43601,97,yes,1024
96.93877551,96.93877551,450.7244898,450.7244898,black,legacy,legacy,legacy,0,Incongruent,uniform,1,undefined,1,h,0,0,0,97,97,0,97,97,0,0,0,97,97,97,0,97,Tue Sep 13 19:02:30 2022,600,The main experiment item,yes,Lab 2.1 FlankerTask.osexp,C:\Users\Melissa\OneDrive\Desktop\ADVANCED QUANT,no,mono,no,18,no,white,no,no,768,legacy,17,79,C:/Users/Melissa/OneDrive/Desktop/ADVANCED QUANT/MM-subject-3.csv,legacy,Lentiform Loewenfeld,3.3.12,0,h,NA,s,h,NA,h,570,NA,22535,1794,NA,570,2,legacy,1024,2,48000,-16,experiment,SSHSS,3,odd,24497,158364,NA,163617,182494,NA,187294,186236,1960,156569,NA,187401,187973,187292,1958,187401,Flanker Task,95,44171,98,yes,1024
96.96969697,96.96969697,450.7171717,450.7171717,black,legacy,legacy,legacy,0,Congruent,uniform,1,undefined,1,s,0,0,0,98,98,0,98,98,0,0,0,98,98,98,0,98,Tue Sep 13 19:02:30 2022,600,The main experiment item,yes,Lab 2.1 FlankerTask.osexp,C:\Users\Melissa\OneDrive\Desktop\ADVANCED QUANT,no,mono,no,18,no,white,no,no,768,legacy,18,79,C:/Users/Melissa/OneDrive/Desktop/ADVANCED QUANT/MM-subject-3.csv,legacy,Lentiform Loewenfeld,3.3.12,0,s,NA,s,h,NA,s,450,NA,22535,1794,NA,450,2,legacy,1024,2,48000,-16,experiment,SSSSS,3,odd,24497,158364,NA,163617,182494,NA,189047,187982,1960,156569,NA,189148,189599,189045,1958,189148,Flanker Task,96,44621,99,yes,1024
97,97,450.32,450.32,black,legacy,legacy,legacy,0,Congruent,uniform,1,undefined,1,s,0,0,0,99,99,0,99,99,0,0,0,99,99,99,0,99,Tue Sep 13 19:02:30 2022,600,The main experiment item,yes,Lab 2.1 FlankerTask.osexp,C:\Users\Melissa\OneDrive\Desktop\ADVANCED QUANT,no,mono,no,18,no,white,no,no,768,legacy,19,79,C:/Users/Melissa/OneDrive/Desktop/ADVANCED QUANT/MM-subject-3.csv,legacy,Lentiform Loewenfeld,3.3.12,0,s,NA,s,h,NA,s,411,NA,22535,1794,NA,411,2,legacy,1024,2,48000,-16,experiment,SSSSS,3,odd,24497,158364,NA,163617,182494,NA,190672,189610,1960,156569,NA,190773,191185,190670,1958,190773,Flanker Task,97,45032,100,yes,1024
97.02970297,97.02970297,450.6336634,450.6336634,black,legacy,legacy,legacy,0,Incongruent,uniform,1,undefined,1,s,0,0,0,100,100,0,100,100,0,0,0,100,100,100,0,100,Tue Sep 13 19:02:30 2022,600,The main experiment item,yes,Lab 2.1 FlankerTask.osexp,C:\Users\Melissa\OneDrive\Desktop\ADVANCED QUANT,no,mono,no,18,no,white,no,no,768,legacy,20,79,C:/Users/Melissa/OneDrive/Desktop/ADVANCED QUANT/MM-subject-3.csv,legacy,Lentiform Loewenfeld,3.3.12,0,s,NA,s,h,NA,s,482,NA,22535,1794,NA,482,2,legacy,1024,2,48000,-16,experiment,HHSHH,3,odd,24497,158364,NA,163617,182494,NA,192265,191195,1960,156569,NA,192366,192849,192263,1958,192366,Flanker Task,98,45514,101,yes,1024
97.05882353,97.05882353,451.3431373,451.3431373,black,legacy,legacy,legacy,0,Incongruent,uniform,1,undefined,1,h,0,0,0,101,101,0,101,101,0,0,0,101,101,101,0,101,Tue Sep 13 19:02:30 2022,600,The main experiment item,yes,Lab 2.1 FlankerTask.osexp,C:\Users\Melissa\OneDrive\Desktop\ADVANCED QUANT,no,mono,no,18,no,white,no,no,768,legacy,21,79,C:/Users/Melissa/OneDrive/Desktop/ADVANCED QUANT/MM-subject-3.csv,legacy,Lentiform Loewenfeld,3.3.12,0,h,NA,s,h,NA,h,523,NA,22535,1794,NA,523,2,legacy,1024,2,48000,-16,experiment,SSHSS,3,odd,24497,158364,NA,163617,182494,NA,193919,192852,1960,156569,NA,194020,194544,193917,1958,194020,Flanker Task,99,46037,102,yes,1024
97.08737864,97.08737864,450.8640777,450.8640777,black,legacy,legacy,legacy,0,Incongruent,uniform,1,undefined,1,h,0,0,0,102,102,0,102,102,0,0,0,102,102,102,0,102,Tue Sep 13 19:02:30 2022,600,The main experiment item,yes,Lab 2.1 FlankerTask.osexp,C:\Users\Melissa\OneDrive\Desktop\ADVANCED QUANT,no,mono,no,18,no,white,no,no,768,legacy,22,79,C:/Users/Melissa/OneDrive/Desktop/ADVANCED QUANT/MM-subject-3.csv,legacy,Lentiform Loewenfeld,3.3.12,0,h,NA,s,h,NA,h,402,NA,22535,1794,NA,402,2,legacy,1024,2,48000,-16,experiment,SSHSS,3,odd,24497,158364,NA,163617,182494,NA,195620,194548,1960,156569,NA,195722,196126,195617,1958,195721,Flanker Task,100,46439,103,yes,1024
97.11538462,97.11538462,450.1153846,450.1153846,black,legacy,legacy,legacy,0,Incongruent,uniform,1,undefined,1,s,0,0,0,103,103,0,103,103,0,0,0,103,103,103,0,103,Tue Sep 13 19:02:30 2022,600,The main experiment item,yes,Lab 2.1 FlankerTask.osexp,C:\Users\Melissa\OneDrive\Desktop\ADVANCED QUANT,no,mono,no,18,no,white,no,no,768,legacy,23,79,C:/Users/Melissa/OneDrive/Desktop/ADVANCED QUANT/MM-subject-3.csv,legacy,Lentiform Loewenfeld,3.3.12,0,s,NA,s,h,NA,s,373,NA,22535,1794,NA,373,2,legacy,1024,2,48000,-16,experiment,HHSHH,3,odd,24497,158364,NA,163617,182494,NA,197206,196133,1960,156569,NA,197307,197681,197203,1958,197307,Flanker Task,101,46812,104,yes,1024
97.14285714,97.14285714,449.952381,449.952381,black,legacy,legacy,legacy,0,Incongruent,uniform,1,undefined,1,s,0,0,0,104,104,0,104,104,0,0,0,104,104,104,0,104,Tue Sep 13 19:02:30 2022,600,The main experiment item,yes,Lab 2.1 FlankerTask.osexp,C:\Users\Melissa\OneDrive\Desktop\ADVANCED QUANT,no,mono,no,18,no,white,no,no,768,legacy,24,79,C:/Users/Melissa/OneDrive/Desktop/ADVANCED QUANT/MM-subject-3.csv,legacy,Lentiform Loewenfeld,3.3.12,0,s,NA,s,h,NA,s,433,NA,22535,1794,NA,433,2,legacy,1024,2,48000,-16,experiment,HHSHH,3,odd,24497,158364,NA,163617,182494,NA,198749,197687,1960,156569,NA,198850,199284,198747,1958,198850,Flanker Task,102,47245,105,yes,1024
97.16981132,97.16981132,450.4245283,450.4245283,black,legacy,legacy,legacy,0,Congruent,uniform,1,undefined,1,h,0,0,0,105,105,0,105,105,0,0,0,105,105,105,0,105,Tue Sep 13 19:02:30 2022,600,The main experiment item,yes,Lab 2.1 FlankerTask.osexp,C:\Users\Melissa\OneDrive\Desktop\ADVANCED QUANT,no,mono,no,18,no,white,no,no,768,legacy,25,79,C:/Users/Melissa/OneDrive/Desktop/ADVANCED QUANT/MM-subject-3.csv,legacy,Lentiform Loewenfeld,3.3.12,0,h,NA,s,h,NA,h,500,NA,22535,1794,NA,500,2,legacy,1024,2,48000,-16,experiment,HHHHH,3,odd,24497,158364,NA,163617,182494,NA,200368,199290,1960,156569,NA,200473,200974,200367,1958,200473,Flanker Task,103,47745,106,yes,1024
97.19626168,97.19626168,449.7102804,449.7102804,black,legacy,legacy,legacy,0,Congruent,uniform,1,undefined,1,h,0,0,0,106,106,0,106,106,0,0,0,106,106,106,0,106,Tue Sep 13 19:02:30 2022,600,The main experiment item,yes,Lab 2.1 FlankerTask.osexp,C:\Users\Melissa\OneDrive\Desktop\ADVANCED QUANT,no,mono,no,18,no,white,no,no,768,legacy,26,79,C:/Users/Melissa/OneDrive/Desktop/ADVANCED QUANT/MM-subject-3.csv,legacy,Lentiform Loewenfeld,3.3.12,0,h,NA,s,h,NA,h,374,NA,22535,1794,NA,374,2,legacy,1024,2,48000,-16,experiment,HHHHH,3,odd,24497,158364,NA,163617,182494,NA,202043,200981,1960,156569,NA,202148,202523,202041,1958,202147,Flanker Task,104,48119,107,yes,1024
97.22222222,97.22222222,450.4351852,450.4351852,black,legacy,legacy,legacy,0,Incongruent,uniform,1,undefined,1,h,0,0,0,107,107,0,107,107,0,0,0,107,107,107,0,107,Tue Sep 13 19:02:30 2022,600,The main experiment item,yes,Lab 2.1 FlankerTask.osexp,C:\Users\Melissa\OneDrive\Desktop\ADVANCED QUANT,no,mono,no,18,no,white,no,no,768,legacy,27,79,C:/Users/Melissa/OneDrive/Desktop/ADVANCED QUANT/MM-subject-3.csv,legacy,Lentiform Loewenfeld,3.3.12,0,h,NA,s,h,NA,h,528,NA,22535,1794,NA,528,2,legacy,1024,2,48000,-16,experiment,SSHSS,3,odd,24497,158364,NA,163617,182494,NA,203602,202526,1960,156569,NA,203704,204233,203600,1958,203703,Flanker Task,105,48647,108,yes,1024
97.24770642,97.24770642,450.5779817,450.5779817,black,legacy,legacy,legacy,0,Congruent,uniform,1,undefined,1,s,0,0,0,108,108,0,108,108,0,0,0,108,108,108,0,108,Tue Sep 13 19:02:30 2022,600,The main experiment item,yes,Lab 2.1 FlankerTask.osexp,C:\Users\Melissa\OneDrive\Desktop\ADVANCED QUANT,no,mono,no,18,no,white,no,no,768,legacy,28,79,C:/Users/Melissa/OneDrive/Desktop/ADVANCED QUANT/MM-subject-3.csv,legacy,Lentiform Loewenfeld,3.3.12,0,s,NA,s,h,NA,s,466,NA,22535,1794,NA,466,2,legacy,1024,2,48000,-16,experiment,SSSSS,3,odd,24497,158364,NA,163617,182494,NA,205315,204239,1960,156569,NA,205420,205887,205313,1958,205420,Flanker Task,106,49113,109,yes,1024
97.27272727,97.27272727,451.2272727,451.2272727,black,legacy,legacy,legacy,0,Incongruent,uniform,1,undefined,1,s,0,0,0,109,109,0,109,109,0,0,0,109,109,109,0,109,Tue Sep 13 19:02:30 2022,600,The main experiment item,yes,Lab 2.1 FlankerTask.osexp,C:\Users\Melissa\OneDrive\Desktop\ADVANCED QUANT,no,mono,no,18,no,white,no,no,768,legacy,29,79,C:/Users/Melissa/OneDrive/Desktop/ADVANCED QUANT/MM-subject-3.csv,legacy,Lentiform Loewenfeld,3.3.12,0,s,NA,s,h,NA,s,522,NA,22535,1794,NA,522,2,legacy,1024,2,48000,-16,experiment,HHSHH,3,odd,24497,158364,NA,163617,182494,NA,206971,205893,1960,156569,NA,207076,207599,206969,1958,207075,Flanker Task,107,49635,110,yes,1024
97.2972973,97.2972973,451.2072072,451.2072072,black,legacy,legacy,legacy,0,Congruent,uniform,1,undefined,1,h,0,0,0,110,110,0,110,110,0,0,0,110,110,110,0,110,Tue Sep 13 19:02:30 2022,600,The main experiment item,yes,Lab 2.1 FlankerTask.osexp,C:\Users\Melissa\OneDrive\Desktop\ADVANCED QUANT,no,mono,no,18,no,white,no,no,768,legacy,30,79,C:/Users/Melissa/OneDrive/Desktop/ADVANCED QUANT/MM-subject-3.csv,legacy,Lentiform Loewenfeld,3.3.12,0,h,NA,s,h,NA,h,449,NA,22535,1794,NA,449,2,legacy,1024,2,48000,-16,experiment,HHHHH,3,odd,24497,158364,NA,163617,182494,NA,208667,207605,1960,156569,NA,208773,209223,208665,1958,208772,Flanker Task,108,50084,111,yes,1024
97.32142857,97.32142857,452.8214286,452.8214286,black,legacy,legacy,legacy,0,Incongruent,uniform,1,undefined,1,h,0,0,0,111,111,0,111,111,0,0,0,111,111,111,0,111,Tue Sep 13 19:02:30 2022,600,The main experiment item,yes,Lab 2.1 FlankerTask.osexp,C:\Users\Melissa\OneDrive\Desktop\ADVANCED QUANT,no,mono,no,18,no,white,no,no,768,legacy,31,79,C:/Users/Melissa/OneDrive/Desktop/ADVANCED QUANT/MM-subject-3.csv,legacy,Lentiform Loewenfeld,3.3.12,0,h,NA,s,h,NA,h,632,NA,22535,1794,NA,632,2,legacy,1024,2,48000,-16,experiment,SSHSS,3,odd,24497,158364,NA,163617,182494,NA,210294,209232,1960,156569,NA,210395,211028,210292,1958,210395,Flanker Task,109,50716,112,yes,1024
97.34513274,97.34513274,452.9469027,452.9469027,black,legacy,legacy,legacy,0,Incongruent,uniform,1,undefined,1,s,0,0,0,112,112,0,112,112,0,0,0,112,112,112,0,112,Tue Sep 13 19:02:30 2022,600,The main experiment item,yes,Lab 2.1 FlankerTask.osexp,C:\Users\Melissa\OneDrive\Desktop\ADVANCED QUANT,no,mono,no,18,no,white,no,no,768,legacy,32,79,C:/Users/Melissa/OneDrive/Desktop/ADVANCED QUANT/MM-subject-3.csv,legacy,Lentiform Loewenfeld,3.3.12,0,s,NA,s,h,NA,s,467,NA,22535,1794,NA,467,2,legacy,1024,2,48000,-16,experiment,HHSHH,3,odd,24497,158364,NA,163617,211033,NA,212600,211534,1960,156569,NA,212702,213170,212597,1958,212702,Flanker Task,110,51183,113,yes,1024
97.36842105,97.36842105,453.377193,453.377193,black,legacy,legacy,legacy,0,Congruent,uniform,1,undefined,1,s,0,0,0,113,113,0,113,113,0,0,0,113,113,113,0,113,Tue Sep 13 19:02:30 2022,600,The main experiment item,yes,Lab 2.1 FlankerTask.osexp,C:\Users\Melissa\OneDrive\Desktop\ADVANCED QUANT,no,mono,no,18,no,white,no,no,768,legacy,33,79,C:/Users/Melissa/OneDrive/Desktop/ADVANCED QUANT/MM-subject-3.csv,legacy,Lentiform Loewenfeld,3.3.12,0,s,NA,s,h,NA,s,502,NA,22535,1794,NA,502,2,legacy,1024,2,48000,-16,experiment,SSSSS,3,odd,24497,158364,NA,163617,211033,NA,214242,213174,1960,156569,NA,214343,214846,214239,1958,214343,Flanker Task,111,51685,114,yes,1024
97.39130435,97.39130435,453.4086957,453.4086957,black,legacy,legacy,legacy,0,Incongruent,uniform,1,undefined,1,s,0,0,0,114,114,0,114,114,0,0,0,114,114,114,0,114,Tue Sep 13 19:02:30 2022,600,The main experiment item,yes,Lab 2.1 FlankerTask.osexp,C:\Users\Melissa\OneDrive\Desktop\ADVANCED QUANT,no,mono,no,18,no,white,no,no,768,legacy,34,79,C:/Users/Melissa/OneDrive/Desktop/ADVANCED QUANT/MM-subject-3.csv,legacy,Lentiform Loewenfeld,3.3.12,0,s,NA,s,h,NA,s,457,NA,22535,1794,NA,457,2,legacy,1024,2,48000,-16,experiment,HHSHH,3,odd,24497,158364,NA,163617,211033,NA,215933,214851,1960,156569,NA,216034,216492,215931,1958,216034,Flanker Task,112,52142,115,yes,1024
97.4137931,97.4137931,453.2241379,453.2241379,black,legacy,legacy,legacy,0,Incongruent,uniform,1,undefined,1,h,0,0,0,115,115,0,115,115,0,0,0,115,115,115,0,115,Tue Sep 13 19:02:30 2022,600,The main experiment item,yes,Lab 2.1 FlankerTask.osexp,C:\Users\Melissa\OneDrive\Desktop\ADVANCED QUANT,no,mono,no,18,no,white,no,no,768,legacy,35,79,C:/Users/Melissa/OneDrive/Desktop/ADVANCED QUANT/MM-subject-3.csv,legacy,Lentiform Loewenfeld,3.3.12,0,h,NA,s,h,NA,h,432,NA,22535,1794,NA,432,2,legacy,1024,2,48000,-16,experiment,SSHSS,3,odd,24497,158364,NA,163617,211033,NA,217561,216497,1960,156569,NA,217662,218095,217559,1958,217662,Flanker Task,113,52574,116,yes,1024
97.43589744,97.43589744,454.1623932,454.1623932,black,legacy,legacy,legacy,0,Congruent,uniform,1,undefined,1,h,0,0,0,116,116,0,116,116,0,0,0,116,116,116,0,116,Tue Sep 13 19:02:30 2022,600,The main experiment item,yes,Lab 2.1 FlankerTask.osexp,C:\Users\Melissa\OneDrive\Desktop\ADVANCED QUANT,no,mono,no,18,no,white,no,no,768,legacy,36,79,C:/Users/Melissa/OneDrive/Desktop/ADVANCED QUANT/MM-subject-3.csv,legacy,Lentiform Loewenfeld,3.3.12,0,h,NA,s,h,NA,h,563,NA,22535,1794,NA,563,2,legacy,1024,2,48000,-16,experiment,HHHHH,3,odd,24497,158364,NA,163617,211033,NA,219169,218100,1960,156569,NA,219270,219834,219166,1958,219270,Flanker Task,114,53137,117,yes,1024
97.45762712,97.45762712,453.2118644,453.2118644,black,legacy,legacy,legacy,0,Incongruent,uniform,1,undefined,1,s,0,0,0,117,117,0,117,117,0,0,0,117,117,117,0,117,Tue Sep 13 19:02:30 2022,600,The main experiment item,yes,Lab 2.1 FlankerTask.osexp,C:\Users\Melissa\OneDrive\Desktop\ADVANCED QUANT,no,mono,no,18,no,white,no,no,768,legacy,37,79,C:/Users/Melissa/OneDrive/Desktop/ADVANCED QUANT/MM-subject-3.csv,legacy,Lentiform Loewenfeld,3.3.12,0,s,NA,s,h,NA,s,342,NA,22535,1794,NA,342,2,legacy,1024,2,48000,-16,experiment,HHSHH,3,odd,24497,158364,NA,163617,211033,NA,220909,219841,1960,156569,NA,221010,221354,220906,1958,221010,Flanker Task,115,53479,118,yes,1024
97.4789916,97.4789916,453.1260504,453.1260504,black,legacy,legacy,legacy,0,Congruent,uniform,1,undefined,1,h,0,0,0,118,118,0,118,118,0,0,0,118,118,118,0,118,Tue Sep 13 19:02:30 2022,600,The main experiment item,yes,Lab 2.1 FlankerTask.osexp,C:\Users\Melissa\OneDrive\Desktop\ADVANCED QUANT,no,mono,no,18,no,white,no,no,768,legacy,38,79,C:/Users/Melissa/OneDrive/Desktop/ADVANCED QUANT/MM-subject-3.csv,legacy,Lentiform Loewenfeld,3.3.12,0,h,NA,s,h,NA,h,443,NA,22535,1794,NA,443,2,legacy,1024,2,48000,-16,experiment,HHHHH,3,odd,24497,158364,NA,163617,211033,NA,222428,221358,1960,156569,NA,222529,222973,222426,1958,222529,Flanker Task,116,53922,119,yes,1024
97.5,97.5,452.9666667,452.9666667,black,legacy,legacy,legacy,0,Incongruent,uniform,1,undefined,1,h,0,0,0,119,119,0,119,119,0,0,0,119,119,119,0,119,Tue Sep 13 19:02:30 2022,600,The main experiment item,yes,Lab 2.1 FlankerTask.osexp,C:\Users\Melissa\OneDrive\Desktop\ADVANCED QUANT,no,mono,no,18,no,white,no,no,768,legacy,39,79,C:/Users/Melissa/OneDrive/Desktop/ADVANCED QUANT/MM-subject-3.csv,legacy,Lentiform Loewenfeld,3.3.12,0,h,NA,s,h,NA,h,434,NA,22535,1794,NA,434,2,legacy,1024,2,48000,-16,experiment,SSHSS,3,odd,24497,158364,NA,163617,211033,NA,224052,222976,1960,156569,NA,224153,224588,224050,1958,224153,Flanker Task,117,54356,120,yes,1024
97.52066116,97.52066116,452.4132231,452.4132231,black,legacy,legacy,legacy,0,Incongruent,uniform,1,undefined,1,h,0,0,0,120,120,0,120,120,0,0,0,120,120,120,0,120,Tue Sep 13 19:02:30 2022,600,The main experiment item,yes,Lab 2.1 FlankerTask.osexp,C:\Users\Melissa\OneDrive\Desktop\ADVANCED QUANT,no,mono,no,18,no,white,no,no,768,legacy,40,79,C:/Users/Melissa/OneDrive/Desktop/ADVANCED QUANT/MM-subject-3.csv,legacy,Lentiform Loewenfeld,3.3.12,0,h,NA,s,h,NA,h,386,NA,22535,1794,NA,386,2,legacy,1024,2,48000,-16,experiment,SSHSS,3,odd,24497,158364,NA,163617,211033,NA,225659,224595,1960,156569,NA,225760,226147,225657,1958,225760,Flanker Task,118,54742,121,yes,1024
97.54098361,97.54098361,451.942623,451.942623,black,legacy,legacy,legacy,0,Congruent,uniform,1,undefined,1,s,0,0,0,121,121,0,121,121,0,0,0,121,121,121,0,121,Tue Sep 13 19:02:30 2022,600,The main experiment item,yes,Lab 2.1 FlankerTask.osexp,C:\Users\Melissa\OneDrive\Desktop\ADVANCED QUANT,no,mono,no,18,no,white,no,no,768,legacy,41,79,C:/Users/Melissa/OneDrive/Desktop/ADVANCED QUANT/MM-subject-3.csv,legacy,Lentiform Loewenfeld,3.3.12,0,s,NA,s,h,NA,s,395,NA,22535,1794,NA,395,2,legacy,1024,2,48000,-16,experiment,SSSSS,3,odd,24497,158364,NA,163617,211033,NA,227220,226153,1960,156569,NA,227321,227717,227218,1958,227321,Flanker Task,119,55137,122,yes,1024
97.56097561,97.56097561,451.7560976,451.7560976,black,legacy,legacy,legacy,0,Incongruent,uniform,1,undefined,1,s,0,0,0,122,122,0,122,122,0,0,0,122,122,122,0,122,Tue Sep 13 19:02:30 2022,600,The main experiment item,yes,Lab 2.1 FlankerTask.osexp,C:\Users\Melissa\OneDrive\Desktop\ADVANCED QUANT,no,mono,no,18,no,white,no,no,768,legacy,42,79,C:/Users/Melissa/OneDrive/Desktop/ADVANCED QUANT/MM-subject-3.csv,legacy,Lentiform Loewenfeld,3.3.12,0,s,NA,s,h,NA,s,429,NA,22535,1794,NA,429,2,legacy,1024,2,48000,-16,experiment,HHSHH,3,odd,24497,158364,NA,163617,211033,NA,228791,227725,1960,156569,NA,228893,229323,228789,1958,228893,Flanker Task,120,55566,123,yes,1024
97.58064516,97.58064516,451.4677419,451.4677419,black,legacy,legacy,legacy,0,Incongruent,uniform,1,undefined,1,h,0,0,0,123,123,0,123,123,0,0,0,123,123,123,0,123,Tue Sep 13 19:02:30 2022,600,The main experiment item,yes,Lab 2.1 FlankerTask.osexp,C:\Users\Melissa\OneDrive\Desktop\ADVANCED QUANT,no,mono,no,18,no,white,no,no,768,legacy,43,79,C:/Users/Melissa/OneDrive/Desktop/ADVANCED QUANT/MM-subject-3.csv,legacy,Lentiform Loewenfeld,3.3.12,0,h,NA,s,h,NA,h,416,NA,22535,1794,NA,416,2,legacy,1024,2,48000,-16,experiment,SSHSS,3,odd,24497,158364,NA,163617,211033,NA,230393,229331,1960,156569,NA,230494,230911,230391,1958,230494,Flanker Task,121,55982,124,yes,1024
97.6,97.6,451.352,451.352,black,legacy,legacy,legacy,0,Congruent,uniform,1,undefined,1,h,0,0,0,124,124,0,124,124,0,0,0,124,124,124,0,124,Tue Sep 13 19:02:30 2022,600,The main experiment item,yes,Lab 2.1 FlankerTask.osexp,C:\Users\Melissa\OneDrive\Desktop\ADVANCED QUANT,no,mono,no,18,no,white,no,no,768,legacy,44,79,C:/Users/Melissa/OneDrive/Desktop/ADVANCED QUANT/MM-subject-3.csv,legacy,Lentiform Loewenfeld,3.3.12,0,h,NA,s,h,NA,h,437,NA,22535,1794,NA,437,2,legacy,1024,2,48000,-16,experiment,HHHHH,3,odd,24497,158364,NA,163617,211033,NA,231986,230918,1960,156569,NA,232087,232525,231983,1958,232087,Flanker Task,122,56419,125,yes,1024
97.61904762,97.61904762,450.6269841,450.6269841,black,legacy,legacy,legacy,0,Congruent,uniform,1,undefined,1,h,0,0,0,125,125,0,125,125,0,0,0,125,125,125,0,125,Tue Sep 13 19:02:30 2022,600,The main experiment item,yes,Lab 2.1 FlankerTask.osexp,C:\Users\Melissa\OneDrive\Desktop\ADVANCED QUANT,no,mono,no,18,no,white,no,no,768,legacy,45,79,C:/Users/Melissa/OneDrive/Desktop/ADVANCED QUANT/MM-subject-3.csv,legacy,Lentiform Loewenfeld,3.3.12,0,h,NA,s,h,NA,h,360,NA,22535,1794,NA,360,2,legacy,1024,2,48000,-16,experiment,HHHHH,3,odd,24497,158364,NA,163617,211033,NA,233591,232529,1960,156569,NA,233692,234053,233589,1958,233692,Flanker Task,123,56779,126,yes,1024
96.8503937,96.8503937,449.7952756,449.7952756,black,legacy,legacy,legacy,0,Incongruent,uniform,0,undefined,0,h,0,0,0,126,126,0,126,126,0,0,0,126,126,126,0,126,Tue Sep 13 19:02:30 2022,600,The main experiment item,yes,Lab 2.1 FlankerTask.osexp,C:\Users\Melissa\OneDrive\Desktop\ADVANCED QUANT,no,mono,no,18,no,white,no,no,768,legacy,46,79,C:/Users/Melissa/OneDrive/Desktop/ADVANCED QUANT/MM-subject-3.csv,legacy,Lentiform Loewenfeld,3.3.12,0,s,NA,s,h,NA,s,345,NA,22535,1794,NA,345,2,legacy,1024,2,48000,-16,experiment,SSHSS,3,odd,24497,158364,NA,163617,211033,NA,235133,234061,1960,156569,NA,235234,235580,235131,1958,235234,Flanker Task,123,57124,127,yes,1024
96.875,96.875,449.2421875,449.2421875,black,legacy,legacy,legacy,0,Congruent,uniform,1,undefined,1,h,0,0,0,127,127,0,127,127,0,0,0,127,127,127,0,127,Tue Sep 13 19:02:30 2022,600,The main experiment item,yes,Lab 2.1 FlankerTask.osexp,C:\Users\Melissa\OneDrive\Desktop\ADVANCED QUANT,no,mono,no,18,no,white,no,no,768,legacy,47,79,C:/Users/Melissa/OneDrive/Desktop/ADVANCED QUANT/MM-subject-3.csv,legacy,Lentiform Loewenfeld,3.3.12,0,h,NA,s,h,NA,h,379,NA,22535,1794,NA,379,2,legacy,1024,2,48000,-16,experiment,HHHHH,3,odd,24497,158364,NA,235587,211033,NA,237174,236088,1960,156569,NA,237275,237655,237172,1958,237275,Flanker Task,124,57503,128,yes,1024
96.89922481,96.89922481,448.9612403,448.9612403,black,legacy,legacy,legacy,0,Congruent,uniform,1,undefined,1,s,0,0,0,128,128,0,128,128,0,0,0,128,128,128,0,128,Tue Sep 13 19:02:30 2022,600,The main experiment item,yes,Lab 2.1 FlankerTask.osexp,C:\Users\Melissa\OneDrive\Desktop\ADVANCED QUANT,no,mono,no,18,no,white,no,no,768,legacy,48,79,C:/Users/Melissa/OneDrive/Desktop/ADVANCED QUANT/MM-subject-3.csv,legacy,Lentiform Loewenfeld,3.3.12,0,s,NA,s,h,NA,s,413,NA,22535,1794,NA,413,2,legacy,1024,2,48000,-16,experiment,SSSSS,3,odd,24497,158364,NA,235587,211033,NA,238722,237659,1960,156569,NA,238823,239238,238720,1958,238823,Flanker Task,125,57916,129,yes,1024
96.92307692,96.92307692,448.5692308,448.5692308,black,legacy,legacy,legacy,0,Congruent,uniform,1,undefined,1,h,0,0,0,129,129,0,129,129,0,0,0,129,129,129,0,129,Tue Sep 13 19:02:30 2022,600,The main experiment item,yes,Lab 2.1 FlankerTask.osexp,C:\Users\Melissa\OneDrive\Desktop\ADVANCED QUANT,no,mono,no,18,no,white,no,no,768,legacy,49,79,C:/Users/Melissa/OneDrive/Desktop/ADVANCED QUANT/MM-subject-3.csv,legacy,Lentiform Loewenfeld,3.3.12,0,h,NA,s,h,NA,h,398,NA,22535,1794,NA,398,2,legacy,1024,2,48000,-16,experiment,HHHHH,3,odd,24497,158364,NA,235587,211033,NA,240331,239248,1960,156569,NA,240432,240831,240328,1958,240432,Flanker Task,126,58314,130,yes,1024
96.94656489,96.94656489,448.0916031,448.0916031,black,legacy,legacy,legacy,0,Congruent,uniform,1,undefined,1,s,0,0,0,130,130,0,130,130,0,0,0,130,130,130,0,130,Tue Sep 13 19:02:30 2022,600,The main experiment item,yes,Lab 2.1 FlankerTask.osexp,C:\Users\Melissa\OneDrive\Desktop\ADVANCED QUANT,no,mono,no,18,no,white,no,no,768,legacy,50,79,C:/Users/Melissa/OneDrive/Desktop/ADVANCED QUANT/MM-subject-3.csv,legacy,Lentiform Loewenfeld,3.3.12,0,s,NA,s,h,NA,s,386,NA,22535,1794,NA,386,2,legacy,1024,2,48000,-16,experiment,SSSSS,3,odd,24497,158364,NA,235587,211033,NA,241901,240834,1960,156569,NA,242002,242389,241899,1958,242002,Flanker Task,127,58700,131,yes,1024
96.96969697,96.96969697,447.9393939,447.9393939,black,legacy,legacy,legacy,0,Congruent,uniform,1,undefined,1,h,0,0,0,131,131,0,131,131,0,0,0,131,131,131,0,131,Tue Sep 13 19:02:30 2022,600,The main experiment item,yes,Lab 2.1 FlankerTask.osexp,C:\Users\Melissa\OneDrive\Desktop\ADVANCED QUANT,no,mono,no,18,no,white,no,no,768,legacy,51,79,C:/Users/Melissa/OneDrive/Desktop/ADVANCED QUANT/MM-subject-3.csv,legacy,Lentiform Loewenfeld,3.3.12,0,h,NA,s,h,NA,h,428,NA,22535,1794,NA,428,2,legacy,1024,2,48000,-16,experiment,HHHHH,3,odd,24497,158364,NA,235587,211033,NA,243455,242393,1960,156569,NA,243560,243989,243452,1958,243559,Flanker Task,128,59128,132,yes,1024
96.9924812,96.9924812,448.0451128,448.0451128,black,legacy,legacy,legacy,0,Incongruent,uniform,1,undefined,1,h,0,0,0,132,132,0,132,132,0,0,0,132,132,132,0,132,Tue Sep 13 19:02:30 2022,600,The main experiment item,yes,Lab 2.1 FlankerTask.osexp,C:\Users\Melissa\OneDrive\Desktop\ADVANCED QUANT,no,mono,no,18,no,white,no,no,768,legacy,52,79,C:/Users/Melissa/OneDrive/Desktop/ADVANCED QUANT/MM-subject-3.csv,legacy,Lentiform Loewenfeld,3.3.12,0,h,NA,s,h,NA,h,462,NA,22535,1794,NA,462,2,legacy,1024,2,48000,-16,experiment,SSHSS,3,odd,24497,158364,NA,235587,211033,NA,245050,243992,1960,156569,NA,245152,245615,245048,1958,245152,Flanker Task,129,59590,133,yes,1024
97.01492537,97.01492537,447.3880597,447.3880597,black,legacy,legacy,legacy,0,Congruent,uniform,1,undefined,1,h,0,0,0,133,133,0,133,133,0,0,0,133,133,133,0,133,Tue Sep 13 19:02:30 2022,600,The main experiment item,yes,Lab 2.1 FlankerTask.osexp,C:\Users\Melissa\OneDrive\Desktop\ADVANCED QUANT,no,mono,no,18,no,white,no,no,768,legacy,53,79,C:/Users/Melissa/OneDrive/Desktop/ADVANCED QUANT/MM-subject-3.csv,legacy,Lentiform Loewenfeld,3.3.12,0,h,NA,s,h,NA,h,360,NA,22535,1794,NA,360,2,legacy,1024,2,48000,-16,experiment,HHHHH,3,odd,24497,158364,NA,235587,211033,NA,246684,245621,1960,156569,NA,246788,247149,246683,1958,246788,Flanker Task,130,59950,134,yes,1024
97.03703704,97.03703704,447.6518519,447.6518519,black,legacy,legacy,legacy,0,Congruent,uniform,1,undefined,1,s,0,0,0,134,134,0,134,134,0,0,0,134,134,134,0,134,Tue Sep 13 19:02:30 2022,600,The main experiment item,yes,Lab 2.1 FlankerTask.osexp,C:\Users\Melissa\OneDrive\Desktop\ADVANCED QUANT,no,mono,no,18,no,white,no,no,768,legacy,54,79,C:/Users/Melissa/OneDrive/Desktop/ADVANCED QUANT/MM-subject-3.csv,legacy,Lentiform Loewenfeld,3.3.12,0,s,NA,s,h,NA,s,483,NA,22535,1794,NA,483,2,legacy,1024,2,48000,-16,experiment,SSSSS,3,odd,24497,158364,NA,235587,211033,NA,248214,247152,1960,156569,NA,248316,248801,248212,1958,248316,Flanker Task,131,60433,135,yes,1024
97.05882353,97.05882353,446.9264706,446.9264706,black,legacy,legacy,legacy,0,Congruent,uniform,1,undefined,1,s,0,0,0,135,135,0,135,135,0,0,0,135,135,135,0,135,Tue Sep 13 19:02:30 2022,600,The main experiment item,yes,Lab 2.1 FlankerTask.osexp,C:\Users\Melissa\OneDrive\Desktop\ADVANCED QUANT,no,mono,no,18,no,white,no,no,768,legacy,55,79,C:/Users/Melissa/OneDrive/Desktop/ADVANCED QUANT/MM-subject-3.csv,legacy,Lentiform Loewenfeld,3.3.12,0,s,NA,s,h,NA,s,349,NA,22535,1794,NA,349,2,legacy,1024,2,48000,-16,experiment,SSSSS,3,odd,24497,158364,NA,235587,211033,NA,249868,248807,1960,156569,NA,249973,250324,249866,1958,249972,Flanker Task,132,60782,136,yes,1024
97.08029197,97.08029197,446.0729927,446.0729927,black,legacy,legacy,legacy,0,Incongruent,uniform,1,undefined,1,s,0,0,0,136,136,0,136,136,0,0,0,136,136,136,0,136,Tue Sep 13 19:02:30 2022,600,The main experiment item,yes,Lab 2.1 FlankerTask.osexp,C:\Users\Melissa\OneDrive\Desktop\ADVANCED QUANT,no,mono,no,18,no,white,no,no,768,legacy,56,79,C:/Users/Melissa/OneDrive/Desktop/ADVANCED QUANT/MM-subject-3.csv,legacy,Lentiform Loewenfeld,3.3.12,0,s,NA,s,h,NA,s,330,NA,22535,1794,NA,330,2,legacy,1024,2,48000,-16,experiment,HHSHH,3,odd,24497,158364,NA,235587,211033,NA,251387,250327,1960,156569,NA,251490,251822,251385,1958,251490,Flanker Task,133,61112,137,yes,1024
97.10144928,97.10144928,446.0072464,446.0072464,black,legacy,legacy,legacy,0,Congruent,uniform,1,undefined,1,s,0,0,0,137,137,0,137,137,0,0,0,137,137,137,0,137,Tue Sep 13 19:02:30 2022,600,The main experiment item,yes,Lab 2.1 FlankerTask.osexp,C:\Users\Melissa\OneDrive\Desktop\ADVANCED QUANT,no,mono,no,18,no,white,no,no,768,legacy,57,79,C:/Users/Melissa/OneDrive/Desktop/ADVANCED QUANT/MM-subject-3.csv,legacy,Lentiform Loewenfeld,3.3.12,0,s,NA,s,h,NA,s,437,NA,22535,1794,NA,437,2,legacy,1024,2,48000,-16,experiment,SSSSS,3,odd,24497,158364,NA,235587,211033,NA,252888,251826,1960,156569,NA,252989,253428,252886,1958,252989,Flanker Task,134,61549,138,yes,1024
96.4028777,96.4028777,445.2877698,445.2877698,black,legacy,legacy,legacy,0,Incongruent,uniform,0,undefined,0,h,0,0,0,138,138,0,138,138,0,0,0,138,138,138,0,138,Tue Sep 13 19:02:30 2022,600,The main experiment item,yes,Lab 2.1 FlankerTask.osexp,C:\Users\Melissa\OneDrive\Desktop\ADVANCED QUANT,no,mono,no,18,no,white,no,no,768,legacy,58,79,C:/Users/Melissa/OneDrive/Desktop/ADVANCED QUANT/MM-subject-3.csv,legacy,Lentiform Loewenfeld,3.3.12,0,s,NA,s,h,NA,s,346,NA,22535,1794,NA,346,2,legacy,1024,2,48000,-16,experiment,SSHSS,3,odd,24497,158364,NA,235587,211033,NA,254494,253431,1960,156569,NA,254595,254942,254492,1958,254595,Flanker Task,134,61895,139,yes,1024
96.42857143,96.42857143,445.2071429,445.2071429,black,legacy,legacy,legacy,0,Incongruent,uniform,1,undefined,1,h,0,0,0,139,139,0,139,139,0,0,0,139,139,139,0,139,Tue Sep 13 19:02:30 2022,600,The main experiment item,yes,Lab 2.1 FlankerTask.osexp,C:\Users\Melissa\OneDrive\Desktop\ADVANCED QUANT,no,mono,no,18,no,white,no,no,768,legacy,59,79,C:/Users/Melissa/OneDrive/Desktop/ADVANCED QUANT/MM-subject-3.csv,legacy,Lentiform Loewenfeld,3.3.12,0,h,NA,s,h,NA,h,434,NA,22535,1794,NA,434,2,legacy,1024,2,48000,-16,experiment,SSHSS,3,odd,24497,158364,NA,254947,211033,NA,256510,255448,1960,156569,NA,256611,257046,256508,1958,256611,Flanker Task,135,62329,140,yes,1024
95.74468085,95.74468085,444.5531915,444.5531915,black,legacy,legacy,legacy,0,Incongruent,uniform,0,undefined,0,s,0,0,0,140,140,0,140,140,0,0,0,140,140,140,0,140,Tue Sep 13 19:02:30 2022,600,The main experiment item,yes,Lab 2.1 FlankerTask.osexp,C:\Users\Melissa\OneDrive\Desktop\ADVANCED QUANT,no,mono,no,18,no,white,no,no,768,legacy,60,79,C:/Users/Melissa/OneDrive/Desktop/ADVANCED QUANT/MM-subject-3.csv,legacy,Lentiform Loewenfeld,3.3.12,0,h,NA,s,h,NA,h,353,NA,22535,1794,NA,353,2,legacy,1024,2,48000,-16,experiment,HHSHH,3,odd,24497,158364,NA,254947,211033,NA,258110,257051,1960,156569,NA,258211,258565,258109,1958,258211,Flanker Task,135,62682,141,yes,1024
95.77464789,95.77464789,444.6619718,444.6619718,black,legacy,legacy,legacy,0,Incongruent,uniform,1,undefined,1,s,0,0,0,141,141,0,141,141,0,0,0,141,141,141,0,141,Tue Sep 13 19:02:30 2022,600,The main experiment item,yes,Lab 2.1 FlankerTask.osexp,C:\Users\Melissa\OneDrive\Desktop\ADVANCED QUANT,no,mono,no,18,no,white,no,no,768,legacy,61,79,C:/Users/Melissa/OneDrive/Desktop/ADVANCED QUANT/MM-subject-3.csv,legacy,Lentiform Loewenfeld,3.3.12,0,s,NA,s,h,NA,s,460,NA,22535,1794,NA,460,2,legacy,1024,2,48000,-16,experiment,HHSHH,3,odd,24497,158364,NA,258569,211033,NA,260165,259070,1960,156569,NA,260270,260732,260162,1958,260269,Flanker Task,136,63142,142,yes,1024
95.8041958,95.8041958,444.6853147,444.6853147,black,legacy,legacy,legacy,0,Incongruent,uniform,1,undefined,1,h,0,0,0,142,142,0,142,142,0,0,0,142,142,142,0,142,Tue Sep 13 19:02:30 2022,600,The main experiment item,yes,Lab 2.1 FlankerTask.osexp,C:\Users\Melissa\OneDrive\Desktop\ADVANCED QUANT,no,mono,no,18,no,white,no,no,768,legacy,62,79,C:/Users/Melissa/OneDrive/Desktop/ADVANCED QUANT/MM-subject-3.csv,legacy,Lentiform Loewenfeld,3.3.12,0,h,NA,s,h,NA,h,448,NA,22535,1794,NA,448,2,legacy,1024,2,48000,-16,experiment,SSHSS,3,odd,24497,158364,NA,258569,211033,NA,261815,260736,1960,156569,NA,261916,262365,261814,1958,261916,Flanker Task,137,63590,143,yes,1024
95.83333333,95.83333333,444.3958333,444.3958333,black,legacy,legacy,legacy,0,Incongruent,uniform,1,undefined,1,h,0,0,0,143,143,0,143,143,0,0,0,143,143,143,0,143,Tue Sep 13 19:02:30 2022,600,The main experiment item,yes,Lab 2.1 FlankerTask.osexp,C:\Users\Melissa\OneDrive\Desktop\ADVANCED QUANT,no,mono,no,18,no,white,no,no,768,legacy,63,79,C:/Users/Melissa/OneDrive/Desktop/ADVANCED QUANT/MM-subject-3.csv,legacy,Lentiform Loewenfeld,3.3.12,0,h,NA,s,h,NA,h,403,NA,22535,1794,NA,403,2,legacy,1024,2,48000,-16,experiment,SSHSS,3,odd,24497,158364,NA,258569,211033,NA,263430,262369,1960,156569,NA,263535,263939,263428,1958,263535,Flanker Task,138,63993,144,yes,1024
95.86206897,95.86206897,444.7862069,444.7862069,black,legacy,legacy,legacy,0,Incongruent,uniform,1,undefined,1,h,0,0,0,144,144,0,144,144,0,0,0,144,144,144,0,144,Tue Sep 13 19:02:30 2022,600,The main experiment item,yes,Lab 2.1 FlankerTask.osexp,C:\Users\Melissa\OneDrive\Desktop\ADVANCED QUANT,no,mono,no,18,no,white,no,no,768,legacy,64,79,C:/Users/Melissa/OneDrive/Desktop/ADVANCED QUANT/MM-subject-3.csv,legacy,Lentiform Loewenfeld,3.3.12,0,h,NA,s,h,NA,h,501,NA,22535,1794,NA,501,2,legacy,1024,2,48000,-16,experiment,SSHSS,3,odd,24497,158364,NA,258569,211033,NA,265007,263943,1960,156569,NA,265108,265610,265005,1958,265108,Flanker Task,139,64494,145,yes,1024
95.89041096,95.89041096,444.8013699,444.8013699,black,legacy,legacy,legacy,0,Incongruent,uniform,1,undefined,1,s,0,0,0,145,145,0,145,145,0,0,0,145,145,145,0,145,Tue Sep 13 19:02:30 2022,600,The main experiment item,yes,Lab 2.1 FlankerTask.osexp,C:\Users\Melissa\OneDrive\Desktop\ADVANCED QUANT,no,mono,no,18,no,white,no,no,768,legacy,65,79,C:/Users/Melissa/OneDrive/Desktop/ADVANCED QUANT/MM-subject-3.csv,legacy,Lentiform Loewenfeld,3.3.12,0,s,NA,s,h,NA,s,447,NA,22535,1794,NA,447,2,legacy,1024,2,48000,-16,experiment,HHSHH,3,odd,24497,158364,NA,258569,211033,NA,266678,265614,1960,156569,NA,266779,267227,266676,1958,266779,Flanker Task,140,64941,146,yes,1024
95.91836735,95.91836735,444.8639456,444.8639456,black,legacy,legacy,legacy,0,Incongruent,uniform,1,undefined,1,s,0,0,0,146,146,0,146,146,0,0,0,146,146,146,0,146,Tue Sep 13 19:02:30 2022,600,The main experiment item,yes,Lab 2.1 FlankerTask.osexp,C:\Users\Melissa\OneDrive\Desktop\ADVANCED QUANT,no,mono,no,18,no,white,no,no,768,legacy,66,79,C:/Users/Melissa/OneDrive/Desktop/ADVANCED QUANT/MM-subject-3.csv,legacy,Lentiform Loewenfeld,3.3.12,0,s,NA,s,h,NA,s,454,NA,22535,1794,NA,454,2,legacy,1024,2,48000,-16,experiment,HHSHH,3,odd,24497,158364,NA,258569,211033,NA,268291,267230,1960,156569,NA,268392,268847,268289,1958,268392,Flanker Task,141,65395,147,yes,1024
95.94594595,95.94594595,444.6486486,444.6486486,black,legacy,legacy,legacy,0,Incongruent,uniform,1,undefined,1,h,0,0,0,147,147,0,147,147,0,0,0,147,147,147,0,147,Tue Sep 13 19:02:30 2022,600,The main experiment item,yes,Lab 2.1 FlankerTask.osexp,C:\Users\Melissa\OneDrive\Desktop\ADVANCED QUANT,no,mono,no,18,no,white,no,no,768,legacy,67,79,C:/Users/Melissa/OneDrive/Desktop/ADVANCED QUANT/MM-subject-3.csv,legacy,Lentiform Loewenfeld,3.3.12,0,h,NA,s,h,NA,h,413,NA,22535,1794,NA,413,2,legacy,1024,2,48000,-16,experiment,SSHSS,3,odd,24497,158364,NA,258569,211033,NA,269913,268851,1960,156569,NA,270016,270430,269911,1958,270016,Flanker Task,142,65808,148,yes,1024
95.97315436,95.97315436,444.3221477,444.3221477,black,legacy,legacy,legacy,0,Congruent,uniform,1,undefined,1,h,0,0,0,148,148,0,148,148,0,0,0,148,148,148,0,148,Tue Sep 13 19:02:30 2022,600,The main experiment item,yes,Lab 2.1 FlankerTask.osexp,C:\Users\Melissa\OneDrive\Desktop\ADVANCED QUANT,no,mono,no,18,no,white,no,no,768,legacy,68,79,C:/Users/Melissa/OneDrive/Desktop/ADVANCED QUANT/MM-subject-3.csv,legacy,Lentiform Loewenfeld,3.3.12,0,h,NA,s,h,NA,h,396,NA,22535,1794,NA,396,2,legacy,1024,2,48000,-16,experiment,HHHHH,3,odd,24497,158364,NA,258569,211033,NA,271497,270433,1960,156569,NA,271598,271995,271495,1958,271598,Flanker Task,143,66204,149,yes,1024
96,96,444.3133333,444.3133333,black,legacy,legacy,legacy,0,Incongruent,uniform,1,undefined,1,h,0,0,0,149,149,0,149,149,0,0,0,149,149,149,0,149,Tue Sep 13 19:02:30 2022,600,The main experiment item,yes,Lab 2.1 FlankerTask.osexp,C:\Users\Melissa\OneDrive\Desktop\ADVANCED QUANT,no,mono,no,18,no,white,no,no,768,legacy,69,79,C:/Users/Melissa/OneDrive/Desktop/ADVANCED QUANT/MM-subject-3.csv,legacy,Lentiform Loewenfeld,3.3.12,0,h,NA,s,h,NA,h,443,NA,22535,1794,NA,443,2,legacy,1024,2,48000,-16,experiment,SSHSS,3,odd,24497,158364,NA,258569,211033,NA,273062,271999,1960,156569,NA,273165,273609,273061,1958,273165,Flanker Task,144,66647,150,yes,1024
96.02649007,96.02649007,444.1059603,444.1059603,black,legacy,legacy,legacy,0,Congruent,uniform,1,undefined,1,s,0,0,0,150,150,0,150,150,0,0,0,150,150,150,0,150,Tue Sep 13 19:02:30 2022,600,The main experiment item,yes,Lab 2.1 FlankerTask.osexp,C:\Users\Melissa\OneDrive\Desktop\ADVANCED QUANT,no,mono,no,18,no,white,no,no,768,legacy,70,79,C:/Users/Melissa/OneDrive/Desktop/ADVANCED QUANT/MM-subject-3.csv,legacy,Lentiform Loewenfeld,3.3.12,0,s,NA,s,h,NA,s,413,NA,22535,1794,NA,413,2,legacy,1024,2,48000,-16,experiment,SSSSS,3,odd,24497,158364,NA,258569,211033,NA,274677,273613,1960,156569,NA,274782,275196,274675,1958,274782,Flanker Task,145,67060,151,yes,1024
96.05263158,96.05263158,444.375,444.375,black,legacy,legacy,legacy,0,Incongruent,uniform,1,undefined,1,s,0,0,0,151,151,0,151,151,0,0,0,151,151,151,0,151,Tue Sep 13 19:02:30 2022,600,The main experiment item,yes,Lab 2.1 FlankerTask.osexp,C:\Users\Melissa\OneDrive\Desktop\ADVANCED QUANT,no,mono,no,18,no,white,no,no,768,legacy,71,79,C:/Users/Melissa/OneDrive/Desktop/ADVANCED QUANT/MM-subject-3.csv,legacy,Lentiform Loewenfeld,3.3.12,0,s,NA,s,h,NA,s,485,NA,22535,1794,NA,485,2,legacy,1024,2,48000,-16,experiment,HHSHH,3,odd,24497,158364,NA,258569,211033,NA,276261,275200,1960,156569,NA,276362,276850,276260,1958,276362,Flanker Task,146,67545,152,yes,1024
96.07843137,96.07843137,444.8366013,444.8366013,black,legacy,legacy,legacy,0,Congruent,uniform,1,undefined,1,s,0,0,0,152,152,0,152,152,0,0,0,152,152,152,0,152,Tue Sep 13 19:02:30 2022,600,The main experiment item,yes,Lab 2.1 FlankerTask.osexp,C:\Users\Melissa\OneDrive\Desktop\ADVANCED QUANT,no,mono,no,18,no,white,no,no,768,legacy,72,79,C:/Users/Melissa/OneDrive/Desktop/ADVANCED QUANT/MM-subject-3.csv,legacy,Lentiform Loewenfeld,3.3.12,0,s,NA,s,h,NA,s,515,NA,22535,1794,NA,515,2,legacy,1024,2,48000,-16,experiment,SSSSS,3,odd,24497,158364,NA,258569,211033,NA,277928,276854,1960,156569,NA,278029,278545,277924,1958,278029,Flanker Task,147,68060,153,yes,1024
96.1038961,96.1038961,444.5324675,444.5324675,black,legacy,legacy,legacy,0,Congruent,uniform,1,undefined,1,s,0,0,0,153,153,0,153,153,0,0,0,153,153,153,0,153,Tue Sep 13 19:02:30 2022,600,The main experiment item,yes,Lab 2.1 FlankerTask.osexp,C:\Users\Melissa\OneDrive\Desktop\ADVANCED QUANT,no,mono,no,18,no,white,no,no,768,legacy,73,79,C:/Users/Melissa/OneDrive/Desktop/ADVANCED QUANT/MM-subject-3.csv,legacy,Lentiform Loewenfeld,3.3.12,0,s,NA,s,h,NA,s,398,NA,22535,1794,NA,398,2,legacy,1024,2,48000,-16,experiment,SSSSS,3,odd,24497,158364,NA,258569,211033,NA,279611,278549,1960,156569,NA,279712,280111,279609,1958,279712,Flanker Task,148,68458,154,yes,1024
