"acc","accuracy","average_response_time","avg_rt","background","canvas_backend","clock_backend","color_backend","compensation","condition","coordinates","correct","correct_instructions1","correct_keyboard_response","correct_response","count_Block1","count_Block2","count_Block3","count_ISI","count_errorFeedback","count_experiment","count_faster","count_finish","count_fixation","count_instruction2","count_instruction3","count_instructions1","count_keyboard_response","count_logger","count_sequence","count_stimulus","datetime","deadline","description","disable_garbage_collection","experiment_file","experiment_path","font_bold","font_family","font_italic","font_size","font_underline","foreground","form_clicks","fullscreen","height","keyboard_backend","live_row","live_row_Block1","logfile","mouse_backend","opensesame_codename","opensesame_version","repeat_cycle","response","response_finish","response_instruction2","response_instruction3","response_instructions1","response_keyboard_response","response_time","response_time_finish","response_time_instruction2","response_time_instruction3","response_time_instructions1","response_time_keyboard_response","round_decimals","sampler_backend","sound_buf_size","sound_channels","sound_freq","sound_sample_size","start","stimulus","subject_nr","subject_parity","time_Block1","time_Block2","time_Block3","time_ISI","time_errorFeedback","time_experiment","time_faster","time_finish","time_fixation","time_instruction2","time_instruction3","time_instructions1","time_keyboard_response","time_logger","time_sequence","time_stimulus","title","total_correct","total_response_time","total_responses","uniform_coordinates","width"
"100","100","1023","1023","black","legacy","legacy","legacy","0","incongruent","uniform","1","undefined","1","s","0","0","0","0","0","0","0","0","0","0","0","0","0","0","0","0","Sun Sep 18 20:50:25 2022","1500","The main experiment item","yes","Flanker_Task_by_Katherine_Hays.osexp","/Users/katherinehays/Desktop/PSYC 5316 - R and OpenSesame","no","mono","no","18","no","white","no","no","768","legacy","0","0","/Users/katherinehays/Desktop/PSYC 5316 - R and OpenSesame/KH-subject-2.csv","legacy","Lentiform Loewenfeld","3.3.12","0","s","NA","NA","NA","h","s","1023","NA","NA","NA","21190","1023","2","legacy","1024","2","48000","-16","experiment","HHSHH","2","even","22360","NA","NA","NA","NA","1090","NA","NA","22387","NA","NA","1163","22493","23517","22383","22493","Flanker Task (by Katherine Hays)","1","1023","1","yes","1024"
"100","100","814","814","black","legacy","legacy","legacy","0","congruent","uniform","1","undefined","1","h","0","0","0","1","1","0","1","0","1","0","0","0","1","1","1","1","Sun Sep 18 20:50:25 2022","1500","The main experiment item","yes","Flanker_Task_by_Katherine_Hays.osexp","/Users/katherinehays/Desktop/PSYC 5316 - R and OpenSesame","no","mono","no","18","no","white","no","no","768","legacy","1","1","/Users/katherinehays/Desktop/PSYC 5316 - R and OpenSesame/KH-subject-2.csv","legacy","Lentiform Loewenfeld","3.3.12","0","h","NA","NA","NA","h","h","605","NA","NA","NA","21190","605","2","legacy","1024","2","48000","-16","experiment","HHHHH","2","even","22360","NA","NA","23522","NA","1090","NA","NA","24590","NA","NA","1163","24696","25302","24585","24696","Flanker Task (by Katherine Hays)","2","1628","2","yes","1024"
"100","100","747.3333333333334","747.3333333333334","black","legacy","legacy","legacy","0","congruent","uniform","1","undefined","1","s","0","0","0","2","2","0","2","0","2","0","0","0","2","2","2","2","Sun Sep 18 20:50:25 2022","1500","The main experiment item","yes","Flanker_Task_by_Katherine_Hays.osexp","/Users/katherinehays/Desktop/PSYC 5316 - R and OpenSesame","no","mono","no","18","no","white","no","no","768","legacy","2","2","/Users/katherinehays/Desktop/PSYC 5316 - R and OpenSesame/KH-subject-2.csv","legacy","Lentiform Loewenfeld","3.3.12","0","s","NA","NA","NA","h","s","614","NA","NA","NA","21190","614","2","legacy","1024","2","48000","-16","experiment","SSSSS","2","even","22360","NA","NA","25306","NA","1090","NA","NA","26368","NA","NA","1163","26475","27090","26364","26475","Flanker Task (by Katherine Hays)","3","2242","3","yes","1024"
"100","100","704","704","black","legacy","legacy","legacy","0","incongruent","uniform","1","undefined","1","s","0","0","0","3","3","0","3","0","3","0","0","0","3","3","3","3","Sun Sep 18 20:50:25 2022","1500","The main experiment item","yes","Flanker_Task_by_Katherine_Hays.osexp","/Users/katherinehays/Desktop/PSYC 5316 - R and OpenSesame","no","mono","no","18","no","white","no","no","768","legacy","3","3","/Users/katherinehays/Desktop/PSYC 5316 - R and OpenSesame/KH-subject-2.csv","legacy","Lentiform Loewenfeld","3.3.12","0","s","NA","NA","NA","h","s","574","NA","NA","NA","21190","574","2","legacy","1024","2","48000","-16","experiment","HHSHH","2","even","22360","NA","NA","27094","NA","1090","NA","NA","28160","NA","NA","1163","28267","28847","28156","28267","Flanker Task (by Katherine Hays)","4","2816","4","yes","1024"
"100","100","653","653","black","legacy","legacy","legacy","0","congruent","uniform","1","undefined","1","s","0","0","0","4","4","0","4","0","4","0","0","0","4","4","4","4","Sun Sep 18 20:50:25 2022","1500","The main experiment item","yes","Flanker_Task_by_Katherine_Hays.osexp","/Users/katherinehays/Desktop/PSYC 5316 - R and OpenSesame","no","mono","no","18","no","white","no","no","768","legacy","4","4","/Users/katherinehays/Desktop/PSYC 5316 - R and OpenSesame/KH-subject-2.csv","legacy","Lentiform Loewenfeld","3.3.12","0","s","NA","NA","NA","h","s","449","NA","NA","NA","21190","449","2","legacy","1024","2","48000","-16","experiment","SSSSS","2","even","22360","NA","NA","28852","NA","1090","NA","NA","29907","NA","NA","1163","30014","30463","29902","30013","Flanker Task (by Katherine Hays)","5","3265","5","yes","1024"
"83.33333333333333","83.33333333333333","614.3333333333334","614.3333333333334","black","legacy","legacy","legacy","0","incongruent","uniform","0","undefined","0","h","0","0","0","5","5","0","5","0","5","0","0","0","5","5","5","5","Sun Sep 18 20:50:25 2022","1500","The main experiment item","yes","Flanker_Task_by_Katherine_Hays.osexp","/Users/katherinehays/Desktop/PSYC 5316 - R and OpenSesame","no","mono","no","18","no","white","no","no","768","legacy","5","5","/Users/katherinehays/Desktop/PSYC 5316 - R and OpenSesame/KH-subject-2.csv","legacy","Lentiform Loewenfeld","3.3.12","0","s","NA","NA","NA","h","s","421","NA","NA","NA","21190","421","2","legacy","1024","2","48000","-16","experiment","SSHSS","2","even","22360","NA","NA","30467","NA","1090","NA","NA","31526","NA","NA","1163","31632","32053","31521","31632","Flanker Task (by Katherine Hays)","5","3686","6","yes","1024"
"85.71428571428571","85.71428571428571","595.4285714285714","595.4285714285714","black","legacy","legacy","legacy","0","congruent","uniform","1","undefined","1","h","0","0","0","6","6","0","6","0","6","0","0","0","6","6","6","6","Sun Sep 18 20:50:25 2022","1500","The main experiment item","yes","Flanker_Task_by_Katherine_Hays.osexp","/Users/katherinehays/Desktop/PSYC 5316 - R and OpenSesame","no","mono","no","18","no","white","no","no","768","legacy","6","6","/Users/katherinehays/Desktop/PSYC 5316 - R and OpenSesame/KH-subject-2.csv","legacy","Lentiform Loewenfeld","3.3.12","0","h","NA","NA","NA","h","h","482","NA","NA","NA","21190","482","2","legacy","1024","2","48000","-16","experiment","HHHHH","2","even","22360","NA","NA","32568","32058","1090","NA","NA","33627","NA","NA","1163","33734","34217","33623","33734","Flanker Task (by Katherine Hays)","6","4168","7","yes","1024"
"87.5","87.5","579.75","579.75","black","legacy","legacy","legacy","0","congruent","uniform","1","undefined","1","h","0","0","0","7","7","0","7","0","7","0","0","0","7","7","7","7","Sun Sep 18 20:50:25 2022","1500","The main experiment item","yes","Flanker_Task_by_Katherine_Hays.osexp","/Users/katherinehays/Desktop/PSYC 5316 - R and OpenSesame","no","mono","no","18","no","white","no","no","768","legacy","7","7","/Users/katherinehays/Desktop/PSYC 5316 - R and OpenSesame/KH-subject-2.csv","legacy","Lentiform Loewenfeld","3.3.12","0","h","NA","NA","NA","h","h","470","NA","NA","NA","21190","470","2","legacy","1024","2","48000","-16","experiment","HHHHH","2","even","22360","NA","NA","34221","32058","1090","NA","NA","35287","NA","NA","1163","35393","35863","35282","35393","Flanker Task (by Katherine Hays)","7","4638","8","yes","1024"
"88.88888888888889","88.88888888888889","568.5555555555555","568.5555555555555","black","legacy","legacy","legacy","0","congruent","uniform","1","undefined","1","h","0","0","0","8","8","0","8","0","8","0","0","0","8","8","8","8","Sun Sep 18 20:50:25 2022","1500","The main experiment item","yes","Flanker_Task_by_Katherine_Hays.osexp","/Users/katherinehays/Desktop/PSYC 5316 - R and OpenSesame","no","mono","no","18","no","white","no","no","768","legacy","8","8","/Users/katherinehays/Desktop/PSYC 5316 - R and OpenSesame/KH-subject-2.csv","legacy","Lentiform Loewenfeld","3.3.12","0","h","NA","NA","NA","h","h","479","NA","NA","NA","21190","479","2","legacy","1024","2","48000","-16","experiment","HHHHH","2","even","22360","NA","NA","35867","32058","1090","NA","NA","36931","NA","NA","1163","37039","37519","36926","37039","Flanker Task (by Katherine Hays)","8","5117","9","yes","1024"
"90","90","564.6","564.6","black","legacy","legacy","legacy","0","congruent","uniform","1","undefined","1","s","0","0","0","9","9","0","9","0","9","0","0","0","9","9","9","9","Sun Sep 18 20:50:25 2022","1500","The main experiment item","yes","Flanker_Task_by_Katherine_Hays.osexp","/Users/katherinehays/Desktop/PSYC 5316 - R and OpenSesame","no","mono","no","18","no","white","no","no","768","legacy","9","9","/Users/katherinehays/Desktop/PSYC 5316 - R and OpenSesame/KH-subject-2.csv","legacy","Lentiform Loewenfeld","3.3.12","0","s","NA","NA","NA","h","s","529","NA","NA","NA","21190","529","2","legacy","1024","2","48000","-16","experiment","SSSSS","2","even","22360","NA","NA","37523","32058","1090","NA","NA","38576","NA","NA","1163","38682","39212","38572","38682","Flanker Task (by Katherine Hays)","9","5646","10","yes","1024"
"90.9090909090909","90.9090909090909","556.1818181818181","556.1818181818181","black","legacy","legacy","legacy","0","congruent","uniform","1","undefined","1","s","0","0","0","10","10","0","10","0","10","0","0","0","10","10","10","10","Sun Sep 18 20:50:25 2022","1500","The main experiment item","yes","Flanker_Task_by_Katherine_Hays.osexp","/Users/katherinehays/Desktop/PSYC 5316 - R and OpenSesame","no","mono","no","18","no","white","no","no","768","legacy","10","10","/Users/katherinehays/Desktop/PSYC 5316 - R and OpenSesame/KH-subject-2.csv","legacy","Lentiform Loewenfeld","3.3.12","0","s","NA","NA","NA","h","s","472","NA","NA","NA","21190","472","2","legacy","1024","2","48000","-16","experiment","SSSSS","2","even","22360","NA","NA","39216","32058","1090","NA","NA","40268","NA","NA","1163","40372","40845","40263","40372","Flanker Task (by Katherine Hays)","10","6118","11","yes","1024"
"91.66666666666667","91.66666666666667","567.8333333333334","567.8333333333334","black","legacy","legacy","legacy","0","incongruent","uniform","1","undefined","1","s","0","0","0","11","11","0","11","0","11","0","0","0","11","11","11","11","Sun Sep 18 20:50:25 2022","1500","The main experiment item","yes","Flanker_Task_by_Katherine_Hays.osexp","/Users/katherinehays/Desktop/PSYC 5316 - R and OpenSesame","no","mono","no","18","no","white","no","no","768","legacy","11","11","/Users/katherinehays/Desktop/PSYC 5316 - R and OpenSesame/KH-subject-2.csv","legacy","Lentiform Loewenfeld","3.3.12","0","s","NA","NA","NA","h","s","696","NA","NA","NA","21190","696","2","legacy","1024","2","48000","-16","experiment","HHSHH","2","even","22360","NA","NA","40849","32058","1090","NA","NA","41905","NA","NA","1163","42012","42708","41901","42012","Flanker Task (by Katherine Hays)","11","6814","12","yes","1024"
"92.3076923076923","92.3076923076923","562.7692307692307","562.7692307692307","black","legacy","legacy","legacy","0","congruent","uniform","1","undefined","1","h","0","0","0","12","12","0","12","0","12","0","0","0","12","12","12","12","Sun Sep 18 20:50:25 2022","1500","The main experiment item","yes","Flanker_Task_by_Katherine_Hays.osexp","/Users/katherinehays/Desktop/PSYC 5316 - R and OpenSesame","no","mono","no","18","no","white","no","no","768","legacy","12","12","/Users/katherinehays/Desktop/PSYC 5316 - R and OpenSesame/KH-subject-2.csv","legacy","Lentiform Loewenfeld","3.3.12","0","h","NA","NA","NA","h","h","502","NA","NA","NA","21190","502","2","legacy","1024","2","48000","-16","experiment","HHHHH","2","even","22360","NA","NA","42713","32058","1090","NA","NA","43772","NA","NA","1163","43879","44381","43767","43879","Flanker Task (by Katherine Hays)","12","7316","13","yes","1024"
"92.85714285714286","92.85714285714286","572.8571428571429","572.8571428571429","black","legacy","legacy","legacy","0","incongruent","uniform","1","undefined","1","h","0","0","0","13","13","0","13","0","13","0","0","0","13","13","13","13","Sun Sep 18 20:50:25 2022","1500","The main experiment item","yes","Flanker_Task_by_Katherine_Hays.osexp","/Users/katherinehays/Desktop/PSYC 5316 - R and OpenSesame","no","mono","no","18","no","white","no","no","768","legacy","13","13","/Users/katherinehays/Desktop/PSYC 5316 - R and OpenSesame/KH-subject-2.csv","legacy","Lentiform Loewenfeld","3.3.12","0","h","NA","NA","NA","h","h","704","NA","NA","NA","21190","704","2","legacy","1024","2","48000","-16","experiment","SSHSS","2","even","22360","NA","NA","44385","32058","1090","NA","NA","45450","NA","NA","1163","45556","46260","45446","45556","Flanker Task (by Katherine Hays)","13","8020","14","yes","1024"
"93.33333333333333","93.33333333333333","566.6","566.6","black","legacy","legacy","legacy","0","incongruent","uniform","1","undefined","1","s","0","0","0","14","14","0","14","0","14","0","0","0","14","14","14","14","Sun Sep 18 20:50:25 2022","1500","The main experiment item","yes","Flanker_Task_by_Katherine_Hays.osexp","/Users/katherinehays/Desktop/PSYC 5316 - R and OpenSesame","no","mono","no","18","no","white","no","no","768","legacy","14","14","/Users/katherinehays/Desktop/PSYC 5316 - R and OpenSesame/KH-subject-2.csv","legacy","Lentiform Loewenfeld","3.3.12","0","s","NA","NA","NA","h","s","479","NA","NA","NA","21190","479","2","legacy","1024","2","48000","-16","experiment","HHSHH","2","even","22360","NA","NA","46264","32058","1090","NA","NA","47325","NA","NA","1163","47432","47911","47320","47432","Flanker Task (by Katherine Hays)","14","8499","15","yes","1024"
"93.75","93.75","557.875","557.875","black","legacy","legacy","legacy","0","incongruent","uniform","1","undefined","1","h","0","0","0","15","15","0","15","0","15","0","0","0","15","15","15","15","Sun Sep 18 20:50:25 2022","1500","The main experiment item","yes","Flanker_Task_by_Katherine_Hays.osexp","/Users/katherinehays/Desktop/PSYC 5316 - R and OpenSesame","no","mono","no","18","no","white","no","no","768","legacy","15","15","/Users/katherinehays/Desktop/PSYC 5316 - R and OpenSesame/KH-subject-2.csv","legacy","Lentiform Loewenfeld","3.3.12","0","h","NA","NA","NA","h","h","427","NA","NA","NA","21190","427","2","legacy","1024","2","48000","-16","experiment","SSHSS","2","even","22360","NA","NA","47916","32058","1090","NA","NA","48977","NA","NA","1163","49084","49511","48972","49084","Flanker Task (by Katherine Hays)","15","8926","16","yes","1024"
"94.11764705882354","94.11764705882354","556.7058823529412","556.7058823529412","black","legacy","legacy","legacy","0","incongruent","uniform","1","undefined","1","h","0","0","0","16","16","0","16","0","16","0","0","0","16","16","16","16","Sun Sep 18 20:50:25 2022","1500","The main experiment item","yes","Flanker_Task_by_Katherine_Hays.osexp","/Users/katherinehays/Desktop/PSYC 5316 - R and OpenSesame","no","mono","no","18","no","white","no","no","768","legacy","16","16","/Users/katherinehays/Desktop/PSYC 5316 - R and OpenSesame/KH-subject-2.csv","legacy","Lentiform Loewenfeld","3.3.12","0","h","NA","NA","NA","h","h","538","NA","NA","NA","21190","538","2","legacy","1024","2","48000","-16","experiment","SSHSS","2","even","22360","NA","NA","49515","32058","1090","NA","NA","50583","NA","NA","1163","50689","51227","50579","50689","Flanker Task (by Katherine Hays)","16","9464","17","yes","1024"
"94.44444444444444","94.44444444444444","555.2777777777778","555.2777777777778","black","legacy","legacy","legacy","0","incongruent","uniform","1","undefined","1","h","0","0","0","17","17","0","17","0","17","0","0","0","17","17","17","17","Sun Sep 18 20:50:25 2022","1500","The main experiment item","yes","Flanker_Task_by_Katherine_Hays.osexp","/Users/katherinehays/Desktop/PSYC 5316 - R and OpenSesame","no","mono","no","18","no","white","no","no","768","legacy","17","17","/Users/katherinehays/Desktop/PSYC 5316 - R and OpenSesame/KH-subject-2.csv","legacy","Lentiform Loewenfeld","3.3.12","0","h","NA","NA","NA","h","h","531","NA","NA","NA","21190","531","2","legacy","1024","2","48000","-16","experiment","SSHSS","2","even","22360","NA","NA","51231","32058","1090","NA","NA","52291","NA","NA","1163","52398","52930","52286","52398","Flanker Task (by Katherine Hays)","17","9995","18","yes","1024"
"89.47368421052632","89.47368421052632","544.7368421052631","544.7368421052631","black","legacy","legacy","legacy","0","incongruent","uniform","0","undefined","0","s","0","0","0","18","18","0","18","0","18","0","0","0","18","18","18","18","Sun Sep 18 20:50:25 2022","1500","The main experiment item","yes","Flanker_Task_by_Katherine_Hays.osexp","/Users/katherinehays/Desktop/PSYC 5316 - R and OpenSesame","no","mono","no","18","no","white","no","no","768","legacy","18","18","/Users/katherinehays/Desktop/PSYC 5316 - R and OpenSesame/KH-subject-2.csv","legacy","Lentiform Loewenfeld","3.3.12","0","h","NA","NA","NA","h","h","355","NA","NA","NA","21190","355","2","legacy","1024","2","48000","-16","experiment","HHSHH","2","even","22360","NA","NA","52934","32058","1090","NA","NA","53995","NA","NA","1163","54102","54458","53990","54102","Flanker Task (by Katherine Hays)","17","10350","19","yes","1024"
"90","90","549.85","549.85","black","legacy","legacy","legacy","0","congruent","uniform","1","undefined","1","s","0","0","0","19","19","0","19","0","19","0","0","0","19","19","19","19","Sun Sep 18 20:50:25 2022","1500","The main experiment item","yes","Flanker_Task_by_Katherine_Hays.osexp","/Users/katherinehays/Desktop/PSYC 5316 - R and OpenSesame","no","mono","no","18","no","white","no","no","768","legacy","19","19","/Users/katherinehays/Desktop/PSYC 5316 - R and OpenSesame/KH-subject-2.csv","legacy","Lentiform Loewenfeld","3.3.12","0","s","NA","NA","NA","h","s","647","NA","NA","NA","21190","647","2","legacy","1024","2","48000","-16","experiment","SSSSS","2","even","22360","NA","NA","54972","54462","1090","NA","NA","56025","NA","NA","1163","56131","56778","56021","56131","Flanker Task (by Katherine Hays)","18","10997","20","yes","1024"
"90.47619047619048","90.47619047619048","546.2857142857143","546.2857142857143","black","legacy","legacy","legacy","0","congruent","uniform","1","undefined","1","h","0","0","0","20","20","0","20","0","20","0","0","0","20","20","20","20","Sun Sep 18 20:50:25 2022","1500","The main experiment item","yes","Flanker_Task_by_Katherine_Hays.osexp","/Users/katherinehays/Desktop/PSYC 5316 - R and OpenSesame","no","mono","no","18","no","white","no","no","768","legacy","20","20","/Users/katherinehays/Desktop/PSYC 5316 - R and OpenSesame/KH-subject-2.csv","legacy","Lentiform Loewenfeld","3.3.12","0","h","NA","NA","NA","h","h","475","NA","NA","NA","21190","475","2","legacy","1024","2","48000","-16","experiment","HHHHH","2","even","22360","NA","NA","56782","54462","1090","NA","NA","57835","NA","NA","1163","57942","58418","57831","57942","Flanker Task (by Katherine Hays)","19","11472","21","yes","1024"
"90.9090909090909","90.9090909090909","551.5454545454545","551.5454545454545","black","legacy","legacy","legacy","0","congruent","uniform","1","undefined","1","s","0","0","0","21","21","0","21","0","21","0","0","0","21","21","21","21","Sun Sep 18 20:50:25 2022","1500","The main experiment item","yes","Flanker_Task_by_Katherine_Hays.osexp","/Users/katherinehays/Desktop/PSYC 5316 - R and OpenSesame","no","mono","no","18","no","white","no","no","768","legacy","21","21","/Users/katherinehays/Desktop/PSYC 5316 - R and OpenSesame/KH-subject-2.csv","legacy","Lentiform Loewenfeld","3.3.12","0","s","NA","NA","NA","h","s","662","NA","NA","NA","21190","662","2","legacy","1024","2","48000","-16","experiment","SSSSS","2","even","22360","NA","NA","58422","54462","1090","NA","NA","59478","NA","NA","1163","59585","60248","59473","59585","Flanker Task (by Katherine Hays)","20","12134","22","yes","1024"
"91.30434782608695","91.30434782608695","548","548","black","legacy","legacy","legacy","0","congruent","uniform","1","undefined","1","h","0","0","0","22","22","0","22","0","22","0","0","0","22","22","22","22","Sun Sep 18 20:50:25 2022","1500","The main experiment item","yes","Flanker_Task_by_Katherine_Hays.osexp","/Users/katherinehays/Desktop/PSYC 5316 - R and OpenSesame","no","mono","no","18","no","white","no","no","768","legacy","22","22","/Users/katherinehays/Desktop/PSYC 5316 - R and OpenSesame/KH-subject-2.csv","legacy","Lentiform Loewenfeld","3.3.12","0","h","NA","NA","NA","h","h","470","NA","NA","NA","21190","470","2","legacy","1024","2","48000","-16","experiment","HHHHH","2","even","22360","NA","NA","60252","54462","1090","NA","NA","61318","NA","NA","1163","61425","61896","61313","61425","Flanker Task (by Katherine Hays)","21","12604","23","yes","1024"
"91.66666666666667","91.66666666666667","548.125","548.125","black","legacy","legacy","legacy","0","congruent","uniform","1","undefined","1","s","0","0","0","23","23","0","23","0","23","0","0","0","23","23","23","23","Sun Sep 18 20:50:25 2022","1500","The main experiment item","yes","Flanker_Task_by_Katherine_Hays.osexp","/Users/katherinehays/Desktop/PSYC 5316 - R and OpenSesame","no","mono","no","18","no","white","no","no","768","legacy","23","23","/Users/katherinehays/Desktop/PSYC 5316 - R and OpenSesame/KH-subject-2.csv","legacy","Lentiform Loewenfeld","3.3.12","0","s","NA","NA","NA","h","s","551","NA","NA","NA","21190","551","2","legacy","1024","2","48000","-16","experiment","SSSSS","2","even","22360","NA","NA","61900","54462","1090","NA","NA","62954","NA","NA","1163","63061","63613","62949","63061","Flanker Task (by Katherine Hays)","22","13155","24","yes","1024"
"92","92","544.48","544.48","black","legacy","legacy","legacy","0","congruent","uniform","1","undefined","1","s","0","0","0","24","24","0","24","0","24","0","0","0","24","24","24","24","Sun Sep 18 20:50:25 2022","1500","The main experiment item","yes","Flanker_Task_by_Katherine_Hays.osexp","/Users/katherinehays/Desktop/PSYC 5316 - R and OpenSesame","no","mono","no","18","no","white","no","no","768","legacy","24","24","/Users/katherinehays/Desktop/PSYC 5316 - R and OpenSesame/KH-subject-2.csv","legacy","Lentiform Loewenfeld","3.3.12","0","s","NA","NA","NA","h","s","457","NA","NA","NA","21190","457","2","legacy","1024","2","48000","-16","experiment","SSSSS","2","even","22360","NA","NA","63617","54462","1090","NA","NA","64676","NA","NA","1163","64783","65241","64671","64783","Flanker Task (by Katherine Hays)","23","13612","25","yes","1024"
"88.46153846153847","88.46153846153847","543.7307692307693","543.7307692307693","black","legacy","legacy","legacy","0","incongruent","uniform","0","undefined","0","s","0","0","0","25","25","0","25","0","25","0","0","0","25","25","25","25","Sun Sep 18 20:50:25 2022","1500","The main experiment item","yes","Flanker_Task_by_Katherine_Hays.osexp","/Users/katherinehays/Desktop/PSYC 5316 - R and OpenSesame","no","mono","no","18","no","white","no","no","768","legacy","25","25","/Users/katherinehays/Desktop/PSYC 5316 - R and OpenSesame/KH-subject-2.csv","legacy","Lentiform Loewenfeld","3.3.12","0","h","NA","NA","NA","h","h","525","NA","NA","NA","21190","525","2","legacy","1024","2","48000","-16","experiment","HHSHH","2","even","22360","NA","NA","65245","54462","1090","NA","NA","66306","NA","NA","1163","66413","66939","66301","66413","Flanker Task (by Katherine Hays)","23","14137","26","yes","1024"
"88.88888888888889","88.88888888888889","548.7037037037037","548.7037037037037","black","legacy","legacy","legacy","0","incongruent","uniform","1","undefined","1","h","0","0","0","26","26","0","26","0","26","0","0","0","26","26","26","26","Sun Sep 18 20:50:25 2022","1500","The main experiment item","yes","Flanker_Task_by_Katherine_Hays.osexp","/Users/katherinehays/Desktop/PSYC 5316 - R and OpenSesame","no","mono","no","18","no","white","no","no","768","legacy","26","26","/Users/katherinehays/Desktop/PSYC 5316 - R and OpenSesame/KH-subject-2.csv","legacy","Lentiform Loewenfeld","3.3.12","0","h","NA","NA","NA","h","h","678","NA","NA","NA","21190","678","2","legacy","1024","2","48000","-16","experiment","SSHSS","2","even","22360","NA","NA","67455","66943","1090","NA","NA","68512","NA","NA","1163","68619","69297","68507","68618","Flanker Task (by Katherine Hays)","24","14815","27","yes","1024"
"89.28571428571429","89.28571428571429","550.0714285714286","550.0714285714286","black","legacy","legacy","legacy","0","incongruent","uniform","1","undefined","1","s","0","0","0","27","27","0","27","0","27","0","0","0","27","27","27","27","Sun Sep 18 20:50:25 2022","1500","The main experiment item","yes","Flanker_Task_by_Katherine_Hays.osexp","/Users/katherinehays/Desktop/PSYC 5316 - R and OpenSesame","no","mono","no","18","no","white","no","no","768","legacy","27","27","/Users/katherinehays/Desktop/PSYC 5316 - R and OpenSesame/KH-subject-2.csv","legacy","Lentiform Loewenfeld","3.3.12","0","s","NA","NA","NA","h","s","587","NA","NA","NA","21190","587","2","legacy","1024","2","48000","-16","experiment","HHSHH","2","even","22360","NA","NA","69302","66943","1090","NA","NA","70358","NA","NA","1163","70465","71052","70353","70464","Flanker Task (by Katherine Hays)","25","15402","28","yes","1024"
"89.65517241379311","89.65517241379311","557.8275862068965","557.8275862068965","black","legacy","legacy","legacy","0","incongruent","uniform","1","undefined","1","h","0","0","0","28","28","0","28","0","28","0","0","0","28","28","28","28","Sun Sep 18 20:50:25 2022","1500","The main experiment item","yes","Flanker_Task_by_Katherine_Hays.osexp","/Users/katherinehays/Desktop/PSYC 5316 - R and OpenSesame","no","mono","no","18","no","white","no","no","768","legacy","28","28","/Users/katherinehays/Desktop/PSYC 5316 - R and OpenSesame/KH-subject-2.csv","legacy","Lentiform Loewenfeld","3.3.12","0","h","NA","NA","NA","h","h","775","NA","NA","NA","21190","775","2","legacy","1024","2","48000","-16","experiment","SSHSS","2","even","22360","NA","NA","71056","66943","1090","NA","NA","72108","NA","NA","1163","72214","72989","72104","72214","Flanker Task (by Katherine Hays)","26","16177","29","yes","1024"
"90","90","565.9","565.9","black","legacy","legacy","legacy","0","incongruent","uniform","1","undefined","1","h","0","0","0","29","29","0","29","0","29","0","0","0","29","29","29","29","Sun Sep 18 20:50:25 2022","1500","The main experiment item","yes","Flanker_Task_by_Katherine_Hays.osexp","/Users/katherinehays/Desktop/PSYC 5316 - R and OpenSesame","no","mono","no","18","no","white","no","no","768","legacy","29","29","/Users/katherinehays/Desktop/PSYC 5316 - R and OpenSesame/KH-subject-2.csv","legacy","Lentiform Loewenfeld","3.3.12","0","h","NA","NA","NA","h","h","800","NA","NA","NA","21190","800","2","legacy","1024","2","48000","-16","experiment","SSHSS","2","even","22360","NA","NA","72993","66943","1090","NA","NA","74059","NA","NA","1163","74166","74967","74055","74166","Flanker Task (by Katherine Hays)","27","16977","30","yes","1024"
"90.3225806451613","90.3225806451613","572.0967741935484","572.0967741935484","black","legacy","legacy","legacy","0","incongruent","uniform","1","undefined","1","h","0","0","0","30","30","0","30","0","30","0","0","0","30","30","30","30","Sun Sep 18 20:50:25 2022","1500","The main experiment item","yes","Flanker_Task_by_Katherine_Hays.osexp","/Users/katherinehays/Desktop/PSYC 5316 - R and OpenSesame","no","mono","no","18","no","white","no","no","768","legacy","30","30","/Users/katherinehays/Desktop/PSYC 5316 - R and OpenSesame/KH-subject-2.csv","legacy","Lentiform Loewenfeld","3.3.12","0","h","NA","NA","NA","h","h","758","NA","NA","NA","21190","758","2","legacy","1024","2","48000","-16","experiment","SSHSS","2","even","22360","NA","NA","74971","66943","1090","NA","NA","76026","NA","NA","1163","76131","76889","76021","76131","Flanker Task (by Katherine Hays)","28","17735","31","yes","1024"
"90.625","90.625","572.625","572.625","black","legacy","legacy","legacy","0","congruent","uniform","1","undefined","1","h","0","0","0","31","31","0","31","0","31","0","0","0","31","31","31","31","Sun Sep 18 20:50:25 2022","1500","The main experiment item","yes","Flanker_Task_by_Katherine_Hays.osexp","/Users/katherinehays/Desktop/PSYC 5316 - R and OpenSesame","no","mono","no","18","no","white","no","no","768","legacy","31","31","/Users/katherinehays/Desktop/PSYC 5316 - R and OpenSesame/KH-subject-2.csv","legacy","Lentiform Loewenfeld","3.3.12","0","h","NA","NA","NA","h","h","589","NA","NA","NA","21190","589","2","legacy","1024","2","48000","-16","experiment","HHHHH","2","even","22360","NA","NA","76894","66943","1090","NA","NA","77953","NA","NA","1163","78061","78651","77948","78061","Flanker Task (by Katherine Hays)","29","18324","32","yes","1024"
"90.9090909090909","90.9090909090909","568.2424242424242","568.2424242424242","black","legacy","legacy","legacy","0","incongruent","uniform","1","undefined","1","s","0","0","0","32","32","0","32","0","32","0","0","0","32","32","32","32","Sun Sep 18 20:50:25 2022","1500","The main experiment item","yes","Flanker_Task_by_Katherine_Hays.osexp","/Users/katherinehays/Desktop/PSYC 5316 - R and OpenSesame","no","mono","no","18","no","white","no","no","768","legacy","32","32","/Users/katherinehays/Desktop/PSYC 5316 - R and OpenSesame/KH-subject-2.csv","legacy","Lentiform Loewenfeld","3.3.12","0","s","NA","NA","NA","h","s","428","NA","NA","NA","21190","428","2","legacy","1024","2","48000","-16","experiment","HHSHH","2","even","22360","NA","NA","78655","66943","1090","NA","NA","79714","NA","NA","1163","79821","80249","79709","79820","Flanker Task (by Katherine Hays)","30","18752","33","yes","1024"
"91.17647058823529","91.17647058823529","568.1176470588235","568.1176470588235","black","legacy","legacy","legacy","0","congruent","uniform","1","undefined","1","s","0","0","0","33","33","0","33","0","33","0","0","0","33","33","33","33","Sun Sep 18 20:50:25 2022","1500","The main experiment item","yes","Flanker_Task_by_Katherine_Hays.osexp","/Users/katherinehays/Desktop/PSYC 5316 - R and OpenSesame","no","mono","no","18","no","white","no","no","768","legacy","33","33","/Users/katherinehays/Desktop/PSYC 5316 - R and OpenSesame/KH-subject-2.csv","legacy","Lentiform Loewenfeld","3.3.12","0","s","NA","NA","NA","h","s","564","NA","NA","NA","21190","564","2","legacy","1024","2","48000","-16","experiment","SSSSS","2","even","22360","NA","NA","80253","66943","1090","NA","NA","81311","NA","NA","1163","81418","81983","81306","81418","Flanker Task (by Katherine Hays)","31","19316","34","yes","1024"
"91.42857142857143","91.42857142857143","562.3714285714286","562.3714285714286","black","legacy","legacy","legacy","0","congruent","uniform","1","undefined","1","s","0","0","0","34","34","0","34","0","34","0","0","0","34","34","34","34","Sun Sep 18 20:50:25 2022","1500","The main experiment item","yes","Flanker_Task_by_Katherine_Hays.osexp","/Users/katherinehays/Desktop/PSYC 5316 - R and OpenSesame","no","mono","no","18","no","white","no","no","768","legacy","34","34","/Users/katherinehays/Desktop/PSYC 5316 - R and OpenSesame/KH-subject-2.csv","legacy","Lentiform Loewenfeld","3.3.12","0","s","NA","NA","NA","h","s","367","NA","NA","NA","21190","367","2","legacy","1024","2","48000","-16","experiment","SSSSS","2","even","22360","NA","NA","81987","66943","1090","NA","NA","83043","NA","NA","1163","83150","83517","83038","83150","Flanker Task (by Katherine Hays)","32","19683","35","yes","1024"
"91.66666666666667","91.66666666666667","565.2777777777778","565.2777777777778","black","legacy","legacy","legacy","0","incongruent","uniform","1","undefined","1","s","0","0","0","35","35","0","35","0","35","0","0","0","35","35","35","35","Sun Sep 18 20:50:25 2022","1500","The main experiment item","yes","Flanker_Task_by_Katherine_Hays.osexp","/Users/katherinehays/Desktop/PSYC 5316 - R and OpenSesame","no","mono","no","18","no","white","no","no","768","legacy","35","35","/Users/katherinehays/Desktop/PSYC 5316 - R and OpenSesame/KH-subject-2.csv","legacy","Lentiform Loewenfeld","3.3.12","0","s","NA","NA","NA","h","s","667","NA","NA","NA","21190","667","2","legacy","1024","2","48000","-16","experiment","HHSHH","2","even","22360","NA","NA","83521","66943","1090","NA","NA","84580","NA","NA","1163","84687","85355","84576","84687","Flanker Task (by Katherine Hays)","33","20350","36","yes","1024"
"91.89189189189189","91.89189189189189","562.7837837837837","562.7837837837837","black","legacy","legacy","legacy","0","congruent","uniform","1","undefined","1","h","0","0","0","36","36","0","36","0","36","0","0","0","36","36","36","36","Sun Sep 18 20:50:25 2022","1500","The main experiment item","yes","Flanker_Task_by_Katherine_Hays.osexp","/Users/katherinehays/Desktop/PSYC 5316 - R and OpenSesame","no","mono","no","18","no","white","no","no","768","legacy","36","36","/Users/katherinehays/Desktop/PSYC 5316 - R and OpenSesame/KH-subject-2.csv","legacy","Lentiform Loewenfeld","3.3.12","0","h","NA","NA","NA","h","h","473","NA","NA","NA","21190","473","2","legacy","1024","2","48000","-16","experiment","HHHHH","2","even","22360","NA","NA","85359","66943","1090","NA","NA","86412","NA","NA","1163","86518","86992","86407","86518","Flanker Task (by Katherine Hays)","34","20823","37","yes","1024"
"92.10526315789474","92.10526315789474","558.7631578947369","558.7631578947369","black","legacy","legacy","legacy","0","congruent","uniform","1","undefined","1","s","0","0","0","37","37","0","37","0","37","0","0","0","37","37","37","37","Sun Sep 18 20:50:25 2022","1500","The main experiment item","yes","Flanker_Task_by_Katherine_Hays.osexp","/Users/katherinehays/Desktop/PSYC 5316 - R and OpenSesame","no","mono","no","18","no","white","no","no","768","legacy","37","37","/Users/katherinehays/Desktop/PSYC 5316 - R and OpenSesame/KH-subject-2.csv","legacy","Lentiform Loewenfeld","3.3.12","0","s","NA","NA","NA","h","s","410","NA","NA","NA","21190","410","2","legacy","1024","2","48000","-16","experiment","SSSSS","2","even","22360","NA","NA","86996","66943","1090","NA","NA","88048","NA","NA","1163","88154","88565","88044","88154","Flanker Task (by Katherine Hays)","35","21233","38","yes","1024"
"92.3076923076923","92.3076923076923","558.0512820512821","558.0512820512821","black","legacy","legacy","legacy","0","congruent","uniform","1","undefined","1","s","0","0","0","38","38","0","38","0","38","0","0","0","38","38","38","38","Sun Sep 18 20:50:25 2022","1500","The main experiment item","yes","Flanker_Task_by_Katherine_Hays.osexp","/Users/katherinehays/Desktop/PSYC 5316 - R and OpenSesame","no","mono","no","18","no","white","no","no","768","legacy","38","38","/Users/katherinehays/Desktop/PSYC 5316 - R and OpenSesame/KH-subject-2.csv","legacy","Lentiform Loewenfeld","3.3.12","0","s","NA","NA","NA","h","s","531","NA","NA","NA","21190","531","2","legacy","1024","2","48000","-16","experiment","SSSSS","2","even","22360","NA","NA","88569","66943","1090","NA","NA","89627","NA","NA","1163","89734","90266","89622","89734","Flanker Task (by Katherine Hays)","36","21764","39","yes","1024"
"92.5","92.5","553.825","553.825","black","legacy","legacy","legacy","0","congruent","uniform","1","undefined","1","s","0","0","0","39","39","0","39","0","39","0","0","0","39","39","39","39","Sun Sep 18 20:50:25 2022","1500","The main experiment item","yes","Flanker_Task_by_Katherine_Hays.osexp","/Users/katherinehays/Desktop/PSYC 5316 - R and OpenSesame","no","mono","no","18","no","white","no","no","768","legacy","39","39","/Users/katherinehays/Desktop/PSYC 5316 - R and OpenSesame/KH-subject-2.csv","legacy","Lentiform Loewenfeld","3.3.12","0","s","NA","NA","NA","h","s","389","NA","NA","NA","21190","389","2","legacy","1024","2","48000","-16","experiment","SSSSS","2","even","22360","NA","NA","90270","66943","1090","NA","NA","91322","NA","NA","1163","91427","91817","91317","91426","Flanker Task (by Katherine Hays)","37","22153","40","yes","1024"
"90.2439024390244","90.2439024390244","549.609756097561","549.609756097561","black","legacy","legacy","legacy","0","incongruent","uniform","0","undefined","0","h","0","0","0","40","40","0","40","0","40","0","0","0","40","40","40","40","Sun Sep 18 20:50:25 2022","1500","The main experiment item","yes","Flanker_Task_by_Katherine_Hays.osexp","/Users/katherinehays/Desktop/PSYC 5316 - R and OpenSesame","no","mono","no","18","no","white","no","no","768","legacy","40","40","/Users/katherinehays/Desktop/PSYC 5316 - R and OpenSesame/KH-subject-2.csv","legacy","Lentiform Loewenfeld","3.3.12","0","s","NA","NA","NA","h","s","381","NA","NA","NA","21190","381","2","legacy","1024","2","48000","-16","experiment","SSHSS","2","even","22360","NA","NA","91821","66943","1090","NA","NA","92877","NA","NA","1163","92984","93365","92872","92984","Flanker Task (by Katherine Hays)","37","22534","41","yes","1024"
"90.47619047619048","90.47619047619048","548.0952380952381","548.0952380952381","black","legacy","legacy","legacy","0","congruent","uniform","1","undefined","1","h","0","0","0","41","41","0","41","0","41","0","0","0","41","41","41","41","Sun Sep 18 20:50:25 2022","1500","The main experiment item","yes","Flanker_Task_by_Katherine_Hays.osexp","/Users/katherinehays/Desktop/PSYC 5316 - R and OpenSesame","no","mono","no","18","no","white","no","no","768","legacy","41","41","/Users/katherinehays/Desktop/PSYC 5316 - R and OpenSesame/KH-subject-2.csv","legacy","Lentiform Loewenfeld","3.3.12","0","h","NA","NA","NA","h","h","486","NA","NA","NA","21190","486","2","legacy","1024","2","48000","-16","experiment","HHHHH","2","even","22360","NA","NA","93879","93369","1090","NA","NA","94938","NA","NA","1163","95045","95532","94933","95045","Flanker Task (by Katherine Hays)","38","23020","42","yes","1024"
"90.69767441860465","90.69767441860465","550.6279069767442","550.6279069767442","black","legacy","legacy","legacy","0","incongruent","uniform","1","undefined","1","h","0","0","0","42","42","0","42","0","42","0","0","0","42","42","42","42","Sun Sep 18 20:50:25 2022","1500","The main experiment item","yes","Flanker_Task_by_Katherine_Hays.osexp","/Users/katherinehays/Desktop/PSYC 5316 - R and OpenSesame","no","mono","no","18","no","white","no","no","768","legacy","42","42","/Users/katherinehays/Desktop/PSYC 5316 - R and OpenSesame/KH-subject-2.csv","legacy","Lentiform Loewenfeld","3.3.12","0","h","NA","NA","NA","h","h","657","NA","NA","NA","21190","657","2","legacy","1024","2","48000","-16","experiment","SSHSS","2","even","22360","NA","NA","95536","93369","1090","NA","NA","96579","NA","NA","1163","96684","97342","96575","96684","Flanker Task (by Katherine Hays)","39","23677","43","yes","1024"
"90.9090909090909","90.9090909090909","552.8409090909091","552.8409090909091","black","legacy","legacy","legacy","0","congruent","uniform","1","undefined","1","s","0","0","0","43","43","0","43","0","43","0","0","0","43","43","43","43","Sun Sep 18 20:50:25 2022","1500","The main experiment item","yes","Flanker_Task_by_Katherine_Hays.osexp","/Users/katherinehays/Desktop/PSYC 5316 - R and OpenSesame","no","mono","no","18","no","white","no","no","768","legacy","43","43","/Users/katherinehays/Desktop/PSYC 5316 - R and OpenSesame/KH-subject-2.csv","legacy","Lentiform Loewenfeld","3.3.12","0","s","NA","NA","NA","h","s","648","NA","NA","NA","21190","648","2","legacy","1024","2","48000","-16","experiment","SSSSS","2","even","22360","NA","NA","97346","93369","1090","NA","NA","98402","NA","NA","1163","98519","99168","98397","98519","Flanker Task (by Katherine Hays)","40","24325","44","yes","1024"
"91.11111111111111","91.11111111111111","550.6222222222223","550.6222222222223","black","legacy","legacy","legacy","0","congruent","uniform","1","undefined","1","h","0","0","0","44","44","0","44","0","44","0","0","0","44","44","44","44","Sun Sep 18 20:50:25 2022","1500","The main experiment item","yes","Flanker_Task_by_Katherine_Hays.osexp","/Users/katherinehays/Desktop/PSYC 5316 - R and OpenSesame","no","mono","no","18","no","white","no","no","768","legacy","44","44","/Users/katherinehays/Desktop/PSYC 5316 - R and OpenSesame/KH-subject-2.csv","legacy","Lentiform Loewenfeld","3.3.12","0","h","NA","NA","NA","h","h","453","NA","NA","NA","21190","453","2","legacy","1024","2","48000","-16","experiment","HHHHH","2","even","22360","NA","NA","99172","93369","1090","NA","NA","100231","NA","NA","1163","100338","100792","100226","100338","Flanker Task (by Katherine Hays)","41","24778","45","yes","1024"
"91.30434782608695","91.30434782608695","550.5","550.5","black","legacy","legacy","legacy","0","incongruent","uniform","1","undefined","1","s","0","0","0","45","45","0","45","0","45","0","0","0","45","45","45","45","Sun Sep 18 20:50:25 2022","1500","The main experiment item","yes","Flanker_Task_by_Katherine_Hays.osexp","/Users/katherinehays/Desktop/PSYC 5316 - R and OpenSesame","no","mono","no","18","no","white","no","no","768","legacy","45","45","/Users/katherinehays/Desktop/PSYC 5316 - R and OpenSesame/KH-subject-2.csv","legacy","Lentiform Loewenfeld","3.3.12","0","s","NA","NA","NA","h","s","545","NA","NA","NA","21190","545","2","legacy","1024","2","48000","-16","experiment","HHSHH","2","even","22360","NA","NA","100796","93369","1090","NA","NA","101855","NA","NA","1163","101962","102508","101850","101962","Flanker Task (by Katherine Hays)","42","25323","46","yes","1024"
"91.48936170212765","91.48936170212765","551.9574468085107","551.9574468085107","black","legacy","legacy","legacy","0","congruent","uniform","1","undefined","1","s","0","0","0","46","46","0","46","0","46","0","0","0","46","46","46","46","Sun Sep 18 20:50:25 2022","1500","The main experiment item","yes","Flanker_Task_by_Katherine_Hays.osexp","/Users/katherinehays/Desktop/PSYC 5316 - R and OpenSesame","no","mono","no","18","no","white","no","no","768","legacy","46","46","/Users/katherinehays/Desktop/PSYC 5316 - R and OpenSesame/KH-subject-2.csv","legacy","Lentiform Loewenfeld","3.3.12","0","s","NA","NA","NA","h","s","619","NA","NA","NA","21190","619","2","legacy","1024","2","48000","-16","experiment","SSSSS","2","even","22360","NA","NA","102512","93369","1090","NA","NA","103570","NA","NA","1163","103675","104294","103565","103675","Flanker Task (by Katherine Hays)","43","25942","47","yes","1024"
"91.66666666666667","91.66666666666667","549.8541666666666","549.8541666666666","black","legacy","legacy","legacy","0","congruent","uniform","1","undefined","1","h","0","0","0","47","47","0","47","0","47","0","0","0","47","47","47","47","Sun Sep 18 20:50:25 2022","1500","The main experiment item","yes","Flanker_Task_by_Katherine_Hays.osexp","/Users/katherinehays/Desktop/PSYC 5316 - R and OpenSesame","no","mono","no","18","no","white","no","no","768","legacy","47","47","/Users/katherinehays/Desktop/PSYC 5316 - R and OpenSesame/KH-subject-2.csv","legacy","Lentiform Loewenfeld","3.3.12","0","h","NA","NA","NA","h","h","451","NA","NA","NA","21190","451","2","legacy","1024","2","48000","-16","experiment","HHHHH","2","even","22360","NA","NA","104299","93369","1090","NA","NA","105358","NA","NA","1163","105465","105917","105353","105465","Flanker Task (by Katherine Hays)","44","26393","48","yes","1024"
"91.83673469387755","91.83673469387755","548.9183673469388","548.9183673469388","black","legacy","legacy","legacy","0","incongruent","uniform","1","undefined","1","h","0","0","0","48","48","0","48","0","48","0","0","0","48","48","48","48","Sun Sep 18 20:50:25 2022","1500","The main experiment item","yes","Flanker_Task_by_Katherine_Hays.osexp","/Users/katherinehays/Desktop/PSYC 5316 - R and OpenSesame","no","mono","no","18","no","white","no","no","768","legacy","48","48","/Users/katherinehays/Desktop/PSYC 5316 - R and OpenSesame/KH-subject-2.csv","legacy","Lentiform Loewenfeld","3.3.12","0","h","NA","NA","NA","h","h","504","NA","NA","NA","21190","504","2","legacy","1024","2","48000","-16","experiment","SSHSS","2","even","22360","NA","NA","105921","93369","1090","NA","NA","106979","NA","NA","1163","107086","107591","106974","107086","Flanker Task (by Katherine Hays)","45","26897","49","yes","1024"
"92","92","546.08","546.08","black","legacy","legacy","legacy","0","congruent","uniform","1","undefined","1","h","0","0","0","49","49","0","49","0","49","0","0","0","49","49","49","49","Sun Sep 18 20:50:25 2022","1500","The main experiment item","yes","Flanker_Task_by_Katherine_Hays.osexp","/Users/katherinehays/Desktop/PSYC 5316 - R and OpenSesame","no","mono","no","18","no","white","no","no","768","legacy","49","49","/Users/katherinehays/Desktop/PSYC 5316 - R and OpenSesame/KH-subject-2.csv","legacy","Lentiform Loewenfeld","3.3.12","0","h","NA","NA","NA","h","h","407","NA","NA","NA","21190","407","2","legacy","1024","2","48000","-16","experiment","HHHHH","2","even","22360","NA","NA","107595","93369","1090","NA","NA","108650","NA","NA","1163","108755","109163","108645","108755","Flanker Task (by Katherine Hays)","46","27304","50","yes","1024"
"92.15686274509804","92.15686274509804","544.5686274509804","544.5686274509804","black","legacy","legacy","legacy","0","incongruent","uniform","1","undefined","1","s","0","0","0","50","50","0","50","0","50","0","0","0","50","50","50","50","Sun Sep 18 20:50:25 2022","1500","The main experiment item","yes","Flanker_Task_by_Katherine_Hays.osexp","/Users/katherinehays/Desktop/PSYC 5316 - R and OpenSesame","no","mono","no","18","no","white","no","no","768","legacy","50","50","/Users/katherinehays/Desktop/PSYC 5316 - R and OpenSesame/KH-subject-2.csv","legacy","Lentiform Loewenfeld","3.3.12","0","s","NA","NA","NA","h","s","469","NA","NA","NA","21190","469","2","legacy","1024","2","48000","-16","experiment","HHSHH","2","even","22360","NA","NA","109167","93369","1090","NA","NA","110222","NA","NA","1163","110328","110798","110217","110328","Flanker Task (by Katherine Hays)","47","27773","51","yes","1024"
"92.3076923076923","92.3076923076923","543.4423076923077","543.4423076923077","black","legacy","legacy","legacy","0","congruent","uniform","1","undefined","1","h","0","0","0","51","51","0","51","0","51","0","0","0","51","51","51","51","Sun Sep 18 20:50:25 2022","1500","The main experiment item","yes","Flanker_Task_by_Katherine_Hays.osexp","/Users/katherinehays/Desktop/PSYC 5316 - R and OpenSesame","no","mono","no","18","no","white","no","no","768","legacy","51","51","/Users/katherinehays/Desktop/PSYC 5316 - R and OpenSesame/KH-subject-2.csv","legacy","Lentiform Loewenfeld","3.3.12","0","h","NA","NA","NA","h","h","486","NA","NA","NA","21190","486","2","legacy","1024","2","48000","-16","experiment","HHHHH","2","even","22360","NA","NA","110802","93369","1090","NA","NA","111845","NA","NA","1163","111951","112438","111841","111951","Flanker Task (by Katherine Hays)","48","28259","52","yes","1024"
"92.45283018867924","92.45283018867924","543.2830188679245","543.2830188679245","black","legacy","legacy","legacy","0","incongruent","uniform","1","undefined","1","h","0","0","0","52","52","0","52","0","52","0","0","0","52","52","52","52","Sun Sep 18 20:50:25 2022","1500","The main experiment item","yes","Flanker_Task_by_Katherine_Hays.osexp","/Users/katherinehays/Desktop/PSYC 5316 - R and OpenSesame","no","mono","no","18","no","white","no","no","768","legacy","52","52","/Users/katherinehays/Desktop/PSYC 5316 - R and OpenSesame/KH-subject-2.csv","legacy","Lentiform Loewenfeld","3.3.12","0","h","NA","NA","NA","h","h","535","NA","NA","NA","21190","535","2","legacy","1024","2","48000","-16","experiment","SSHSS","2","even","22360","NA","NA","112442","93369","1090","NA","NA","113491","NA","NA","1163","113596","114132","113487","113596","Flanker Task (by Katherine Hays)","49","28794","53","yes","1024"
"92.5925925925926","92.5925925925926","542.574074074074","542.574074074074","black","legacy","legacy","legacy","0","incongruent","uniform","1","undefined","1","h","0","0","0","53","53","0","53","0","53","0","0","0","53","53","53","53","Sun Sep 18 20:50:25 2022","1500","The main experiment item","yes","Flanker_Task_by_Katherine_Hays.osexp","/Users/katherinehays/Desktop/PSYC 5316 - R and OpenSesame","no","mono","no","18","no","white","no","no","768","legacy","53","53","/Users/katherinehays/Desktop/PSYC 5316 - R and OpenSesame/KH-subject-2.csv","legacy","Lentiform Loewenfeld","3.3.12","0","h","NA","NA","NA","h","h","505","NA","NA","NA","21190","505","2","legacy","1024","2","48000","-16","experiment","SSHSS","2","even","22360","NA","NA","114136","93369","1090","NA","NA","115194","NA","NA","1163","115301","115807","115189","115301","Flanker Task (by Katherine Hays)","50","29299","54","yes","1024"
"92.72727272727273","92.72727272727273","541.1090909090909","541.1090909090909","black","legacy","legacy","legacy","0","incongruent","uniform","1","undefined","1","h","0","0","0","54","54","0","54","0","54","0","0","0","54","54","54","54","Sun Sep 18 20:50:25 2022","1500","The main experiment item","yes","Flanker_Task_by_Katherine_Hays.osexp","/Users/katherinehays/Desktop/PSYC 5316 - R and OpenSesame","no","mono","no","18","no","white","no","no","768","legacy","54","54","/Users/katherinehays/Desktop/PSYC 5316 - R and OpenSesame/KH-subject-2.csv","legacy","Lentiform Loewenfeld","3.3.12","0","h","NA","NA","NA","h","h","462","NA","NA","NA","21190","462","2","legacy","1024","2","48000","-16","experiment","SSHSS","2","even","22360","NA","NA","115811","93369","1090","NA","NA","116875","NA","NA","1163","116981","117444","116871","116981","Flanker Task (by Katherine Hays)","51","29761","55","yes","1024"
"92.85714285714286","92.85714285714286","539.9642857142857","539.9642857142857","black","legacy","legacy","legacy","0","congruent","uniform","1","undefined","1","s","0","0","0","55","55","0","55","0","55","0","0","0","55","55","55","55","Sun Sep 18 20:50:25 2022","1500","The main experiment item","yes","Flanker_Task_by_Katherine_Hays.osexp","/Users/katherinehays/Desktop/PSYC 5316 - R and OpenSesame","no","mono","no","18","no","white","no","no","768","legacy","55","55","/Users/katherinehays/Desktop/PSYC 5316 - R and OpenSesame/KH-subject-2.csv","legacy","Lentiform Loewenfeld","3.3.12","0","s","NA","NA","NA","h","s","477","NA","NA","NA","21190","477","2","legacy","1024","2","48000","-16","experiment","SSSSS","2","even","22360","NA","NA","117448","93369","1090","NA","NA","118514","NA","NA","1163","118621","119098","118509","118621","Flanker Task (by Katherine Hays)","52","30238","56","yes","1024"
"92.98245614035088","92.98245614035088","537.7894736842105","537.7894736842105","black","legacy","legacy","legacy","0","incongruent","uniform","1","undefined","1","h","0","0","0","56","56","0","56","0","56","0","0","0","56","56","56","56","Sun Sep 18 20:50:25 2022","1500","The main experiment item","yes","Flanker_Task_by_Katherine_Hays.osexp","/Users/katherinehays/Desktop/PSYC 5316 - R and OpenSesame","no","mono","no","18","no","white","no","no","768","legacy","56","56","/Users/katherinehays/Desktop/PSYC 5316 - R and OpenSesame/KH-subject-2.csv","legacy","Lentiform Loewenfeld","3.3.12","0","h","NA","NA","NA","h","h","416","NA","NA","NA","21190","416","2","legacy","1024","2","48000","-16","experiment","SSHSS","2","even","22360","NA","NA","119103","93369","1090","NA","NA","120159","NA","NA","1163","120266","120683","120154","120266","Flanker Task (by Katherine Hays)","53","30654","57","yes","1024"
"93.10344827586206","93.10344827586206","537.8448275862069","537.8448275862069","black","legacy","legacy","legacy","0","incongruent","uniform","1","undefined","1","h","0","0","0","57","57","0","57","0","57","0","0","0","57","57","57","57","Sun Sep 18 20:50:25 2022","1500","The main experiment item","yes","Flanker_Task_by_Katherine_Hays.osexp","/Users/katherinehays/Desktop/PSYC 5316 - R and OpenSesame","no","mono","no","18","no","white","no","no","768","legacy","57","57","/Users/katherinehays/Desktop/PSYC 5316 - R and OpenSesame/KH-subject-2.csv","legacy","Lentiform Loewenfeld","3.3.12","0","h","NA","NA","NA","h","h","541","NA","NA","NA","21190","541","2","legacy","1024","2","48000","-16","experiment","SSHSS","2","even","22360","NA","NA","120687","93369","1090","NA","NA","121745","NA","NA","1163","121852","122394","121741","121852","Flanker Task (by Katherine Hays)","54","31195","58","yes","1024"
"93.22033898305085","93.22033898305085","539","539","black","legacy","legacy","legacy","0","congruent","uniform","1","undefined","1","s","0","0","0","58","58","0","58","0","58","0","0","0","58","58","58","58","Sun Sep 18 20:50:25 2022","1500","The main experiment item","yes","Flanker_Task_by_Katherine_Hays.osexp","/Users/katherinehays/Desktop/PSYC 5316 - R and OpenSesame","no","mono","no","18","no","white","no","no","768","legacy","58","58","/Users/katherinehays/Desktop/PSYC 5316 - R and OpenSesame/KH-subject-2.csv","legacy","Lentiform Loewenfeld","3.3.12","0","s","NA","NA","NA","h","s","606","NA","NA","NA","21190","606","2","legacy","1024","2","48000","-16","experiment","SSSSS","2","even","22360","NA","NA","122398","93369","1090","NA","NA","123455","NA","NA","1163","123561","124168","123451","123561","Flanker Task (by Katherine Hays)","55","31801","59","yes","1024"
"93.33333333333333","93.33333333333333","538.55","538.55","black","legacy","legacy","legacy","0","incongruent","uniform","1","undefined","1","s","0","0","0","59","59","0","59","0","59","0","0","0","59","59","59","59","Sun Sep 18 20:50:25 2022","1500","The main experiment item","yes","Flanker_Task_by_Katherine_Hays.osexp","/Users/katherinehays/Desktop/PSYC 5316 - R and OpenSesame","no","mono","no","18","no","white","no","no","768","legacy","59","59","/Users/katherinehays/Desktop/PSYC 5316 - R and OpenSesame/KH-subject-2.csv","legacy","Lentiform Loewenfeld","3.3.12","0","s","NA","NA","NA","h","s","512","NA","NA","NA","21190","512","2","legacy","1024","2","48000","-16","experiment","HHSHH","2","even","22360","NA","NA","124172","93369","1090","NA","NA","125230","NA","NA","1163","125337","125850","125225","125337","Flanker Task (by Katherine Hays)","56","32313","60","yes","1024"
"93.44262295081967","93.44262295081967","538.2295081967213","538.2295081967213","black","legacy","legacy","legacy","0","incongruent","uniform","1","undefined","1","s","0","0","0","60","60","0","60","0","60","0","0","0","60","60","60","60","Sun Sep 18 20:50:25 2022","1500","The main experiment item","yes","Flanker_Task_by_Katherine_Hays.osexp","/Users/katherinehays/Desktop/PSYC 5316 - R and OpenSesame","no","mono","no","18","no","white","no","no","768","legacy","60","60","/Users/katherinehays/Desktop/PSYC 5316 - R and OpenSesame/KH-subject-2.csv","legacy","Lentiform Loewenfeld","3.3.12","0","s","NA","NA","NA","h","s","519","NA","NA","NA","21190","519","2","legacy","1024","2","48000","-16","experiment","HHSHH","2","even","22360","NA","NA","125854","93369","1090","NA","NA","126913","NA","NA","1163","127019","127539","126908","127019","Flanker Task (by Katherine Hays)","57","32832","61","yes","1024"
"93.54838709677419","93.54838709677419","536.3387096774194","536.3387096774194","black","legacy","legacy","legacy","0","congruent","uniform","1","undefined","1","h","0","0","0","61","61","0","61","0","61","0","0","0","61","61","61","61","Sun Sep 18 20:50:25 2022","1500","The main experiment item","yes","Flanker_Task_by_Katherine_Hays.osexp","/Users/katherinehays/Desktop/PSYC 5316 - R and OpenSesame","no","mono","no","18","no","white","no","no","768","legacy","61","61","/Users/katherinehays/Desktop/PSYC 5316 - R and OpenSesame/KH-subject-2.csv","legacy","Lentiform Loewenfeld","3.3.12","0","h","NA","NA","NA","h","h","421","NA","NA","NA","21190","421","2","legacy","1024","2","48000","-16","experiment","HHHHH","2","even","22360","NA","NA","127543","93369","1090","NA","NA","128604","NA","NA","1163","128711","129133","128599","128711","Flanker Task (by Katherine Hays)","58","33253","62","yes","1024"
"93.65079365079364","93.65079365079364","534.8888888888889","534.8888888888889","black","legacy","legacy","legacy","0","congruent","uniform","1","undefined","1","h","0","0","0","62","62","0","62","0","62","0","0","0","62","62","62","62","Sun Sep 18 20:50:25 2022","1500","The main experiment item","yes","Flanker_Task_by_Katherine_Hays.osexp","/Users/katherinehays/Desktop/PSYC 5316 - R and OpenSesame","no","mono","no","18","no","white","no","no","768","legacy","62","62","/Users/katherinehays/Desktop/PSYC 5316 - R and OpenSesame/KH-subject-2.csv","legacy","Lentiform Loewenfeld","3.3.12","0","h","NA","NA","NA","h","h","445","NA","NA","NA","21190","445","2","legacy","1024","2","48000","-16","experiment","HHHHH","2","even","22360","NA","NA","129137","93369","1090","NA","NA","130200","NA","NA","1163","130307","130753","130196","130307","Flanker Task (by Katherine Hays)","59","33698","63","yes","1024"
"93.75","93.75","537.890625","537.890625","black","legacy","legacy","legacy","0","incongruent","uniform","1","undefined","1","s","0","0","0","63","63","0","63","0","63","0","0","0","63","63","63","63","Sun Sep 18 20:50:25 2022","1500","The main experiment item","yes","Flanker_Task_by_Katherine_Hays.osexp","/Users/katherinehays/Desktop/PSYC 5316 - R and OpenSesame","no","mono","no","18","no","white","no","no","768","legacy","63","63","/Users/katherinehays/Desktop/PSYC 5316 - R and OpenSesame/KH-subject-2.csv","legacy","Lentiform Loewenfeld","3.3.12","0","s","NA","NA","NA","h","s","727","NA","NA","NA","21190","727","2","legacy","1024","2","48000","-16","experiment","HHSHH","2","even","22360","NA","NA","130757","93369","1090","NA","NA","131815","NA","NA","1163","131922","132650","131809","131922","Flanker Task (by Katherine Hays)","60","34425","64","yes","1024"
"93.84615384615384","93.84615384615384","538.8153846153846","538.8153846153846","black","legacy","legacy","legacy","0","congruent","uniform","1","undefined","1","s","0","0","0","64","64","0","64","0","64","0","0","0","64","64","64","64","Sun Sep 18 20:50:25 2022","1500","The main experiment item","yes","Flanker_Task_by_Katherine_Hays.osexp","/Users/katherinehays/Desktop/PSYC 5316 - R and OpenSesame","no","mono","no","18","no","white","no","no","768","legacy","64","64","/Users/katherinehays/Desktop/PSYC 5316 - R and OpenSesame/KH-subject-2.csv","legacy","Lentiform Loewenfeld","3.3.12","0","s","NA","NA","NA","h","s","598","NA","NA","NA","21190","598","2","legacy","1024","2","48000","-16","experiment","SSSSS","2","even","22360","NA","NA","132654","93369","1090","NA","NA","133712","NA","NA","1163","133819","134418","133707","133819","Flanker Task (by Katherine Hays)","61","35023","65","yes","1024"
"93.93939393939394","93.93939393939394","537.8636363636364","537.8636363636364","black","legacy","legacy","legacy","0","incongruent","uniform","1","undefined","1","h","0","0","0","65","65","0","65","0","65","0","0","0","65","65","65","65","Sun Sep 18 20:50:25 2022","1500","The main experiment item","yes","Flanker_Task_by_Katherine_Hays.osexp","/Users/katherinehays/Desktop/PSYC 5316 - R and OpenSesame","no","mono","no","18","no","white","no","no","768","legacy","65","65","/Users/katherinehays/Desktop/PSYC 5316 - R and OpenSesame/KH-subject-2.csv","legacy","Lentiform Loewenfeld","3.3.12","0","h","NA","NA","NA","h","h","476","NA","NA","NA","21190","476","2","legacy","1024","2","48000","-16","experiment","SSHSS","2","even","22360","NA","NA","134422","93369","1090","NA","NA","135478","NA","NA","1163","135585","136062","135473","135585","Flanker Task (by Katherine Hays)","62","35499","66","yes","1024"
"94.02985074626865","94.02985074626865","540.8656716417911","540.8656716417911","black","legacy","legacy","legacy","0","incongruent","uniform","1","undefined","1","s","0","0","0","66","66","0","66","0","66","0","0","0","66","66","66","66","Sun Sep 18 20:50:25 2022","1500","The main experiment item","yes","Flanker_Task_by_Katherine_Hays.osexp","/Users/katherinehays/Desktop/PSYC 5316 - R and OpenSesame","no","mono","no","18","no","white","no","no","768","legacy","66","66","/Users/katherinehays/Desktop/PSYC 5316 - R and OpenSesame/KH-subject-2.csv","legacy","Lentiform Loewenfeld","3.3.12","0","s","NA","NA","NA","h","s","739","NA","NA","NA","21190","739","2","legacy","1024","2","48000","-16","experiment","HHSHH","2","even","22360","NA","NA","136066","93369","1090","NA","NA","137123","NA","NA","1163","137230","137970","137118","137230","Flanker Task (by Katherine Hays)","63","36238","67","yes","1024"
"94.11764705882354","94.11764705882354","538.5735294117648","538.5735294117648","black","legacy","legacy","legacy","0","congruent","uniform","1","undefined","1","h","0","0","0","67","67","0","67","0","67","0","0","0","67","67","67","67","Sun Sep 18 20:50:25 2022","1500","The main experiment item","yes","Flanker_Task_by_Katherine_Hays.osexp","/Users/katherinehays/Desktop/PSYC 5316 - R and OpenSesame","no","mono","no","18","no","white","no","no","768","legacy","67","67","/Users/katherinehays/Desktop/PSYC 5316 - R and OpenSesame/KH-subject-2.csv","legacy","Lentiform Loewenfeld","3.3.12","0","h","NA","NA","NA","h","h","385","NA","NA","NA","21190","385","2","legacy","1024","2","48000","-16","experiment","HHHHH","2","even","22360","NA","NA","137974","93369","1090","NA","NA","139034","NA","NA","1163","139141","139527","139029","139141","Flanker Task (by Katherine Hays)","64","36623","68","yes","1024"
"94.20289855072464","94.20289855072464","539.5217391304348","539.5217391304348","black","legacy","legacy","legacy","0","congruent","uniform","1","undefined","1","s","0","0","0","68","68","0","68","0","68","0","0","0","68","68","68","68","Sun Sep 18 20:50:25 2022","1500","The main experiment item","yes","Flanker_Task_by_Katherine_Hays.osexp","/Users/katherinehays/Desktop/PSYC 5316 - R and OpenSesame","no","mono","no","18","no","white","no","no","768","legacy","68","68","/Users/katherinehays/Desktop/PSYC 5316 - R and OpenSesame/KH-subject-2.csv","legacy","Lentiform Loewenfeld","3.3.12","0","s","NA","NA","NA","h","s","604","NA","NA","NA","21190","604","2","legacy","1024","2","48000","-16","experiment","SSSSS","2","even","22360","NA","NA","139531","93369","1090","NA","NA","140595","NA","NA","1163","140702","141307","140590","140702","Flanker Task (by Katherine Hays)","65","37227","69","yes","1024"
"94.28571428571429","94.28571428571429","538.7571428571429","538.7571428571429","black","legacy","legacy","legacy","0","incongruent","uniform","1","undefined","1","s","0","0","0","69","69","0","69","0","69","0","0","0","69","69","69","69","Sun Sep 18 20:50:25 2022","1500","The main experiment item","yes","Flanker_Task_by_Katherine_Hays.osexp","/Users/katherinehays/Desktop/PSYC 5316 - R and OpenSesame","no","mono","no","18","no","white","no","no","768","legacy","69","69","/Users/katherinehays/Desktop/PSYC 5316 - R and OpenSesame/KH-subject-2.csv","legacy","Lentiform Loewenfeld","3.3.12","0","s","NA","NA","NA","h","s","486","NA","NA","NA","21190","486","2","legacy","1024","2","48000","-16","experiment","HHSHH","2","even","22360","NA","NA","141311","93369","1090","NA","NA","142370","NA","NA","1163","142476","142963","142365","142476","Flanker Task (by Katherine Hays)","66","37713","70","yes","1024"
"94.36619718309859","94.36619718309859","539.0845070422536","539.0845070422536","black","legacy","legacy","legacy","0","congruent","uniform","1","undefined","1","h","0","0","0","70","70","0","70","0","70","0","0","0","70","70","70","70","Sun Sep 18 20:50:25 2022","1500","The main experiment item","yes","Flanker_Task_by_Katherine_Hays.osexp","/Users/katherinehays/Desktop/PSYC 5316 - R and OpenSesame","no","mono","no","18","no","white","no","no","768","legacy","70","70","/Users/katherinehays/Desktop/PSYC 5316 - R and OpenSesame/KH-subject-2.csv","legacy","Lentiform Loewenfeld","3.3.12","0","h","NA","NA","NA","h","h","562","NA","NA","NA","21190","562","2","legacy","1024","2","48000","-16","experiment","HHHHH","2","even","22360","NA","NA","142967","93369","1090","NA","NA","144024","NA","NA","1163","144131","144693","144019","144130","Flanker Task (by Katherine Hays)","67","38275","71","yes","1024"
"94.44444444444444","94.44444444444444","538.4166666666666","538.4166666666666","black","legacy","legacy","legacy","0","incongruent","uniform","1","undefined","1","s","0","0","0","71","71","0","71","0","71","0","0","0","71","71","71","71","Sun Sep 18 20:50:25 2022","1500","The main experiment item","yes","Flanker_Task_by_Katherine_Hays.osexp","/Users/katherinehays/Desktop/PSYC 5316 - R and OpenSesame","no","mono","no","18","no","white","no","no","768","legacy","71","71","/Users/katherinehays/Desktop/PSYC 5316 - R and OpenSesame/KH-subject-2.csv","legacy","Lentiform Loewenfeld","3.3.12","0","s","NA","NA","NA","h","s","491","NA","NA","NA","21190","491","2","legacy","1024","2","48000","-16","experiment","HHSHH","2","even","22360","NA","NA","144697","93369","1090","NA","NA","145755","NA","NA","1163","145862","146354","145750","145862","Flanker Task (by Katherine Hays)","68","38766","72","yes","1024"
"93.15068493150685","93.15068493150685","536.972602739726","536.972602739726","black","legacy","legacy","legacy","0","incongruent","uniform","0","undefined","0","h","0","0","0","72","72","0","72","0","72","0","0","0","72","72","72","72","Sun Sep 18 20:50:25 2022","1500","The main experiment item","yes","Flanker_Task_by_Katherine_Hays.osexp","/Users/katherinehays/Desktop/PSYC 5316 - R and OpenSesame","no","mono","no","18","no","white","no","no","768","legacy","72","72","/Users/katherinehays/Desktop/PSYC 5316 - R and OpenSesame/KH-subject-2.csv","legacy","Lentiform Loewenfeld","3.3.12","0","s","NA","NA","NA","h","s","433","NA","NA","NA","21190","433","2","legacy","1024","2","48000","-16","experiment","SSHSS","2","even","22360","NA","NA","146358","93369","1090","NA","NA","147417","NA","NA","1163","147535","147969","147412","147535","Flanker Task (by Katherine Hays)","68","39199","73","yes","1024"
"93.24324324324324","93.24324324324324","539.4324324324324","539.4324324324324","black","legacy","legacy","legacy","0","incongruent","uniform","1","undefined","1","s","0","0","0","73","73","0","73","0","73","0","0","0","73","73","73","73","Sun Sep 18 20:50:25 2022","1500","The main experiment item","yes","Flanker_Task_by_Katherine_Hays.osexp","/Users/katherinehays/Desktop/PSYC 5316 - R and OpenSesame","no","mono","no","18","no","white","no","no","768","legacy","73","73","/Users/katherinehays/Desktop/PSYC 5316 - R and OpenSesame/KH-subject-2.csv","legacy","Lentiform Loewenfeld","3.3.12","0","s","NA","NA","NA","h","s","719","NA","NA","NA","21190","719","2","legacy","1024","2","48000","-16","experiment","HHSHH","2","even","22360","NA","NA","148482","147973","1090","NA","NA","149544","NA","NA","1163","149649","150369","149539","149649","Flanker Task (by Katherine Hays)","69","39918","74","yes","1024"
"93.33333333333333","93.33333333333333","539.8933333333333","539.8933333333333","black","legacy","legacy","legacy","0","congruent","uniform","1","undefined","1","s","0","0","0","74","74","0","74","0","74","0","0","0","74","74","74","74","Sun Sep 18 20:50:25 2022","1500","The main experiment item","yes","Flanker_Task_by_Katherine_Hays.osexp","/Users/katherinehays/Desktop/PSYC 5316 - R and OpenSesame","no","mono","no","18","no","white","no","no","768","legacy","74","74","/Users/katherinehays/Desktop/PSYC 5316 - R and OpenSesame/KH-subject-2.csv","legacy","Lentiform Loewenfeld","3.3.12","0","s","NA","NA","NA","h","s","574","NA","NA","NA","21190","574","2","legacy","1024","2","48000","-16","experiment","SSSSS","2","even","22360","NA","NA","150373","147973","1090","NA","NA","151428","NA","NA","1163","151534","152109","151423","151534","Flanker Task (by Katherine Hays)","70","40492","75","yes","1024"
"93.42105263157895","93.42105263157895","539.4473684210526","539.4473684210526","black","legacy","legacy","legacy","0","incongruent","uniform","1","undefined","1","h","0","0","0","75","75","0","75","0","75","0","0","0","75","75","75","75","Sun Sep 18 20:50:25 2022","1500","The main experiment item","yes","Flanker_Task_by_Katherine_Hays.osexp","/Users/katherinehays/Desktop/PSYC 5316 - R and OpenSesame","no","mono","no","18","no","white","no","no","768","legacy","75","75","/Users/katherinehays/Desktop/PSYC 5316 - R and OpenSesame/KH-subject-2.csv","legacy","Lentiform Loewenfeld","3.3.12","0","h","NA","NA","NA","h","h","506","NA","NA","NA","21190","506","2","legacy","1024","2","48000","-16","experiment","SSHSS","2","even","22360","NA","NA","152113","147973","1090","NA","NA","153164","NA","NA","1163","153270","153777","153160","153270","Flanker Task (by Katherine Hays)","71","40998","76","yes","1024"
"93.50649350649351","93.50649350649351","541.2337662337662","541.2337662337662","black","legacy","legacy","legacy","0","incongruent","uniform","1","undefined","1","s","0","0","0","76","76","0","76","0","76","0","0","0","76","76","76","76","Sun Sep 18 20:50:25 2022","1500","The main experiment item","yes","Flanker_Task_by_Katherine_Hays.osexp","/Users/katherinehays/Desktop/PSYC 5316 - R and OpenSesame","no","mono","no","18","no","white","no","no","768","legacy","76","76","/Users/katherinehays/Desktop/PSYC 5316 - R and OpenSesame/KH-subject-2.csv","legacy","Lentiform Loewenfeld","3.3.12","0","s","NA","NA","NA","h","s","677","NA","NA","NA","21190","677","2","legacy","1024","2","48000","-16","experiment","HHSHH","2","even","22360","NA","NA","153781","147973","1090","NA","NA","154835","NA","NA","1163","154941","155619","154831","154941","Flanker Task (by Katherine Hays)","72","41675","77","yes","1024"
"93.58974358974359","93.58974358974359","540.6794871794872","540.6794871794872","black","legacy","legacy","legacy","0","congruent","uniform","1","undefined","1","h","0","0","0","77","77","0","77","0","77","0","0","0","77","77","77","77","Sun Sep 18 20:50:25 2022","1500","The main experiment item","yes","Flanker_Task_by_Katherine_Hays.osexp","/Users/katherinehays/Desktop/PSYC 5316 - R and OpenSesame","no","mono","no","18","no","white","no","no","768","legacy","77","77","/Users/katherinehays/Desktop/PSYC 5316 - R and OpenSesame/KH-subject-2.csv","legacy","Lentiform Loewenfeld","3.3.12","0","h","NA","NA","NA","h","h","498","NA","NA","NA","21190","498","2","legacy","1024","2","48000","-16","experiment","HHHHH","2","even","22360","NA","NA","155623","147973","1090","NA","NA","156682","NA","NA","1163","156787","157286","156677","156787","Flanker Task (by Katherine Hays)","73","42173","78","yes","1024"
"93.67088607594937","93.67088607594937","541.0126582278481","541.0126582278481","black","legacy","legacy","legacy","0","incongruent","uniform","1","undefined","1","s","0","0","0","78","78","0","78","0","78","0","0","0","78","78","78","78","Sun Sep 18 20:50:25 2022","1500","The main experiment item","yes","Flanker_Task_by_Katherine_Hays.osexp","/Users/katherinehays/Desktop/PSYC 5316 - R and OpenSesame","no","mono","no","18","no","white","no","no","768","legacy","78","78","/Users/katherinehays/Desktop/PSYC 5316 - R and OpenSesame/KH-subject-2.csv","legacy","Lentiform Loewenfeld","3.3.12","0","s","NA","NA","NA","h","s","567","NA","NA","NA","21190","567","2","legacy","1024","2","48000","-16","experiment","HHSHH","2","even","22360","NA","NA","157290","147973","1090","NA","NA","158342","NA","NA","1163","158448","159016","158338","158448","Flanker Task (by Katherine Hays)","74","42740","79","yes","1024"
"93.75","93.75","541.1125","541.1125","black","legacy","legacy","legacy","0","congruent","uniform","1","undefined","1","h","0","0","0","79","79","0","79","0","79","0","0","0","79","79","79","79","Sun Sep 18 20:50:25 2022","1500","The main experiment item","yes","Flanker_Task_by_Katherine_Hays.osexp","/Users/katherinehays/Desktop/PSYC 5316 - R and OpenSesame","no","mono","no","18","no","white","no","no","768","legacy","79","79","/Users/katherinehays/Desktop/PSYC 5316 - R and OpenSesame/KH-subject-2.csv","legacy","Lentiform Loewenfeld","3.3.12","0","h","NA","NA","NA","h","h","549","NA","NA","NA","21190","549","2","legacy","1024","2","48000","-16","experiment","HHHHH","2","even","22360","NA","NA","159020","147973","1090","NA","NA","160075","NA","NA","1163","160182","160732","160070","160182","Flanker Task (by Katherine Hays)","75","43289","80","yes","1024"
"93.82716049382717","93.82716049382717","543.1234567901234","543.1234567901234","black","legacy","legacy","legacy","0","incongruent","uniform","1","undefined","1","s","0","0","0","80","80","0","80","0","80","0","0","0","80","80","80","80","Sun Sep 18 20:50:25 2022","600","The main experiment item","yes","Flanker_Task_by_Katherine_Hays.osexp","/Users/katherinehays/Desktop/PSYC 5316 - R and OpenSesame","no","mono","no","18","no","white","no","no","768","legacy","0","79","/Users/katherinehays/Desktop/PSYC 5316 - R and OpenSesame/KH-subject-2.csv","legacy","Lentiform Loewenfeld","3.3.12","0","s","NA","h","NA","h","s","704","NA","6370","NA","21190","704","2","legacy","1024","2","48000","-16","experiment","HHSHH","2","even","22360","168141","NA","160736","147973","1090","NA","NA","168161","161770","NA","1163","168267","168971","168158","168267","Flanker Task (by Katherine Hays)","76","43993","81","yes","1024"
"93.90243902439025","93.90243902439025","541.5","541.5","black","legacy","legacy","legacy","0","congruent","uniform","1","undefined","1","h","0","0","0","81","81","0","81","0","81","0","0","0","81","81","81","81","Sun Sep 18 20:50:25 2022","600","The main experiment item","yes","Flanker_Task_by_Katherine_Hays.osexp","/Users/katherinehays/Desktop/PSYC 5316 - R and OpenSesame","no","mono","no","18","no","white","no","no","768","legacy","1","79","/Users/katherinehays/Desktop/PSYC 5316 - R and OpenSesame/KH-subject-2.csv","legacy","Lentiform Loewenfeld","3.3.12","0","h","NA","h","NA","h","h","410","NA","6370","NA","21190","410","2","legacy","1024","2","48000","-16","experiment","HHHHH","2","even","22360","168141","NA","169484","147973","1090","168975","NA","170538","161770","NA","1163","170645","171056","170533","170644","Flanker Task (by Katherine Hays)","77","44403","82","yes","1024"
"93.97590361445783","93.97590361445783","539.9397590361446","539.9397590361446","black","legacy","legacy","legacy","0","congruent","uniform","1","undefined","1","s","0","0","0","82","82","0","82","0","82","0","0","0","82","82","82","82","Sun Sep 18 20:50:25 2022","600","The main experiment item","yes","Flanker_Task_by_Katherine_Hays.osexp","/Users/katherinehays/Desktop/PSYC 5316 - R and OpenSesame","no","mono","no","18","no","white","no","no","768","legacy","2","79","/Users/katherinehays/Desktop/PSYC 5316 - R and OpenSesame/KH-subject-2.csv","legacy","Lentiform Loewenfeld","3.3.12","0","s","NA","h","NA","h","s","412","NA","6370","NA","21190","412","2","legacy","1024","2","48000","-16","experiment","SSSSS","2","even","22360","168141","NA","171059","147973","1090","168975","NA","172113","161770","NA","1163","172220","172632","172107","172220","Flanker Task (by Katherine Hays)","78","44815","83","yes","1024"
"94.04761904761905","94.04761904761905","537.8095238095239","537.8095238095239","black","legacy","legacy","legacy","0","congruent","uniform","1","undefined","1","h","0","0","0","83","83","0","83","0","83","0","0","0","83","83","83","83","Sun Sep 18 20:50:25 2022","600","The main experiment item","yes","Flanker_Task_by_Katherine_Hays.osexp","/Users/katherinehays/Desktop/PSYC 5316 - R and OpenSesame","no","mono","no","18","no","white","no","no","768","legacy","3","79","/Users/katherinehays/Desktop/PSYC 5316 - R and OpenSesame/KH-subject-2.csv","legacy","Lentiform Loewenfeld","3.3.12","0","h","NA","h","NA","h","h","361","NA","6370","NA","21190","361","2","legacy","1024","2","48000","-16","experiment","HHHHH","2","even","22360","168141","NA","172637","147973","1090","168975","NA","173695","161770","NA","1163","173802","174164","173690","173802","Flanker Task (by Katherine Hays)","79","45176","84","yes","1024"
"92.94117647058823","92.94117647058823","535.8823529411765","535.8823529411765","black","legacy","legacy","legacy","0","incongruent","uniform","0","undefined","0","h","0","0","0","84","84","0","84","0","84","0","0","0","84","84","84","84","Sun Sep 18 20:50:25 2022","600","The main experiment item","yes","Flanker_Task_by_Katherine_Hays.osexp","/Users/katherinehays/Desktop/PSYC 5316 - R and OpenSesame","no","mono","no","18","no","white","no","no","768","legacy","4","79","/Users/katherinehays/Desktop/PSYC 5316 - R and OpenSesame/KH-subject-2.csv","legacy","Lentiform Loewenfeld","3.3.12","0","s","NA","h","NA","h","s","374","NA","6370","NA","21190","374","2","legacy","1024","2","48000","-16","experiment","SSHSS","2","even","22360","168141","NA","174168","147973","1090","168975","NA","175223","161770","NA","1163","175330","175705","175218","175330","Flanker Task (by Katherine Hays)","79","45550","85","yes","1024"
"93.02325581395348","93.02325581395348","534.6511627906976","534.6511627906976","black","legacy","legacy","legacy","0","congruent","uniform","1","undefined","1","h","0","0","0","85","85","0","85","0","85","0","0","0","85","85","85","85","Sun Sep 18 20:50:25 2022","600","The main experiment item","yes","Flanker_Task_by_Katherine_Hays.osexp","/Users/katherinehays/Desktop/PSYC 5316 - R and OpenSesame","no","mono","no","18","no","white","no","no","768","legacy","5","79","/Users/katherinehays/Desktop/PSYC 5316 - R and OpenSesame/KH-subject-2.csv","legacy","Lentiform Loewenfeld","3.3.12","0","h","NA","h","NA","h","h","430","NA","6370","NA","21190","430","2","legacy","1024","2","48000","-16","experiment","HHHHH","2","even","22360","168141","NA","176218","175709","1090","168975","NA","177270","161770","NA","1163","177376","177807","177265","177376","Flanker Task (by Katherine Hays)","80","45980","86","yes","1024"
"93.10344827586206","93.10344827586206","534","534","black","legacy","legacy","legacy","0","incongruent","uniform","1","undefined","1","h","0","0","0","86","86","0","86","0","86","0","0","0","86","86","86","86","Sun Sep 18 20:50:25 2022","600","The main experiment item","yes","Flanker_Task_by_Katherine_Hays.osexp","/Users/katherinehays/Desktop/PSYC 5316 - R and OpenSesame","no","mono","no","18","no","white","no","no","768","legacy","6","79","/Users/katherinehays/Desktop/PSYC 5316 - R and OpenSesame/KH-subject-2.csv","legacy","Lentiform Loewenfeld","3.3.12","0","h","NA","h","NA","h","h","478","NA","6370","NA","21190","478","2","legacy","1024","2","48000","-16","experiment","SSHSS","2","even","22360","168141","NA","177811","175709","1090","168975","NA","178859","161770","NA","1163","178965","179444","178855","178965","Flanker Task (by Katherine Hays)","81","46458","87","yes","1024"
"92.04545454545455","92.04545454545455","532.6022727272727","532.6022727272727","black","legacy","legacy","legacy","0","incongruent","uniform","0","undefined","0","s","0","0","0","87","87","0","87","0","87","0","0","0","87","87","87","87","Sun Sep 18 20:50:25 2022","600","The main experiment item","yes","Flanker_Task_by_Katherine_Hays.osexp","/Users/katherinehays/Desktop/PSYC 5316 - R and OpenSesame","no","mono","no","18","no","white","no","no","768","legacy","7","79","/Users/katherinehays/Desktop/PSYC 5316 - R and OpenSesame/KH-subject-2.csv","legacy","Lentiform Loewenfeld","3.3.12","0","h","NA","h","NA","h","h","411","NA","6370","NA","21190","411","2","legacy","1024","2","48000","-16","experiment","HHSHH","2","even","22360","168141","NA","179448","175709","1090","168975","NA","180505","161770","NA","1163","180612","181024","180500","180612","Flanker Task (by Katherine Hays)","81","46869","88","yes","1024"
"92.13483146067416","92.13483146067416","527.9662921348314","527.9662921348314","black","legacy","legacy","legacy","0","congruent","uniform","1","undefined","1","h","0","0","0","88","88","0","88","0","88","0","0","0","88","88","88","88","Sun Sep 18 20:50:25 2022","600","The main experiment item","yes","Flanker_Task_by_Katherine_Hays.osexp","/Users/katherinehays/Desktop/PSYC 5316 - R and OpenSesame","no","mono","no","18","no","white","no","no","768","legacy","8","79","/Users/katherinehays/Desktop/PSYC 5316 - R and OpenSesame/KH-subject-2.csv","legacy","Lentiform Loewenfeld","3.3.12","0","h","NA","h","NA","h","h","120","NA","6370","NA","21190","120","2","legacy","1024","2","48000","-16","experiment","HHHHH","2","even","22360","168141","NA","181540","181028","1090","168975","NA","182599","161770","NA","1163","182706","182826","182594","182706","Flanker Task (by Katherine Hays)","82","46989","89","yes","1024"
"91.11111111111111","91.11111111111111","523.5333333333333","523.5333333333333","black","legacy","legacy","legacy","0","incongruent","uniform","0","undefined","0","s","0","0","0","89","89","0","89","0","89","0","0","0","89","89","89","89","Sun Sep 18 20:50:25 2022","600","The main experiment item","yes","Flanker_Task_by_Katherine_Hays.osexp","/Users/katherinehays/Desktop/PSYC 5316 - R and OpenSesame","no","mono","no","18","no","white","no","no","768","legacy","9","79","/Users/katherinehays/Desktop/PSYC 5316 - R and OpenSesame/KH-subject-2.csv","legacy","Lentiform Loewenfeld","3.3.12","0","h","NA","h","NA","h","h","129","NA","6370","NA","21190","129","2","legacy","1024","2","48000","-16","experiment","HHSHH","2","even","22360","168141","NA","182831","181028","1090","168975","NA","183890","161770","NA","1163","183996","184125","183884","183996","Flanker Task (by Katherine Hays)","82","47118","90","yes","1024"
"91.20879120879121","91.20879120879121","523.1098901098901","523.1098901098901","black","legacy","legacy","legacy","0","congruent","uniform","1","undefined","1","s","0","0","0","90","90","0","90","0","90","0","0","0","90","90","90","90","Sun Sep 18 20:50:25 2022","600","The main experiment item","yes","Flanker_Task_by_Katherine_Hays.osexp","/Users/katherinehays/Desktop/PSYC 5316 - R and OpenSesame","no","mono","no","18","no","white","no","no","768","legacy","10","79","/Users/katherinehays/Desktop/PSYC 5316 - R and OpenSesame/KH-subject-2.csv","legacy","Lentiform Loewenfeld","3.3.12","0","s","NA","h","NA","h","s","485","NA","6370","NA","21190","485","2","legacy","1024","2","48000","-16","experiment","SSSSS","2","even","22360","168141","NA","184638","184129","1090","168975","NA","185694","161770","NA","1163","185799","186285","185690","185799","Flanker Task (by Katherine Hays)","83","47603","91","yes","1024"
"91.30434782608695","91.30434782608695","523.0217391304348","523.0217391304348","black","legacy","legacy","legacy","0","congruent","uniform","1","undefined","1","h","0","0","0","91","91","0","91","0","91","0","0","0","91","91","91","91","Sun Sep 18 20:50:25 2022","600","The main experiment item","yes","Flanker_Task_by_Katherine_Hays.osexp","/Users/katherinehays/Desktop/PSYC 5316 - R and OpenSesame","no","mono","no","18","no","white","no","no","768","legacy","11","79","/Users/katherinehays/Desktop/PSYC 5316 - R and OpenSesame/KH-subject-2.csv","legacy","Lentiform Loewenfeld","3.3.12","0","h","NA","h","NA","h","h","515","NA","6370","NA","21190","515","2","legacy","1024","2","48000","-16","experiment","HHHHH","2","even","22360","168141","NA","186289","184129","1090","168975","NA","187345","161770","NA","1163","187451","187967","187341","187451","Flanker Task (by Katherine Hays)","84","48118","92","yes","1024"
"91.39784946236558","91.39784946236558","523.4408602150538","523.4408602150538","black","legacy","legacy","legacy","0","incongruent","uniform","1","undefined","1","s","0","0","0","92","92","0","92","0","92","0","0","0","92","92","92","92","Sun Sep 18 20:50:25 2022","600","The main experiment item","yes","Flanker_Task_by_Katherine_Hays.osexp","/Users/katherinehays/Desktop/PSYC 5316 - R and OpenSesame","no","mono","no","18","no","white","no","no","768","legacy","12","79","/Users/katherinehays/Desktop/PSYC 5316 - R and OpenSesame/KH-subject-2.csv","legacy","Lentiform Loewenfeld","3.3.12","0","s","NA","h","NA","h","s","562","NA","6370","NA","21190","562","2","legacy","1024","2","48000","-16","experiment","HHSHH","2","even","22360","168141","NA","187971","184129","1090","168975","NA","189032","161770","NA","1163","189139","189702","189027","189139","Flanker Task (by Katherine Hays)","85","48680","93","yes","1024"
"91.48936170212765","91.48936170212765","523.2127659574468","523.2127659574468","black","legacy","legacy","legacy","0","incongruent","uniform","1","undefined","1","h","0","0","0","93","93","0","93","0","93","0","0","0","93","93","93","93","Sun Sep 18 20:50:25 2022","600","The main experiment item","yes","Flanker_Task_by_Katherine_Hays.osexp","/Users/katherinehays/Desktop/PSYC 5316 - R and OpenSesame","no","mono","no","18","no","white","no","no","768","legacy","13","79","/Users/katherinehays/Desktop/PSYC 5316 - R and OpenSesame/KH-subject-2.csv","legacy","Lentiform Loewenfeld","3.3.12","0","h","NA","h","NA","h","h","502","NA","6370","NA","21190","502","2","legacy","1024","2","48000","-16","experiment","SSHSS","2","even","22360","168141","NA","189705","184129","1090","168975","NA","190764","161770","NA","1163","190871","191374","190759","190871","Flanker Task (by Katherine Hays)","86","49182","94","yes","1024"
"91.57894736842105","91.57894736842105","522.4105263157895","522.4105263157895","black","legacy","legacy","legacy","0","congruent","uniform","1","undefined","1","h","0","0","0","94","94","0","94","0","94","0","0","0","94","94","94","94","Sun Sep 18 20:50:25 2022","600","The main experiment item","yes","Flanker_Task_by_Katherine_Hays.osexp","/Users/katherinehays/Desktop/PSYC 5316 - R and OpenSesame","no","mono","no","18","no","white","no","no","768","legacy","14","79","/Users/katherinehays/Desktop/PSYC 5316 - R and OpenSesame/KH-subject-2.csv","legacy","Lentiform Loewenfeld","3.3.12","0","h","NA","h","NA","h","h","447","NA","6370","NA","21190","447","2","legacy","1024","2","48000","-16","experiment","HHHHH","2","even","22360","168141","NA","191378","184129","1090","168975","NA","192440","161770","NA","1163","192546","192994","192436","192546","Flanker Task (by Katherine Hays)","87","49629","95","yes","1024"
"91.66666666666667","91.66666666666667","521.1145833333334","521.1145833333334","black","legacy","legacy","legacy","0","incongruent","uniform","1","undefined","1","h","0","0","0","95","95","0","95","0","95","0","0","0","95","95","95","95","Sun Sep 18 20:50:25 2022","600","The main experiment item","yes","Flanker_Task_by_Katherine_Hays.osexp","/Users/katherinehays/Desktop/PSYC 5316 - R and OpenSesame","no","mono","no","18","no","white","no","no","768","legacy","15","79","/Users/katherinehays/Desktop/PSYC 5316 - R and OpenSesame/KH-subject-2.csv","legacy","Lentiform Loewenfeld","3.3.12","0","h","NA","h","NA","h","h","398","NA","6370","NA","21190","398","2","legacy","1024","2","48000","-16","experiment","SSHSS","2","even","22360","168141","NA","192998","184129","1090","168975","NA","194052","161770","NA","1163","194158","194557","194048","194158","Flanker Task (by Katherine Hays)","88","50027","96","yes","1024"
"91.75257731958763","91.75257731958763","520.6082474226804","520.6082474226804","black","legacy","legacy","legacy","0","incongruent","uniform","1","undefined","1","s","0","0","0","96","96","0","96","0","96","0","0","0","96","96","96","96","Sun Sep 18 20:50:25 2022","600","The main experiment item","yes","Flanker_Task_by_Katherine_Hays.osexp","/Users/katherinehays/Desktop/PSYC 5316 - R and OpenSesame","no","mono","no","18","no","white","no","no","768","legacy","16","79","/Users/katherinehays/Desktop/PSYC 5316 - R and OpenSesame/KH-subject-2.csv","legacy","Lentiform Loewenfeld","3.3.12","0","s","NA","h","NA","h","s","472","NA","6370","NA","21190","472","2","legacy","1024","2","48000","-16","experiment","HHSHH","2","even","22360","168141","NA","194561","184129","1090","168975","NA","195612","161770","NA","1163","195718","196191","195608","195718","Flanker Task (by Katherine Hays)","89","50499","97","yes","1024"
"91.83673469387755","91.83673469387755","521.3469387755102","521.3469387755102","black","legacy","legacy","legacy","0","incongruent","uniform","1","undefined","1","h","0","0","0","97","97","0","97","0","97","0","0","0","97","97","97","97","Sun Sep 18 20:50:25 2022","600","The main experiment item","yes","Flanker_Task_by_Katherine_Hays.osexp","/Users/katherinehays/Desktop/PSYC 5316 - R and OpenSesame","no","mono","no","18","no","white","no","no","768","legacy","17","79","/Users/katherinehays/Desktop/PSYC 5316 - R and OpenSesame/KH-subject-2.csv","legacy","Lentiform Loewenfeld","3.3.12","0","h","NA","h","NA","h","h","593","NA","6370","NA","21190","593","2","legacy","1024","2","48000","-16","experiment","SSHSS","2","even","22360","168141","NA","196195","184129","1090","168975","NA","197254","161770","NA","1163","197361","197955","197249","197361","Flanker Task (by Katherine Hays)","90","51092","98","yes","1024"
"91.91919191919192","91.91919191919192","521.6767676767677","521.6767676767677","black","legacy","legacy","legacy","0","congruent","uniform","1","undefined","1","h","0","0","0","98","98","0","98","0","98","0","0","0","98","98","98","98","Sun Sep 18 20:50:25 2022","600","The main experiment item","yes","Flanker_Task_by_Katherine_Hays.osexp","/Users/katherinehays/Desktop/PSYC 5316 - R and OpenSesame","no","mono","no","18","no","white","no","no","768","legacy","18","79","/Users/katherinehays/Desktop/PSYC 5316 - R and OpenSesame/KH-subject-2.csv","legacy","Lentiform Loewenfeld","3.3.12","0","h","NA","h","NA","h","h","554","NA","6370","NA","21190","554","2","legacy","1024","2","48000","-16","experiment","HHHHH","2","even","22360","168141","NA","197960","184129","1090","168975","NA","199008","161770","NA","1163","199113","199667","199004","199113","Flanker Task (by Katherine Hays)","91","51646","99","yes","1024"
"92","92","521.37","521.37","black","legacy","legacy","legacy","0","congruent","uniform","1","undefined","1","s","0","0","0","99","99","0","99","0","99","0","0","0","99","99","99","99","Sun Sep 18 20:50:25 2022","600","The main experiment item","yes","Flanker_Task_by_Katherine_Hays.osexp","/Users/katherinehays/Desktop/PSYC 5316 - R and OpenSesame","no","mono","no","18","no","white","no","no","768","legacy","19","79","/Users/katherinehays/Desktop/PSYC 5316 - R and OpenSesame/KH-subject-2.csv","legacy","Lentiform Loewenfeld","3.3.12","0","s","NA","h","NA","h","s","491","NA","6370","NA","21190","491","2","legacy","1024","2","48000","-16","experiment","SSSSS","2","even","22360","168141","NA","199671","184129","1090","168975","NA","200722","161770","NA","1163","200828","201320","200717","200828","Flanker Task (by Katherine Hays)","92","52137","100","yes","1024"
"92.07920792079207","92.07920792079207","520.4653465346535","520.4653465346535","black","legacy","legacy","legacy","0","congruent","uniform","1","undefined","1","h","0","0","0","100","100","0","100","0","100","0","0","0","100","100","100","100","Sun Sep 18 20:50:25 2022","600","The main experiment item","yes","Flanker_Task_by_Katherine_Hays.osexp","/Users/katherinehays/Desktop/PSYC 5316 - R and OpenSesame","no","mono","no","18","no","white","no","no","768","legacy","20","79","/Users/katherinehays/Desktop/PSYC 5316 - R and OpenSesame/KH-subject-2.csv","legacy","Lentiform Loewenfeld","3.3.12","0","h","NA","h","NA","h","h","430","NA","6370","NA","21190","430","2","legacy","1024","2","48000","-16","experiment","HHHHH","2","even","22360","168141","NA","201325","184129","1090","168975","NA","202383","161770","NA","1163","202490","202921","202378","202490","Flanker Task (by Katherine Hays)","93","52567","101","yes","1024"
"92.15686274509804","92.15686274509804","520.0784313725491","520.0784313725491","black","legacy","legacy","legacy","0","incongruent","uniform","1","undefined","1","h","0","0","0","101","101","0","101","0","101","0","0","0","101","101","101","101","Sun Sep 18 20:50:25 2022","600","The main experiment item","yes","Flanker_Task_by_Katherine_Hays.osexp","/Users/katherinehays/Desktop/PSYC 5316 - R and OpenSesame","no","mono","no","18","no","white","no","no","768","legacy","21","79","/Users/katherinehays/Desktop/PSYC 5316 - R and OpenSesame/KH-subject-2.csv","legacy","Lentiform Loewenfeld","3.3.12","0","h","NA","h","NA","h","h","481","NA","6370","NA","21190","481","2","legacy","1024","2","48000","-16","experiment","SSHSS","2","even","22360","168141","NA","202925","184129","1090","168975","NA","203983","161770","NA","1163","204090","204572","203978","204090","Flanker Task (by Katherine Hays)","94","53048","102","yes","1024"
"92.23300970873787","92.23300970873787","519","519","black","legacy","legacy","legacy","0","incongruent","uniform","1","undefined","1","h","0","0","0","102","102","0","102","0","102","0","0","0","102","102","102","102","Sun Sep 18 20:50:25 2022","600","The main experiment item","yes","Flanker_Task_by_Katherine_Hays.osexp","/Users/katherinehays/Desktop/PSYC 5316 - R and OpenSesame","no","mono","no","18","no","white","no","no","768","legacy","22","79","/Users/katherinehays/Desktop/PSYC 5316 - R and OpenSesame/KH-subject-2.csv","legacy","Lentiform Loewenfeld","3.3.12","0","h","NA","h","NA","h","h","409","NA","6370","NA","21190","409","2","legacy","1024","2","48000","-16","experiment","SSHSS","2","even","22360","168141","NA","204576","184129","1090","168975","NA","205628","161770","NA","1163","205733","206143","205624","205733","Flanker Task (by Katherine Hays)","95","53457","103","yes","1024"
"92.3076923076923","92.3076923076923","518.7884615384615","518.7884615384615","black","legacy","legacy","legacy","0","incongruent","uniform","1","undefined","1","s","0","0","0","103","103","0","103","0","103","0","0","0","103","103","103","103","Sun Sep 18 20:50:25 2022","600","The main experiment item","yes","Flanker_Task_by_Katherine_Hays.osexp","/Users/katherinehays/Desktop/PSYC 5316 - R and OpenSesame","no","mono","no","18","no","white","no","no","768","legacy","23","79","/Users/katherinehays/Desktop/PSYC 5316 - R and OpenSesame/KH-subject-2.csv","legacy","Lentiform Loewenfeld","3.3.12","0","s","NA","h","NA","h","s","497","NA","6370","NA","21190","497","2","legacy","1024","2","48000","-16","experiment","HHSHH","2","even","22360","168141","NA","206147","184129","1090","168975","NA","207203","161770","NA","1163","207310","207808","207199","207310","Flanker Task (by Katherine Hays)","96","53954","104","yes","1024"
"92.38095238095238","92.38095238095238","518.9904761904762","518.9904761904762","black","legacy","legacy","legacy","0","incongruent","uniform","1","undefined","1","s","0","0","0","104","104","0","104","0","104","0","0","0","104","104","104","104","Sun Sep 18 20:50:25 2022","600","The main experiment item","yes","Flanker_Task_by_Katherine_Hays.osexp","/Users/katherinehays/Desktop/PSYC 5316 - R and OpenSesame","no","mono","no","18","no","white","no","no","768","legacy","24","79","/Users/katherinehays/Desktop/PSYC 5316 - R and OpenSesame/KH-subject-2.csv","legacy","Lentiform Loewenfeld","3.3.12","0","s","NA","h","NA","h","s","540","NA","6370","NA","21190","540","2","legacy","1024","2","48000","-16","experiment","HHSHH","2","even","22360","168141","NA","207812","184129","1090","168975","NA","208858","161770","NA","1163","208964","209505","208853","208963","Flanker Task (by Katherine Hays)","97","54494","105","yes","1024"
"92.45283018867924","92.45283018867924","519.4716981132076","519.4716981132076","black","legacy","legacy","legacy","0","congruent","uniform","1","undefined","1","h","0","0","0","105","105","0","105","0","105","0","0","0","105","105","105","105","Sun Sep 18 20:50:25 2022","600","The main experiment item","yes","Flanker_Task_by_Katherine_Hays.osexp","/Users/katherinehays/Desktop/PSYC 5316 - R and OpenSesame","no","mono","no","18","no","white","no","no","768","legacy","25","79","/Users/katherinehays/Desktop/PSYC 5316 - R and OpenSesame/KH-subject-2.csv","legacy","Lentiform Loewenfeld","3.3.12","0","h","NA","h","NA","h","h","570","NA","6370","NA","21190","570","2","legacy","1024","2","48000","-16","experiment","HHHHH","2","even","22360","168141","NA","209509","184129","1090","168975","NA","210568","161770","NA","1163","210675","211246","210563","210675","Flanker Task (by Katherine Hays)","98","55064","106","yes","1024"
"92.5233644859813","92.5233644859813","519.1682242990654","519.1682242990654","black","legacy","legacy","legacy","0","congruent","uniform","1","undefined","1","s","0","0","0","106","106","0","106","0","106","0","0","0","106","106","106","106","Sun Sep 18 20:50:25 2022","600","The main experiment item","yes","Flanker_Task_by_Katherine_Hays.osexp","/Users/katherinehays/Desktop/PSYC 5316 - R and OpenSesame","no","mono","no","18","no","white","no","no","768","legacy","26","79","/Users/katherinehays/Desktop/PSYC 5316 - R and OpenSesame/KH-subject-2.csv","legacy","Lentiform Loewenfeld","3.3.12","0","s","NA","h","NA","h","s","487","NA","6370","NA","21190","487","2","legacy","1024","2","48000","-16","experiment","SSSSS","2","even","22360","168141","NA","211250","184129","1090","168975","NA","212305","161770","NA","1163","212412","212900","212301","212412","Flanker Task (by Katherine Hays)","99","55551","107","yes","1024"
"92.5925925925926","92.5925925925926","520.4814814814815","520.4814814814815","black","legacy","legacy","legacy","0","incongruent","uniform","1","undefined","1","s","0","0","0","107","107","0","107","0","107","0","0","0","107","107","107","107","Sun Sep 18 20:50:25 2022","600","The main experiment item","yes","Flanker_Task_by_Katherine_Hays.osexp","/Users/katherinehays/Desktop/PSYC 5316 - R and OpenSesame","no","mono","no","18","no","white","no","no","768","legacy","27","79","/Users/katherinehays/Desktop/PSYC 5316 - R and OpenSesame/KH-subject-2.csv","legacy","Lentiform Loewenfeld","3.3.12","0","s","NA","h","NA","h","s","661","NA","6370","NA","21190","661","2","legacy","1024","2","48000","-16","experiment","HHSHH","2","even","22360","168141","NA","212904","184129","1090","168975","NA","213951","161770","NA","1163","214057","214719","213946","214057","Flanker Task (by Katherine Hays)","100","56212","108","yes","1024"
"92.66055045871559","92.66055045871559","521.2201834862385","521.2201834862385","black","legacy","legacy","legacy","0","congruent","uniform","1","undefined","1","s","0","0","0","108","108","0","108","0","108","0","0","0","108","108","108","108","Sun Sep 18 20:50:25 2022","600","The main experiment item","yes","Flanker_Task_by_Katherine_Hays.osexp","/Users/katherinehays/Desktop/PSYC 5316 - R and OpenSesame","no","mono","no","18","no","white","no","no","768","legacy","28","79","/Users/katherinehays/Desktop/PSYC 5316 - R and OpenSesame/KH-subject-2.csv","legacy","Lentiform Loewenfeld","3.3.12","0","s","NA","h","NA","h","s","601","NA","6370","NA","21190","601","2","legacy","1024","2","48000","-16","experiment","SSSSS","2","even","22360","168141","NA","215233","184129","1090","214723","NA","216287","161770","NA","1163","216393","216995","216282","216393","Flanker Task (by Katherine Hays)","101","56813","109","yes","1024"
