"acc","accuracy","average_response_time","avg_rt","background","canvas_backend","clock_backend","color_backend","compensation","condition","coordinates","correct","correct_Instructions1","correct_keyboard_response","correct_response","count_Block1","count_Block2","count_Block3","count_ISI","count_Instructions1","count_Instructions2","count_Instructions3","count_Sequence","count_errorFeedback","count_experiment","count_faster","count_finish","count_fixation","count_getting_started","count_keyboard_response","count_logger","count_new_loop","count_new_sketchpad","count_stimulus","count_welcome","datetime","deadline","description","disable_garbage_collection","empty_column","experiment_file","experiment_path","font_bold","font_family","font_italic","font_size","font_underline","foreground","form_clicks","fullscreen","height","keyboard_backend","live_row","live_row_Block1","logfile","mouse_backend","opensesame_codename","opensesame_version","repeat_cycle","response","response_Instructions1","response_Instructions2","response_Instructions3","response_finish","response_keyboard_response","response_new_sketchpad","response_time","response_time_Instructions1","response_time_Instructions2","response_time_Instructions3","response_time_finish","response_time_keyboard_response","response_time_new_sketchpad","response_time_welcome","response_welcome","round_decimals","sampler_backend","sound_buf_size","sound_channels","sound_freq","sound_sample_size","start","stimulus","subject_nr","subject_parity","time_Block1","time_Block2","time_Block3","time_ISI","time_Instructions1","time_Instructions2","time_Instructions3","time_Sequence","time_errorFeedback","time_experiment","time_faster","time_finish","time_fixation","time_getting_started","time_keyboard_response","time_logger","time_new_loop","time_new_sketchpad","time_stimulus","time_welcome","title","total_correct","total_response_time","total_responses","uniform_coordinates","width"
"100","100","864","864","black","legacy","legacy","legacy","0","incongruent","uniform","1","undefined","1","h","0","0","0","0","0","0","0","0","0","0","0","0","0","0","0","0","NA","NA","0","0","Sun Sep 25 13:25:58 2022","1500","The main experiment item","yes","NA","KH-Subject-1.osexp","/Users/keelihatcher/Desktop/Tarleton M.D./Advanced Quantitative Methods & Experimental Design","no","mono","no","18","no","white","no","no","768","legacy","0","0","/Users/keelihatcher/Desktop/Tarleton M.D./Advanced Quantitative Methods & Experimental Design/KH-subject-4.csv","legacy","Lentiform Loewenfeld","3.3.12","0","h","s","NA","NA","NA","h","NA","864","108467","NA","NA","NA","864","NA","NA","NA","2","legacy","1024","2","48000","-16","experiment","SSHSS","4","even","110740","NA","NA","NA","2254","NA","NA","110782","NA","2123","NA","NA","110786","NA","110892","111756","NA","NA","110892","NA","Flanker Task","1","864","1","yes","1024"
"100","100","734.5","734.5","black","legacy","legacy","legacy","0","congruent","uniform","1","undefined","1","s","0","0","0","1","0","0","0","1","1","0","1","0","1","0","1","1","NA","NA","1","0","Sun Sep 25 13:25:58 2022","1500","The main experiment item","yes","NA","KH-Subject-1.osexp","/Users/keelihatcher/Desktop/Tarleton M.D./Advanced Quantitative Methods & Experimental Design","no","mono","no","18","no","white","no","no","768","legacy","1","1","/Users/keelihatcher/Desktop/Tarleton M.D./Advanced Quantitative Methods & Experimental Design/KH-subject-4.csv","legacy","Lentiform Loewenfeld","3.3.12","0","s","s","NA","NA","NA","s","NA","605","108467","NA","NA","NA","605","NA","NA","NA","2","legacy","1024","2","48000","-16","experiment","SSSSS","4","even","110740","NA","NA","111762","2254","NA","NA","112842","NA","2123","NA","NA","112846","NA","112951","113557","NA","NA","112951","NA","Flanker Task","2","1469","2","yes","1024"
"100","100","650.3333333333334","650.3333333333334","black","legacy","legacy","legacy","0","congruent","uniform","1","undefined","1","s","0","0","0","2","0","0","0","2","2","0","2","0","2","0","2","2","NA","NA","2","0","Sun Sep 25 13:25:58 2022","1500","The main experiment item","yes","NA","KH-Subject-1.osexp","/Users/keelihatcher/Desktop/Tarleton M.D./Advanced Quantitative Methods & Experimental Design","no","mono","no","18","no","white","no","no","768","legacy","2","2","/Users/keelihatcher/Desktop/Tarleton M.D./Advanced Quantitative Methods & Experimental Design/KH-subject-4.csv","legacy","Lentiform Loewenfeld","3.3.12","0","s","s","NA","NA","NA","s","NA","482","108467","NA","NA","NA","482","NA","NA","NA","2","legacy","1024","2","48000","-16","experiment","SSSSS","4","even","110740","NA","NA","113562","2254","NA","NA","114635","NA","2123","NA","NA","114638","NA","114744","115237","NA","NA","114744","NA","Flanker Task","3","1951","3","yes","1024"
"100","100","608","608","black","legacy","legacy","legacy","0","congruent","uniform","1","undefined","1","s","0","0","0","3","0","0","0","3","3","0","3","0","3","0","3","3","NA","NA","3","0","Sun Sep 25 13:25:58 2022","1500","The main experiment item","yes","NA","KH-Subject-1.osexp","/Users/keelihatcher/Desktop/Tarleton M.D./Advanced Quantitative Methods & Experimental Design","no","mono","no","18","no","white","no","no","768","legacy","3","3","/Users/keelihatcher/Desktop/Tarleton M.D./Advanced Quantitative Methods & Experimental Design/KH-subject-4.csv","legacy","Lentiform Loewenfeld","3.3.12","0","s","s","NA","NA","NA","s","NA","481","108467","NA","NA","NA","481","NA","NA","NA","2","legacy","1024","2","48000","-16","experiment","SSSSS","4","even","110740","NA","NA","115241","2254","NA","NA","116326","NA","2123","NA","NA","116330","NA","116435","116916","NA","NA","116435","NA","Flanker Task","4","2432","4","yes","1024"
"100","100","591.4","591.4","black","legacy","legacy","legacy","0","congruent","uniform","1","undefined","1","h","0","0","0","4","0","0","0","4","4","0","4","0","4","0","4","4","NA","NA","4","0","Sun Sep 25 13:25:58 2022","1500","The main experiment item","yes","NA","KH-Subject-1.osexp","/Users/keelihatcher/Desktop/Tarleton M.D./Advanced Quantitative Methods & Experimental Design","no","mono","no","18","no","white","no","no","768","legacy","4","4","/Users/keelihatcher/Desktop/Tarleton M.D./Advanced Quantitative Methods & Experimental Design/KH-subject-4.csv","legacy","Lentiform Loewenfeld","3.3.12","0","h","s","NA","NA","NA","h","NA","525","108467","NA","NA","NA","525","NA","NA","NA","2","legacy","1024","2","48000","-16","experiment","HHHHH","4","even","110740","NA","NA","116921","2254","NA","NA","117999","NA","2123","NA","NA","118003","NA","118109","118635","NA","NA","118108","NA","Flanker Task","5","2957","5","yes","1024"
"83.33333333333333","83.33333333333333","581.3333333333334","581.3333333333334","black","legacy","legacy","legacy","0","incongruent","uniform","0","undefined","0","h","0","0","0","5","0","0","0","5","5","0","5","0","5","0","5","5","NA","NA","5","0","Sun Sep 25 13:25:58 2022","1500","The main experiment item","yes","NA","KH-Subject-1.osexp","/Users/keelihatcher/Desktop/Tarleton M.D./Advanced Quantitative Methods & Experimental Design","no","mono","no","18","no","white","no","no","768","legacy","5","5","/Users/keelihatcher/Desktop/Tarleton M.D./Advanced Quantitative Methods & Experimental Design/KH-subject-4.csv","legacy","Lentiform Loewenfeld","3.3.12","0","s","s","NA","NA","NA","s","NA","531","108467","NA","NA","NA","531","NA","NA","NA","2","legacy","1024","2","48000","-16","experiment","SSHSS","4","even","110740","NA","NA","118639","2254","NA","NA","119717","NA","2123","NA","NA","119721","NA","119826","120358","NA","NA","119826","NA","Flanker Task","5","3488","6","yes","1024"
"85.71428571428571","85.71428571428571","599","599","black","legacy","legacy","legacy","0","incongruent","uniform","1","undefined","1","h","0","0","0","6","0","0","0","6","6","0","6","0","6","0","6","6","NA","NA","6","0","Sun Sep 25 13:25:58 2022","1500","The main experiment item","yes","NA","KH-Subject-1.osexp","/Users/keelihatcher/Desktop/Tarleton M.D./Advanced Quantitative Methods & Experimental Design","no","mono","no","18","no","white","no","no","768","legacy","6","6","/Users/keelihatcher/Desktop/Tarleton M.D./Advanced Quantitative Methods & Experimental Design/KH-subject-4.csv","legacy","Lentiform Loewenfeld","3.3.12","0","h","s","NA","NA","NA","h","NA","705","108467","NA","NA","NA","705","NA","NA","NA","2","legacy","1024","2","48000","-16","experiment","SSHSS","4","even","110740","NA","NA","120873","2254","NA","NA","121951","120362","2123","NA","NA","121954","NA","122059","122764","NA","NA","122059","NA","Flanker Task","6","4193","7","yes","1024"
"87.5","87.5","598.75","598.75","black","legacy","legacy","legacy","0","incongruent","uniform","1","undefined","1","h","0","0","0","7","0","0","0","7","7","0","7","0","7","0","7","7","NA","NA","7","0","Sun Sep 25 13:25:58 2022","1500","The main experiment item","yes","NA","KH-Subject-1.osexp","/Users/keelihatcher/Desktop/Tarleton M.D./Advanced Quantitative Methods & Experimental Design","no","mono","no","18","no","white","no","no","768","legacy","7","7","/Users/keelihatcher/Desktop/Tarleton M.D./Advanced Quantitative Methods & Experimental Design/KH-subject-4.csv","legacy","Lentiform Loewenfeld","3.3.12","0","h","s","NA","NA","NA","h","NA","597","108467","NA","NA","NA","597","NA","NA","NA","2","legacy","1024","2","48000","-16","experiment","SSHSS","4","even","110740","NA","NA","122769","2254","NA","NA","123847","120362","2123","NA","NA","123851","NA","123957","124555","NA","NA","123957","NA","Flanker Task","7","4790","8","yes","1024"
"88.88888888888889","88.88888888888889","595.4444444444445","595.4444444444445","black","legacy","legacy","legacy","0","congruent","uniform","1","undefined","1","h","0","0","0","8","0","0","0","8","8","0","8","0","8","0","8","8","NA","NA","8","0","Sun Sep 25 13:25:58 2022","1500","The main experiment item","yes","NA","KH-Subject-1.osexp","/Users/keelihatcher/Desktop/Tarleton M.D./Advanced Quantitative Methods & Experimental Design","no","mono","no","18","no","white","no","no","768","legacy","8","8","/Users/keelihatcher/Desktop/Tarleton M.D./Advanced Quantitative Methods & Experimental Design/KH-subject-4.csv","legacy","Lentiform Loewenfeld","3.3.12","0","h","s","NA","NA","NA","h","NA","569","108467","NA","NA","NA","569","NA","NA","NA","2","legacy","1024","2","48000","-16","experiment","HHHHH","4","even","110740","NA","NA","124560","2254","NA","NA","125633","120362","2123","NA","NA","125636","NA","125741","126311","NA","NA","125741","NA","Flanker Task","8","5359","9","yes","1024"
"90","90","597.1","597.1","black","legacy","legacy","legacy","0","congruent","uniform","1","undefined","1","s","0","0","0","9","0","0","0","9","9","0","9","0","9","0","9","9","NA","NA","9","0","Sun Sep 25 13:25:58 2022","1500","The main experiment item","yes","NA","KH-Subject-1.osexp","/Users/keelihatcher/Desktop/Tarleton M.D./Advanced Quantitative Methods & Experimental Design","no","mono","no","18","no","white","no","no","768","legacy","9","9","/Users/keelihatcher/Desktop/Tarleton M.D./Advanced Quantitative Methods & Experimental Design/KH-subject-4.csv","legacy","Lentiform Loewenfeld","3.3.12","0","s","s","NA","NA","NA","s","NA","612","108467","NA","NA","NA","612","NA","NA","NA","2","legacy","1024","2","48000","-16","experiment","SSSSS","4","even","110740","NA","NA","126315","2254","NA","NA","127386","120362","2123","NA","NA","127390","NA","127496","128109","NA","NA","127496","NA","Flanker Task","9","5971","10","yes","1024"
"90.9090909090909","90.9090909090909","593.0909090909091","593.0909090909091","black","legacy","legacy","legacy","0","incongruent","uniform","1","undefined","1","s","0","0","0","10","0","0","0","10","10","0","10","0","10","0","10","10","NA","NA","10","0","Sun Sep 25 13:25:58 2022","1500","The main experiment item","yes","NA","KH-Subject-1.osexp","/Users/keelihatcher/Desktop/Tarleton M.D./Advanced Quantitative Methods & Experimental Design","no","mono","no","18","no","white","no","no","768","legacy","10","10","/Users/keelihatcher/Desktop/Tarleton M.D./Advanced Quantitative Methods & Experimental Design/KH-subject-4.csv","legacy","Lentiform Loewenfeld","3.3.12","0","s","s","NA","NA","NA","s","NA","553","108467","NA","NA","NA","553","NA","NA","NA","2","legacy","1024","2","48000","-16","experiment","HHSHH","4","even","110740","NA","NA","128113","2254","NA","NA","129189","120362","2123","NA","NA","129193","NA","129298","129852","NA","NA","129298","NA","Flanker Task","10","6524","11","yes","1024"
"91.66666666666667","91.66666666666667","585.25","585.25","black","legacy","legacy","legacy","0","incongruent","uniform","1","undefined","1","s","0","0","0","11","0","0","0","11","11","0","11","0","11","0","11","11","NA","NA","11","0","Sun Sep 25 13:25:58 2022","1500","The main experiment item","yes","NA","KH-Subject-1.osexp","/Users/keelihatcher/Desktop/Tarleton M.D./Advanced Quantitative Methods & Experimental Design","no","mono","no","18","no","white","no","no","768","legacy","11","11","/Users/keelihatcher/Desktop/Tarleton M.D./Advanced Quantitative Methods & Experimental Design/KH-subject-4.csv","legacy","Lentiform Loewenfeld","3.3.12","0","s","s","NA","NA","NA","s","NA","499","108467","NA","NA","NA","499","NA","NA","NA","2","legacy","1024","2","48000","-16","experiment","HHSHH","4","even","110740","NA","NA","129856","2254","NA","NA","130932","120362","2123","NA","NA","130936","NA","131041","131541","NA","NA","131041","NA","Flanker Task","11","7023","12","yes","1024"
"92.3076923076923","92.3076923076923","575.1538461538462","575.1538461538462","black","legacy","legacy","legacy","0","incongruent","uniform","1","undefined","1","s","0","0","0","12","0","0","0","12","12","0","12","0","12","0","12","12","NA","NA","12","0","Sun Sep 25 13:25:58 2022","1500","The main experiment item","yes","NA","KH-Subject-1.osexp","/Users/keelihatcher/Desktop/Tarleton M.D./Advanced Quantitative Methods & Experimental Design","no","mono","no","18","no","white","no","no","768","legacy","12","12","/Users/keelihatcher/Desktop/Tarleton M.D./Advanced Quantitative Methods & Experimental Design/KH-subject-4.csv","legacy","Lentiform Loewenfeld","3.3.12","0","s","s","NA","NA","NA","s","NA","454","108467","NA","NA","NA","454","NA","NA","NA","2","legacy","1024","2","48000","-16","experiment","HHSHH","4","even","110740","NA","NA","131545","2254","NA","NA","132630","120362","2123","NA","NA","132633","NA","132738","133193","NA","NA","132738","NA","Flanker Task","12","7477","13","yes","1024"
"92.85714285714286","92.85714285714286","567.0714285714286","567.0714285714286","black","legacy","legacy","legacy","0","incongruent","uniform","1","undefined","1","s","0","0","0","13","0","0","0","13","13","0","13","0","13","0","13","13","NA","NA","13","0","Sun Sep 25 13:25:58 2022","1500","The main experiment item","yes","NA","KH-Subject-1.osexp","/Users/keelihatcher/Desktop/Tarleton M.D./Advanced Quantitative Methods & Experimental Design","no","mono","no","18","no","white","no","no","768","legacy","13","13","/Users/keelihatcher/Desktop/Tarleton M.D./Advanced Quantitative Methods & Experimental Design/KH-subject-4.csv","legacy","Lentiform Loewenfeld","3.3.12","0","s","s","NA","NA","NA","s","NA","462","108467","NA","NA","NA","462","NA","NA","NA","2","legacy","1024","2","48000","-16","experiment","HHSHH","4","even","110740","NA","NA","133197","2254","NA","NA","134281","120362","2123","NA","NA","134286","NA","134391","134853","NA","NA","134391","NA","Flanker Task","13","7939","14","yes","1024"
"93.33333333333333","93.33333333333333","561.1333333333333","561.1333333333333","black","legacy","legacy","legacy","0","congruent","uniform","1","undefined","1","s","0","0","0","14","0","0","0","14","14","0","14","0","14","0","14","14","NA","NA","14","0","Sun Sep 25 13:25:58 2022","1500","The main experiment item","yes","NA","KH-Subject-1.osexp","/Users/keelihatcher/Desktop/Tarleton M.D./Advanced Quantitative Methods & Experimental Design","no","mono","no","18","no","white","no","no","768","legacy","14","14","/Users/keelihatcher/Desktop/Tarleton M.D./Advanced Quantitative Methods & Experimental Design/KH-subject-4.csv","legacy","Lentiform Loewenfeld","3.3.12","0","s","s","NA","NA","NA","s","NA","478","108467","NA","NA","NA","478","NA","NA","NA","2","legacy","1024","2","48000","-16","experiment","SSSSS","4","even","110740","NA","NA","134858","2254","NA","NA","135935","120362","2123","NA","NA","135939","NA","136044","136523","NA","NA","136044","NA","Flanker Task","14","8417","15","yes","1024"
"93.75","93.75","550.25","550.25","black","legacy","legacy","legacy","0","incongruent","uniform","1","undefined","1","h","0","0","0","15","0","0","0","15","15","0","15","0","15","0","15","15","NA","NA","15","0","Sun Sep 25 13:25:58 2022","1500","The main experiment item","yes","NA","KH-Subject-1.osexp","/Users/keelihatcher/Desktop/Tarleton M.D./Advanced Quantitative Methods & Experimental Design","no","mono","no","18","no","white","no","no","768","legacy","15","15","/Users/keelihatcher/Desktop/Tarleton M.D./Advanced Quantitative Methods & Experimental Design/KH-subject-4.csv","legacy","Lentiform Loewenfeld","3.3.12","0","h","s","NA","NA","NA","h","NA","387","108467","NA","NA","NA","387","NA","NA","NA","2","legacy","1024","2","48000","-16","experiment","SSHSS","4","even","110740","NA","NA","136527","2254","NA","NA","137606","120362","2123","NA","NA","137610","NA","137722","138110","NA","NA","137721","NA","Flanker Task","15","8804","16","yes","1024"
"94.11764705882354","94.11764705882354","553.2941176470588","553.2941176470588","black","legacy","legacy","legacy","0","congruent","uniform","1","undefined","1","s","0","0","0","16","0","0","0","16","16","0","16","0","16","0","16","16","NA","NA","16","0","Sun Sep 25 13:25:58 2022","1500","The main experiment item","yes","NA","KH-Subject-1.osexp","/Users/keelihatcher/Desktop/Tarleton M.D./Advanced Quantitative Methods & Experimental Design","no","mono","no","18","no","white","no","no","768","legacy","16","16","/Users/keelihatcher/Desktop/Tarleton M.D./Advanced Quantitative Methods & Experimental Design/KH-subject-4.csv","legacy","Lentiform Loewenfeld","3.3.12","0","s","s","NA","NA","NA","s","NA","602","108467","NA","NA","NA","602","NA","NA","NA","2","legacy","1024","2","48000","-16","experiment","SSSSS","4","even","110740","NA","NA","138114","2254","NA","NA","139197","120362","2123","NA","NA","139201","NA","139307","139910","NA","NA","139307","NA","Flanker Task","16","9406","17","yes","1024"
"94.44444444444444","94.44444444444444","551.6666666666666","551.6666666666666","black","legacy","legacy","legacy","0","congruent","uniform","1","undefined","1","h","0","0","0","17","0","0","0","17","17","0","17","0","17","0","17","17","NA","NA","17","0","Sun Sep 25 13:25:58 2022","1500","The main experiment item","yes","NA","KH-Subject-1.osexp","/Users/keelihatcher/Desktop/Tarleton M.D./Advanced Quantitative Methods & Experimental Design","no","mono","no","18","no","white","no","no","768","legacy","17","17","/Users/keelihatcher/Desktop/Tarleton M.D./Advanced Quantitative Methods & Experimental Design/KH-subject-4.csv","legacy","Lentiform Loewenfeld","3.3.12","0","h","s","NA","NA","NA","h","NA","524","108467","NA","NA","NA","524","NA","NA","NA","2","legacy","1024","2","48000","-16","experiment","HHHHH","4","even","110740","NA","NA","139914","2254","NA","NA","140992","120362","2123","NA","NA","140996","NA","141102","141627","NA","NA","141102","NA","Flanker Task","17","9930","18","yes","1024"
"94.73684210526316","94.73684210526316","548.3157894736842","548.3157894736842","black","legacy","legacy","legacy","0","congruent","uniform","1","undefined","1","s","0","0","0","18","0","0","0","18","18","0","18","0","18","0","18","18","NA","NA","18","0","Sun Sep 25 13:25:58 2022","1500","The main experiment item","yes","NA","KH-Subject-1.osexp","/Users/keelihatcher/Desktop/Tarleton M.D./Advanced Quantitative Methods & Experimental Design","no","mono","no","18","no","white","no","no","768","legacy","18","18","/Users/keelihatcher/Desktop/Tarleton M.D./Advanced Quantitative Methods & Experimental Design/KH-subject-4.csv","legacy","Lentiform Loewenfeld","3.3.12","0","s","s","NA","NA","NA","s","NA","488","108467","NA","NA","NA","488","NA","NA","NA","2","legacy","1024","2","48000","-16","experiment","SSSSS","4","even","110740","NA","NA","141630","2254","NA","NA","142710","120362","2123","NA","NA","142714","NA","142820","143309","NA","NA","142819","NA","Flanker Task","18","10418","19","yes","1024"
"95","95","551.65","551.65","black","legacy","legacy","legacy","0","congruent","uniform","1","undefined","1","h","0","0","0","19","0","0","0","19","19","0","19","0","19","0","19","19","NA","NA","19","0","Sun Sep 25 13:25:58 2022","1500","The main experiment item","yes","NA","KH-Subject-1.osexp","/Users/keelihatcher/Desktop/Tarleton M.D./Advanced Quantitative Methods & Experimental Design","no","mono","no","18","no","white","no","no","768","legacy","19","19","/Users/keelihatcher/Desktop/Tarleton M.D./Advanced Quantitative Methods & Experimental Design/KH-subject-4.csv","legacy","Lentiform Loewenfeld","3.3.12","0","h","s","NA","NA","NA","h","NA","615","108467","NA","NA","NA","615","NA","NA","NA","2","legacy","1024","2","48000","-16","experiment","HHHHH","4","even","110740","NA","NA","143313","2254","NA","NA","144391","120362","2123","NA","NA","144394","NA","144499","145115","NA","NA","144499","NA","Flanker Task","19","11033","20","yes","1024"
"95.23809523809524","95.23809523809524","553.0952380952381","553.0952380952381","black","legacy","legacy","legacy","0","congruent","uniform","1","undefined","1","h","0","0","0","20","0","0","0","20","20","0","20","0","20","0","20","20","NA","NA","20","0","Sun Sep 25 13:25:58 2022","1500","The main experiment item","yes","NA","KH-Subject-1.osexp","/Users/keelihatcher/Desktop/Tarleton M.D./Advanced Quantitative Methods & Experimental Design","no","mono","no","18","no","white","no","no","768","legacy","20","20","/Users/keelihatcher/Desktop/Tarleton M.D./Advanced Quantitative Methods & Experimental Design/KH-subject-4.csv","legacy","Lentiform Loewenfeld","3.3.12","0","h","s","NA","NA","NA","h","NA","582","108467","NA","NA","NA","582","NA","NA","NA","2","legacy","1024","2","48000","-16","experiment","HHHHH","4","even","110740","NA","NA","145119","2254","NA","NA","146197","120362","2123","NA","NA","146201","NA","146306","146889","NA","NA","146306","NA","Flanker Task","20","11615","21","yes","1024"
"95.45454545454545","95.45454545454545","551.5","551.5","black","legacy","legacy","legacy","0","congruent","uniform","1","undefined","1","s","0","0","0","21","0","0","0","21","21","0","21","0","21","0","21","21","NA","NA","21","0","Sun Sep 25 13:25:58 2022","1500","The main experiment item","yes","NA","KH-Subject-1.osexp","/Users/keelihatcher/Desktop/Tarleton M.D./Advanced Quantitative Methods & Experimental Design","no","mono","no","18","no","white","no","no","768","legacy","21","21","/Users/keelihatcher/Desktop/Tarleton M.D./Advanced Quantitative Methods & Experimental Design/KH-subject-4.csv","legacy","Lentiform Loewenfeld","3.3.12","0","s","s","NA","NA","NA","s","NA","518","108467","NA","NA","NA","518","NA","NA","NA","2","legacy","1024","2","48000","-16","experiment","SSSSS","4","even","110740","NA","NA","146893","2254","NA","NA","147982","120362","2123","NA","NA","147986","NA","148091","148610","NA","NA","148091","NA","Flanker Task","21","12133","22","yes","1024"
"95.65217391304348","95.65217391304348","560.4347826086956","560.4347826086956","black","legacy","legacy","legacy","0","incongruent","uniform","1","undefined","1","s","0","0","0","22","0","0","0","22","22","0","22","0","22","0","22","22","NA","NA","22","0","Sun Sep 25 13:25:58 2022","1500","The main experiment item","yes","NA","KH-Subject-1.osexp","/Users/keelihatcher/Desktop/Tarleton M.D./Advanced Quantitative Methods & Experimental Design","no","mono","no","18","no","white","no","no","768","legacy","22","22","/Users/keelihatcher/Desktop/Tarleton M.D./Advanced Quantitative Methods & Experimental Design/KH-subject-4.csv","legacy","Lentiform Loewenfeld","3.3.12","0","s","s","NA","NA","NA","s","NA","757","108467","NA","NA","NA","757","NA","NA","NA","2","legacy","1024","2","48000","-16","experiment","HHSHH","4","even","110740","NA","NA","148614","2254","NA","NA","149691","120362","2123","NA","NA","149695","NA","149800","150558","NA","NA","149800","NA","Flanker Task","22","12890","23","yes","1024"
"95.83333333333333","95.83333333333333","560.6666666666666","560.6666666666666","black","legacy","legacy","legacy","0","incongruent","uniform","1","undefined","1","s","0","0","0","23","0","0","0","23","23","0","23","0","23","0","23","23","NA","NA","23","0","Sun Sep 25 13:25:58 2022","1500","The main experiment item","yes","NA","KH-Subject-1.osexp","/Users/keelihatcher/Desktop/Tarleton M.D./Advanced Quantitative Methods & Experimental Design","no","mono","no","18","no","white","no","no","768","legacy","23","23","/Users/keelihatcher/Desktop/Tarleton M.D./Advanced Quantitative Methods & Experimental Design/KH-subject-4.csv","legacy","Lentiform Loewenfeld","3.3.12","0","s","s","NA","NA","NA","s","NA","566","108467","NA","NA","NA","566","NA","NA","NA","2","legacy","1024","2","48000","-16","experiment","HHSHH","4","even","110740","NA","NA","150562","2254","NA","NA","151638","120362","2123","NA","NA","151642","NA","151747","152314","NA","NA","151747","NA","Flanker Task","23","13456","24","yes","1024"
"96","96","559.04","559.04","black","legacy","legacy","legacy","0","incongruent","uniform","1","undefined","1","s","0","0","0","24","0","0","0","24","24","0","24","0","24","0","24","24","NA","NA","24","0","Sun Sep 25 13:25:58 2022","1500","The main experiment item","yes","NA","KH-Subject-1.osexp","/Users/keelihatcher/Desktop/Tarleton M.D./Advanced Quantitative Methods & Experimental Design","no","mono","no","18","no","white","no","no","768","legacy","24","24","/Users/keelihatcher/Desktop/Tarleton M.D./Advanced Quantitative Methods & Experimental Design/KH-subject-4.csv","legacy","Lentiform Loewenfeld","3.3.12","0","s","s","NA","NA","NA","s","NA","520","108467","NA","NA","NA","520","NA","NA","NA","2","legacy","1024","2","48000","-16","experiment","HHSHH","4","even","110740","NA","NA","152318","2254","NA","NA","153398","120362","2123","NA","NA","153402","NA","153507","154028","NA","NA","153507","NA","Flanker Task","24","13976","25","yes","1024"
"96.15384615384616","96.15384615384616","559.3846153846154","559.3846153846154","black","legacy","legacy","legacy","0","incongruent","uniform","1","undefined","1","h","0","0","0","25","0","0","0","25","25","0","25","0","25","0","25","25","NA","NA","25","0","Sun Sep 25 13:25:58 2022","1500","The main experiment item","yes","NA","KH-Subject-1.osexp","/Users/keelihatcher/Desktop/Tarleton M.D./Advanced Quantitative Methods & Experimental Design","no","mono","no","18","no","white","no","no","768","legacy","25","25","/Users/keelihatcher/Desktop/Tarleton M.D./Advanced Quantitative Methods & Experimental Design/KH-subject-4.csv","legacy","Lentiform Loewenfeld","3.3.12","0","h","s","NA","NA","NA","h","NA","568","108467","NA","NA","NA","568","NA","NA","NA","2","legacy","1024","2","48000","-16","experiment","SSHSS","4","even","110740","NA","NA","154032","2254","NA","NA","155109","120362","2123","NA","NA","155113","NA","155218","155787","NA","NA","155218","NA","Flanker Task","25","14544","26","yes","1024"
"96.29629629629629","96.29629629629629","558.8888888888889","558.8888888888889","black","legacy","legacy","legacy","0","congruent","uniform","1","undefined","1","h","0","0","0","26","0","0","0","26","26","0","26","0","26","0","26","26","NA","NA","26","0","Sun Sep 25 13:25:58 2022","1500","The main experiment item","yes","NA","KH-Subject-1.osexp","/Users/keelihatcher/Desktop/Tarleton M.D./Advanced Quantitative Methods & Experimental Design","no","mono","no","18","no","white","no","no","768","legacy","26","26","/Users/keelihatcher/Desktop/Tarleton M.D./Advanced Quantitative Methods & Experimental Design/KH-subject-4.csv","legacy","Lentiform Loewenfeld","3.3.12","0","h","s","NA","NA","NA","h","NA","546","108467","NA","NA","NA","546","NA","NA","NA","2","legacy","1024","2","48000","-16","experiment","HHHHH","4","even","110740","NA","NA","155792","2254","NA","NA","156864","120362","2123","NA","NA","156868","NA","156973","157520","NA","NA","156973","NA","Flanker Task","26","15090","27","yes","1024"
"96.42857142857143","96.42857142857143","561.75","561.75","black","legacy","legacy","legacy","0","incongruent","uniform","1","undefined","1","h","0","0","0","27","0","0","0","27","27","0","27","0","27","0","27","27","NA","NA","27","0","Sun Sep 25 13:25:58 2022","1500","The main experiment item","yes","NA","KH-Subject-1.osexp","/Users/keelihatcher/Desktop/Tarleton M.D./Advanced Quantitative Methods & Experimental Design","no","mono","no","18","no","white","no","no","768","legacy","27","27","/Users/keelihatcher/Desktop/Tarleton M.D./Advanced Quantitative Methods & Experimental Design/KH-subject-4.csv","legacy","Lentiform Loewenfeld","3.3.12","0","h","s","NA","NA","NA","h","NA","639","108467","NA","NA","NA","639","NA","NA","NA","2","legacy","1024","2","48000","-16","experiment","SSHSS","4","even","110740","NA","NA","157524","2254","NA","NA","158602","120362","2123","NA","NA","158606","NA","158711","159350","NA","NA","158711","NA","Flanker Task","27","15729","28","yes","1024"
"96.55172413793103","96.55172413793103","560.8275862068965","560.8275862068965","black","legacy","legacy","legacy","0","incongruent","uniform","1","undefined","1","s","0","0","0","28","0","0","0","28","28","0","28","0","28","0","28","28","NA","NA","28","0","Sun Sep 25 13:25:58 2022","1500","The main experiment item","yes","NA","KH-Subject-1.osexp","/Users/keelihatcher/Desktop/Tarleton M.D./Advanced Quantitative Methods & Experimental Design","no","mono","no","18","no","white","no","no","768","legacy","28","28","/Users/keelihatcher/Desktop/Tarleton M.D./Advanced Quantitative Methods & Experimental Design/KH-subject-4.csv","legacy","Lentiform Loewenfeld","3.3.12","0","s","s","NA","NA","NA","s","NA","535","108467","NA","NA","NA","535","NA","NA","NA","2","legacy","1024","2","48000","-16","experiment","HHSHH","4","even","110740","NA","NA","159355","2254","NA","NA","160426","120362","2123","NA","NA","160430","NA","160535","161071","NA","NA","160535","NA","Flanker Task","28","16264","29","yes","1024"
"96.66666666666667","96.66666666666667","562.2666666666667","562.2666666666667","black","legacy","legacy","legacy","0","incongruent","uniform","1","undefined","1","s","0","0","0","29","0","0","0","29","29","0","29","0","29","0","29","29","NA","NA","29","0","Sun Sep 25 13:25:58 2022","1500","The main experiment item","yes","NA","KH-Subject-1.osexp","/Users/keelihatcher/Desktop/Tarleton M.D./Advanced Quantitative Methods & Experimental Design","no","mono","no","18","no","white","no","no","768","legacy","29","29","/Users/keelihatcher/Desktop/Tarleton M.D./Advanced Quantitative Methods & Experimental Design/KH-subject-4.csv","legacy","Lentiform Loewenfeld","3.3.12","0","s","s","NA","NA","NA","s","NA","604","108467","NA","NA","NA","604","NA","NA","NA","2","legacy","1024","2","48000","-16","experiment","HHSHH","4","even","110740","NA","NA","161075","2254","NA","NA","162155","120362","2123","NA","NA","162159","NA","162263","162867","NA","NA","162263","NA","Flanker Task","29","16868","30","yes","1024"
"96.7741935483871","96.7741935483871","562.3225806451613","562.3225806451613","black","legacy","legacy","legacy","0","incongruent","uniform","1","undefined","1","s","0","0","0","30","0","0","0","30","30","0","30","0","30","0","30","30","NA","NA","30","0","Sun Sep 25 13:25:58 2022","1500","The main experiment item","yes","NA","KH-Subject-1.osexp","/Users/keelihatcher/Desktop/Tarleton M.D./Advanced Quantitative Methods & Experimental Design","no","mono","no","18","no","white","no","no","768","legacy","30","30","/Users/keelihatcher/Desktop/Tarleton M.D./Advanced Quantitative Methods & Experimental Design/KH-subject-4.csv","legacy","Lentiform Loewenfeld","3.3.12","0","s","s","NA","NA","NA","s","NA","564","108467","NA","NA","NA","564","NA","NA","NA","2","legacy","1024","2","48000","-16","experiment","HHSHH","4","even","110740","NA","NA","162872","2254","NA","NA","163947","120362","2123","NA","NA","163950","NA","164056","164621","NA","NA","164056","NA","Flanker Task","30","17432","31","yes","1024"
"96.875","96.875","562.53125","562.53125","black","legacy","legacy","legacy","0","incongruent","uniform","1","undefined","1","h","0","0","0","31","0","0","0","31","31","0","31","0","31","0","31","31","NA","NA","31","0","Sun Sep 25 13:25:58 2022","1500","The main experiment item","yes","NA","KH-Subject-1.osexp","/Users/keelihatcher/Desktop/Tarleton M.D./Advanced Quantitative Methods & Experimental Design","no","mono","no","18","no","white","no","no","768","legacy","31","31","/Users/keelihatcher/Desktop/Tarleton M.D./Advanced Quantitative Methods & Experimental Design/KH-subject-4.csv","legacy","Lentiform Loewenfeld","3.3.12","0","h","s","NA","NA","NA","h","NA","569","108467","NA","NA","NA","569","NA","NA","NA","2","legacy","1024","2","48000","-16","experiment","SSHSS","4","even","110740","NA","NA","164625","2254","NA","NA","165703","120362","2123","NA","NA","165707","NA","165812","166381","NA","NA","165812","NA","Flanker Task","31","18001","32","yes","1024"
"96.96969696969697","96.96969696969697","565.7878787878788","565.7878787878788","black","legacy","legacy","legacy","0","congruent","uniform","1","undefined","1","s","0","0","0","32","0","0","0","32","32","0","32","0","32","0","32","32","NA","NA","32","0","Sun Sep 25 13:25:58 2022","1500","The main experiment item","yes","NA","KH-Subject-1.osexp","/Users/keelihatcher/Desktop/Tarleton M.D./Advanced Quantitative Methods & Experimental Design","no","mono","no","18","no","white","no","no","768","legacy","32","32","/Users/keelihatcher/Desktop/Tarleton M.D./Advanced Quantitative Methods & Experimental Design/KH-subject-4.csv","legacy","Lentiform Loewenfeld","3.3.12","0","s","s","NA","NA","NA","s","NA","670","108467","NA","NA","NA","670","NA","NA","NA","2","legacy","1024","2","48000","-16","experiment","SSSSS","4","even","110740","NA","NA","166386","2254","NA","NA","167451","120362","2123","NA","NA","167455","NA","167560","168230","NA","NA","167560","NA","Flanker Task","32","18671","33","yes","1024"
"97.05882352941177","97.05882352941177","567.6176470588235","567.6176470588235","black","legacy","legacy","legacy","0","congruent","uniform","1","undefined","1","h","0","0","0","33","0","0","0","33","33","0","33","0","33","0","33","33","NA","NA","33","0","Sun Sep 25 13:25:58 2022","1500","The main experiment item","yes","NA","KH-Subject-1.osexp","/Users/keelihatcher/Desktop/Tarleton M.D./Advanced Quantitative Methods & Experimental Design","no","mono","no","18","no","white","no","no","768","legacy","33","33","/Users/keelihatcher/Desktop/Tarleton M.D./Advanced Quantitative Methods & Experimental Design/KH-subject-4.csv","legacy","Lentiform Loewenfeld","3.3.12","0","h","s","NA","NA","NA","h","NA","628","108467","NA","NA","NA","628","NA","NA","NA","2","legacy","1024","2","48000","-16","experiment","HHHHH","4","even","110740","NA","NA","168234","2254","NA","NA","169308","120362","2123","NA","NA","169312","NA","169416","170045","NA","NA","169416","NA","Flanker Task","33","19299","34","yes","1024"
"97.14285714285714","97.14285714285714","568.8857142857142","568.8857142857142","black","legacy","legacy","legacy","0","incongruent","uniform","1","undefined","1","s","0","0","0","34","0","0","0","34","34","0","34","0","34","0","34","34","NA","NA","34","0","Sun Sep 25 13:25:58 2022","1500","The main experiment item","yes","NA","KH-Subject-1.osexp","/Users/keelihatcher/Desktop/Tarleton M.D./Advanced Quantitative Methods & Experimental Design","no","mono","no","18","no","white","no","no","768","legacy","34","34","/Users/keelihatcher/Desktop/Tarleton M.D./Advanced Quantitative Methods & Experimental Design/KH-subject-4.csv","legacy","Lentiform Loewenfeld","3.3.12","0","s","s","NA","NA","NA","s","NA","612","108467","NA","NA","NA","612","NA","NA","NA","2","legacy","1024","2","48000","-16","experiment","HHSHH","4","even","110740","NA","NA","170049","2254","NA","NA","171127","120362","2123","NA","NA","171131","NA","171236","171849","NA","NA","171236","NA","Flanker Task","34","19911","35","yes","1024"
"97.22222222222223","97.22222222222223","567.9166666666666","567.9166666666666","black","legacy","legacy","legacy","0","incongruent","uniform","1","undefined","1","s","0","0","0","35","0","0","0","35","35","0","35","0","35","0","35","35","NA","NA","35","0","Sun Sep 25 13:25:58 2022","1500","The main experiment item","yes","NA","KH-Subject-1.osexp","/Users/keelihatcher/Desktop/Tarleton M.D./Advanced Quantitative Methods & Experimental Design","no","mono","no","18","no","white","no","no","768","legacy","35","35","/Users/keelihatcher/Desktop/Tarleton M.D./Advanced Quantitative Methods & Experimental Design/KH-subject-4.csv","legacy","Lentiform Loewenfeld","3.3.12","0","s","s","NA","NA","NA","s","NA","534","108467","NA","NA","NA","534","NA","NA","NA","2","legacy","1024","2","48000","-16","experiment","HHSHH","4","even","110740","NA","NA","171853","2254","NA","NA","172925","120362","2123","NA","NA","172929","NA","173034","173569","NA","NA","173034","NA","Flanker Task","35","20445","36","yes","1024"
"97.29729729729729","97.29729729729729","567.1351351351351","567.1351351351351","black","legacy","legacy","legacy","0","congruent","uniform","1","undefined","1","s","0","0","0","36","0","0","0","36","36","0","36","0","36","0","36","36","NA","NA","36","0","Sun Sep 25 13:25:58 2022","1500","The main experiment item","yes","NA","KH-Subject-1.osexp","/Users/keelihatcher/Desktop/Tarleton M.D./Advanced Quantitative Methods & Experimental Design","no","mono","no","18","no","white","no","no","768","legacy","36","36","/Users/keelihatcher/Desktop/Tarleton M.D./Advanced Quantitative Methods & Experimental Design/KH-subject-4.csv","legacy","Lentiform Loewenfeld","3.3.12","0","s","s","NA","NA","NA","s","NA","539","108467","NA","NA","NA","539","NA","NA","NA","2","legacy","1024","2","48000","-16","experiment","SSSSS","4","even","110740","NA","NA","173573","2254","NA","NA","174646","120362","2123","NA","NA","174650","NA","174755","175294","NA","NA","174755","NA","Flanker Task","36","20984","37","yes","1024"
"97.36842105263158","97.36842105263158","566.1578947368421","566.1578947368421","black","legacy","legacy","legacy","0","congruent","uniform","1","undefined","1","h","0","0","0","37","0","0","0","37","37","0","37","0","37","0","37","37","NA","NA","37","0","Sun Sep 25 13:25:58 2022","1500","The main experiment item","yes","NA","KH-Subject-1.osexp","/Users/keelihatcher/Desktop/Tarleton M.D./Advanced Quantitative Methods & Experimental Design","no","mono","no","18","no","white","no","no","768","legacy","37","37","/Users/keelihatcher/Desktop/Tarleton M.D./Advanced Quantitative Methods & Experimental Design/KH-subject-4.csv","legacy","Lentiform Loewenfeld","3.3.12","0","h","s","NA","NA","NA","h","NA","530","108467","NA","NA","NA","530","NA","NA","NA","2","legacy","1024","2","48000","-16","experiment","HHHHH","4","even","110740","NA","NA","175299","2254","NA","NA","176377","120362","2123","NA","NA","176381","NA","176492","177023","NA","NA","176492","NA","Flanker Task","37","21514","38","yes","1024"
"97.43589743589743","97.43589743589743","568.4871794871794","568.4871794871794","black","legacy","legacy","legacy","0","incongruent","uniform","1","undefined","1","h","0","0","0","38","0","0","0","38","38","0","38","0","38","0","38","38","NA","NA","38","0","Sun Sep 25 13:25:58 2022","1500","The main experiment item","yes","NA","KH-Subject-1.osexp","/Users/keelihatcher/Desktop/Tarleton M.D./Advanced Quantitative Methods & Experimental Design","no","mono","no","18","no","white","no","no","768","legacy","38","38","/Users/keelihatcher/Desktop/Tarleton M.D./Advanced Quantitative Methods & Experimental Design/KH-subject-4.csv","legacy","Lentiform Loewenfeld","3.3.12","0","h","s","NA","NA","NA","h","NA","657","108467","NA","NA","NA","657","NA","NA","NA","2","legacy","1024","2","48000","-16","experiment","SSHSS","4","even","110740","NA","NA","177027","2254","NA","NA","178102","120362","2123","NA","NA","178106","NA","178211","178869","NA","NA","178211","NA","Flanker Task","38","22171","39","yes","1024"
"97.5","97.5","566.85","566.85","black","legacy","legacy","legacy","0","congruent","uniform","1","undefined","1","s","0","0","0","39","0","0","0","39","39","0","39","0","39","0","39","39","NA","NA","39","0","Sun Sep 25 13:25:58 2022","1500","The main experiment item","yes","NA","KH-Subject-1.osexp","/Users/keelihatcher/Desktop/Tarleton M.D./Advanced Quantitative Methods & Experimental Design","no","mono","no","18","no","white","no","no","768","legacy","39","39","/Users/keelihatcher/Desktop/Tarleton M.D./Advanced Quantitative Methods & Experimental Design/KH-subject-4.csv","legacy","Lentiform Loewenfeld","3.3.12","0","s","s","NA","NA","NA","s","NA","503","108467","NA","NA","NA","503","NA","NA","NA","2","legacy","1024","2","48000","-16","experiment","SSSSS","4","even","110740","NA","NA","178873","2254","NA","NA","179946","120362","2123","NA","NA","179950","NA","180055","180559","NA","NA","180055","NA","Flanker Task","39","22674","40","yes","1024"
"97.5609756097561","97.5609756097561","566.6341463414634","566.6341463414634","black","legacy","legacy","legacy","0","incongruent","uniform","1","undefined","1","h","0","0","0","40","0","0","0","40","40","0","40","0","40","0","40","40","NA","NA","40","0","Sun Sep 25 13:25:58 2022","1500","The main experiment item","yes","NA","KH-Subject-1.osexp","/Users/keelihatcher/Desktop/Tarleton M.D./Advanced Quantitative Methods & Experimental Design","no","mono","no","18","no","white","no","no","768","legacy","40","40","/Users/keelihatcher/Desktop/Tarleton M.D./Advanced Quantitative Methods & Experimental Design/KH-subject-4.csv","legacy","Lentiform Loewenfeld","3.3.12","0","h","s","NA","NA","NA","h","NA","558","108467","NA","NA","NA","558","NA","NA","NA","2","legacy","1024","2","48000","-16","experiment","SSHSS","4","even","110740","NA","NA","180563","2254","NA","NA","181650","120362","2123","NA","NA","181654","NA","181759","182318","NA","NA","181759","NA","Flanker Task","40","23232","41","yes","1024"
"97.61904761904762","97.61904761904762","569.8809523809524","569.8809523809524","black","legacy","legacy","legacy","0","congruent","uniform","1","undefined","1","h","0","0","0","41","0","0","0","41","41","0","41","0","41","0","41","41","NA","NA","41","0","Sun Sep 25 13:25:58 2022","1500","The main experiment item","yes","NA","KH-Subject-1.osexp","/Users/keelihatcher/Desktop/Tarleton M.D./Advanced Quantitative Methods & Experimental Design","no","mono","no","18","no","white","no","no","768","legacy","41","41","/Users/keelihatcher/Desktop/Tarleton M.D./Advanced Quantitative Methods & Experimental Design/KH-subject-4.csv","legacy","Lentiform Loewenfeld","3.3.12","0","h","s","NA","NA","NA","h","NA","703","108467","NA","NA","NA","703","NA","NA","NA","2","legacy","1024","2","48000","-16","experiment","HHHHH","4","even","110740","NA","NA","182322","2254","NA","NA","183403","120362","2123","NA","NA","183407","NA","183513","184217","NA","NA","183513","NA","Flanker Task","41","23935","42","yes","1024"
"97.67441860465117","97.67441860465117","569.5348837209302","569.5348837209302","black","legacy","legacy","legacy","0","congruent","uniform","1","undefined","1","h","0","0","0","42","0","0","0","42","42","0","42","0","42","0","42","42","NA","NA","42","0","Sun Sep 25 13:25:58 2022","1500","The main experiment item","yes","NA","KH-Subject-1.osexp","/Users/keelihatcher/Desktop/Tarleton M.D./Advanced Quantitative Methods & Experimental Design","no","mono","no","18","no","white","no","no","768","legacy","42","42","/Users/keelihatcher/Desktop/Tarleton M.D./Advanced Quantitative Methods & Experimental Design/KH-subject-4.csv","legacy","Lentiform Loewenfeld","3.3.12","0","h","s","NA","NA","NA","h","NA","555","108467","NA","NA","NA","555","NA","NA","NA","2","legacy","1024","2","48000","-16","experiment","HHHHH","4","even","110740","NA","NA","184221","2254","NA","NA","185302","120362","2123","NA","NA","185306","NA","185411","185967","NA","NA","185411","NA","Flanker Task","42","24490","43","yes","1024"
"97.72727272727273","97.72727272727273","577.5681818181819","577.5681818181819","black","legacy","legacy","legacy","0","incongruent","uniform","1","undefined","1","s","0","0","0","43","0","0","0","43","43","0","43","0","43","0","43","43","NA","NA","43","0","Sun Sep 25 13:25:58 2022","1500","The main experiment item","yes","NA","KH-Subject-1.osexp","/Users/keelihatcher/Desktop/Tarleton M.D./Advanced Quantitative Methods & Experimental Design","no","mono","no","18","no","white","no","no","768","legacy","43","43","/Users/keelihatcher/Desktop/Tarleton M.D./Advanced Quantitative Methods & Experimental Design/KH-subject-4.csv","legacy","Lentiform Loewenfeld","3.3.12","0","s","s","NA","NA","NA","s","NA","923","108467","NA","NA","NA","923","NA","NA","NA","2","legacy","1024","2","48000","-16","experiment","HHSHH","4","even","110740","NA","NA","185971","2254","NA","NA","187050","120362","2123","NA","NA","187054","NA","187160","188084","NA","NA","187160","NA","Flanker Task","43","25413","44","yes","1024"
"97.77777777777777","97.77777777777777","576.2888888888889","576.2888888888889","black","legacy","legacy","legacy","0","congruent","uniform","1","undefined","1","h","0","0","0","44","0","0","0","44","44","0","44","0","44","0","44","44","NA","NA","44","0","Sun Sep 25 13:25:58 2022","1500","The main experiment item","yes","NA","KH-Subject-1.osexp","/Users/keelihatcher/Desktop/Tarleton M.D./Advanced Quantitative Methods & Experimental Design","no","mono","no","18","no","white","no","no","768","legacy","44","44","/Users/keelihatcher/Desktop/Tarleton M.D./Advanced Quantitative Methods & Experimental Design/KH-subject-4.csv","legacy","Lentiform Loewenfeld","3.3.12","0","h","s","NA","NA","NA","h","NA","520","108467","NA","NA","NA","520","NA","NA","NA","2","legacy","1024","2","48000","-16","experiment","HHHHH","4","even","110740","NA","NA","188088","2254","NA","NA","189160","120362","2123","NA","NA","189164","NA","189269","189790","NA","NA","189269","NA","Flanker Task","44","25933","45","yes","1024"
"97.82608695652173","97.82608695652173","576.5869565217391","576.5869565217391","black","legacy","legacy","legacy","0","incongruent","uniform","1","undefined","1","h","0","0","0","45","0","0","0","45","45","0","45","0","45","0","45","45","NA","NA","45","0","Sun Sep 25 13:25:58 2022","1500","The main experiment item","yes","NA","KH-Subject-1.osexp","/Users/keelihatcher/Desktop/Tarleton M.D./Advanced Quantitative Methods & Experimental Design","no","mono","no","18","no","white","no","no","768","legacy","45","45","/Users/keelihatcher/Desktop/Tarleton M.D./Advanced Quantitative Methods & Experimental Design/KH-subject-4.csv","legacy","Lentiform Loewenfeld","3.3.12","0","h","s","NA","NA","NA","h","NA","590","108467","NA","NA","NA","590","NA","NA","NA","2","legacy","1024","2","48000","-16","experiment","SSHSS","4","even","110740","NA","NA","189794","2254","NA","NA","190871","120362","2123","NA","NA","190875","NA","190980","191570","NA","NA","190980","NA","Flanker Task","45","26523","46","yes","1024"
"97.87234042553192","97.87234042553192","574.531914893617","574.531914893617","black","legacy","legacy","legacy","0","congruent","uniform","1","undefined","1","s","0","0","0","46","0","0","0","46","46","0","46","0","46","0","46","46","NA","NA","46","0","Sun Sep 25 13:25:58 2022","1500","The main experiment item","yes","NA","KH-Subject-1.osexp","/Users/keelihatcher/Desktop/Tarleton M.D./Advanced Quantitative Methods & Experimental Design","no","mono","no","18","no","white","no","no","768","legacy","46","46","/Users/keelihatcher/Desktop/Tarleton M.D./Advanced Quantitative Methods & Experimental Design/KH-subject-4.csv","legacy","Lentiform Loewenfeld","3.3.12","0","s","s","NA","NA","NA","s","NA","480","108467","NA","NA","NA","480","NA","NA","NA","2","legacy","1024","2","48000","-16","experiment","SSSSS","4","even","110740","NA","NA","191574","2254","NA","NA","192651","120362","2123","NA","NA","192655","NA","192760","193241","NA","NA","192760","NA","Flanker Task","46","27003","47","yes","1024"
"97.91666666666667","97.91666666666667","574.2916666666666","574.2916666666666","black","legacy","legacy","legacy","0","congruent","uniform","1","undefined","1","s","0","0","0","47","0","0","0","47","47","0","47","0","47","0","47","47","NA","NA","47","0","Sun Sep 25 13:25:58 2022","1500","The main experiment item","yes","NA","KH-Subject-1.osexp","/Users/keelihatcher/Desktop/Tarleton M.D./Advanced Quantitative Methods & Experimental Design","no","mono","no","18","no","white","no","no","768","legacy","47","47","/Users/keelihatcher/Desktop/Tarleton M.D./Advanced Quantitative Methods & Experimental Design/KH-subject-4.csv","legacy","Lentiform Loewenfeld","3.3.12","0","s","s","NA","NA","NA","s","NA","563","108467","NA","NA","NA","563","NA","NA","NA","2","legacy","1024","2","48000","-16","experiment","SSSSS","4","even","110740","NA","NA","193245","2254","NA","NA","194326","120362","2123","NA","NA","194330","NA","194435","194999","NA","NA","194435","NA","Flanker Task","47","27566","48","yes","1024"
"97.95918367346938","97.95918367346938","575.1428571428571","575.1428571428571","black","legacy","legacy","legacy","0","incongruent","uniform","1","undefined","1","s","0","0","0","48","0","0","0","48","48","0","48","0","48","0","48","48","NA","NA","48","0","Sun Sep 25 13:25:58 2022","1500","The main experiment item","yes","NA","KH-Subject-1.osexp","/Users/keelihatcher/Desktop/Tarleton M.D./Advanced Quantitative Methods & Experimental Design","no","mono","no","18","no","white","no","no","768","legacy","48","48","/Users/keelihatcher/Desktop/Tarleton M.D./Advanced Quantitative Methods & Experimental Design/KH-subject-4.csv","legacy","Lentiform Loewenfeld","3.3.12","0","s","s","NA","NA","NA","s","NA","616","108467","NA","NA","NA","616","NA","NA","NA","2","legacy","1024","2","48000","-16","experiment","HHSHH","4","even","110740","NA","NA","195003","2254","NA","NA","196072","120362","2123","NA","NA","196076","NA","196181","196798","NA","NA","196181","NA","Flanker Task","48","28182","49","yes","1024"
"98","98","574.5","574.5","black","legacy","legacy","legacy","0","congruent","uniform","1","undefined","1","h","0","0","0","49","0","0","0","49","49","0","49","0","49","0","49","49","NA","NA","49","0","Sun Sep 25 13:25:58 2022","1500","The main experiment item","yes","NA","KH-Subject-1.osexp","/Users/keelihatcher/Desktop/Tarleton M.D./Advanced Quantitative Methods & Experimental Design","no","mono","no","18","no","white","no","no","768","legacy","49","49","/Users/keelihatcher/Desktop/Tarleton M.D./Advanced Quantitative Methods & Experimental Design/KH-subject-4.csv","legacy","Lentiform Loewenfeld","3.3.12","0","h","s","NA","NA","NA","h","NA","543","108467","NA","NA","NA","543","NA","NA","NA","2","legacy","1024","2","48000","-16","experiment","HHHHH","4","even","110740","NA","NA","196802","2254","NA","NA","197872","120362","2123","NA","NA","197876","NA","197981","198525","NA","NA","197980","NA","Flanker Task","49","28725","50","yes","1024"
"98.03921568627452","98.03921568627452","575.2941176470588","575.2941176470588","black","legacy","legacy","legacy","0","congruent","uniform","1","undefined","1","h","0","0","0","50","0","0","0","50","50","0","50","0","50","0","50","50","NA","NA","50","0","Sun Sep 25 13:25:58 2022","1500","The main experiment item","yes","NA","KH-Subject-1.osexp","/Users/keelihatcher/Desktop/Tarleton M.D./Advanced Quantitative Methods & Experimental Design","no","mono","no","18","no","white","no","no","768","legacy","50","50","/Users/keelihatcher/Desktop/Tarleton M.D./Advanced Quantitative Methods & Experimental Design/KH-subject-4.csv","legacy","Lentiform Loewenfeld","3.3.12","0","h","s","NA","NA","NA","h","NA","615","108467","NA","NA","NA","615","NA","NA","NA","2","legacy","1024","2","48000","-16","experiment","HHHHH","4","even","110740","NA","NA","198529","2254","NA","NA","199606","120362","2123","NA","NA","199610","NA","199715","200330","NA","NA","199715","NA","Flanker Task","50","29340","51","yes","1024"
"98.07692307692308","98.07692307692308","575.4423076923077","575.4423076923077","black","legacy","legacy","legacy","0","incongruent","uniform","1","undefined","1","h","0","0","0","51","0","0","0","51","51","0","51","0","51","0","51","51","NA","NA","51","0","Sun Sep 25 13:25:58 2022","1500","The main experiment item","yes","NA","KH-Subject-1.osexp","/Users/keelihatcher/Desktop/Tarleton M.D./Advanced Quantitative Methods & Experimental Design","no","mono","no","18","no","white","no","no","768","legacy","51","51","/Users/keelihatcher/Desktop/Tarleton M.D./Advanced Quantitative Methods & Experimental Design/KH-subject-4.csv","legacy","Lentiform Loewenfeld","3.3.12","0","h","s","NA","NA","NA","h","NA","583","108467","NA","NA","NA","583","NA","NA","NA","2","legacy","1024","2","48000","-16","experiment","SSHSS","4","even","110740","NA","NA","200335","2254","NA","NA","201415","120362","2123","NA","NA","201419","NA","201524","202108","NA","NA","201524","NA","Flanker Task","51","29923","52","yes","1024"
"98.11320754716981","98.11320754716981","572.6037735849056","572.6037735849056","black","legacy","legacy","legacy","0","congruent","uniform","1","undefined","1","h","0","0","0","52","0","0","0","52","52","0","52","0","52","0","52","52","NA","NA","52","0","Sun Sep 25 13:25:58 2022","1500","The main experiment item","yes","NA","KH-Subject-1.osexp","/Users/keelihatcher/Desktop/Tarleton M.D./Advanced Quantitative Methods & Experimental Design","no","mono","no","18","no","white","no","no","768","legacy","52","52","/Users/keelihatcher/Desktop/Tarleton M.D./Advanced Quantitative Methods & Experimental Design/KH-subject-4.csv","legacy","Lentiform Loewenfeld","3.3.12","0","h","s","NA","NA","NA","h","NA","425","108467","NA","NA","NA","425","NA","NA","NA","2","legacy","1024","2","48000","-16","experiment","HHHHH","4","even","110740","NA","NA","202112","2254","NA","NA","203171","120362","2123","NA","NA","203175","NA","203281","203706","NA","NA","203280","NA","Flanker Task","52","30348","53","yes","1024"
"98.14814814814815","98.14814814814815","571.5185185185185","571.5185185185185","black","legacy","legacy","legacy","0","incongruent","uniform","1","undefined","1","h","0","0","0","53","0","0","0","53","53","0","53","0","53","0","53","53","NA","NA","53","0","Sun Sep 25 13:25:58 2022","1500","The main experiment item","yes","NA","KH-Subject-1.osexp","/Users/keelihatcher/Desktop/Tarleton M.D./Advanced Quantitative Methods & Experimental Design","no","mono","no","18","no","white","no","no","768","legacy","53","53","/Users/keelihatcher/Desktop/Tarleton M.D./Advanced Quantitative Methods & Experimental Design/KH-subject-4.csv","legacy","Lentiform Loewenfeld","3.3.12","0","h","s","NA","NA","NA","h","NA","514","108467","NA","NA","NA","514","NA","NA","NA","2","legacy","1024","2","48000","-16","experiment","SSHSS","4","even","110740","NA","NA","203711","2254","NA","NA","204790","120362","2123","NA","NA","204794","NA","204900","205415","NA","NA","204900","NA","Flanker Task","53","30862","54","yes","1024"
"98.18181818181819","98.18181818181819","570.2181818181818","570.2181818181818","black","legacy","legacy","legacy","0","incongruent","uniform","1","undefined","1","h","0","0","0","54","0","0","0","54","54","0","54","0","54","0","54","54","NA","NA","54","0","Sun Sep 25 13:25:58 2022","1500","The main experiment item","yes","NA","KH-Subject-1.osexp","/Users/keelihatcher/Desktop/Tarleton M.D./Advanced Quantitative Methods & Experimental Design","no","mono","no","18","no","white","no","no","768","legacy","54","54","/Users/keelihatcher/Desktop/Tarleton M.D./Advanced Quantitative Methods & Experimental Design/KH-subject-4.csv","legacy","Lentiform Loewenfeld","3.3.12","0","h","s","NA","NA","NA","h","NA","500","108467","NA","NA","NA","500","NA","NA","NA","2","legacy","1024","2","48000","-16","experiment","SSHSS","4","even","110740","NA","NA","205419","2254","NA","NA","206496","120362","2123","NA","NA","206500","NA","206605","207106","NA","NA","206605","NA","Flanker Task","54","31362","55","yes","1024"
"98.21428571428571","98.21428571428571","569.0714285714286","569.0714285714286","black","legacy","legacy","legacy","0","incongruent","uniform","1","undefined","1","h","0","0","0","55","0","0","0","55","55","0","55","0","55","0","55","55","NA","NA","55","0","Sun Sep 25 13:25:58 2022","1500","The main experiment item","yes","NA","KH-Subject-1.osexp","/Users/keelihatcher/Desktop/Tarleton M.D./Advanced Quantitative Methods & Experimental Design","no","mono","no","18","no","white","no","no","768","legacy","55","55","/Users/keelihatcher/Desktop/Tarleton M.D./Advanced Quantitative Methods & Experimental Design/KH-subject-4.csv","legacy","Lentiform Loewenfeld","3.3.12","0","h","s","NA","NA","NA","h","NA","506","108467","NA","NA","NA","506","NA","NA","NA","2","legacy","1024","2","48000","-16","experiment","SSHSS","4","even","110740","NA","NA","207110","2254","NA","NA","208198","120362","2123","NA","NA","208201","NA","208306","208813","NA","NA","208306","NA","Flanker Task","55","31868","56","yes","1024"
"98.24561403508773","98.24561403508773","569.2982456140351","569.2982456140351","black","legacy","legacy","legacy","0","congruent","uniform","1","undefined","1","s","0","0","0","56","0","0","0","56","56","0","56","0","56","0","56","56","NA","NA","56","0","Sun Sep 25 13:25:58 2022","1500","The main experiment item","yes","NA","KH-Subject-1.osexp","/Users/keelihatcher/Desktop/Tarleton M.D./Advanced Quantitative Methods & Experimental Design","no","mono","no","18","no","white","no","no","768","legacy","56","56","/Users/keelihatcher/Desktop/Tarleton M.D./Advanced Quantitative Methods & Experimental Design/KH-subject-4.csv","legacy","Lentiform Loewenfeld","3.3.12","0","s","s","NA","NA","NA","s","NA","582","108467","NA","NA","NA","582","NA","NA","NA","2","legacy","1024","2","48000","-16","experiment","SSSSS","4","even","110740","NA","NA","208817","2254","NA","NA","209894","120362","2123","NA","NA","209898","NA","210003","210586","NA","NA","210003","NA","Flanker Task","56","32450","57","yes","1024"
"98.27586206896552","98.27586206896552","568.8448275862069","568.8448275862069","black","legacy","legacy","legacy","0","congruent","uniform","1","undefined","1","s","0","0","0","57","0","0","0","57","57","0","57","0","57","0","57","57","NA","NA","57","0","Sun Sep 25 13:25:58 2022","1500","The main experiment item","yes","NA","KH-Subject-1.osexp","/Users/keelihatcher/Desktop/Tarleton M.D./Advanced Quantitative Methods & Experimental Design","no","mono","no","18","no","white","no","no","768","legacy","57","57","/Users/keelihatcher/Desktop/Tarleton M.D./Advanced Quantitative Methods & Experimental Design/KH-subject-4.csv","legacy","Lentiform Loewenfeld","3.3.12","0","s","s","NA","NA","NA","s","NA","543","108467","NA","NA","NA","543","NA","NA","NA","2","legacy","1024","2","48000","-16","experiment","SSSSS","4","even","110740","NA","NA","210590","2254","NA","NA","211666","120362","2123","NA","NA","211670","NA","211776","212320","NA","NA","211776","NA","Flanker Task","57","32993","58","yes","1024"
"98.30508474576271","98.30508474576271","571","571","black","legacy","legacy","legacy","0","incongruent","uniform","1","undefined","1","s","0","0","0","58","0","0","0","58","58","0","58","0","58","0","58","58","NA","NA","58","0","Sun Sep 25 13:25:58 2022","1500","The main experiment item","yes","NA","KH-Subject-1.osexp","/Users/keelihatcher/Desktop/Tarleton M.D./Advanced Quantitative Methods & Experimental Design","no","mono","no","18","no","white","no","no","768","legacy","58","58","/Users/keelihatcher/Desktop/Tarleton M.D./Advanced Quantitative Methods & Experimental Design/KH-subject-4.csv","legacy","Lentiform Loewenfeld","3.3.12","0","s","s","NA","NA","NA","s","NA","696","108467","NA","NA","NA","696","NA","NA","NA","2","legacy","1024","2","48000","-16","experiment","HHSHH","4","even","110740","NA","NA","212324","2254","NA","NA","213384","120362","2123","NA","NA","213387","NA","213493","214189","NA","NA","213493","NA","Flanker Task","58","33689","59","yes","1024"
"98.33333333333333","98.33333333333333","573.4166666666666","573.4166666666666","black","legacy","legacy","legacy","0","incongruent","uniform","1","undefined","1","s","0","0","0","59","0","0","0","59","59","0","59","0","59","0","59","59","NA","NA","59","0","Sun Sep 25 13:25:58 2022","1500","The main experiment item","yes","NA","KH-Subject-1.osexp","/Users/keelihatcher/Desktop/Tarleton M.D./Advanced Quantitative Methods & Experimental Design","no","mono","no","18","no","white","no","no","768","legacy","59","59","/Users/keelihatcher/Desktop/Tarleton M.D./Advanced Quantitative Methods & Experimental Design/KH-subject-4.csv","legacy","Lentiform Loewenfeld","3.3.12","0","s","s","NA","NA","NA","s","NA","716","108467","NA","NA","NA","716","NA","NA","NA","2","legacy","1024","2","48000","-16","experiment","HHSHH","4","even","110740","NA","NA","214194","2254","NA","NA","215269","120362","2123","NA","NA","215273","NA","215377","216094","NA","NA","215377","NA","Flanker Task","59","34405","60","yes","1024"
"98.36065573770492","98.36065573770492","571.344262295082","571.344262295082","black","legacy","legacy","legacy","0","congruent","uniform","1","undefined","1","s","0","0","0","60","0","0","0","60","60","0","60","0","60","0","60","60","NA","NA","60","0","Sun Sep 25 13:25:58 2022","1500","The main experiment item","yes","NA","KH-Subject-1.osexp","/Users/keelihatcher/Desktop/Tarleton M.D./Advanced Quantitative Methods & Experimental Design","no","mono","no","18","no","white","no","no","768","legacy","60","60","/Users/keelihatcher/Desktop/Tarleton M.D./Advanced Quantitative Methods & Experimental Design/KH-subject-4.csv","legacy","Lentiform Loewenfeld","3.3.12","0","s","s","NA","NA","NA","s","NA","447","108467","NA","NA","NA","447","NA","NA","NA","2","legacy","1024","2","48000","-16","experiment","SSSSS","4","even","110740","NA","NA","216098","2254","NA","NA","217175","120362","2123","NA","NA","217179","NA","217285","217733","NA","NA","217285","NA","Flanker Task","60","34852","61","yes","1024"
"98.38709677419355","98.38709677419355","569.7903225806451","569.7903225806451","black","legacy","legacy","legacy","0","congruent","uniform","1","undefined","1","h","0","0","0","61","0","0","0","61","61","0","61","0","61","0","61","61","NA","NA","61","0","Sun Sep 25 13:25:58 2022","1500","The main experiment item","yes","NA","KH-Subject-1.osexp","/Users/keelihatcher/Desktop/Tarleton M.D./Advanced Quantitative Methods & Experimental Design","no","mono","no","18","no","white","no","no","768","legacy","61","61","/Users/keelihatcher/Desktop/Tarleton M.D./Advanced Quantitative Methods & Experimental Design/KH-subject-4.csv","legacy","Lentiform Loewenfeld","3.3.12","0","h","s","NA","NA","NA","h","NA","475","108467","NA","NA","NA","475","NA","NA","NA","2","legacy","1024","2","48000","-16","experiment","HHHHH","4","even","110740","NA","NA","217736","2254","NA","NA","218814","120362","2123","NA","NA","218818","NA","218923","219399","NA","NA","218923","NA","Flanker Task","61","35327","62","yes","1024"
"98.41269841269842","98.41269841269842","567.4761904761905","567.4761904761905","black","legacy","legacy","legacy","0","congruent","uniform","1","undefined","1","h","0","0","0","62","0","0","0","62","62","0","62","0","62","0","62","62","NA","NA","62","0","Sun Sep 25 13:25:58 2022","1500","The main experiment item","yes","NA","KH-Subject-1.osexp","/Users/keelihatcher/Desktop/Tarleton M.D./Advanced Quantitative Methods & Experimental Design","no","mono","no","18","no","white","no","no","768","legacy","62","62","/Users/keelihatcher/Desktop/Tarleton M.D./Advanced Quantitative Methods & Experimental Design/KH-subject-4.csv","legacy","Lentiform Loewenfeld","3.3.12","0","h","s","NA","NA","NA","h","NA","424","108467","NA","NA","NA","424","NA","NA","NA","2","legacy","1024","2","48000","-16","experiment","HHHHH","4","even","110740","NA","NA","219403","2254","NA","NA","220487","120362","2123","NA","NA","220490","NA","220595","221019","NA","NA","220595","NA","Flanker Task","62","35751","63","yes","1024"
"98.4375","98.4375","566.71875","566.71875","black","legacy","legacy","legacy","0","congruent","uniform","1","undefined","1","s","0","0","0","63","0","0","0","63","63","0","63","0","63","0","63","63","NA","NA","63","0","Sun Sep 25 13:25:58 2022","1500","The main experiment item","yes","NA","KH-Subject-1.osexp","/Users/keelihatcher/Desktop/Tarleton M.D./Advanced Quantitative Methods & Experimental Design","no","mono","no","18","no","white","no","no","768","legacy","63","63","/Users/keelihatcher/Desktop/Tarleton M.D./Advanced Quantitative Methods & Experimental Design/KH-subject-4.csv","legacy","Lentiform Loewenfeld","3.3.12","0","s","s","NA","NA","NA","s","NA","519","108467","NA","NA","NA","519","NA","NA","NA","2","legacy","1024","2","48000","-16","experiment","SSSSS","4","even","110740","NA","NA","221024","2254","NA","NA","222100","120362","2123","NA","NA","222104","NA","222209","222729","NA","NA","222209","NA","Flanker Task","63","36270","64","yes","1024"
"98.46153846153847","98.46153846153847","563.2923076923076","563.2923076923076","black","legacy","legacy","legacy","0","congruent","uniform","1","undefined","1","s","0","0","0","64","0","0","0","64","64","0","64","0","64","0","64","64","NA","NA","64","0","Sun Sep 25 13:25:58 2022","1500","The main experiment item","yes","NA","KH-Subject-1.osexp","/Users/keelihatcher/Desktop/Tarleton M.D./Advanced Quantitative Methods & Experimental Design","no","mono","no","18","no","white","no","no","768","legacy","64","64","/Users/keelihatcher/Desktop/Tarleton M.D./Advanced Quantitative Methods & Experimental Design/KH-subject-4.csv","legacy","Lentiform Loewenfeld","3.3.12","0","s","s","NA","NA","NA","s","NA","344","108467","NA","NA","NA","344","NA","NA","NA","2","legacy","1024","2","48000","-16","experiment","SSSSS","4","even","110740","NA","NA","222733","2254","NA","NA","223812","120362","2123","NA","NA","223816","NA","223922","224266","NA","NA","223922","NA","Flanker Task","64","36614","65","yes","1024"
"98.48484848484848","98.48484848484848","563.0757575757576","563.0757575757576","black","legacy","legacy","legacy","0","incongruent","uniform","1","undefined","1","h","0","0","0","65","0","0","0","65","65","0","65","0","65","0","65","65","NA","NA","65","0","Sun Sep 25 13:25:58 2022","1500","The main experiment item","yes","NA","KH-Subject-1.osexp","/Users/keelihatcher/Desktop/Tarleton M.D./Advanced Quantitative Methods & Experimental Design","no","mono","no","18","no","white","no","no","768","legacy","65","65","/Users/keelihatcher/Desktop/Tarleton M.D./Advanced Quantitative Methods & Experimental Design/KH-subject-4.csv","legacy","Lentiform Loewenfeld","3.3.12","0","h","s","NA","NA","NA","h","NA","549","108467","NA","NA","NA","549","NA","NA","NA","2","legacy","1024","2","48000","-16","experiment","SSHSS","4","even","110740","NA","NA","224271","2254","NA","NA","225348","120362","2123","NA","NA","225352","NA","225457","226007","NA","NA","225457","NA","Flanker Task","65","37163","66","yes","1024"
"98.50746268656717","98.50746268656717","562.1641791044776","562.1641791044776","black","legacy","legacy","legacy","0","incongruent","uniform","1","undefined","1","s","0","0","0","66","0","0","0","66","66","0","66","0","66","0","66","66","NA","NA","66","0","Sun Sep 25 13:25:58 2022","1500","The main experiment item","yes","NA","KH-Subject-1.osexp","/Users/keelihatcher/Desktop/Tarleton M.D./Advanced Quantitative Methods & Experimental Design","no","mono","no","18","no","white","no","no","768","legacy","66","66","/Users/keelihatcher/Desktop/Tarleton M.D./Advanced Quantitative Methods & Experimental Design/KH-subject-4.csv","legacy","Lentiform Loewenfeld","3.3.12","0","s","s","NA","NA","NA","s","NA","502","108467","NA","NA","NA","502","NA","NA","NA","2","legacy","1024","2","48000","-16","experiment","HHSHH","4","even","110740","NA","NA","226011","2254","NA","NA","227095","120362","2123","NA","NA","227099","NA","227204","227707","NA","NA","227204","NA","Flanker Task","66","37665","67","yes","1024"
"98.52941176470588","98.52941176470588","561.1911764705883","561.1911764705883","black","legacy","legacy","legacy","0","incongruent","uniform","1","undefined","1","h","0","0","0","67","0","0","0","67","67","0","67","0","67","0","67","67","NA","NA","67","0","Sun Sep 25 13:25:58 2022","1500","The main experiment item","yes","NA","KH-Subject-1.osexp","/Users/keelihatcher/Desktop/Tarleton M.D./Advanced Quantitative Methods & Experimental Design","no","mono","no","18","no","white","no","no","768","legacy","67","67","/Users/keelihatcher/Desktop/Tarleton M.D./Advanced Quantitative Methods & Experimental Design/KH-subject-4.csv","legacy","Lentiform Loewenfeld","3.3.12","0","h","s","NA","NA","NA","h","NA","496","108467","NA","NA","NA","496","NA","NA","NA","2","legacy","1024","2","48000","-16","experiment","SSHSS","4","even","110740","NA","NA","227711","2254","NA","NA","228779","120362","2123","NA","NA","228783","NA","228888","229385","NA","NA","228888","NA","Flanker Task","67","38161","68","yes","1024"
"98.55072463768116","98.55072463768116","559.3188405797101","559.3188405797101","black","legacy","legacy","legacy","0","congruent","uniform","1","undefined","1","h","0","0","0","68","0","0","0","68","68","0","68","0","68","0","68","68","NA","NA","68","0","Sun Sep 25 13:25:58 2022","1500","The main experiment item","yes","NA","KH-Subject-1.osexp","/Users/keelihatcher/Desktop/Tarleton M.D./Advanced Quantitative Methods & Experimental Design","no","mono","no","18","no","white","no","no","768","legacy","68","68","/Users/keelihatcher/Desktop/Tarleton M.D./Advanced Quantitative Methods & Experimental Design/KH-subject-4.csv","legacy","Lentiform Loewenfeld","3.3.12","0","h","s","NA","NA","NA","h","NA","432","108467","NA","NA","NA","432","NA","NA","NA","2","legacy","1024","2","48000","-16","experiment","HHHHH","4","even","110740","NA","NA","229389","2254","NA","NA","230453","120362","2123","NA","NA","230457","NA","230563","230996","NA","NA","230563","NA","Flanker Task","68","38593","69","yes","1024"
"98.57142857142857","98.57142857142857","558.8","558.8","black","legacy","legacy","legacy","0","incongruent","uniform","1","undefined","1","s","0","0","0","69","0","0","0","69","69","0","69","0","69","0","69","69","NA","NA","69","0","Sun Sep 25 13:25:58 2022","1500","The main experiment item","yes","NA","KH-Subject-1.osexp","/Users/keelihatcher/Desktop/Tarleton M.D./Advanced Quantitative Methods & Experimental Design","no","mono","no","18","no","white","no","no","768","legacy","69","69","/Users/keelihatcher/Desktop/Tarleton M.D./Advanced Quantitative Methods & Experimental Design/KH-subject-4.csv","legacy","Lentiform Loewenfeld","3.3.12","0","s","s","NA","NA","NA","s","NA","523","108467","NA","NA","NA","523","NA","NA","NA","2","legacy","1024","2","48000","-16","experiment","HHSHH","4","even","110740","NA","NA","231000","2254","NA","NA","232075","120362","2123","NA","NA","232079","NA","232184","232708","NA","NA","232184","NA","Flanker Task","69","39116","70","yes","1024"
"98.59154929577464","98.59154929577464","560.2394366197183","560.2394366197183","black","legacy","legacy","legacy","0","incongruent","uniform","1","undefined","1","h","0","0","0","70","0","0","0","70","70","0","70","0","70","0","70","70","NA","NA","70","0","Sun Sep 25 13:25:58 2022","1500","The main experiment item","yes","NA","KH-Subject-1.osexp","/Users/keelihatcher/Desktop/Tarleton M.D./Advanced Quantitative Methods & Experimental Design","no","mono","no","18","no","white","no","no","768","legacy","70","70","/Users/keelihatcher/Desktop/Tarleton M.D./Advanced Quantitative Methods & Experimental Design/KH-subject-4.csv","legacy","Lentiform Loewenfeld","3.3.12","0","h","s","NA","NA","NA","h","NA","661","108467","NA","NA","NA","661","NA","NA","NA","2","legacy","1024","2","48000","-16","experiment","SSHSS","4","even","110740","NA","NA","232713","2254","NA","NA","233800","120362","2123","NA","NA","233804","NA","233909","234570","NA","NA","233909","NA","Flanker Task","70","39777","71","yes","1024"
"98.61111111111111","98.61111111111111","560.5277777777778","560.5277777777778","black","legacy","legacy","legacy","0","incongruent","uniform","1","undefined","1","h","0","0","0","71","0","0","0","71","71","0","71","0","71","0","71","71","NA","NA","71","0","Sun Sep 25 13:25:58 2022","1500","The main experiment item","yes","NA","KH-Subject-1.osexp","/Users/keelihatcher/Desktop/Tarleton M.D./Advanced Quantitative Methods & Experimental Design","no","mono","no","18","no","white","no","no","768","legacy","71","71","/Users/keelihatcher/Desktop/Tarleton M.D./Advanced Quantitative Methods & Experimental Design/KH-subject-4.csv","legacy","Lentiform Loewenfeld","3.3.12","0","h","s","NA","NA","NA","h","NA","581","108467","NA","NA","NA","581","NA","NA","NA","2","legacy","1024","2","48000","-16","experiment","SSHSS","4","even","110740","NA","NA","234575","2254","NA","NA","235641","120362","2123","NA","NA","235646","NA","235753","236335","NA","NA","235753","NA","Flanker Task","71","40358","72","yes","1024"
"98.63013698630137","98.63013698630137","559.0410958904109","559.0410958904109","black","legacy","legacy","legacy","0","incongruent","uniform","1","undefined","1","h","0","0","0","72","0","0","0","72","72","0","72","0","72","0","72","72","NA","NA","72","0","Sun Sep 25 13:25:58 2022","1500","The main experiment item","yes","NA","KH-Subject-1.osexp","/Users/keelihatcher/Desktop/Tarleton M.D./Advanced Quantitative Methods & Experimental Design","no","mono","no","18","no","white","no","no","768","legacy","72","72","/Users/keelihatcher/Desktop/Tarleton M.D./Advanced Quantitative Methods & Experimental Design/KH-subject-4.csv","legacy","Lentiform Loewenfeld","3.3.12","0","h","s","NA","NA","NA","h","NA","452","108467","NA","NA","NA","452","NA","NA","NA","2","legacy","1024","2","48000","-16","experiment","SSHSS","4","even","110740","NA","NA","236339","2254","NA","NA","237418","120362","2123","NA","NA","237422","NA","237527","237980","NA","NA","237527","NA","Flanker Task","72","40810","73","yes","1024"
"98.64864864864865","98.64864864864865","559.9864864864865","559.9864864864865","black","legacy","legacy","legacy","0","incongruent","uniform","1","undefined","1","s","0","0","0","73","0","0","0","73","73","0","73","0","73","0","73","73","NA","NA","73","0","Sun Sep 25 13:25:58 2022","1500","The main experiment item","yes","NA","KH-Subject-1.osexp","/Users/keelihatcher/Desktop/Tarleton M.D./Advanced Quantitative Methods & Experimental Design","no","mono","no","18","no","white","no","no","768","legacy","73","73","/Users/keelihatcher/Desktop/Tarleton M.D./Advanced Quantitative Methods & Experimental Design/KH-subject-4.csv","legacy","Lentiform Loewenfeld","3.3.12","0","s","s","NA","NA","NA","s","NA","629","108467","NA","NA","NA","629","NA","NA","NA","2","legacy","1024","2","48000","-16","experiment","HHSHH","4","even","110740","NA","NA","237984","2254","NA","NA","239061","120362","2123","NA","NA","239065","NA","239170","239800","NA","NA","239170","NA","Flanker Task","73","41439","74","yes","1024"
"98.66666666666667","98.66666666666667","560.48","560.48","black","legacy","legacy","legacy","0","congruent","uniform","1","undefined","1","h","0","0","0","74","0","0","0","74","74","0","74","0","74","0","74","74","NA","NA","74","0","Sun Sep 25 13:25:58 2022","1500","The main experiment item","yes","NA","KH-Subject-1.osexp","/Users/keelihatcher/Desktop/Tarleton M.D./Advanced Quantitative Methods & Experimental Design","no","mono","no","18","no","white","no","no","768","legacy","74","74","/Users/keelihatcher/Desktop/Tarleton M.D./Advanced Quantitative Methods & Experimental Design/KH-subject-4.csv","legacy","Lentiform Loewenfeld","3.3.12","0","h","s","NA","NA","NA","h","NA","597","108467","NA","NA","NA","597","NA","NA","NA","2","legacy","1024","2","48000","-16","experiment","HHHHH","4","even","110740","NA","NA","239804","2254","NA","NA","240886","120362","2123","NA","NA","240890","NA","240995","241593","NA","NA","240995","NA","Flanker Task","74","42036","75","yes","1024"
"98.6842105263158","98.6842105263158","559.6315789473684","559.6315789473684","black","legacy","legacy","legacy","0","congruent","uniform","1","undefined","1","s","0","0","0","75","0","0","0","75","75","0","75","0","75","0","75","75","NA","NA","75","0","Sun Sep 25 13:25:58 2022","1500","The main experiment item","yes","NA","KH-Subject-1.osexp","/Users/keelihatcher/Desktop/Tarleton M.D./Advanced Quantitative Methods & Experimental Design","no","mono","no","18","no","white","no","no","768","legacy","75","75","/Users/keelihatcher/Desktop/Tarleton M.D./Advanced Quantitative Methods & Experimental Design/KH-subject-4.csv","legacy","Lentiform Loewenfeld","3.3.12","0","s","s","NA","NA","NA","s","NA","496","108467","NA","NA","NA","496","NA","NA","NA","2","legacy","1024","2","48000","-16","experiment","SSSSS","4","even","110740","NA","NA","241597","2254","NA","NA","242677","120362","2123","NA","NA","242681","NA","242786","243283","NA","NA","242786","NA","Flanker Task","75","42532","76","yes","1024"
"98.7012987012987","98.7012987012987","560.4025974025974","560.4025974025974","black","legacy","legacy","legacy","0","congruent","uniform","1","undefined","1","h","0","0","0","76","0","0","0","76","76","0","76","0","76","0","76","76","NA","NA","76","0","Sun Sep 25 13:25:58 2022","1500","The main experiment item","yes","NA","KH-Subject-1.osexp","/Users/keelihatcher/Desktop/Tarleton M.D./Advanced Quantitative Methods & Experimental Design","no","mono","no","18","no","white","no","no","768","legacy","76","76","/Users/keelihatcher/Desktop/Tarleton M.D./Advanced Quantitative Methods & Experimental Design/KH-subject-4.csv","legacy","Lentiform Loewenfeld","3.3.12","0","h","s","NA","NA","NA","h","NA","619","108467","NA","NA","NA","619","NA","NA","NA","2","legacy","1024","2","48000","-16","experiment","HHHHH","4","even","110740","NA","NA","243287","2254","NA","NA","244364","120362","2123","NA","NA","244368","NA","244474","245094","NA","NA","244474","NA","Flanker Task","76","43151","77","yes","1024"
"98.71794871794872","98.71794871794872","560.2435897435897","560.2435897435897","black","legacy","legacy","legacy","0","incongruent","uniform","1","undefined","1","s","0","0","0","77","0","0","0","77","77","0","77","0","77","0","77","77","NA","NA","77","0","Sun Sep 25 13:25:58 2022","1500","The main experiment item","yes","NA","KH-Subject-1.osexp","/Users/keelihatcher/Desktop/Tarleton M.D./Advanced Quantitative Methods & Experimental Design","no","mono","no","18","no","white","no","no","768","legacy","77","77","/Users/keelihatcher/Desktop/Tarleton M.D./Advanced Quantitative Methods & Experimental Design/KH-subject-4.csv","legacy","Lentiform Loewenfeld","3.3.12","0","s","s","NA","NA","NA","s","NA","548","108467","NA","NA","NA","548","NA","NA","NA","2","legacy","1024","2","48000","-16","experiment","HHSHH","4","even","110740","NA","NA","245098","2254","NA","NA","246171","120362","2123","NA","NA","246175","NA","246280","246829","NA","NA","246280","NA","Flanker Task","77","43699","78","yes","1024"
"98.73417721518987","98.73417721518987","559.6075949367089","559.6075949367089","black","legacy","legacy","legacy","0","congruent","uniform","1","undefined","1","h","0","0","0","78","0","0","0","78","78","0","78","0","78","0","78","78","NA","NA","78","0","Sun Sep 25 13:25:58 2022","1500","The main experiment item","yes","NA","KH-Subject-1.osexp","/Users/keelihatcher/Desktop/Tarleton M.D./Advanced Quantitative Methods & Experimental Design","no","mono","no","18","no","white","no","no","768","legacy","78","78","/Users/keelihatcher/Desktop/Tarleton M.D./Advanced Quantitative Methods & Experimental Design/KH-subject-4.csv","legacy","Lentiform Loewenfeld","3.3.12","0","h","s","NA","NA","NA","h","NA","510","108467","NA","NA","NA","510","NA","NA","NA","2","legacy","1024","2","48000","-16","experiment","HHHHH","4","even","110740","NA","NA","246833","2254","NA","NA","247911","120362","2123","NA","NA","247915","NA","248020","248530","NA","NA","248020","NA","Flanker Task","78","44209","79","yes","1024"
"98.75","98.75","560.1","560.1","black","legacy","legacy","legacy","0","congruent","uniform","1","undefined","1","s","0","0","0","79","0","0","0","79","79","0","79","0","79","0","79","79","NA","NA","79","0","Sun Sep 25 13:25:58 2022","1500","The main experiment item","yes","NA","KH-Subject-1.osexp","/Users/keelihatcher/Desktop/Tarleton M.D./Advanced Quantitative Methods & Experimental Design","no","mono","no","18","no","white","no","no","768","legacy","79","79","/Users/keelihatcher/Desktop/Tarleton M.D./Advanced Quantitative Methods & Experimental Design/KH-subject-4.csv","legacy","Lentiform Loewenfeld","3.3.12","0","s","s","NA","NA","NA","s","NA","599","108467","NA","NA","NA","599","NA","NA","NA","2","legacy","1024","2","48000","-16","experiment","SSSSS","4","even","110740","NA","NA","248535","2254","NA","NA","249613","120362","2123","NA","NA","249616","NA","249721","250321","NA","NA","249721","NA","Flanker Task","79","44808","80","yes","1024"
"98.76543209876543","98.76543209876543","560.1358024691358","560.1358024691358","black","legacy","legacy","legacy","0","incongruent","uniform","1","undefined","1","s","0","0","0","80","0","0","0","80","80","0","80","0","80","0","80","80","NA","NA","80","0","Sun Sep 25 13:25:58 2022","600","The main experiment item","yes","NA","KH-Subject-1.osexp","/Users/keelihatcher/Desktop/Tarleton M.D./Advanced Quantitative Methods & Experimental Design","no","mono","no","18","no","white","no","no","768","legacy","0","79","/Users/keelihatcher/Desktop/Tarleton M.D./Advanced Quantitative Methods & Experimental Design/KH-subject-4.csv","legacy","Lentiform Loewenfeld","3.3.12","0","s","s","h","NA","NA","s","NA","563","108467","221581","NA","NA","563","NA","NA","NA","2","legacy","1024","2","48000","-16","experiment","HHSHH","4","even","110740","472945","NA","250326","2254","251363","NA","472982","120362","2123","NA","NA","472986","NA","473089","473653","NA","NA","473089","NA","Flanker Task","80","45371","81","yes","1024"
"97.5609756097561","97.5609756097561","558.5365853658536","558.5365853658536","black","legacy","legacy","legacy","0","incongruent","uniform","0","undefined","0","h","0","0","0","81","0","0","0","81","81","0","81","0","81","0","81","81","NA","NA","81","0","Sun Sep 25 13:25:58 2022","600","The main experiment item","yes","NA","KH-Subject-1.osexp","/Users/keelihatcher/Desktop/Tarleton M.D./Advanced Quantitative Methods & Experimental Design","no","mono","no","18","no","white","no","no","768","legacy","1","79","/Users/keelihatcher/Desktop/Tarleton M.D./Advanced Quantitative Methods & Experimental Design/KH-subject-4.csv","legacy","Lentiform Loewenfeld","3.3.12","0","s","s","h","NA","NA","s","NA","429","108467","221581","NA","NA","429","NA","NA","NA","2","legacy","1024","2","48000","-16","experiment","SSHSS","4","even","110740","472945","NA","473658","2254","251363","NA","474738","120362","2123","NA","NA","474743","NA","474846","475276","NA","NA","474846","NA","Flanker Task","80","45800","82","yes","1024"
"97.59036144578313","97.59036144578313","557.4216867469879","557.4216867469879","black","legacy","legacy","legacy","0","congruent","uniform","1","undefined","1","s","0","0","0","82","0","0","0","82","82","0","82","0","82","0","82","82","NA","NA","82","0","Sun Sep 25 13:25:58 2022","600","The main experiment item","yes","NA","KH-Subject-1.osexp","/Users/keelihatcher/Desktop/Tarleton M.D./Advanced Quantitative Methods & Experimental Design","no","mono","no","18","no","white","no","no","768","legacy","2","79","/Users/keelihatcher/Desktop/Tarleton M.D./Advanced Quantitative Methods & Experimental Design/KH-subject-4.csv","legacy","Lentiform Loewenfeld","3.3.12","0","s","s","h","NA","NA","s","NA","466","108467","221581","NA","NA","466","NA","NA","NA","2","legacy","1024","2","48000","-16","experiment","SSSSS","4","even","110740","472945","NA","475790","2254","251363","NA","476868","475280","2123","NA","NA","476872","NA","476978","477444","NA","NA","476978","NA","Flanker Task","81","46266","83","yes","1024"
"97.61904761904762","97.61904761904762","555.702380952381","555.702380952381","black","legacy","legacy","legacy","0","congruent","uniform","1","undefined","1","s","0","0","0","83","0","0","0","83","83","0","83","0","83","0","83","83","NA","NA","83","0","Sun Sep 25 13:25:58 2022","600","The main experiment item","yes","NA","KH-Subject-1.osexp","/Users/keelihatcher/Desktop/Tarleton M.D./Advanced Quantitative Methods & Experimental Design","no","mono","no","18","no","white","no","no","768","legacy","3","79","/Users/keelihatcher/Desktop/Tarleton M.D./Advanced Quantitative Methods & Experimental Design/KH-subject-4.csv","legacy","Lentiform Loewenfeld","3.3.12","0","s","s","h","NA","NA","s","NA","413","108467","221581","NA","NA","413","NA","NA","NA","2","legacy","1024","2","48000","-16","experiment","SSSSS","4","even","110740","472945","NA","477448","2254","251363","NA","478526","475280","2123","NA","NA","478534","NA","478638","479052","NA","NA","478638","NA","Flanker Task","82","46679","84","yes","1024"
"97.6470588235294","97.6470588235294","553.964705882353","553.964705882353","black","legacy","legacy","legacy","0","congruent","uniform","1","undefined","1","s","0","0","0","84","0","0","0","84","84","0","84","0","84","0","84","84","NA","NA","84","0","Sun Sep 25 13:25:58 2022","600","The main experiment item","yes","NA","KH-Subject-1.osexp","/Users/keelihatcher/Desktop/Tarleton M.D./Advanced Quantitative Methods & Experimental Design","no","mono","no","18","no","white","no","no","768","legacy","4","79","/Users/keelihatcher/Desktop/Tarleton M.D./Advanced Quantitative Methods & Experimental Design/KH-subject-4.csv","legacy","Lentiform Loewenfeld","3.3.12","0","s","s","h","NA","NA","s","NA","408","108467","221581","NA","NA","408","NA","NA","NA","2","legacy","1024","2","48000","-16","experiment","SSSSS","4","even","110740","472945","NA","479057","2254","251363","NA","480134","475280","2123","NA","NA","480142","NA","480247","480656","NA","NA","480246","NA","Flanker Task","83","47087","85","yes","1024"
"97.67441860465117","97.67441860465117","551.8255813953489","551.8255813953489","black","legacy","legacy","legacy","0","incongruent","uniform","1","undefined","1","s","0","0","0","85","0","0","0","85","85","0","85","0","85","0","85","85","NA","NA","85","0","Sun Sep 25 13:25:58 2022","600","The main experiment item","yes","NA","KH-Subject-1.osexp","/Users/keelihatcher/Desktop/Tarleton M.D./Advanced Quantitative Methods & Experimental Design","no","mono","no","18","no","white","no","no","768","legacy","5","79","/Users/keelihatcher/Desktop/Tarleton M.D./Advanced Quantitative Methods & Experimental Design/KH-subject-4.csv","legacy","Lentiform Loewenfeld","3.3.12","0","s","s","h","NA","NA","s","NA","370","108467","221581","NA","NA","370","NA","NA","NA","2","legacy","1024","2","48000","-16","experiment","HHSHH","4","even","110740","472945","NA","480660","2254","251363","NA","481735","475280","2123","NA","NA","481741","NA","481845","482216","NA","NA","481845","NA","Flanker Task","84","47457","86","yes","1024"
"96.55172413793103","96.55172413793103","549.5862068965517","549.5862068965517","black","legacy","legacy","legacy","0","incongruent","uniform","0","undefined","0","h","0","0","0","86","0","0","0","86","86","0","86","0","86","0","86","86","NA","NA","86","0","Sun Sep 25 13:25:58 2022","600","The main experiment item","yes","NA","KH-Subject-1.osexp","/Users/keelihatcher/Desktop/Tarleton M.D./Advanced Quantitative Methods & Experimental Design","no","mono","no","18","no","white","no","no","768","legacy","6","79","/Users/keelihatcher/Desktop/Tarleton M.D./Advanced Quantitative Methods & Experimental Design/KH-subject-4.csv","legacy","Lentiform Loewenfeld","3.3.12","0","s","s","h","NA","NA","s","NA","357","108467","221581","NA","NA","357","NA","NA","NA","2","legacy","1024","2","48000","-16","experiment","SSHSS","4","even","110740","472945","NA","482220","2254","251363","NA","483308","475280","2123","NA","NA","483313","NA","483418","483776","NA","NA","483418","NA","Flanker Task","84","47814","87","yes","1024"
"96.5909090909091","96.5909090909091","548.5681818181819","548.5681818181819","black","legacy","legacy","legacy","0","congruent","uniform","1","undefined","1","h","0","0","0","87","0","0","0","87","87","0","87","0","87","0","87","87","NA","NA","87","0","Sun Sep 25 13:25:58 2022","600","The main experiment item","yes","NA","KH-Subject-1.osexp","/Users/keelihatcher/Desktop/Tarleton M.D./Advanced Quantitative Methods & Experimental Design","no","mono","no","18","no","white","no","no","768","legacy","7","79","/Users/keelihatcher/Desktop/Tarleton M.D./Advanced Quantitative Methods & Experimental Design/KH-subject-4.csv","legacy","Lentiform Loewenfeld","3.3.12","0","h","s","h","NA","NA","h","NA","460","108467","221581","NA","NA","460","NA","NA","NA","2","legacy","1024","2","48000","-16","experiment","HHHHH","4","even","110740","472945","NA","484303","2254","251363","NA","485392","483780","2123","NA","NA","485400","NA","485505","485966","NA","NA","485505","NA","Flanker Task","85","48274","88","yes","1024"
"96.62921348314607","96.62921348314607","546.7528089887641","546.7528089887641","black","legacy","legacy","legacy","0","congruent","uniform","1","undefined","1","h","0","0","0","88","0","0","0","88","88","0","88","0","88","0","88","88","NA","NA","88","0","Sun Sep 25 13:25:58 2022","600","The main experiment item","yes","NA","KH-Subject-1.osexp","/Users/keelihatcher/Desktop/Tarleton M.D./Advanced Quantitative Methods & Experimental Design","no","mono","no","18","no","white","no","no","768","legacy","8","79","/Users/keelihatcher/Desktop/Tarleton M.D./Advanced Quantitative Methods & Experimental Design/KH-subject-4.csv","legacy","Lentiform Loewenfeld","3.3.12","0","h","s","h","NA","NA","h","NA","387","108467","221581","NA","NA","387","NA","NA","NA","2","legacy","1024","2","48000","-16","experiment","HHHHH","4","even","110740","472945","NA","485970","2254","251363","NA","487047","483780","2123","NA","NA","487055","NA","487160","487547","NA","NA","487160","NA","Flanker Task","86","48661","89","yes","1024"
"96.66666666666667","96.66666666666667","544.8777777777777","544.8777777777777","black","legacy","legacy","legacy","0","congruent","uniform","1","undefined","1","h","0","0","0","89","0","0","0","89","89","0","89","0","89","0","89","89","NA","NA","89","0","Sun Sep 25 13:25:58 2022","600","The main experiment item","yes","NA","KH-Subject-1.osexp","/Users/keelihatcher/Desktop/Tarleton M.D./Advanced Quantitative Methods & Experimental Design","no","mono","no","18","no","white","no","no","768","legacy","9","79","/Users/keelihatcher/Desktop/Tarleton M.D./Advanced Quantitative Methods & Experimental Design/KH-subject-4.csv","legacy","Lentiform Loewenfeld","3.3.12","0","h","s","h","NA","NA","h","NA","378","108467","221581","NA","NA","378","NA","NA","NA","2","legacy","1024","2","48000","-16","experiment","HHHHH","4","even","110740","472945","NA","487551","2254","251363","NA","488629","483780","2123","NA","NA","488636","NA","488742","489121","NA","NA","488742","NA","Flanker Task","87","49039","90","yes","1024"
"96.7032967032967","96.7032967032967","542.9230769230769","542.9230769230769","black","legacy","legacy","legacy","0","congruent","uniform","1","undefined","1","h","0","0","0","90","0","0","0","90","90","0","90","0","90","0","90","90","NA","NA","90","0","Sun Sep 25 13:25:58 2022","600","The main experiment item","yes","NA","KH-Subject-1.osexp","/Users/keelihatcher/Desktop/Tarleton M.D./Advanced Quantitative Methods & Experimental Design","no","mono","no","18","no","white","no","no","768","legacy","10","79","/Users/keelihatcher/Desktop/Tarleton M.D./Advanced Quantitative Methods & Experimental Design/KH-subject-4.csv","legacy","Lentiform Loewenfeld","3.3.12","0","h","s","h","NA","NA","h","NA","367","108467","221581","NA","NA","367","NA","NA","NA","2","legacy","1024","2","48000","-16","experiment","HHHHH","4","even","110740","472945","NA","489125","2254","251363","NA","490205","483780","2123","NA","NA","490212","NA","490318","490686","NA","NA","490318","NA","Flanker Task","88","49406","91","yes","1024"
"96.73913043478261","96.73913043478261","541.5760869565217","541.5760869565217","black","legacy","legacy","legacy","0","congruent","uniform","1","undefined","1","h","0","0","0","91","0","0","0","91","91","0","91","0","91","0","91","91","NA","NA","91","0","Sun Sep 25 13:25:58 2022","600","The main experiment item","yes","NA","KH-Subject-1.osexp","/Users/keelihatcher/Desktop/Tarleton M.D./Advanced Quantitative Methods & Experimental Design","no","mono","no","18","no","white","no","no","768","legacy","11","79","/Users/keelihatcher/Desktop/Tarleton M.D./Advanced Quantitative Methods & Experimental Design/KH-subject-4.csv","legacy","Lentiform Loewenfeld","3.3.12","0","h","s","h","NA","NA","h","NA","419","108467","221581","NA","NA","419","NA","NA","NA","2","legacy","1024","2","48000","-16","experiment","HHHHH","4","even","110740","472945","NA","490690","2254","251363","NA","491768","483780","2123","NA","NA","491775","NA","491880","492300","NA","NA","491880","NA","Flanker Task","89","49825","92","yes","1024"
"96.7741935483871","96.7741935483871","539.9677419354839","539.9677419354839","black","legacy","legacy","legacy","0","congruent","uniform","1","undefined","1","s","0","0","0","92","0","0","0","92","92","0","92","0","92","0","92","92","NA","NA","92","0","Sun Sep 25 13:25:58 2022","600","The main experiment item","yes","NA","KH-Subject-1.osexp","/Users/keelihatcher/Desktop/Tarleton M.D./Advanced Quantitative Methods & Experimental Design","no","mono","no","18","no","white","no","no","768","legacy","12","79","/Users/keelihatcher/Desktop/Tarleton M.D./Advanced Quantitative Methods & Experimental Design/KH-subject-4.csv","legacy","Lentiform Loewenfeld","3.3.12","0","s","s","h","NA","NA","s","NA","392","108467","221581","NA","NA","392","NA","NA","NA","2","legacy","1024","2","48000","-16","experiment","SSSSS","4","even","110740","472945","NA","492304","2254","251363","NA","493382","483780","2123","NA","NA","493389","NA","493495","493888","NA","NA","493495","NA","Flanker Task","90","50217","93","yes","1024"
"96.80851063829788","96.80851063829788","538.1382978723404","538.1382978723404","black","legacy","legacy","legacy","0","incongruent","uniform","1","undefined","1","s","0","0","0","93","0","0","0","93","93","0","93","0","93","0","93","93","NA","NA","93","0","Sun Sep 25 13:25:58 2022","600","The main experiment item","yes","NA","KH-Subject-1.osexp","/Users/keelihatcher/Desktop/Tarleton M.D./Advanced Quantitative Methods & Experimental Design","no","mono","no","18","no","white","no","no","768","legacy","13","79","/Users/keelihatcher/Desktop/Tarleton M.D./Advanced Quantitative Methods & Experimental Design/KH-subject-4.csv","legacy","Lentiform Loewenfeld","3.3.12","0","s","s","h","NA","NA","s","NA","368","108467","221581","NA","NA","368","NA","NA","NA","2","legacy","1024","2","48000","-16","experiment","HHSHH","4","even","110740","472945","NA","493892","2254","251363","NA","494971","483780","2123","NA","NA","494976","NA","495082","495451","NA","NA","495082","NA","Flanker Task","91","50585","94","yes","1024"
"96.84210526315789","96.84210526315789","537.4105263157895","537.4105263157895","black","legacy","legacy","legacy","0","incongruent","uniform","1","undefined","1","h","0","0","0","94","0","0","0","94","94","0","94","0","94","0","94","94","NA","NA","94","0","Sun Sep 25 13:25:58 2022","600","The main experiment item","yes","NA","KH-Subject-1.osexp","/Users/keelihatcher/Desktop/Tarleton M.D./Advanced Quantitative Methods & Experimental Design","no","mono","no","18","no","white","no","no","768","legacy","14","79","/Users/keelihatcher/Desktop/Tarleton M.D./Advanced Quantitative Methods & Experimental Design/KH-subject-4.csv","legacy","Lentiform Loewenfeld","3.3.12","0","h","s","h","NA","NA","h","NA","469","108467","221581","NA","NA","469","NA","NA","NA","2","legacy","1024","2","48000","-16","experiment","SSHSS","4","even","110740","472945","NA","495455","2254","251363","NA","496532","483780","2123","NA","NA","496537","NA","496641","497110","NA","NA","496641","NA","Flanker Task","92","51054","95","yes","1024"
"96.875","96.875","536","536","black","legacy","legacy","legacy","0","congruent","uniform","1","undefined","1","h","0","0","0","95","0","0","0","95","95","0","95","0","95","0","95","95","NA","NA","95","0","Sun Sep 25 13:25:58 2022","600","The main experiment item","yes","NA","KH-Subject-1.osexp","/Users/keelihatcher/Desktop/Tarleton M.D./Advanced Quantitative Methods & Experimental Design","no","mono","no","18","no","white","no","no","768","legacy","15","79","/Users/keelihatcher/Desktop/Tarleton M.D./Advanced Quantitative Methods & Experimental Design/KH-subject-4.csv","legacy","Lentiform Loewenfeld","3.3.12","0","h","s","h","NA","NA","h","NA","402","108467","221581","NA","NA","402","NA","NA","NA","2","legacy","1024","2","48000","-16","experiment","HHHHH","4","even","110740","472945","NA","497115","2254","251363","NA","498197","483780","2123","NA","NA","498204","NA","498310","498712","NA","NA","498310","NA","Flanker Task","93","51456","96","yes","1024"
"96.90721649484536","96.90721649484536","535.3505154639175","535.3505154639175","black","legacy","legacy","legacy","0","congruent","uniform","1","undefined","1","s","0","0","0","96","0","0","0","96","96","0","96","0","96","0","96","96","NA","NA","96","0","Sun Sep 25 13:25:58 2022","600","The main experiment item","yes","NA","KH-Subject-1.osexp","/Users/keelihatcher/Desktop/Tarleton M.D./Advanced Quantitative Methods & Experimental Design","no","mono","no","18","no","white","no","no","768","legacy","16","79","/Users/keelihatcher/Desktop/Tarleton M.D./Advanced Quantitative Methods & Experimental Design/KH-subject-4.csv","legacy","Lentiform Loewenfeld","3.3.12","0","s","s","h","NA","NA","s","NA","473","108467","221581","NA","NA","473","NA","NA","NA","2","legacy","1024","2","48000","-16","experiment","SSSSS","4","even","110740","472945","NA","498717","2254","251363","NA","499777","483780","2123","NA","NA","499782","NA","499887","500360","NA","NA","499887","NA","Flanker Task","94","51929","97","yes","1024"
"96.93877551020408","96.93877551020408","535.1326530612245","535.1326530612245","black","legacy","legacy","legacy","0","incongruent","uniform","1","undefined","1","s","0","0","0","97","0","0","0","97","97","0","97","0","97","0","97","97","NA","NA","97","0","Sun Sep 25 13:25:58 2022","600","The main experiment item","yes","NA","KH-Subject-1.osexp","/Users/keelihatcher/Desktop/Tarleton M.D./Advanced Quantitative Methods & Experimental Design","no","mono","no","18","no","white","no","no","768","legacy","17","79","/Users/keelihatcher/Desktop/Tarleton M.D./Advanced Quantitative Methods & Experimental Design/KH-subject-4.csv","legacy","Lentiform Loewenfeld","3.3.12","0","s","s","h","NA","NA","s","NA","514","108467","221581","NA","NA","514","NA","NA","NA","2","legacy","1024","2","48000","-16","experiment","HHSHH","4","even","110740","472945","NA","500365","2254","251363","NA","501442","483780","2123","NA","NA","501446","NA","501551","502066","NA","NA","501551","NA","Flanker Task","95","52443","98","yes","1024"
