"acc","accuracy","average_response_time","avg_rt","background","canvas_backend","clock_backend","color_backend","compensation","condition","coordinates","correct","correct_Instructions1","correct_keyboard_response","correct_response","count_Block1","count_Block2","count_Block3","count_Instructions1","count_Instructions2","count_Instructions3","count_error_feedback","count_experiment","count_faster","count_fixation","count_isi","count_keyboard_response","count_logger","count_new_sketchpad_2","count_sequence","count_stimulus","datetime","deadline","description","disable_garbage_collection","experiment_file","experiment_path","font_bold","font_family","font_italic","font_size","font_underline","foreground","form_clicks","fullscreen","height","keyboard_backend","live_row","live_row_Block1","logfile","mouse_backend","opensesame_codename","opensesame_version","psychopy_waitblanking","repeat_cycle","response","response_Instructions1","response_Instructions2","response_Instructions3","response_keyboard_response","response_new_sketchpad_2","response_time","response_time_Instructions1","response_time_Instructions2","response_time_Instructions3","response_time_keyboard_response","response_time_new_sketchpad_2","round_decimals","sampler_backend","sound_buf_size","sound_channels","sound_freq","sound_sample_size","start","stimulus","subject_nr","subject_parity","time_Block1","time_Block2","time_Block3","time_Instructions1","time_Instructions2","time_Instructions3","time_error_feedback","time_experiment","time_faster","time_fixation","time_isi","time_keyboard_response","time_logger","time_new_sketchpad_2","time_sequence","time_stimulus","title","total_correct","total_response_time","total_responses","uniform_coordinates","width"
"100","100","1142","1142","black","legacy","legacy","legacy","0","incongruent","uniform","1","undefined","1","h","0","0","0","0","0","0","0","0","0","0","0","0","0","0","0","0","Tue Sep 13 18:12:07 2022","1500","The main experiment item","yes","lab 2.1.osexp","C:\Users\Owner\Downloads","no","mono","no","18","no","white","no","yes","768","legacy","0","0","C:\Users\Owner\Downloads\defaultlog.csv","legacy","Lentiform Loewenfeld","3.3.12","yes","0","h","s","NA","NA","h","NA","1142","7863","NA","NA","1142","NA","2","legacy","1024","2","48000","-16","experiment","SSHSS","1","odd","11115","NA","NA","3250","NA","NA","NA","3248","NA","11176","NA","11281","12425","NA","11174","11280","As Boring or as Not Boring as You Want","1","1142","1","yes","1024"
"100","100","1026.5","1026.5","black","legacy","legacy","legacy","0","incongruent","uniform","1","undefined","1","s","0","0","0","0","0","0","1","0","1","1","1","1","1","0","1","1","Tue Sep 13 18:12:07 2022","1500","The main experiment item","yes","lab 2.1.osexp","C:\Users\Owner\Downloads","no","mono","no","18","no","white","no","yes","768","legacy","1","1","C:\Users\Owner\Downloads\defaultlog.csv","legacy","Lentiform Loewenfeld","3.3.12","yes","0","s","s","NA","NA","s","NA","911","7863","NA","NA","911","NA","2","legacy","1024","2","48000","-16","experiment","HHSHH","1","odd","11115","NA","NA","3250","NA","NA","NA","3248","NA","13505","12444","13606","14519","NA","13503","13606","As Boring or as Not Boring as You Want","2","2053","2","yes","1024"
"100","100","927.6666666666666","927.6666666666666","black","legacy","legacy","legacy","0","congruent","uniform","1","undefined","1","h","0","0","0","0","0","0","2","0","2","2","2","2","2","0","2","2","Tue Sep 13 18:12:07 2022","1500","The main experiment item","yes","lab 2.1.osexp","C:\Users\Owner\Downloads","no","mono","no","18","no","white","no","yes","768","legacy","2","2","C:\Users\Owner\Downloads\defaultlog.csv","legacy","Lentiform Loewenfeld","3.3.12","yes","0","h","s","NA","NA","h","NA","730","7863","NA","NA","730","NA","2","legacy","1024","2","48000","-16","experiment","HHHHH","1","odd","11115","NA","NA","3250","NA","NA","NA","3248","NA","15579","14525","15682","16413","NA","15578","15682","As Boring or as Not Boring as You Want","3","2783","3","yes","1024"
"75","75","789.25","789.25","black","legacy","legacy","legacy","0","incongruent","uniform","0","undefined","0","h","0","0","0","0","0","0","3","0","3","3","3","3","3","0","3","3","Tue Sep 13 18:12:07 2022","1500","The main experiment item","yes","lab 2.1.osexp","C:\Users\Owner\Downloads","no","mono","no","18","no","white","no","yes","768","legacy","3","3","C:\Users\Owner\Downloads\defaultlog.csv","legacy","Lentiform Loewenfeld","3.3.12","yes","0","s","s","NA","NA","s","NA","374","7863","NA","NA","374","NA","2","legacy","1024","2","48000","-16","experiment","SSHSS","1","odd","11115","NA","NA","3250","NA","NA","NA","3248","NA","17477","16419","17582","17957","NA","17475","17581","As Boring or as Not Boring as You Want","3","3157","4","yes","1024"
"80","80","732","732","black","legacy","legacy","legacy","0","congruent","uniform","1","undefined","1","h","0","0","0","0","0","0","4","0","4","4","4","4","4","0","4","4","Tue Sep 13 18:12:07 2022","1500","The main experiment item","yes","lab 2.1.osexp","C:\Users\Owner\Downloads","no","mono","no","18","no","white","no","yes","768","legacy","4","4","C:\Users\Owner\Downloads\defaultlog.csv","legacy","Lentiform Loewenfeld","3.3.12","yes","0","h","s","NA","NA","h","NA","503","7863","NA","NA","503","NA","2","legacy","1024","2","48000","-16","experiment","HHHHH","1","odd","11115","NA","NA","3250","NA","NA","17964","3248","NA","19534","18465","19638","20142","NA","19533","19637","As Boring or as Not Boring as You Want","4","3660","5","yes","1024"
"83.33333333333333","83.33333333333333","688.5","688.5","black","legacy","legacy","legacy","0","congruent","uniform","1","undefined","1","h","0","0","0","0","0","0","5","0","5","5","5","5","5","0","5","5","Tue Sep 13 18:12:07 2022","1500","The main experiment item","yes","lab 2.1.osexp","C:\Users\Owner\Downloads","no","mono","no","18","no","white","no","yes","768","legacy","5","5","C:\Users\Owner\Downloads\defaultlog.csv","legacy","Lentiform Loewenfeld","3.3.12","yes","0","h","s","NA","NA","h","NA","471","7863","NA","NA","471","NA","2","legacy","1024","2","48000","-16","experiment","HHHHH","1","odd","11115","NA","NA","3250","NA","NA","17964","3248","NA","21203","20147","21308","21780","NA","21200","21307","As Boring or as Not Boring as You Want","5","4131","6","yes","1024"
"85.71428571428571","85.71428571428571","652.1428571428571","652.1428571428571","black","legacy","legacy","legacy","0","incongruent","uniform","1","undefined","1","h","0","0","0","0","0","0","6","0","6","6","6","6","6","0","6","6","Tue Sep 13 18:12:07 2022","1500","The main experiment item","yes","lab 2.1.osexp","C:\Users\Owner\Downloads","no","mono","no","18","no","white","no","yes","768","legacy","6","6","C:\Users\Owner\Downloads\defaultlog.csv","legacy","Lentiform Loewenfeld","3.3.12","yes","0","h","s","NA","NA","h","NA","434","7863","NA","NA","434","NA","2","legacy","1024","2","48000","-16","experiment","SSHSS","1","odd","11115","NA","NA","3250","NA","NA","17964","3248","NA","22843","21787","22944","23379","NA","22841","22944","As Boring or as Not Boring as You Want","6","4565","7","yes","1024"
"87.5","87.5","624.875","624.875","black","legacy","legacy","legacy","0","incongruent","uniform","1","undefined","1","s","0","0","0","0","0","0","7","0","7","7","7","7","7","0","7","7","Tue Sep 13 18:12:07 2022","1500","The main experiment item","yes","lab 2.1.osexp","C:\Users\Owner\Downloads","no","mono","no","18","no","white","no","yes","768","legacy","7","7","C:\Users\Owner\Downloads\defaultlog.csv","legacy","Lentiform Loewenfeld","3.3.12","yes","0","s","s","NA","NA","s","NA","434","7863","NA","NA","434","NA","2","legacy","1024","2","48000","-16","experiment","HHSHH","1","odd","11115","NA","NA","3250","NA","NA","17964","3248","NA","24438","23383","24543","24978","NA","24436","24543","As Boring or as Not Boring as You Want","7","4999","8","yes","1024"
"88.88888888888889","88.88888888888889","617","617","black","legacy","legacy","legacy","0","congruent","uniform","1","undefined","1","h","0","0","0","0","0","0","8","0","8","8","8","8","8","0","8","8","Tue Sep 13 18:12:07 2022","1500","The main experiment item","yes","lab 2.1.osexp","C:\Users\Owner\Downloads","no","mono","no","18","no","white","no","yes","768","legacy","8","8","C:\Users\Owner\Downloads\defaultlog.csv","legacy","Lentiform Loewenfeld","3.3.12","yes","0","h","s","NA","NA","h","NA","554","7863","NA","NA","554","NA","2","legacy","1024","2","48000","-16","experiment","HHHHH","1","odd","11115","NA","NA","3250","NA","NA","17964","3248","NA","26041","24985","26142","26698","NA","26039","26142","As Boring or as Not Boring as You Want","8","5553","9","yes","1024"
"90","90","596.6","596.6","black","legacy","legacy","legacy","0","congruent","uniform","1","undefined","1","h","0","0","0","0","0","0","9","0","9","9","9","9","9","0","9","9","Tue Sep 13 18:12:07 2022","1500","The main experiment item","yes","lab 2.1.osexp","C:\Users\Owner\Downloads","no","mono","no","18","no","white","no","yes","768","legacy","9","9","C:\Users\Owner\Downloads\defaultlog.csv","legacy","Lentiform Loewenfeld","3.3.12","yes","0","h","s","NA","NA","h","NA","413","7863","NA","NA","413","NA","2","legacy","1024","2","48000","-16","experiment","HHHHH","1","odd","11115","NA","NA","3250","NA","NA","17964","3248","NA","27762","26704","27864","28278","NA","27760","27864","As Boring or as Not Boring as You Want","9","5966","10","yes","1024"
"90.9090909090909","90.9090909090909","595.0909090909091","595.0909090909091","black","legacy","legacy","legacy","0","incongruent","uniform","1","undefined","1","h","0","0","0","0","0","0","10","0","10","10","10","10","10","0","10","10","Tue Sep 13 18:12:07 2022","1500","The main experiment item","yes","lab 2.1.osexp","C:\Users\Owner\Downloads","no","mono","no","18","no","white","no","yes","768","legacy","10","10","C:\Users\Owner\Downloads\defaultlog.csv","legacy","Lentiform Loewenfeld","3.3.12","yes","0","h","s","NA","NA","h","NA","580","7863","NA","NA","580","NA","2","legacy","1024","2","48000","-16","experiment","SSHSS","1","odd","11115","NA","NA","3250","NA","NA","17964","3248","NA","29337","28282","29438","30019","NA","29336","29438","As Boring or as Not Boring as You Want","10","6546","11","yes","1024"
"91.66666666666667","91.66666666666667","590.9166666666666","590.9166666666666","black","legacy","legacy","legacy","0","incongruent","uniform","1","undefined","1","h","0","0","0","0","0","0","11","0","11","11","11","11","11","0","11","11","Tue Sep 13 18:12:07 2022","1500","The main experiment item","yes","lab 2.1.osexp","C:\Users\Owner\Downloads","no","mono","no","18","no","white","no","yes","768","legacy","11","11","C:\Users\Owner\Downloads\defaultlog.csv","legacy","Lentiform Loewenfeld","3.3.12","yes","0","h","s","NA","NA","h","NA","545","7863","NA","NA","545","NA","2","legacy","1024","2","48000","-16","experiment","SSHSS","1","odd","11115","NA","NA","3250","NA","NA","17964","3248","NA","31082","30024","31185","31731","NA","31079","31184","As Boring or as Not Boring as You Want","11","7091","12","yes","1024"
"84.61538461538461","84.61538461538461","585.1538461538462","585.1538461538462","black","legacy","legacy","legacy","0","incongruent","uniform","0","undefined","0","s","0","0","0","0","0","0","12","0","12","12","12","12","12","0","12","12","Tue Sep 13 18:12:07 2022","1500","The main experiment item","yes","lab 2.1.osexp","C:\Users\Owner\Downloads","no","mono","no","18","no","white","no","yes","768","legacy","12","12","C:\Users\Owner\Downloads\defaultlog.csv","legacy","Lentiform Loewenfeld","3.3.12","yes","0","h","s","NA","NA","h","NA","516","7863","NA","NA","516","NA","2","legacy","1024","2","48000","-16","experiment","HHSHH","1","odd","11115","NA","NA","3250","NA","NA","17964","3248","NA","32795","31735","32896","33413","NA","32793","32896","As Boring or as Not Boring as You Want","11","7607","13","yes","1024"
"85.71428571428571","85.71428571428571","590.0714285714286","590.0714285714286","black","legacy","legacy","legacy","0","congruent","uniform","1","undefined","1","s","0","0","0","0","0","0","13","0","13","13","13","13","13","0","13","13","Tue Sep 13 18:12:07 2022","1500","The main experiment item","yes","lab 2.1.osexp","C:\Users\Owner\Downloads","no","mono","no","18","no","white","no","yes","768","legacy","13","13","C:\Users\Owner\Downloads\defaultlog.csv","legacy","Lentiform Loewenfeld","3.3.12","yes","0","s","s","NA","NA","s","NA","654","7863","NA","NA","654","NA","2","legacy","1024","2","48000","-16","experiment","SSSSS","1","odd","11115","NA","NA","3250","NA","NA","33417","3248","NA","34973","33918","35074","35729","NA","34972","35074","As Boring or as Not Boring as You Want","12","8261","14","yes","1024"
"86.66666666666667","86.66666666666667","580.5333333333333","580.5333333333333","black","legacy","legacy","legacy","0","congruent","uniform","1","undefined","1","h","0","0","0","0","0","0","14","0","14","14","14","14","14","0","14","14","Tue Sep 13 18:12:07 2022","1500","The main experiment item","yes","lab 2.1.osexp","C:\Users\Owner\Downloads","no","mono","no","18","no","white","no","yes","768","legacy","14","14","C:\Users\Owner\Downloads\defaultlog.csv","legacy","Lentiform Loewenfeld","3.3.12","yes","0","h","s","NA","NA","h","NA","447","7863","NA","NA","447","NA","2","legacy","1024","2","48000","-16","experiment","HHHHH","1","odd","11115","NA","NA","3250","NA","NA","33417","3248","NA","36807","35734","36911","37360","NA","36805","36910","As Boring or as Not Boring as You Want","13","8708","15","yes","1024"
"87.5","87.5","577.6875","577.6875","black","legacy","legacy","legacy","0","incongruent","uniform","1","undefined","1","s","0","0","0","0","0","0","15","0","15","15","15","15","15","0","15","15","Tue Sep 13 18:12:07 2022","1500","The main experiment item","yes","lab 2.1.osexp","C:\Users\Owner\Downloads","no","mono","no","18","no","white","no","yes","768","legacy","15","15","C:\Users\Owner\Downloads\defaultlog.csv","legacy","Lentiform Loewenfeld","3.3.12","yes","0","s","s","NA","NA","s","NA","535","7863","NA","NA","535","NA","2","legacy","1024","2","48000","-16","experiment","HHSHH","1","odd","11115","NA","NA","3250","NA","NA","33417","3248","NA","38419","37364","38520","39057","NA","38417","38520","As Boring or as Not Boring as You Want","14","9243","16","yes","1024"
"88.23529411764706","88.23529411764706","574.7647058823529","574.7647058823529","black","legacy","legacy","legacy","0","incongruent","uniform","1","undefined","1","s","0","0","0","0","0","0","16","0","16","16","16","16","16","0","16","16","Tue Sep 13 18:12:07 2022","1500","The main experiment item","yes","lab 2.1.osexp","C:\Users\Owner\Downloads","no","mono","no","18","no","white","no","yes","768","legacy","16","16","C:\Users\Owner\Downloads\defaultlog.csv","legacy","Lentiform Loewenfeld","3.3.12","yes","0","s","s","NA","NA","s","NA","528","7863","NA","NA","528","NA","2","legacy","1024","2","48000","-16","experiment","HHSHH","1","odd","11115","NA","NA","3250","NA","NA","33417","3248","NA","40121","39064","40225","40754","NA","40119","40225","As Boring or as Not Boring as You Want","15","9771","17","yes","1024"
"88.88888888888889","88.88888888888889","576","576","black","legacy","legacy","legacy","0","congruent","uniform","1","undefined","1","h","0","0","0","0","0","0","17","0","17","17","17","17","17","0","17","17","Tue Sep 13 18:12:07 2022","1500","The main experiment item","yes","lab 2.1.osexp","C:\Users\Owner\Downloads","no","mono","no","18","no","white","no","yes","768","legacy","17","17","C:\Users\Owner\Downloads\defaultlog.csv","legacy","Lentiform Loewenfeld","3.3.12","yes","0","h","s","NA","NA","h","NA","597","7863","NA","NA","597","NA","2","legacy","1024","2","48000","-16","experiment","HHHHH","1","odd","11115","NA","NA","3250","NA","NA","33417","3248","NA","41816","40760","41917","42515","NA","41813","41917","As Boring or as Not Boring as You Want","16","10368","18","yes","1024"
"89.47368421052632","89.47368421052632","577.4736842105264","577.4736842105264","black","legacy","legacy","legacy","0","congruent","uniform","1","undefined","1","s","0","0","0","0","0","0","18","0","18","18","18","18","18","0","18","18","Tue Sep 13 18:12:07 2022","1500","The main experiment item","yes","lab 2.1.osexp","C:\Users\Owner\Downloads","no","mono","no","18","no","white","no","yes","768","legacy","18","18","C:\Users\Owner\Downloads\defaultlog.csv","legacy","Lentiform Loewenfeld","3.3.12","yes","0","s","s","NA","NA","s","NA","604","7863","NA","NA","604","NA","2","legacy","1024","2","48000","-16","experiment","SSSSS","1","odd","11115","NA","NA","3250","NA","NA","33417","3248","NA","43587","42520","43689","44294","NA","43585","43689","As Boring or as Not Boring as You Want","17","10972","19","yes","1024"
"90","90","571.6","571.6","black","legacy","legacy","legacy","0","congruent","uniform","1","undefined","1","h","0","0","0","0","0","0","19","0","19","19","19","19","19","0","19","19","Tue Sep 13 18:12:07 2022","1500","The main experiment item","yes","lab 2.1.osexp","C:\Users\Owner\Downloads","no","mono","no","18","no","white","no","yes","768","legacy","19","19","C:\Users\Owner\Downloads\defaultlog.csv","legacy","Lentiform Loewenfeld","3.3.12","yes","0","h","s","NA","NA","h","NA","460","7863","NA","NA","460","NA","2","legacy","1024","2","48000","-16","experiment","HHHHH","1","odd","11115","NA","NA","3250","NA","NA","33417","3248","NA","45354","44299","45455","45916","NA","45352","45455","As Boring or as Not Boring as You Want","18","11432","20","yes","1024"
"90.47619047619048","90.47619047619048","572.6190476190476","572.6190476190476","black","legacy","legacy","legacy","0","congruent","uniform","1","undefined","1","h","0","0","0","0","0","0","20","0","20","20","20","20","20","0","20","20","Tue Sep 13 18:12:07 2022","1500","The main experiment item","yes","lab 2.1.osexp","C:\Users\Owner\Downloads","no","mono","no","18","no","white","no","yes","768","legacy","20","20","C:\Users\Owner\Downloads\defaultlog.csv","legacy","Lentiform Loewenfeld","3.3.12","yes","0","h","s","NA","NA","h","NA","593","7863","NA","NA","593","NA","2","legacy","1024","2","48000","-16","experiment","HHHHH","1","odd","11115","NA","NA","3250","NA","NA","33417","3248","NA","46983","45923","47086","47680","NA","46980","47086","As Boring or as Not Boring as You Want","19","12025","21","yes","1024"
"90.9090909090909","90.9090909090909","569.9545454545455","569.9545454545455","black","legacy","legacy","legacy","0","congruent","uniform","1","undefined","1","s","0","0","0","0","0","0","21","0","21","21","21","21","21","0","21","21","Tue Sep 13 18:12:07 2022","1500","The main experiment item","yes","lab 2.1.osexp","C:\Users\Owner\Downloads","no","mono","no","18","no","white","no","yes","768","legacy","21","21","C:\Users\Owner\Downloads\defaultlog.csv","legacy","Lentiform Loewenfeld","3.3.12","yes","0","s","s","NA","NA","s","NA","514","7863","NA","NA","514","NA","2","legacy","1024","2","48000","-16","experiment","SSSSS","1","odd","11115","NA","NA","3250","NA","NA","33417","3248","NA","48738","47684","48839","49354","NA","48736","48839","As Boring or as Not Boring as You Want","20","12539","22","yes","1024"
"91.30434782608695","91.30434782608695","567.5217391304348","567.5217391304348","black","legacy","legacy","legacy","0","congruent","uniform","1","undefined","1","h","0","0","0","0","0","0","22","0","22","22","22","22","22","0","22","22","Tue Sep 13 18:12:07 2022","1500","The main experiment item","yes","lab 2.1.osexp","C:\Users\Owner\Downloads","no","mono","no","18","no","white","no","yes","768","legacy","22","22","C:\Users\Owner\Downloads\defaultlog.csv","legacy","Lentiform Loewenfeld","3.3.12","yes","0","h","s","NA","NA","h","NA","514","7863","NA","NA","514","NA","2","legacy","1024","2","48000","-16","experiment","HHHHH","1","odd","11115","NA","NA","3250","NA","NA","33417","3248","NA","50415","49359","50516","51031","NA","50413","50516","As Boring or as Not Boring as You Want","21","13053","23","yes","1024"
"91.66666666666667","91.66666666666667","562.4583333333334","562.4583333333334","black","legacy","legacy","legacy","0","incongruent","uniform","1","undefined","1","h","0","0","0","0","0","0","23","0","23","23","23","23","23","0","23","23","Tue Sep 13 18:12:07 2022","1500","The main experiment item","yes","lab 2.1.osexp","C:\Users\Owner\Downloads","no","mono","no","18","no","white","no","yes","768","legacy","23","23","C:\Users\Owner\Downloads\defaultlog.csv","legacy","Lentiform Loewenfeld","3.3.12","yes","0","h","s","NA","NA","h","NA","446","7863","NA","NA","446","NA","2","legacy","1024","2","48000","-16","experiment","SSHSS","1","odd","11115","NA","NA","3250","NA","NA","33417","3248","NA","52094","51038","52198","52645","NA","52092","52198","As Boring or as Not Boring as You Want","22","13499","24","yes","1024"
"92","92","567.32","567.32","black","legacy","legacy","legacy","0","congruent","uniform","1","undefined","1","h","0","0","0","0","0","0","24","0","24","24","24","24","24","0","24","24","Tue Sep 13 18:12:07 2022","1500","The main experiment item","yes","lab 2.1.osexp","C:\Users\Owner\Downloads","no","mono","no","18","no","white","no","yes","768","legacy","24","24","C:\Users\Owner\Downloads\defaultlog.csv","legacy","Lentiform Loewenfeld","3.3.12","yes","0","h","s","NA","NA","h","NA","684","7863","NA","NA","684","NA","2","legacy","1024","2","48000","-16","experiment","HHHHH","1","odd","11115","NA","NA","3250","NA","NA","33417","3248","NA","53727","52658","53828","54513","NA","53726","53828","As Boring or as Not Boring as You Want","23","14183","25","yes","1024"
"92.3076923076923","92.3076923076923","564.2692307692307","564.2692307692307","black","legacy","legacy","legacy","0","congruent","uniform","1","undefined","1","h","0","0","0","0","0","0","25","0","25","25","25","25","25","0","25","25","Tue Sep 13 18:12:07 2022","1500","The main experiment item","yes","lab 2.1.osexp","C:\Users\Owner\Downloads","no","mono","no","18","no","white","no","yes","768","legacy","25","25","C:\Users\Owner\Downloads\defaultlog.csv","legacy","Lentiform Loewenfeld","3.3.12","yes","0","h","s","NA","NA","h","NA","488","7863","NA","NA","488","NA","2","legacy","1024","2","48000","-16","experiment","HHHHH","1","odd","11115","NA","NA","3250","NA","NA","33417","3248","NA","55574","54518","55675","56164","NA","55571","55675","As Boring or as Not Boring as You Want","24","14671","26","yes","1024"
"92.5925925925926","92.5925925925926","564.5555555555555","564.5555555555555","black","legacy","legacy","legacy","0","incongruent","uniform","1","undefined","1","h","0","0","0","0","0","0","26","0","26","26","26","26","26","0","26","26","Tue Sep 13 18:12:07 2022","1500","The main experiment item","yes","lab 2.1.osexp","C:\Users\Owner\Downloads","no","mono","no","18","no","white","no","yes","768","legacy","26","26","C:\Users\Owner\Downloads\defaultlog.csv","legacy","Lentiform Loewenfeld","3.3.12","yes","0","h","s","NA","NA","h","NA","572","7863","NA","NA","572","NA","2","legacy","1024","2","48000","-16","experiment","SSHSS","1","odd","11115","NA","NA","3250","NA","NA","33417","3248","NA","57226","56171","57329","57903","NA","57224","57328","As Boring or as Not Boring as You Want","25","15243","27","yes","1024"
"92.85714285714286","92.85714285714286","559.8928571428571","559.8928571428571","black","legacy","legacy","legacy","0","congruent","uniform","1","undefined","1","s","0","0","0","0","0","0","27","0","27","27","27","27","27","0","27","27","Tue Sep 13 18:12:07 2022","1500","The main experiment item","yes","lab 2.1.osexp","C:\Users\Owner\Downloads","no","mono","no","18","no","white","no","yes","768","legacy","27","27","C:\Users\Owner\Downloads\defaultlog.csv","legacy","Lentiform Loewenfeld","3.3.12","yes","0","s","s","NA","NA","s","NA","434","7863","NA","NA","434","NA","2","legacy","1024","2","48000","-16","experiment","SSSSS","1","odd","11115","NA","NA","3250","NA","NA","33417","3248","NA","58965","57909","59066","59501","NA","58963","59066","As Boring or as Not Boring as You Want","26","15677","28","yes","1024"
"93.10344827586206","93.10344827586206","556.7586206896551","556.7586206896551","black","legacy","legacy","legacy","0","incongruent","uniform","1","undefined","1","s","0","0","0","0","0","0","28","0","28","28","28","28","28","0","28","28","Tue Sep 13 18:12:07 2022","1500","The main experiment item","yes","lab 2.1.osexp","C:\Users\Owner\Downloads","no","mono","no","18","no","white","no","yes","768","legacy","28","28","C:\Users\Owner\Downloads\defaultlog.csv","legacy","Lentiform Loewenfeld","3.3.12","yes","0","s","s","NA","NA","s","NA","469","7863","NA","NA","469","NA","2","legacy","1024","2","48000","-16","experiment","HHSHH","1","odd","11115","NA","NA","3250","NA","NA","33417","3248","NA","60575","59506","60676","61147","NA","60572","60676","As Boring or as Not Boring as You Want","27","16146","29","yes","1024"
"93.33333333333333","93.33333333333333","559.9333333333333","559.9333333333333","black","legacy","legacy","legacy","0","incongruent","uniform","1","undefined","1","s","0","0","0","0","0","0","29","0","29","29","29","29","29","0","29","29","Tue Sep 13 18:12:07 2022","1500","The main experiment item","yes","lab 2.1.osexp","C:\Users\Owner\Downloads","no","mono","no","18","no","white","no","yes","768","legacy","29","29","C:\Users\Owner\Downloads\defaultlog.csv","legacy","Lentiform Loewenfeld","3.3.12","yes","0","s","s","NA","NA","s","NA","652","7863","NA","NA","652","NA","2","legacy","1024","2","48000","-16","experiment","HHSHH","1","odd","11115","NA","NA","3250","NA","NA","33417","3248","NA","62206","61151","62308","62962","NA","62204","62308","As Boring or as Not Boring as You Want","28","16798","30","yes","1024"
"93.54838709677419","93.54838709677419","558.1290322580645","558.1290322580645","black","legacy","legacy","legacy","0","incongruent","uniform","1","undefined","1","h","0","0","0","0","0","0","30","0","30","30","30","30","30","0","30","30","Tue Sep 13 18:12:07 2022","1500","The main experiment item","yes","lab 2.1.osexp","C:\Users\Owner\Downloads","no","mono","no","18","no","white","no","yes","768","legacy","30","30","C:\Users\Owner\Downloads\defaultlog.csv","legacy","Lentiform Loewenfeld","3.3.12","yes","0","h","s","NA","NA","h","NA","504","7863","NA","NA","504","NA","2","legacy","1024","2","48000","-16","experiment","SSHSS","1","odd","11115","NA","NA","3250","NA","NA","33417","3248","NA","64024","62968","64125","64630","NA","64022","64125","As Boring or as Not Boring as You Want","29","17302","31","yes","1024"
"93.75","93.75","555.71875","555.71875","black","legacy","legacy","legacy","0","congruent","uniform","1","undefined","1","s","0","0","0","0","0","0","31","0","31","31","31","31","31","0","31","31","Tue Sep 13 18:12:07 2022","1500","The main experiment item","yes","lab 2.1.osexp","C:\Users\Owner\Downloads","no","mono","no","18","no","white","no","yes","768","legacy","31","31","C:\Users\Owner\Downloads\defaultlog.csv","legacy","Lentiform Loewenfeld","3.3.12","yes","0","s","s","NA","NA","s","NA","481","7863","NA","NA","481","NA","2","legacy","1024","2","48000","-16","experiment","SSSSS","1","odd","11115","NA","NA","3250","NA","NA","33417","3248","NA","65692","64636","65793","66276","NA","65689","65793","As Boring or as Not Boring as You Want","30","17783","32","yes","1024"
"93.93939393939394","93.93939393939394","553.5454545454545","553.5454545454545","black","legacy","legacy","legacy","0","congruent","uniform","1","undefined","1","h","0","0","0","0","0","0","32","0","32","32","32","32","32","0","32","32","Tue Sep 13 18:12:07 2022","1500","The main experiment item","yes","lab 2.1.osexp","C:\Users\Owner\Downloads","no","mono","no","18","no","white","no","yes","768","legacy","32","32","C:\Users\Owner\Downloads\defaultlog.csv","legacy","Lentiform Loewenfeld","3.3.12","yes","0","h","s","NA","NA","h","NA","484","7863","NA","NA","484","NA","2","legacy","1024","2","48000","-16","experiment","HHHHH","1","odd","11115","NA","NA","3250","NA","NA","33417","3248","NA","67339","66283","67441","67926","NA","67336","67441","As Boring or as Not Boring as You Want","31","18267","33","yes","1024"
"94.11764705882354","94.11764705882354","552.2352941176471","552.2352941176471","black","legacy","legacy","legacy","0","incongruent","uniform","1","undefined","1","s","0","0","0","0","0","0","33","0","33","33","33","33","33","0","33","33","Tue Sep 13 18:12:07 2022","1500","The main experiment item","yes","lab 2.1.osexp","C:\Users\Owner\Downloads","no","mono","no","18","no","white","no","yes","768","legacy","33","33","C:\Users\Owner\Downloads\defaultlog.csv","legacy","Lentiform Loewenfeld","3.3.12","yes","0","s","s","NA","NA","s","NA","509","7863","NA","NA","509","NA","2","legacy","1024","2","48000","-16","experiment","HHSHH","1","odd","11115","NA","NA","3250","NA","NA","33417","3248","NA","68989","67933","69090","69601","NA","68986","69090","As Boring or as Not Boring as You Want","32","18776","34","yes","1024"
"94.28571428571429","94.28571428571429","551.8285714285714","551.8285714285714","black","legacy","legacy","legacy","0","congruent","uniform","1","undefined","1","s","0","0","0","0","0","0","34","0","34","34","34","34","34","0","34","34","Tue Sep 13 18:12:07 2022","1500","The main experiment item","yes","lab 2.1.osexp","C:\Users\Owner\Downloads","no","mono","no","18","no","white","no","yes","768","legacy","34","34","C:\Users\Owner\Downloads\defaultlog.csv","legacy","Lentiform Loewenfeld","3.3.12","yes","0","s","s","NA","NA","s","NA","538","7863","NA","NA","538","NA","2","legacy","1024","2","48000","-16","experiment","SSSSS","1","odd","11115","NA","NA","3250","NA","NA","33417","3248","NA","70673","69605","70774","71313","NA","70671","70774","As Boring or as Not Boring as You Want","33","19314","35","yes","1024"
"94.44444444444444","94.44444444444444","551.1666666666666","551.1666666666666","black","legacy","legacy","legacy","0","incongruent","uniform","1","undefined","1","h","0","0","0","0","0","0","35","0","35","35","35","35","35","0","35","35","Tue Sep 13 18:12:07 2022","1500","The main experiment item","yes","lab 2.1.osexp","C:\Users\Owner\Downloads","no","mono","no","18","no","white","no","yes","768","legacy","35","35","C:\Users\Owner\Downloads\defaultlog.csv","legacy","Lentiform Loewenfeld","3.3.12","yes","0","h","s","NA","NA","h","NA","528","7863","NA","NA","528","NA","2","legacy","1024","2","48000","-16","experiment","SSHSS","1","odd","11115","NA","NA","3250","NA","NA","33417","3248","NA","72374","71318","72478","73007","NA","72372","72478","As Boring or as Not Boring as You Want","34","19842","36","yes","1024"
"94.5945945945946","94.5945945945946","551.7567567567568","551.7567567567568","black","legacy","legacy","legacy","0","incongruent","uniform","1","undefined","1","h","0","0","0","0","0","0","36","0","36","36","36","36","36","0","36","36","Tue Sep 13 18:12:07 2022","1500","The main experiment item","yes","lab 2.1.osexp","C:\Users\Owner\Downloads","no","mono","no","18","no","white","no","yes","768","legacy","36","36","C:\Users\Owner\Downloads\defaultlog.csv","legacy","Lentiform Loewenfeld","3.3.12","yes","0","h","s","NA","NA","h","NA","573","7863","NA","NA","573","NA","2","legacy","1024","2","48000","-16","experiment","SSHSS","1","odd","11115","NA","NA","3250","NA","NA","33417","3248","NA","74077","73011","74180","74754","NA","74075","74179","As Boring or as Not Boring as You Want","35","20415","37","yes","1024"
"94.73684210526316","94.73684210526316","548.4736842105264","548.4736842105264","black","legacy","legacy","legacy","0","congruent","uniform","1","undefined","1","h","0","0","0","0","0","0","37","0","37","37","37","37","37","0","37","37","Tue Sep 13 18:12:07 2022","1500","The main experiment item","yes","lab 2.1.osexp","C:\Users\Owner\Downloads","no","mono","no","18","no","white","no","yes","768","legacy","37","37","C:\Users\Owner\Downloads\defaultlog.csv","legacy","Lentiform Loewenfeld","3.3.12","yes","0","h","s","NA","NA","h","NA","427","7863","NA","NA","427","NA","2","legacy","1024","2","48000","-16","experiment","HHHHH","1","odd","11115","NA","NA","3250","NA","NA","33417","3248","NA","75814","74759","75915","76343","NA","75813","75915","As Boring or as Not Boring as You Want","36","20842","38","yes","1024"
"94.87179487179488","94.87179487179488","549.8205128205128","549.8205128205128","black","legacy","legacy","legacy","0","incongruent","uniform","1","undefined","1","h","0","0","0","0","0","0","38","0","38","38","38","38","38","0","38","38","Tue Sep 13 18:12:07 2022","1500","The main experiment item","yes","lab 2.1.osexp","C:\Users\Owner\Downloads","no","mono","no","18","no","white","no","yes","768","legacy","38","38","C:\Users\Owner\Downloads\defaultlog.csv","legacy","Lentiform Loewenfeld","3.3.12","yes","0","h","s","NA","NA","h","NA","601","7863","NA","NA","601","NA","2","legacy","1024","2","48000","-16","experiment","SSHSS","1","odd","11115","NA","NA","3250","NA","NA","33417","3248","NA","77403","76347","77504","78107","NA","77400","77504","As Boring or as Not Boring as You Want","37","21443","39","yes","1024"
"95","95","548.275","548.275","black","legacy","legacy","legacy","0","incongruent","uniform","1","undefined","1","s","0","0","0","0","0","0","39","0","39","39","39","39","39","0","39","39","Tue Sep 13 18:12:07 2022","1500","The main experiment item","yes","lab 2.1.osexp","C:\Users\Owner\Downloads","no","mono","no","18","no","white","no","yes","768","legacy","39","39","C:\Users\Owner\Downloads\defaultlog.csv","legacy","Lentiform Loewenfeld","3.3.12","yes","0","s","s","NA","NA","s","NA","488","7863","NA","NA","488","NA","2","legacy","1024","2","48000","-16","experiment","HHSHH","1","odd","11115","NA","NA","3250","NA","NA","33417","3248","NA","79174","78111","79274","79763","NA","79171","79274","As Boring or as Not Boring as You Want","38","21931","40","yes","1024"
"95.1219512195122","95.1219512195122","546.829268292683","546.829268292683","black","legacy","legacy","legacy","0","incongruent","uniform","1","undefined","1","h","0","0","0","0","0","0","40","0","40","40","40","40","40","0","40","40","Tue Sep 13 18:12:07 2022","1500","The main experiment item","yes","lab 2.1.osexp","C:\Users\Owner\Downloads","no","mono","no","18","no","white","no","yes","768","legacy","40","40","C:\Users\Owner\Downloads\defaultlog.csv","legacy","Lentiform Loewenfeld","3.3.12","yes","0","h","s","NA","NA","h","NA","489","7863","NA","NA","489","NA","2","legacy","1024","2","48000","-16","experiment","SSHSS","1","odd","11115","NA","NA","3250","NA","NA","33417","3248","NA","80827","79770","80928","81418","NA","80825","80928","As Boring or as Not Boring as You Want","39","22420","41","yes","1024"
"95.23809523809524","95.23809523809524","545.7857142857143","545.7857142857143","black","legacy","legacy","legacy","0","incongruent","uniform","1","undefined","1","s","0","0","0","0","0","0","41","0","41","41","41","41","41","0","41","41","Tue Sep 13 18:12:07 2022","1500","The main experiment item","yes","lab 2.1.osexp","C:\Users\Owner\Downloads","no","mono","no","18","no","white","no","yes","768","legacy","41","41","C:\Users\Owner\Downloads\defaultlog.csv","legacy","Lentiform Loewenfeld","3.3.12","yes","0","s","s","NA","NA","s","NA","503","7863","NA","NA","503","NA","2","legacy","1024","2","48000","-16","experiment","HHSHH","1","odd","11115","NA","NA","3250","NA","NA","33417","3248","NA","82478","81423","82581","83085","NA","82476","82581","As Boring or as Not Boring as You Want","40","22923","42","yes","1024"
"95.34883720930233","95.34883720930233","542.6976744186046","542.6976744186046","black","legacy","legacy","legacy","0","congruent","uniform","1","undefined","1","h","0","0","0","0","0","0","42","0","42","42","42","42","42","0","42","42","Tue Sep 13 18:12:07 2022","1500","The main experiment item","yes","lab 2.1.osexp","C:\Users\Owner\Downloads","no","mono","no","18","no","white","no","yes","768","legacy","42","42","C:\Users\Owner\Downloads\defaultlog.csv","legacy","Lentiform Loewenfeld","3.3.12","yes","0","h","s","NA","NA","h","NA","413","7863","NA","NA","413","NA","2","legacy","1024","2","48000","-16","experiment","HHHHH","1","odd","11115","NA","NA","3250","NA","NA","33417","3248","NA","84146","83090","84248","84662","NA","84144","84248","As Boring or as Not Boring as You Want","41","23336","43","yes","1024"
"95.45454545454545","95.45454545454545","538.7272727272727","538.7272727272727","black","legacy","legacy","legacy","0","congruent","uniform","1","undefined","1","s","0","0","0","0","0","0","43","0","43","43","43","43","43","0","43","43","Tue Sep 13 18:12:07 2022","1500","The main experiment item","yes","lab 2.1.osexp","C:\Users\Owner\Downloads","no","mono","no","18","no","white","no","yes","768","legacy","43","43","C:\Users\Owner\Downloads\defaultlog.csv","legacy","Lentiform Loewenfeld","3.3.12","yes","0","s","s","NA","NA","s","NA","368","7863","NA","NA","368","NA","2","legacy","1024","2","48000","-16","experiment","SSSSS","1","odd","11115","NA","NA","3250","NA","NA","33417","3248","NA","85725","84669","85830","86200","NA","85723","85829","As Boring or as Not Boring as You Want","42","23704","44","yes","1024"
"93.33333333333333","93.33333333333333","537.3333333333334","537.3333333333334","black","legacy","legacy","legacy","0","incongruent","uniform","0","undefined","0","h","0","0","0","0","0","0","44","0","44","44","44","44","44","0","44","44","Tue Sep 13 18:12:07 2022","1500","The main experiment item","yes","lab 2.1.osexp","C:\Users\Owner\Downloads","no","mono","no","18","no","white","no","yes","768","legacy","44","44","C:\Users\Owner\Downloads\defaultlog.csv","legacy","Lentiform Loewenfeld","3.3.12","yes","0","s","s","NA","NA","s","NA","476","7863","NA","NA","476","NA","2","legacy","1024","2","48000","-16","experiment","SSHSS","1","odd","11115","NA","NA","3250","NA","NA","33417","3248","NA","87261","86205","87364","87842","NA","87260","87364","As Boring or as Not Boring as You Want","42","24180","45","yes","1024"
"93.47826086956522","93.47826086956522","534.0434782608696","534.0434782608696","black","legacy","legacy","legacy","0","congruent","uniform","1","undefined","1","h","0","0","0","0","0","0","45","0","45","45","45","45","45","0","45","45","Tue Sep 13 18:12:07 2022","1500","The main experiment item","yes","lab 2.1.osexp","C:\Users\Owner\Downloads","no","mono","no","18","no","white","no","yes","768","legacy","45","45","C:\Users\Owner\Downloads\defaultlog.csv","legacy","Lentiform Loewenfeld","3.3.12","yes","0","h","s","NA","NA","h","NA","386","7863","NA","NA","386","NA","2","legacy","1024","2","48000","-16","experiment","HHHHH","1","odd","11115","NA","NA","3250","NA","NA","87846","3248","NA","89405","88350","89506","89893","NA","89403","89506","As Boring or as Not Boring as You Want","43","24566","46","yes","1024"
"93.61702127659575","93.61702127659575","533.2127659574468","533.2127659574468","black","legacy","legacy","legacy","0","incongruent","uniform","1","undefined","1","s","0","0","0","0","0","0","46","0","46","46","46","46","46","0","46","46","Tue Sep 13 18:12:07 2022","1500","The main experiment item","yes","lab 2.1.osexp","C:\Users\Owner\Downloads","no","mono","no","18","no","white","no","yes","768","legacy","46","46","C:\Users\Owner\Downloads\defaultlog.csv","legacy","Lentiform Loewenfeld","3.3.12","yes","0","s","s","NA","NA","s","NA","495","7863","NA","NA","495","NA","2","legacy","1024","2","48000","-16","experiment","HHSHH","1","odd","11115","NA","NA","3250","NA","NA","87846","3248","NA","90974","89899","91075","91572","NA","90972","91075","As Boring or as Not Boring as You Want","44","25061","47","yes","1024"
"93.75","93.75","532.7083333333334","532.7083333333334","black","legacy","legacy","legacy","0","incongruent","uniform","1","undefined","1","h","0","0","0","0","0","0","47","0","47","47","47","47","47","0","47","47","Tue Sep 13 18:12:07 2022","1500","The main experiment item","yes","lab 2.1.osexp","C:\Users\Owner\Downloads","no","mono","no","18","no","white","no","yes","768","legacy","47","47","C:\Users\Owner\Downloads\defaultlog.csv","legacy","Lentiform Loewenfeld","3.3.12","yes","0","h","s","NA","NA","h","NA","509","7863","NA","NA","509","NA","2","legacy","1024","2","48000","-16","experiment","SSHSS","1","odd","11115","NA","NA","3250","NA","NA","87846","3248","NA","92639","91582","92743","93254","NA","92637","92743","As Boring or as Not Boring as You Want","45","25570","48","yes","1024"
"93.87755102040816","93.87755102040816","533.1428571428571","533.1428571428571","black","legacy","legacy","legacy","0","congruent","uniform","1","undefined","1","h","0","0","0","0","0","0","48","0","48","48","48","48","48","0","48","48","Tue Sep 13 18:12:07 2022","1500","The main experiment item","yes","lab 2.1.osexp","C:\Users\Owner\Downloads","no","mono","no","18","no","white","no","yes","768","legacy","48","48","C:\Users\Owner\Downloads\defaultlog.csv","legacy","Lentiform Loewenfeld","3.3.12","yes","0","h","s","NA","NA","h","NA","554","7863","NA","NA","554","NA","2","legacy","1024","2","48000","-16","experiment","HHHHH","1","odd","11115","NA","NA","3250","NA","NA","87846","3248","NA","94321","93260","94422","94978","NA","94319","94422","As Boring or as Not Boring as You Want","46","26124","49","yes","1024"
"94","94","533.36","533.36","black","legacy","legacy","legacy","0","incongruent","uniform","1","undefined","1","h","0","0","0","0","0","0","49","0","49","49","49","49","49","0","49","49","Tue Sep 13 18:12:07 2022","1500","The main experiment item","yes","lab 2.1.osexp","C:\Users\Owner\Downloads","no","mono","no","18","no","white","no","yes","768","legacy","49","49","C:\Users\Owner\Downloads\defaultlog.csv","legacy","Lentiform Loewenfeld","3.3.12","yes","0","h","s","NA","NA","h","NA","544","7863","NA","NA","544","NA","2","legacy","1024","2","48000","-16","experiment","SSHSS","1","odd","11115","NA","NA","3250","NA","NA","87846","3248","NA","96058","94987","96161","96706","NA","96056","96160","As Boring or as Not Boring as You Want","47","26668","50","yes","1024"
"94.11764705882354","94.11764705882354","531.7254901960785","531.7254901960785","black","legacy","legacy","legacy","0","congruent","uniform","1","undefined","1","s","0","0","0","0","0","0","50","0","50","50","50","50","50","0","50","50","Tue Sep 13 18:12:07 2022","1500","The main experiment item","yes","lab 2.1.osexp","C:\Users\Owner\Downloads","no","mono","no","18","no","white","no","yes","768","legacy","50","50","C:\Users\Owner\Downloads\defaultlog.csv","legacy","Lentiform Loewenfeld","3.3.12","yes","0","s","s","NA","NA","s","NA","450","7863","NA","NA","450","NA","2","legacy","1024","2","48000","-16","experiment","SSSSS","1","odd","11115","NA","NA","3250","NA","NA","87846","3248","NA","97771","96713","97872","98323","NA","97767","97872","As Boring or as Not Boring as You Want","48","27118","51","yes","1024"
"94.23076923076923","94.23076923076923","529.9807692307693","529.9807692307693","black","legacy","legacy","legacy","0","congruent","uniform","1","undefined","1","h","0","0","0","0","0","0","51","0","51","51","51","51","51","0","51","51","Tue Sep 13 18:12:07 2022","1500","The main experiment item","yes","lab 2.1.osexp","C:\Users\Owner\Downloads","no","mono","no","18","no","white","no","yes","768","legacy","51","51","C:\Users\Owner\Downloads\defaultlog.csv","legacy","Lentiform Loewenfeld","3.3.12","yes","0","h","s","NA","NA","h","NA","441","7863","NA","NA","441","NA","2","legacy","1024","2","48000","-16","experiment","HHHHH","1","odd","11115","NA","NA","3250","NA","NA","87846","3248","NA","99390","98329","99491","99934","NA","99389","99491","As Boring or as Not Boring as You Want","49","27559","52","yes","1024"
"94.33962264150944","94.33962264150944","528.8301886792453","528.8301886792453","black","legacy","legacy","legacy","0","congruent","uniform","1","undefined","1","s","0","0","0","0","0","0","52","0","52","52","52","52","52","0","52","52","Tue Sep 13 18:12:07 2022","1500","The main experiment item","yes","lab 2.1.osexp","C:\Users\Owner\Downloads","no","mono","no","18","no","white","no","yes","768","legacy","52","52","C:\Users\Owner\Downloads\defaultlog.csv","legacy","Lentiform Loewenfeld","3.3.12","yes","0","s","s","NA","NA","s","NA","469","7863","NA","NA","469","NA","2","legacy","1024","2","48000","-16","experiment","SSSSS","1","odd","11115","NA","NA","3250","NA","NA","87846","3248","NA","100992","99938","101098","101569","NA","100990","101097","As Boring or as Not Boring as You Want","50","28028","53","yes","1024"
"94.44444444444444","94.44444444444444","528.3518518518518","528.3518518518518","black","legacy","legacy","legacy","0","incongruent","uniform","1","undefined","1","h","0","0","0","0","0","0","53","0","53","53","53","53","53","0","53","53","Tue Sep 13 18:12:07 2022","1500","The main experiment item","yes","lab 2.1.osexp","C:\Users\Owner\Downloads","no","mono","no","18","no","white","no","yes","768","legacy","53","53","C:\Users\Owner\Downloads\defaultlog.csv","legacy","Lentiform Loewenfeld","3.3.12","yes","0","h","s","NA","NA","h","NA","503","7863","NA","NA","503","NA","2","legacy","1024","2","48000","-16","experiment","SSHSS","1","odd","11115","NA","NA","3250","NA","NA","87846","3248","NA","102637","101573","102739","103243","NA","102636","102739","As Boring or as Not Boring as You Want","51","28531","54","yes","1024"
"94.54545454545455","94.54545454545455","526.8","526.8","black","legacy","legacy","legacy","0","congruent","uniform","1","undefined","1","s","0","0","0","0","0","0","54","0","54","54","54","54","54","0","54","54","Tue Sep 13 18:12:07 2022","1500","The main experiment item","yes","lab 2.1.osexp","C:\Users\Owner\Downloads","no","mono","no","18","no","white","no","yes","768","legacy","54","54","C:\Users\Owner\Downloads\defaultlog.csv","legacy","Lentiform Loewenfeld","3.3.12","yes","0","s","s","NA","NA","s","NA","443","7863","NA","NA","443","NA","2","legacy","1024","2","48000","-16","experiment","SSSSS","1","odd","11115","NA","NA","3250","NA","NA","87846","3248","NA","104317","103247","104419","104863","NA","104314","104419","As Boring or as Not Boring as You Want","52","28974","55","yes","1024"
"92.85714285714286","92.85714285714286","524.3571428571429","524.3571428571429","black","legacy","legacy","legacy","0","incongruent","uniform","0","undefined","0","s","0","0","0","0","0","0","55","0","55","55","55","55","55","0","55","55","Tue Sep 13 18:12:07 2022","1500","The main experiment item","yes","lab 2.1.osexp","C:\Users\Owner\Downloads","no","mono","no","18","no","white","no","yes","768","legacy","55","55","C:\Users\Owner\Downloads\defaultlog.csv","legacy","Lentiform Loewenfeld","3.3.12","yes","0","h","s","NA","NA","h","NA","390","7863","NA","NA","390","NA","2","legacy","1024","2","48000","-16","experiment","HHSHH","1","odd","11115","NA","NA","3250","NA","NA","87846","3248","NA","105929","104870","106030","106422","NA","105925","106030","As Boring or as Not Boring as You Want","52","29364","56","yes","1024"
"92.98245614035088","92.98245614035088","524.5964912280701","524.5964912280701","black","legacy","legacy","legacy","0","congruent","uniform","1","undefined","1","h","0","0","0","0","0","0","56","0","56","56","56","56","56","0","56","56","Tue Sep 13 18:12:07 2022","1500","The main experiment item","yes","lab 2.1.osexp","C:\Users\Owner\Downloads","no","mono","no","18","no","white","no","yes","768","legacy","56","56","C:\Users\Owner\Downloads\defaultlog.csv","legacy","Lentiform Loewenfeld","3.3.12","yes","0","h","s","NA","NA","h","NA","538","7863","NA","NA","538","NA","2","legacy","1024","2","48000","-16","experiment","HHHHH","1","odd","11115","NA","NA","3250","NA","NA","106428","3248","NA","107993","106930","108094","108633","NA","107991","108094","As Boring or as Not Boring as You Want","53","29902","57","yes","1024"
"93.10344827586206","93.10344827586206","522.9137931034483","522.9137931034483","black","legacy","legacy","legacy","0","congruent","uniform","1","undefined","1","s","0","0","0","0","0","0","57","0","57","57","57","57","57","0","57","57","Tue Sep 13 18:12:07 2022","1500","The main experiment item","yes","lab 2.1.osexp","C:\Users\Owner\Downloads","no","mono","no","18","no","white","no","yes","768","legacy","57","57","C:\Users\Owner\Downloads\defaultlog.csv","legacy","Lentiform Loewenfeld","3.3.12","yes","0","s","s","NA","NA","s","NA","427","7863","NA","NA","427","NA","2","legacy","1024","2","48000","-16","experiment","SSSSS","1","odd","11115","NA","NA","3250","NA","NA","106428","3248","NA","109704","108648","109805","110234","NA","109702","109805","As Boring or as Not Boring as You Want","54","30329","58","yes","1024"
"93.22033898305085","93.22033898305085","522.4067796610169","522.4067796610169","black","legacy","legacy","legacy","0","incongruent","uniform","1","undefined","1","h","0","0","0","0","0","0","58","0","58","58","58","58","58","0","58","58","Tue Sep 13 18:12:07 2022","1500","The main experiment item","yes","lab 2.1.osexp","C:\Users\Owner\Downloads","no","mono","no","18","no","white","no","yes","768","legacy","58","58","C:\Users\Owner\Downloads\defaultlog.csv","legacy","Lentiform Loewenfeld","3.3.12","yes","0","h","s","NA","NA","h","NA","493","7863","NA","NA","493","NA","2","legacy","1024","2","48000","-16","experiment","SSHSS","1","odd","11115","NA","NA","3250","NA","NA","106428","3248","NA","111304","110242","111405","111899","NA","111301","111405","As Boring or as Not Boring as You Want","55","30822","59","yes","1024"
"93.33333333333333","93.33333333333333","520.5","520.5","black","legacy","legacy","legacy","0","congruent","uniform","1","undefined","1","s","0","0","0","0","0","0","59","0","59","59","59","59","59","0","59","59","Tue Sep 13 18:12:07 2022","1500","The main experiment item","yes","lab 2.1.osexp","C:\Users\Owner\Downloads","no","mono","no","18","no","white","no","yes","768","legacy","59","59","C:\Users\Owner\Downloads\defaultlog.csv","legacy","Lentiform Loewenfeld","3.3.12","yes","0","s","s","NA","NA","s","NA","408","7863","NA","NA","408","NA","2","legacy","1024","2","48000","-16","experiment","SSSSS","1","odd","11115","NA","NA","3250","NA","NA","106428","3248","NA","112960","111905","113062","113471","NA","112959","113062","As Boring or as Not Boring as You Want","56","31230","60","yes","1024"
"93.44262295081967","93.44262295081967","520.2786885245902","520.2786885245902","black","legacy","legacy","legacy","0","congruent","uniform","1","undefined","1","s","0","0","0","0","0","0","60","0","60","60","60","60","60","0","60","60","Tue Sep 13 18:12:07 2022","1500","The main experiment item","yes","lab 2.1.osexp","C:\Users\Owner\Downloads","no","mono","no","18","no","white","no","yes","768","legacy","60","60","C:\Users\Owner\Downloads\defaultlog.csv","legacy","Lentiform Loewenfeld","3.3.12","yes","0","s","s","NA","NA","s","NA","507","7863","NA","NA","507","NA","2","legacy","1024","2","48000","-16","experiment","SSSSS","1","odd","11115","NA","NA","3250","NA","NA","106428","3248","NA","114536","113478","114640","115149","NA","114532","114639","As Boring or as Not Boring as You Want","57","31737","61","yes","1024"
"93.54838709677419","93.54838709677419","520.2741935483871","520.2741935483871","black","legacy","legacy","legacy","0","congruent","uniform","1","undefined","1","s","0","0","0","0","0","0","61","0","61","61","61","61","61","0","61","61","Tue Sep 13 18:12:07 2022","1500","The main experiment item","yes","lab 2.1.osexp","C:\Users\Owner\Downloads","no","mono","no","18","no","white","no","yes","768","legacy","61","61","C:\Users\Owner\Downloads\defaultlog.csv","legacy","Lentiform Loewenfeld","3.3.12","yes","0","s","s","NA","NA","s","NA","520","7863","NA","NA","520","NA","2","legacy","1024","2","48000","-16","experiment","SSSSS","1","odd","11115","NA","NA","3250","NA","NA","106428","3248","NA","116206","115153","116308","116829","NA","116204","116308","As Boring or as Not Boring as You Want","58","32257","62","yes","1024"
"93.65079365079364","93.65079365079364","519.8095238095239","519.8095238095239","black","legacy","legacy","legacy","0","incongruent","uniform","1","undefined","1","s","0","0","0","0","0","0","62","0","62","62","62","62","62","0","62","62","Tue Sep 13 18:12:07 2022","1500","The main experiment item","yes","lab 2.1.osexp","C:\Users\Owner\Downloads","no","mono","no","18","no","white","no","yes","768","legacy","62","62","C:\Users\Owner\Downloads\defaultlog.csv","legacy","Lentiform Loewenfeld","3.3.12","yes","0","s","s","NA","NA","s","NA","491","7863","NA","NA","491","NA","2","legacy","1024","2","48000","-16","experiment","HHSHH","1","odd","11115","NA","NA","3250","NA","NA","106428","3248","NA","117888","116833","117989","118482","NA","117886","117989","As Boring or as Not Boring as You Want","59","32748","63","yes","1024"
"93.75","93.75","518.40625","518.40625","black","legacy","legacy","legacy","0","congruent","uniform","1","undefined","1","s","0","0","0","0","0","0","63","0","63","63","63","63","63","0","63","63","Tue Sep 13 18:12:07 2022","1500","The main experiment item","yes","lab 2.1.osexp","C:\Users\Owner\Downloads","no","mono","no","18","no","white","no","yes","768","legacy","63","63","C:\Users\Owner\Downloads\defaultlog.csv","legacy","Lentiform Loewenfeld","3.3.12","yes","0","s","s","NA","NA","s","NA","430","7863","NA","NA","430","NA","2","legacy","1024","2","48000","-16","experiment","SSSSS","1","odd","11115","NA","NA","3250","NA","NA","106428","3248","NA","119557","118488","119658","120089","NA","119555","119658","As Boring or as Not Boring as You Want","60","33178","64","yes","1024"
"93.84615384615384","93.84615384615384","517.3384615384615","517.3384615384615","black","legacy","legacy","legacy","0","congruent","uniform","1","undefined","1","s","0","0","0","0","0","0","64","0","64","64","64","64","64","0","64","64","Tue Sep 13 18:12:07 2022","1500","The main experiment item","yes","lab 2.1.osexp","C:\Users\Owner\Downloads","no","mono","no","18","no","white","no","yes","768","legacy","64","64","C:\Users\Owner\Downloads\defaultlog.csv","legacy","Lentiform Loewenfeld","3.3.12","yes","0","s","s","NA","NA","s","NA","449","7863","NA","NA","449","NA","2","legacy","1024","2","48000","-16","experiment","SSSSS","1","odd","11115","NA","NA","3250","NA","NA","106428","3248","NA","121149","120094","121250","121700","NA","121147","121250","As Boring or as Not Boring as You Want","61","33627","65","yes","1024"
"93.93939393939394","93.93939393939394","517.8636363636364","517.8636363636364","black","legacy","legacy","legacy","0","incongruent","uniform","1","undefined","1","h","0","0","0","0","0","0","65","0","65","65","65","65","65","0","65","65","Tue Sep 13 18:12:07 2022","1500","The main experiment item","yes","lab 2.1.osexp","C:\Users\Owner\Downloads","no","mono","no","18","no","white","no","yes","768","legacy","65","65","C:\Users\Owner\Downloads\defaultlog.csv","legacy","Lentiform Loewenfeld","3.3.12","yes","0","h","s","NA","NA","h","NA","552","7863","NA","NA","552","NA","2","legacy","1024","2","48000","-16","experiment","SSHSS","1","odd","11115","NA","NA","3250","NA","NA","106428","3248","NA","122773","121705","122874","123427","NA","122771","122874","As Boring or as Not Boring as You Want","62","34179","66","yes","1024"
"94.02985074626865","94.02985074626865","517.3880597014926","517.3880597014926","black","legacy","legacy","legacy","0","incongruent","uniform","1","undefined","1","h","0","0","0","0","0","0","66","0","66","66","66","66","66","0","66","66","Tue Sep 13 18:12:07 2022","1500","The main experiment item","yes","lab 2.1.osexp","C:\Users\Owner\Downloads","no","mono","no","18","no","white","no","yes","768","legacy","66","66","C:\Users\Owner\Downloads\defaultlog.csv","legacy","Lentiform Loewenfeld","3.3.12","yes","0","h","s","NA","NA","h","NA","486","7863","NA","NA","486","NA","2","legacy","1024","2","48000","-16","experiment","SSHSS","1","odd","11115","NA","NA","3250","NA","NA","106428","3248","NA","124501","123432","124602","125090","NA","124499","124602","As Boring or as Not Boring as You Want","63","34665","67","yes","1024"
"94.11764705882354","94.11764705882354","516.7205882352941","516.7205882352941","black","legacy","legacy","legacy","0","incongruent","uniform","1","undefined","1","h","0","0","0","0","0","0","67","0","67","67","67","67","67","0","67","67","Tue Sep 13 18:12:07 2022","1500","The main experiment item","yes","lab 2.1.osexp","C:\Users\Owner\Downloads","no","mono","no","18","no","white","no","yes","768","legacy","67","67","C:\Users\Owner\Downloads\defaultlog.csv","legacy","Lentiform Loewenfeld","3.3.12","yes","0","h","s","NA","NA","h","NA","472","7863","NA","NA","472","NA","2","legacy","1024","2","48000","-16","experiment","SSHSS","1","odd","11115","NA","NA","3250","NA","NA","106428","3248","NA","126153","125094","126255","126728","NA","126151","126255","As Boring or as Not Boring as You Want","64","35137","68","yes","1024"
"94.20289855072464","94.20289855072464","514.9420289855072","514.9420289855072","black","legacy","legacy","legacy","0","congruent","uniform","1","undefined","1","s","0","0","0","0","0","0","68","0","68","68","68","68","68","0","68","68","Tue Sep 13 18:12:07 2022","1500","The main experiment item","yes","lab 2.1.osexp","C:\Users\Owner\Downloads","no","mono","no","18","no","white","no","yes","768","legacy","68","68","C:\Users\Owner\Downloads\defaultlog.csv","legacy","Lentiform Loewenfeld","3.3.12","yes","0","s","s","NA","NA","s","NA","394","7863","NA","NA","394","NA","2","legacy","1024","2","48000","-16","experiment","SSSSS","1","odd","11115","NA","NA","3250","NA","NA","106428","3248","NA","127798","126733","127899","128294","NA","127794","127899","As Boring or as Not Boring as You Want","65","35531","69","yes","1024"
"94.28571428571429","94.28571428571429","513.1428571428571","513.1428571428571","black","legacy","legacy","legacy","0","congruent","uniform","1","undefined","1","h","0","0","0","0","0","0","69","0","69","69","69","69","69","0","69","69","Tue Sep 13 18:12:07 2022","1500","The main experiment item","yes","lab 2.1.osexp","C:\Users\Owner\Downloads","no","mono","no","18","no","white","no","yes","768","legacy","69","69","C:\Users\Owner\Downloads\defaultlog.csv","legacy","Lentiform Loewenfeld","3.3.12","yes","0","h","s","NA","NA","h","NA","389","7863","NA","NA","389","NA","2","legacy","1024","2","48000","-16","experiment","HHHHH","1","odd","11115","NA","NA","3250","NA","NA","106428","3248","NA","129367","128299","129469","129860","NA","129363","129467","As Boring or as Not Boring as You Want","66","35920","70","yes","1024"
"94.36619718309859","94.36619718309859","512.2957746478874","512.2957746478874","black","legacy","legacy","legacy","0","incongruent","uniform","1","undefined","1","s","0","0","0","0","0","0","70","0","70","70","70","70","70","0","70","70","Tue Sep 13 18:12:07 2022","1500","The main experiment item","yes","lab 2.1.osexp","C:\Users\Owner\Downloads","no","mono","no","18","no","white","no","yes","768","legacy","70","70","C:\Users\Owner\Downloads\defaultlog.csv","legacy","Lentiform Loewenfeld","3.3.12","yes","0","s","s","NA","NA","s","NA","453","7863","NA","NA","453","NA","2","legacy","1024","2","48000","-16","experiment","HHSHH","1","odd","11115","NA","NA","3250","NA","NA","106428","3248","NA","130923","129864","131027","131481","NA","130921","131026","As Boring or as Not Boring as You Want","67","36373","71","yes","1024"
"94.44444444444444","94.44444444444444","510.84722222222223","510.84722222222223","black","legacy","legacy","legacy","0","congruent","uniform","1","undefined","1","s","0","0","0","0","0","0","71","0","71","71","71","71","71","0","71","71","Tue Sep 13 18:12:07 2022","1500","The main experiment item","yes","lab 2.1.osexp","C:\Users\Owner\Downloads","no","mono","no","18","no","white","no","yes","768","legacy","71","71","C:\Users\Owner\Downloads\defaultlog.csv","legacy","Lentiform Loewenfeld","3.3.12","yes","0","s","s","NA","NA","s","NA","408","7863","NA","NA","408","NA","2","legacy","1024","2","48000","-16","experiment","SSSSS","1","odd","11115","NA","NA","3250","NA","NA","106428","3248","NA","132556","131490","132661","133071","NA","132554","132661","As Boring or as Not Boring as You Want","68","36781","72","yes","1024"
"94.52054794520548","94.52054794520548","510.94520547945206","510.94520547945206","black","legacy","legacy","legacy","0","incongruent","uniform","1","undefined","1","s","0","0","0","0","0","0","72","0","72","72","72","72","72","0","72","72","Tue Sep 13 18:12:07 2022","1500","The main experiment item","yes","lab 2.1.osexp","C:\Users\Owner\Downloads","no","mono","no","18","no","white","no","yes","768","legacy","72","72","C:\Users\Owner\Downloads\defaultlog.csv","legacy","Lentiform Loewenfeld","3.3.12","yes","0","s","s","NA","NA","s","NA","518","7863","NA","NA","518","NA","2","legacy","1024","2","48000","-16","experiment","HHSHH","1","odd","11115","NA","NA","3250","NA","NA","106428","3248","NA","134148","133078","134249","134769","NA","134146","134249","As Boring or as Not Boring as You Want","69","37299","73","yes","1024"
"94.5945945945946","94.5945945945946","510.6216216216216","510.6216216216216","black","legacy","legacy","legacy","0","congruent","uniform","1","undefined","1","s","0","0","0","0","0","0","73","0","73","73","73","73","73","0","73","73","Tue Sep 13 18:12:07 2022","1500","The main experiment item","yes","lab 2.1.osexp","C:\Users\Owner\Downloads","no","mono","no","18","no","white","no","yes","768","legacy","73","73","C:\Users\Owner\Downloads\defaultlog.csv","legacy","Lentiform Loewenfeld","3.3.12","yes","0","s","s","NA","NA","s","NA","487","7863","NA","NA","487","NA","2","legacy","1024","2","48000","-16","experiment","SSSSS","1","odd","11115","NA","NA","3250","NA","NA","106428","3248","NA","135831","134775","135933","136421","NA","135828","135933","As Boring or as Not Boring as You Want","70","37786","74","yes","1024"
"94.66666666666667","94.66666666666667","510.8666666666667","510.8666666666667","black","legacy","legacy","legacy","0","incongruent","uniform","1","undefined","1","s","0","0","0","0","0","0","74","0","74","74","74","74","74","0","74","74","Tue Sep 13 18:12:07 2022","1500","The main experiment item","yes","lab 2.1.osexp","C:\Users\Owner\Downloads","no","mono","no","18","no","white","no","yes","768","legacy","74","74","C:\Users\Owner\Downloads\defaultlog.csv","legacy","Lentiform Loewenfeld","3.3.12","yes","0","s","s","NA","NA","s","NA","529","7863","NA","NA","529","NA","2","legacy","1024","2","48000","-16","experiment","HHSHH","1","odd","11115","NA","NA","3250","NA","NA","106428","3248","NA","137483","136426","137586","138116","NA","137480","137586","As Boring or as Not Boring as You Want","71","38315","75","yes","1024"
"94.73684210526316","94.73684210526316","510.0394736842105","510.0394736842105","black","legacy","legacy","legacy","0","incongruent","uniform","1","undefined","1","s","0","0","0","0","0","0","75","0","75","75","75","75","75","0","75","75","Tue Sep 13 18:12:07 2022","1500","The main experiment item","yes","lab 2.1.osexp","C:\Users\Owner\Downloads","no","mono","no","18","no","white","no","yes","768","legacy","75","75","C:\Users\Owner\Downloads\defaultlog.csv","legacy","Lentiform Loewenfeld","3.3.12","yes","0","s","s","NA","NA","s","NA","448","7863","NA","NA","448","NA","2","legacy","1024","2","48000","-16","experiment","HHSHH","1","odd","11115","NA","NA","3250","NA","NA","106428","3248","NA","139190","138121","139291","139741","NA","139188","139291","As Boring or as Not Boring as You Want","72","38763","76","yes","1024"
"94.8051948051948","94.8051948051948","508.09090909090907","508.09090909090907","black","legacy","legacy","legacy","0","incongruent","uniform","1","undefined","1","s","0","0","0","0","0","0","76","0","76","76","76","76","76","0","76","76","Tue Sep 13 18:12:07 2022","1500","The main experiment item","yes","lab 2.1.osexp","C:\Users\Owner\Downloads","no","mono","no","18","no","white","no","yes","768","legacy","76","76","C:\Users\Owner\Downloads\defaultlog.csv","legacy","Lentiform Loewenfeld","3.3.12","yes","0","s","s","NA","NA","s","NA","360","7863","NA","NA","360","NA","2","legacy","1024","2","48000","-16","experiment","HHSHH","1","odd","11115","NA","NA","3250","NA","NA","106428","3248","NA","140808","139750","140910","141272","NA","140805","140909","As Boring or as Not Boring as You Want","73","39123","77","yes","1024"
"94.87179487179488","94.87179487179488","508.1923076923077","508.1923076923077","black","legacy","legacy","legacy","0","incongruent","uniform","1","undefined","1","s","0","0","0","0","0","0","77","0","77","77","77","77","77","0","77","77","Tue Sep 13 18:12:07 2022","1500","The main experiment item","yes","lab 2.1.osexp","C:\Users\Owner\Downloads","no","mono","no","18","no","white","no","yes","768","legacy","77","77","C:\Users\Owner\Downloads\defaultlog.csv","legacy","Lentiform Loewenfeld","3.3.12","yes","0","s","s","NA","NA","s","NA","516","7863","NA","NA","516","NA","2","legacy","1024","2","48000","-16","experiment","HHSHH","1","odd","11115","NA","NA","3250","NA","NA","106428","3248","NA","142334","141276","142435","142953","NA","142330","142435","As Boring or as Not Boring as You Want","74","39639","78","yes","1024"
"94.9367088607595","94.9367088607595","507.1012658227848","507.1012658227848","black","legacy","legacy","legacy","0","incongruent","uniform","1","undefined","1","s","0","0","0","0","0","0","78","0","78","78","78","78","78","0","78","78","Tue Sep 13 18:12:07 2022","1500","The main experiment item","yes","lab 2.1.osexp","C:\Users\Owner\Downloads","no","mono","no","18","no","white","no","yes","768","legacy","78","78","C:\Users\Owner\Downloads\defaultlog.csv","legacy","Lentiform Loewenfeld","3.3.12","yes","0","s","s","NA","NA","s","NA","422","7863","NA","NA","422","NA","2","legacy","1024","2","48000","-16","experiment","HHSHH","1","odd","11115","NA","NA","3250","NA","NA","106428","3248","NA","144021","142962","144122","144545","NA","144019","144122","As Boring or as Not Boring as You Want","75","40061","79","yes","1024"
"95","95","505.6125","505.6125","black","legacy","legacy","legacy","0","congruent","uniform","1","undefined","1","s","0","0","0","0","0","0","79","0","79","79","79","79","79","0","79","79","Tue Sep 13 18:12:07 2022","1500","The main experiment item","yes","lab 2.1.osexp","C:\Users\Owner\Downloads","no","mono","no","18","no","white","no","yes","768","legacy","79","79","C:\Users\Owner\Downloads\defaultlog.csv","legacy","Lentiform Loewenfeld","3.3.12","yes","0","s","s","NA","NA","s","NA","388","7863","NA","NA","388","NA","2","legacy","1024","2","48000","-16","experiment","SSSSS","1","odd","11115","NA","NA","3250","NA","NA","106428","3248","NA","145611","144550","145712","146101","NA","145607","145712","As Boring or as Not Boring as You Want","76","40449","80","yes","1024"
"93.82716049382717","93.82716049382717","506.037037037037","506.037037037037","black","legacy","legacy","legacy","0","incongruent","uniform","0","undefined","0","h","0","0","0","0","0","0","80","0","80","80","80","80","80","0","80","80","Tue Sep 13 18:12:07 2022","600","The main experiment item","yes","lab 2.1.osexp","C:\Users\Owner\Downloads","no","mono","no","18","no","white","no","yes","768","legacy","0","79","C:\Users\Owner\Downloads\defaultlog.csv","legacy","Lentiform Loewenfeld","3.3.12","yes","0","s","s","s","NA","s","NA","540","7863","4963","NA","540","NA","2","legacy","1024","2","48000","-16","experiment","SSHSS","1","odd","11115","152099","NA","3250","147134","NA","106428","3248","NA","152140","146115","152244","152785","NA","152139","152244","As Boring or as Not Boring as You Want","76","40989","81","yes","1024"
"93.90243902439025","93.90243902439025","505.6707317073171","505.6707317073171","black","legacy","legacy","legacy","0","incongruent","uniform","1","undefined","1","h","0","0","0","0","0","0","81","0","81","81","81","81","81","0","81","81","Tue Sep 13 18:12:07 2022","600","The main experiment item","yes","lab 2.1.osexp","C:\Users\Owner\Downloads","no","mono","no","18","no","white","no","yes","768","legacy","1","79","C:\Users\Owner\Downloads\defaultlog.csv","legacy","Lentiform Loewenfeld","3.3.12","yes","0","h","s","s","NA","h","NA","476","7863","4963","NA","476","NA","2","legacy","1024","2","48000","-16","experiment","SSHSS","1","odd","11115","152099","NA","3250","147134","NA","152796","3248","NA","154366","153297","154467","154945","NA","154364","154467","As Boring or as Not Boring as You Want","77","41465","82","yes","1024"
"93.97590361445783","93.97590361445783","503.8192771084337","503.8192771084337","black","legacy","legacy","legacy","0","congruent","uniform","1","undefined","1","h","0","0","0","0","0","0","82","0","82","82","82","82","82","0","82","82","Tue Sep 13 18:12:07 2022","600","The main experiment item","yes","lab 2.1.osexp","C:\Users\Owner\Downloads","no","mono","no","18","no","white","no","yes","768","legacy","2","79","C:\Users\Owner\Downloads\defaultlog.csv","legacy","Lentiform Loewenfeld","3.3.12","yes","0","h","s","s","NA","h","NA","352","7863","4963","NA","352","NA","2","legacy","1024","2","48000","-16","experiment","HHHHH","1","odd","11115","152099","NA","3250","147134","NA","152796","3248","NA","156010","154955","156112","156466","NA","156009","156112","As Boring or as Not Boring as You Want","78","41817","83","yes","1024"
"92.85714285714286","92.85714285714286","502.0357142857143","502.0357142857143","black","legacy","legacy","legacy","0","incongruent","uniform","0","undefined","0","s","0","0","0","0","0","0","83","0","83","83","83","83","83","0","83","83","Tue Sep 13 18:12:07 2022","600","The main experiment item","yes","lab 2.1.osexp","C:\Users\Owner\Downloads","no","mono","no","18","no","white","no","yes","768","legacy","3","79","C:\Users\Owner\Downloads\defaultlog.csv","legacy","Lentiform Loewenfeld","3.3.12","yes","0","h","s","s","NA","h","NA","354","7863","4963","NA","354","NA","2","legacy","1024","2","48000","-16","experiment","HHSHH","1","odd","11115","152099","NA","3250","147134","NA","152796","3248","NA","157535","156475","157636","157992","NA","157532","157636","As Boring or as Not Boring as You Want","78","42171","84","yes","1024"
"92.94117647058823","92.94117647058823","503.45882352941175","503.45882352941175","black","legacy","legacy","legacy","0","incongruent","uniform","1","undefined","1","h","0","0","0","0","0","0","84","0","84","84","84","84","84","0","84","84","Tue Sep 13 18:12:07 2022","600","The main experiment item","yes","lab 2.1.osexp","C:\Users\Owner\Downloads","no","mono","no","18","no","white","no","yes","768","legacy","4","79","C:\Users\Owner\Downloads\defaultlog.csv","legacy","Lentiform Loewenfeld","3.3.12","yes","0","h","s","s","NA","h","NA","623","7863","4963","NA","623","NA","2","legacy","1024","2","48000","-16","experiment","SSHSS","1","odd","11115","152099","NA","3250","147134","NA","158001","3248","NA","159574","158502","159675","160299","NA","159573","159675","As Boring or as Not Boring as You Want","79","42794","85","yes","1024"
"93.02325581395348","93.02325581395348","501.8953488372093","501.8953488372093","black","legacy","legacy","legacy","0","congruent","uniform","1","undefined","1","h","0","0","0","0","0","0","85","0","85","85","85","85","85","0","85","85","Tue Sep 13 18:12:07 2022","600","The main experiment item","yes","lab 2.1.osexp","C:\Users\Owner\Downloads","no","mono","no","18","no","white","no","yes","768","legacy","5","79","C:\Users\Owner\Downloads\defaultlog.csv","legacy","Lentiform Loewenfeld","3.3.12","yes","0","h","s","s","NA","h","NA","369","7863","4963","NA","369","NA","2","legacy","1024","2","48000","-16","experiment","HHHHH","1","odd","11115","152099","NA","3250","147134","NA","158001","3248","160314","161875","160817","161977","162347","NA","161874","161977","As Boring or as Not Boring as You Want","80","43163","86","yes","1024"
"93.10344827586206","93.10344827586206","499.4942528735632","499.4942528735632","black","legacy","legacy","legacy","0","incongruent","uniform","1","undefined","1","h","0","0","0","0","0","0","86","0","86","86","86","86","86","0","86","86","Tue Sep 13 18:12:07 2022","600","The main experiment item","yes","lab 2.1.osexp","C:\Users\Owner\Downloads","no","mono","no","18","no","white","no","yes","768","legacy","6","79","C:\Users\Owner\Downloads\defaultlog.csv","legacy","Lentiform Loewenfeld","3.3.12","yes","0","h","s","s","NA","h","NA","293","7863","4963","NA","293","NA","2","legacy","1024","2","48000","-16","experiment","SSHSS","1","odd","11115","152099","NA","3250","147134","NA","158001","3248","160314","163410","162352","163515","163810","NA","163406","163514","As Boring or as Not Boring as You Want","81","43456","87","yes","1024"
"92.04545454545455","92.04545454545455","497.15909090909093","497.15909090909093","black","legacy","legacy","legacy","0","incongruent","uniform","0","undefined","0","s","0","0","0","0","0","0","87","0","87","87","87","87","87","0","87","87","Tue Sep 13 18:12:07 2022","600","The main experiment item","yes","lab 2.1.osexp","C:\Users\Owner\Downloads","no","mono","no","18","no","white","no","yes","768","legacy","7","79","C:\Users\Owner\Downloads\defaultlog.csv","legacy","Lentiform Loewenfeld","3.3.12","yes","0","h","s","s","NA","h","NA","294","7863","4963","NA","294","NA","2","legacy","1024","2","48000","-16","experiment","HHSHH","1","odd","11115","152099","NA","3250","147134","NA","158001","3248","160314","164873","163816","164978","165274","NA","164872","164978","As Boring or as Not Boring as You Want","81","43750","88","yes","1024"
"91.01123595505618","91.01123595505618","495.4269662921348","495.4269662921348","black","legacy","legacy","legacy","0","congruent","uniform","0","undefined","0","h","0","0","0","0","0","0","88","0","88","88","88","88","88","0","88","88","Tue Sep 13 18:12:07 2022","600","The main experiment item","yes","lab 2.1.osexp","C:\Users\Owner\Downloads","no","mono","no","18","no","white","no","yes","768","legacy","8","79","C:\Users\Owner\Downloads\defaultlog.csv","legacy","Lentiform Loewenfeld","3.3.12","yes","0","s","s","s","NA","s","NA","343","7863","4963","NA","343","NA","2","legacy","1024","2","48000","-16","experiment","HHHHH","1","odd","11115","152099","NA","3250","147134","NA","165293","3248","160314","166848","165794","166949","167294","NA","166847","166949","As Boring or as Not Boring as You Want","81","44093","89","yes","1024"
"91.11111111111111","91.11111111111111","495.25555555555553","495.25555555555553","black","legacy","legacy","legacy","0","incongruent","uniform","1","undefined","1","s","0","0","0","0","0","0","89","0","89","89","89","89","89","0","89","89","Tue Sep 13 18:12:07 2022","600","The main experiment item","yes","lab 2.1.osexp","C:\Users\Owner\Downloads","no","mono","no","18","no","white","no","yes","768","legacy","9","79","C:\Users\Owner\Downloads\defaultlog.csv","legacy","Lentiform Loewenfeld","3.3.12","yes","0","s","s","s","NA","s","NA","480","7863","4963","NA","480","NA","2","legacy","1024","2","48000","-16","experiment","HHSHH","1","odd","11115","152099","NA","3250","147134","NA","167303","3248","160314","168859","167804","168960","169442","NA","168857","168960","As Boring or as Not Boring as You Want","82","44573","90","yes","1024"
"91.20879120879121","91.20879120879121","494.24175824175825","494.24175824175825","black","legacy","legacy","legacy","0","congruent","uniform","1","undefined","1","s","0","0","0","0","0","0","90","0","90","90","90","90","90","0","90","90","Tue Sep 13 18:12:07 2022","600","The main experiment item","yes","lab 2.1.osexp","C:\Users\Owner\Downloads","no","mono","no","18","no","white","no","yes","768","legacy","10","79","C:\Users\Owner\Downloads\defaultlog.csv","legacy","Lentiform Loewenfeld","3.3.12","yes","0","s","s","s","NA","s","NA","403","7863","4963","NA","403","NA","2","legacy","1024","2","48000","-16","experiment","SSSSS","1","odd","11115","152099","NA","3250","147134","NA","167303","3248","160314","170506","169451","170611","171015","NA","170505","170610","As Boring or as Not Boring as You Want","83","44976","91","yes","1024"
"91.30434782608695","91.30434782608695","493.42391304347825","493.42391304347825","black","legacy","legacy","legacy","0","incongruent","uniform","1","undefined","1","s","0","0","0","0","0","0","91","0","91","91","91","91","91","0","91","91","Tue Sep 13 18:12:07 2022","600","The main experiment item","yes","lab 2.1.osexp","C:\Users\Owner\Downloads","no","mono","no","18","no","white","no","yes","768","legacy","11","79","C:\Users\Owner\Downloads\defaultlog.csv","legacy","Lentiform Loewenfeld","3.3.12","yes","0","s","s","s","NA","s","NA","419","7863","4963","NA","419","NA","2","legacy","1024","2","48000","-16","experiment","HHSHH","1","odd","11115","152099","NA","3250","147134","NA","167303","3248","160314","172078","171019","172181","172601","NA","172075","172181","As Boring or as Not Boring as You Want","84","45395","92","yes","1024"
"91.39784946236558","91.39784946236558","493.38709677419354","493.38709677419354","black","legacy","legacy","legacy","0","incongruent","uniform","1","undefined","1","h","0","0","0","0","0","0","92","0","92","92","92","92","92","0","92","92","Tue Sep 13 18:12:07 2022","600","The main experiment item","yes","lab 2.1.osexp","C:\Users\Owner\Downloads","no","mono","no","18","no","white","no","yes","768","legacy","12","79","C:\Users\Owner\Downloads\defaultlog.csv","legacy","Lentiform Loewenfeld","3.3.12","yes","0","h","s","s","NA","h","NA","490","7863","4963","NA","490","NA","2","legacy","1024","2","48000","-16","experiment","SSHSS","1","odd","11115","152099","NA","3250","147134","NA","167303","3248","160314","173679","172610","173780","174272","NA","173678","173780","As Boring or as Not Boring as You Want","85","45885","93","yes","1024"
"91.48936170212765","91.48936170212765","492.67021276595744","492.67021276595744","black","legacy","legacy","legacy","0","incongruent","uniform","1","undefined","1","h","0","0","0","0","0","0","93","0","93","93","93","93","93","0","93","93","Tue Sep 13 18:12:07 2022","600","The main experiment item","yes","lab 2.1.osexp","C:\Users\Owner\Downloads","no","mono","no","18","no","white","no","yes","768","legacy","13","79","C:\Users\Owner\Downloads\defaultlog.csv","legacy","Lentiform Loewenfeld","3.3.12","yes","0","h","s","s","NA","h","NA","426","7863","4963","NA","426","NA","2","legacy","1024","2","48000","-16","experiment","SSHSS","1","odd","11115","152099","NA","3250","147134","NA","167303","3248","160314","175336","174276","175437","175864","NA","175334","175437","As Boring or as Not Boring as You Want","86","46311","94","yes","1024"
"91.57894736842105","91.57894736842105","492.2842105263158","492.2842105263158","black","legacy","legacy","legacy","0","congruent","uniform","1","undefined","1","s","0","0","0","0","0","0","94","0","94","94","94","94","94","0","94","94","Tue Sep 13 18:12:07 2022","600","The main experiment item","yes","lab 2.1.osexp","C:\Users\Owner\Downloads","no","mono","no","18","no","white","no","yes","768","legacy","14","79","C:\Users\Owner\Downloads\defaultlog.csv","legacy","Lentiform Loewenfeld","3.3.12","yes","0","s","s","s","NA","s","NA","456","7863","4963","NA","456","NA","2","legacy","1024","2","48000","-16","experiment","SSSSS","1","odd","11115","152099","NA","3250","147134","NA","167303","3248","160314","176926","175869","177027","177485","NA","176923","177027","As Boring or as Not Boring as You Want","87","46767","95","yes","1024"
"91.66666666666667","91.66666666666667","491.6979166666667","491.6979166666667","black","legacy","legacy","legacy","0","congruent","uniform","1","undefined","1","h","0","0","0","0","0","0","95","0","95","95","95","95","95","0","95","95","Tue Sep 13 18:12:07 2022","600","The main experiment item","yes","lab 2.1.osexp","C:\Users\Owner\Downloads","no","mono","no","18","no","white","no","yes","768","legacy","15","79","C:\Users\Owner\Downloads\defaultlog.csv","legacy","Lentiform Loewenfeld","3.3.12","yes","0","h","s","s","NA","h","NA","436","7863","4963","NA","436","NA","2","legacy","1024","2","48000","-16","experiment","HHHHH","1","odd","11115","152099","NA","3250","147134","NA","167303","3248","160314","178548","177489","178649","179086","NA","178546","178649","As Boring or as Not Boring as You Want","88","47203","96","yes","1024"
"91.75257731958763","91.75257731958763","492","492","black","legacy","legacy","legacy","0","congruent","uniform","1","undefined","1","h","0","0","0","0","0","0","96","0","96","96","96","96","96","0","96","96","Tue Sep 13 18:12:07 2022","600","The main experiment item","yes","lab 2.1.osexp","C:\Users\Owner\Downloads","no","mono","no","18","no","white","no","yes","768","legacy","16","79","C:\Users\Owner\Downloads\defaultlog.csv","legacy","Lentiform Loewenfeld","3.3.12","yes","0","h","s","s","NA","h","NA","521","7863","4963","NA","521","NA","2","legacy","1024","2","48000","-16","experiment","HHHHH","1","odd","11115","152099","NA","3250","147134","NA","167303","3248","160314","180147","179091","180248","180770","NA","180145","180248","As Boring or as Not Boring as You Want","89","47724","97","yes","1024"
"91.83673469387755","91.83673469387755","492.5204081632653","492.5204081632653","black","legacy","legacy","legacy","0","incongruent","uniform","1","undefined","1","s","0","0","0","0","0","0","97","0","97","97","97","97","97","0","97","97","Tue Sep 13 18:12:07 2022","600","The main experiment item","yes","lab 2.1.osexp","C:\Users\Owner\Downloads","no","mono","no","18","no","white","no","yes","768","legacy","17","79","C:\Users\Owner\Downloads\defaultlog.csv","legacy","Lentiform Loewenfeld","3.3.12","yes","0","s","s","s","NA","s","NA","543","7863","4963","NA","543","NA","2","legacy","1024","2","48000","-16","experiment","HHSHH","1","odd","11115","152099","NA","3250","147134","NA","167303","3248","160314","181844","180775","181946","182490","NA","181842","181946","As Boring or as Not Boring as You Want","90","48267","98","yes","1024"
"91.91919191919192","91.91919191919192","492.22222222222223","492.22222222222223","black","legacy","legacy","legacy","0","incongruent","uniform","1","undefined","1","s","0","0","0","0","0","0","98","0","98","98","98","98","98","0","98","98","Tue Sep 13 18:12:07 2022","600","The main experiment item","yes","lab 2.1.osexp","C:\Users\Owner\Downloads","no","mono","no","18","no","white","no","yes","768","legacy","18","79","C:\Users\Owner\Downloads\defaultlog.csv","legacy","Lentiform Loewenfeld","3.3.12","yes","0","s","s","s","NA","s","NA","463","7863","4963","NA","463","NA","2","legacy","1024","2","48000","-16","experiment","HHSHH","1","odd","11115","152099","NA","3250","147134","NA","167303","3248","160314","183568","182497","183669","184133","NA","183567","183669","As Boring or as Not Boring as You Want","91","48730","99","yes","1024"
"92","92","491.25","491.25","black","legacy","legacy","legacy","0","congruent","uniform","1","undefined","1","s","0","0","0","0","0","0","99","0","99","99","99","99","99","0","99","99","Tue Sep 13 18:12:07 2022","600","The main experiment item","yes","lab 2.1.osexp","C:\Users\Owner\Downloads","no","mono","no","18","no","white","no","yes","768","legacy","19","79","C:\Users\Owner\Downloads\defaultlog.csv","legacy","Lentiform Loewenfeld","3.3.12","yes","0","s","s","s","NA","s","NA","395","7863","4963","NA","395","NA","2","legacy","1024","2","48000","-16","experiment","SSSSS","1","odd","11115","152099","NA","3250","147134","NA","167303","3248","160314","185199","184138","185301","185698","NA","185198","185301","As Boring or as Not Boring as You Want","92","49125","100","yes","1024"
"92.07920792079207","92.07920792079207","491.08910891089107","491.08910891089107","black","legacy","legacy","legacy","0","incongruent","uniform","1","undefined","1","s","0","0","0","0","0","0","100","0","100","100","100","100","100","0","100","100","Tue Sep 13 18:12:07 2022","600","The main experiment item","yes","lab 2.1.osexp","C:\Users\Owner\Downloads","no","mono","no","18","no","white","no","yes","768","legacy","20","79","C:\Users\Owner\Downloads\defaultlog.csv","legacy","Lentiform Loewenfeld","3.3.12","yes","0","s","s","s","NA","s","NA","475","7863","4963","NA","475","NA","2","legacy","1024","2","48000","-16","experiment","HHSHH","1","odd","11115","152099","NA","3250","147134","NA","167303","3248","160314","186758","185702","186860","187337","NA","186757","186860","As Boring or as Not Boring as You Want","93","49600","101","yes","1024"
"92.15686274509804","92.15686274509804","490.8627450980392","490.8627450980392","black","legacy","legacy","legacy","0","congruent","uniform","1","undefined","1","h","0","0","0","0","0","0","101","0","101","101","101","101","101","0","101","101","Tue Sep 13 18:12:07 2022","600","The main experiment item","yes","lab 2.1.osexp","C:\Users\Owner\Downloads","no","mono","no","18","no","white","no","yes","768","legacy","21","79","C:\Users\Owner\Downloads\defaultlog.csv","legacy","Lentiform Loewenfeld","3.3.12","yes","0","h","s","s","NA","h","NA","468","7863","4963","NA","468","NA","2","legacy","1024","2","48000","-16","experiment","HHHHH","1","odd","11115","152099","NA","3250","147134","NA","167303","3248","160314","188403","187341","188507","188977","NA","188401","188507","As Boring or as Not Boring as You Want","94","50068","102","yes","1024"
"92.23300970873787","92.23300970873787","490.63106796116506","490.63106796116506","black","legacy","legacy","legacy","0","congruent","uniform","1","undefined","1","h","0","0","0","0","0","0","102","0","102","102","102","102","102","0","102","102","Tue Sep 13 18:12:07 2022","600","The main experiment item","yes","lab 2.1.osexp","C:\Users\Owner\Downloads","no","mono","no","18","no","white","no","yes","768","legacy","22","79","C:\Users\Owner\Downloads\defaultlog.csv","legacy","Lentiform Loewenfeld","3.3.12","yes","0","h","s","s","NA","h","NA","467","7863","4963","NA","467","NA","2","legacy","1024","2","48000","-16","experiment","HHHHH","1","odd","11115","152099","NA","3250","147134","NA","167303","3248","160314","190038","188984","190139","190608","NA","190037","190139","As Boring or as Not Boring as You Want","95","50535","103","yes","1024"
"92.3076923076923","92.3076923076923","490.15384615384613","490.15384615384613","black","legacy","legacy","legacy","0","incongruent","uniform","1","undefined","1","s","0","0","0","0","0","0","103","0","103","103","103","103","103","0","103","103","Tue Sep 13 18:12:07 2022","600","The main experiment item","yes","lab 2.1.osexp","C:\Users\Owner\Downloads","no","mono","no","18","no","white","no","yes","768","legacy","23","79","C:\Users\Owner\Downloads\defaultlog.csv","legacy","Lentiform Loewenfeld","3.3.12","yes","0","s","s","s","NA","s","NA","441","7863","4963","NA","441","NA","2","legacy","1024","2","48000","-16","experiment","HHSHH","1","odd","11115","152099","NA","3250","147134","NA","167303","3248","160314","191686","190616","191790","192232","NA","191683","191789","As Boring or as Not Boring as You Want","96","50976","104","yes","1024"
"92.38095238095238","92.38095238095238","489.752380952381","489.752380952381","black","legacy","legacy","legacy","0","incongruent","uniform","1","undefined","1","h","0","0","0","0","0","0","104","0","104","104","104","104","104","0","104","104","Tue Sep 13 18:12:07 2022","600","The main experiment item","yes","lab 2.1.osexp","C:\Users\Owner\Downloads","no","mono","no","18","no","white","no","yes","768","legacy","24","79","C:\Users\Owner\Downloads\defaultlog.csv","legacy","Lentiform Loewenfeld","3.3.12","yes","0","h","s","s","NA","h","NA","448","7863","4963","NA","448","NA","2","legacy","1024","2","48000","-16","experiment","SSHSS","1","odd","11115","152099","NA","3250","147134","NA","167303","3248","160314","193300","192237","193401","193851","NA","193298","193401","As Boring or as Not Boring as You Want","97","51424","105","yes","1024"
"91.50943396226415","91.50943396226415","488.66037735849056","488.66037735849056","black","legacy","legacy","legacy","0","congruent","uniform","0","undefined","0","h","0","0","0","0","0","0","105","0","105","105","105","105","105","0","105","105","Tue Sep 13 18:12:07 2022","600","The main experiment item","yes","lab 2.1.osexp","C:\Users\Owner\Downloads","no","mono","no","18","no","white","no","yes","768","legacy","25","79","C:\Users\Owner\Downloads\defaultlog.csv","legacy","Lentiform Loewenfeld","3.3.12","yes","0","s","s","s","NA","s","NA","374","7863","4963","NA","374","NA","2","legacy","1024","2","48000","-16","experiment","HHHHH","1","odd","11115","152099","NA","3250","147134","NA","167303","3248","160314","194910","193855","195012","195388","NA","194908","195012","As Boring or as Not Boring as You Want","97","51798","106","yes","1024"
"91.58878504672897","91.58878504672897","488.74766355140184","488.74766355140184","black","legacy","legacy","legacy","0","incongruent","uniform","1","undefined","1","h","0","0","0","0","0","0","106","0","106","106","106","106","106","0","106","106","Tue Sep 13 18:12:07 2022","600","The main experiment item","yes","lab 2.1.osexp","C:\Users\Owner\Downloads","no","mono","no","18","no","white","no","yes","768","legacy","26","79","C:\Users\Owner\Downloads\defaultlog.csv","legacy","Lentiform Loewenfeld","3.3.12","yes","0","h","s","s","NA","h","NA","498","7863","4963","NA","498","NA","2","legacy","1024","2","48000","-16","experiment","SSHSS","1","odd","11115","152099","NA","3250","147134","NA","195392","3248","160314","196951","195896","197053","197553","NA","196949","197053","As Boring or as Not Boring as You Want","98","52296","107","yes","1024"
"91.66666666666667","91.66666666666667","488.5740740740741","488.5740740740741","black","legacy","legacy","legacy","0","congruent","uniform","1","undefined","1","s","0","0","0","0","0","0","107","0","107","107","107","107","107","0","107","107","Tue Sep 13 18:12:07 2022","600","The main experiment item","yes","lab 2.1.osexp","C:\Users\Owner\Downloads","no","mono","no","18","no","white","no","yes","768","legacy","27","79","C:\Users\Owner\Downloads\defaultlog.csv","legacy","Lentiform Loewenfeld","3.3.12","yes","0","s","s","s","NA","s","NA","470","7863","4963","NA","470","NA","2","legacy","1024","2","48000","-16","experiment","SSSSS","1","odd","11115","152099","NA","3250","147134","NA","195392","3248","160314","198612","197557","198713","199185","NA","198610","198713","As Boring or as Not Boring as You Want","99","52766","108","yes","1024"
"91.74311926605505","91.74311926605505","488.41284403669727","488.41284403669727","black","legacy","legacy","legacy","0","congruent","uniform","1","undefined","1","s","0","0","0","0","0","0","108","0","108","108","108","108","108","0","108","108","Tue Sep 13 18:12:07 2022","600","The main experiment item","yes","lab 2.1.osexp","C:\Users\Owner\Downloads","no","mono","no","18","no","white","no","yes","768","legacy","28","79","C:\Users\Owner\Downloads\defaultlog.csv","legacy","Lentiform Loewenfeld","3.3.12","yes","0","s","s","s","NA","s","NA","471","7863","4963","NA","471","NA","2","legacy","1024","2","48000","-16","experiment","SSSSS","1","odd","11115","152099","NA","3250","147134","NA","195392","3248","160314","200247","199192","200352","200825","NA","200246","200352","As Boring or as Not Boring as You Want","100","53237","109","yes","1024"
"91.81818181818181","91.81818181818181","488.57272727272726","488.57272727272726","black","legacy","legacy","legacy","0","congruent","uniform","1","undefined","1","h","0","0","0","0","0","0","109","0","109","109","109","109","109","0","109","109","Tue Sep 13 18:12:07 2022","600","The main experiment item","yes","lab 2.1.osexp","C:\Users\Owner\Downloads","no","mono","no","18","no","white","no","yes","768","legacy","29","79","C:\Users\Owner\Downloads\defaultlog.csv","legacy","Lentiform Loewenfeld","3.3.12","yes","0","h","s","s","NA","h","NA","506","7863","4963","NA","506","NA","2","legacy","1024","2","48000","-16","experiment","HHHHH","1","odd","11115","152099","NA","3250","147134","NA","195392","3248","160314","201883","200829","201984","202492","NA","201881","201984","As Boring or as Not Boring as You Want","101","53743","110","yes","1024"
"91.89189189189189","91.89189189189189","489.44144144144144","489.44144144144144","black","legacy","legacy","legacy","0","congruent","uniform","1","undefined","1","s","0","0","0","0","0","0","110","0","110","110","110","110","110","0","110","110","Tue Sep 13 18:12:07 2022","600","The main experiment item","yes","lab 2.1.osexp","C:\Users\Owner\Downloads","no","mono","no","18","no","white","no","yes","768","legacy","30","79","C:\Users\Owner\Downloads\defaultlog.csv","legacy","Lentiform Loewenfeld","3.3.12","yes","0","s","s","s","NA","s","NA","585","7863","4963","NA","585","NA","2","legacy","1024","2","48000","-16","experiment","SSSSS","1","odd","11115","152099","NA","3250","147134","NA","195392","3248","160314","203557","202500","203658","204245","NA","203555","203658","As Boring or as Not Boring as You Want","102","54328","111","yes","1024"
"91.96428571428571","91.96428571428571","489.63392857142856","489.63392857142856","black","legacy","legacy","legacy","0","congruent","uniform","1","undefined","1","s","0","0","0","0","0","0","111","0","111","111","111","111","111","0","111","111","Tue Sep 13 18:12:07 2022","600","The main experiment item","yes","lab 2.1.osexp","C:\Users\Owner\Downloads","no","mono","no","18","no","white","no","yes","768","legacy","31","79","C:\Users\Owner\Downloads\defaultlog.csv","legacy","Lentiform Loewenfeld","3.3.12","yes","0","s","s","s","NA","s","NA","511","7863","4963","NA","511","NA","2","legacy","1024","2","48000","-16","experiment","SSSSS","1","odd","11115","152099","NA","3250","147134","NA","195392","3248","160314","205305","204249","205407","205920","NA","205303","205407","As Boring or as Not Boring as You Want","103","54839","112","yes","1024"
"92.03539823008849","92.03539823008849","489.6725663716814","489.6725663716814","black","legacy","legacy","legacy","0","congruent","uniform","1","undefined","1","s","0","0","0","0","0","0","112","0","112","112","112","112","112","0","112","112","Tue Sep 13 18:12:07 2022","600","The main experiment item","yes","lab 2.1.osexp","C:\Users\Owner\Downloads","no","mono","no","18","no","white","no","yes","768","legacy","32","79","C:\Users\Owner\Downloads\defaultlog.csv","legacy","Lentiform Loewenfeld","3.3.12","yes","0","s","s","s","NA","s","NA","494","7863","4963","NA","494","NA","2","legacy","1024","2","48000","-16","experiment","SSSSS","1","odd","11115","152099","NA","3250","147134","NA","195392","3248","160314","206986","205924","207091","207587","NA","206983","207091","As Boring or as Not Boring as You Want","104","55333","113","yes","1024"
"92.10526315789474","92.10526315789474","490.640350877193","490.640350877193","black","legacy","legacy","legacy","0","incongruent","uniform","1","undefined","1","h","0","0","0","0","0","0","113","0","113","113","113","113","113","0","113","113","Tue Sep 13 18:12:07 2022","600","The main experiment item","yes","lab 2.1.osexp","C:\Users\Owner\Downloads","no","mono","no","18","no","white","no","yes","768","legacy","33","79","C:\Users\Owner\Downloads\defaultlog.csv","legacy","Lentiform Loewenfeld","3.3.12","yes","0","h","s","s","NA","h","NA","600","7863","4963","NA","600","NA","2","legacy","1024","2","48000","-16","experiment","SSHSS","1","odd","11115","152099","NA","3250","147134","NA","195392","3248","160314","208652","207592","208755","209357","NA","208650","208755","As Boring or as Not Boring as You Want","105","55933","114","yes","1024"
"92.17391304347827","92.17391304347827","491.1913043478261","491.1913043478261","black","legacy","legacy","legacy","0","incongruent","uniform","1","undefined","1","s","0","0","0","0","0","0","114","0","114","114","114","114","114","0","114","114","Tue Sep 13 18:12:07 2022","600","The main experiment item","yes","lab 2.1.osexp","C:\Users\Owner\Downloads","no","mono","no","18","no","white","no","yes","768","legacy","34","79","C:\Users\Owner\Downloads\defaultlog.csv","legacy","Lentiform Loewenfeld","3.3.12","yes","0","s","s","s","NA","s","NA","554","7863","4963","NA","554","NA","2","legacy","1024","2","48000","-16","experiment","HHSHH","1","odd","11115","152099","NA","3250","147134","NA","195392","3248","160314","210419","209364","210520","211076","NA","210417","210520","As Boring or as Not Boring as You Want","106","56487","115","yes","1024"
"92.24137931034483","92.24137931034483","491.32758620689657","491.32758620689657","black","legacy","legacy","legacy","0","incongruent","uniform","1","undefined","1","s","0","0","0","0","0","0","115","0","115","115","115","115","115","0","115","115","Tue Sep 13 18:12:07 2022","600","The main experiment item","yes","lab 2.1.osexp","C:\Users\Owner\Downloads","no","mono","no","18","no","white","no","yes","768","legacy","35","79","C:\Users\Owner\Downloads\defaultlog.csv","legacy","Lentiform Loewenfeld","3.3.12","yes","0","s","s","s","NA","s","NA","507","7863","4963","NA","507","NA","2","legacy","1024","2","48000","-16","experiment","HHSHH","1","odd","11115","152099","NA","3250","147134","NA","195392","3248","160314","212134","211080","212237","212745","NA","212132","212236","As Boring or as Not Boring as You Want","107","56994","116","yes","1024"
"92.3076923076923","92.3076923076923","491.5897435897436","491.5897435897436","black","legacy","legacy","legacy","0","incongruent","uniform","1","undefined","1","h","0","0","0","0","0","0","116","0","116","116","116","116","116","0","116","116","Tue Sep 13 18:12:07 2022","600","The main experiment item","yes","lab 2.1.osexp","C:\Users\Owner\Downloads","no","mono","no","18","no","white","no","yes","768","legacy","36","79","C:\Users\Owner\Downloads\defaultlog.csv","legacy","Lentiform Loewenfeld","3.3.12","yes","0","h","s","s","NA","h","NA","522","7863","4963","NA","522","NA","2","legacy","1024","2","48000","-16","experiment","SSHSS","1","odd","11115","152099","NA","3250","147134","NA","195392","3248","160314","213806","212750","213910","214433","NA","213804","213910","As Boring or as Not Boring as You Want","108","57516","117","yes","1024"
"92.37288135593221","92.37288135593221","491.1694915254237","491.1694915254237","black","legacy","legacy","legacy","0","incongruent","uniform","1","undefined","1","s","0","0","0","0","0","0","117","0","117","117","117","117","117","0","117","117","Tue Sep 13 18:12:07 2022","600","The main experiment item","yes","lab 2.1.osexp","C:\Users\Owner\Downloads","no","mono","no","18","no","white","no","yes","768","legacy","37","79","C:\Users\Owner\Downloads\defaultlog.csv","legacy","Lentiform Loewenfeld","3.3.12","yes","0","s","s","s","NA","s","NA","442","7863","4963","NA","442","NA","2","legacy","1024","2","48000","-16","experiment","HHSHH","1","odd","11115","152099","NA","3250","147134","NA","195392","3248","160314","215507","214442","215608","216052","NA","215504","215608","As Boring or as Not Boring as You Want","109","57958","118","yes","1024"
"92.43697478991596","92.43697478991596","490.4621848739496","490.4621848739496","black","legacy","legacy","legacy","0","incongruent","uniform","1","undefined","1","s","0","0","0","0","0","0","118","0","118","118","118","118","118","0","118","118","Tue Sep 13 18:12:07 2022","600","The main experiment item","yes","lab 2.1.osexp","C:\Users\Owner\Downloads","no","mono","no","18","no","white","no","yes","768","legacy","38","79","C:\Users\Owner\Downloads\defaultlog.csv","legacy","Lentiform Loewenfeld","3.3.12","yes","0","s","s","s","NA","s","NA","407","7863","4963","NA","407","NA","2","legacy","1024","2","48000","-16","experiment","HHSHH","1","odd","11115","152099","NA","3250","147134","NA","195392","3248","160314","217115","216056","217216","217624","NA","217111","217216","As Boring or as Not Boring as You Want","110","58365","119","yes","1024"
