"acc","accuracy","average_response_time","avg_rt","background","canvas_backend","clock_backend","color_backend","compensation","condition","coordinates","correct","correct_Instructions1","correct_keyboard_response","correct_response","count_Block1","count_Block2","count_Block3","count_Instructions1","count_Instructions2","count_Instructions3","count_error_feedback","count_experiment","count_faster","count_fixation","count_isi","count_keyboard_response","count_logger","count_new_sketchpad_2","count_sequence","count_stimulus","datetime","deadline","description","disable_garbage_collection","experiment_file","experiment_path","font_bold","font_family","font_italic","font_size","font_underline","foreground","form_clicks","fullscreen","height","keyboard_backend","live_row","live_row_Block1","logfile","mouse_backend","opensesame_codename","opensesame_version","psychopy_waitblanking","repeat_cycle","response","response_Instructions1","response_Instructions2","response_Instructions3","response_keyboard_response","response_new_sketchpad_2","response_time","response_time_Instructions1","response_time_Instructions2","response_time_Instructions3","response_time_keyboard_response","response_time_new_sketchpad_2","round_decimals","sampler_backend","sound_buf_size","sound_channels","sound_freq","sound_sample_size","start","stimulus","subject_nr","subject_parity","time_Block1","time_Block2","time_Block3","time_Instructions1","time_Instructions2","time_Instructions3","time_error_feedback","time_experiment","time_faster","time_fixation","time_isi","time_keyboard_response","time_logger","time_new_sketchpad_2","time_sequence","time_stimulus","title","total_correct","total_response_time","total_responses","uniform_coordinates","width"
"100","100","677","677","black","legacy","legacy","legacy","0","incongruent","uniform","1","undefined","1","s","0","0","0","0","0","0","0","0","0","0","0","0","0","0","0","0","Fri Sep 23 19:16:42 2022","1500","The main experiment item","yes","lab_2.1.osexp","C:\Users\joey.knofczynski\Downloads","no","mono","no","18","no","white","no","yes","768","legacy","0","0","C:/Users/joey.knofczynski/Downloads/subject-2.csv","legacy","Lentiform Loewenfeld","3.3.12","yes","0","s","s","NA","NA","s","NA","677","17095","NA","NA","677","NA","2","legacy","1024","2","48000","-16","experiment","HHSHH","2","even","19447","NA","NA","2350","NA","NA","NA","2346","NA","19504","NA","19606","20284","NA","19501","19606","Lab 2.1","1","677","1","yes","1024"
"100","100","600.5","600.5","black","legacy","legacy","legacy","0","incongruent","uniform","1","undefined","1","s","0","0","0","0","0","0","1","0","1","1","1","1","1","0","1","1","Fri Sep 23 19:16:42 2022","1500","The main experiment item","yes","lab_2.1.osexp","C:\Users\joey.knofczynski\Downloads","no","mono","no","18","no","white","no","yes","768","legacy","1","1","C:/Users/joey.knofczynski/Downloads/subject-2.csv","legacy","Lentiform Loewenfeld","3.3.12","yes","0","s","s","NA","NA","s","NA","524","17095","NA","NA","524","NA","2","legacy","1024","2","48000","-16","experiment","HHSHH","2","even","19447","NA","NA","2350","NA","NA","NA","2346","NA","21345","20290","21447","21971","NA","21342","21447","Lab 2.1","2","1201","2","yes","1024"
"100","100","563","563","black","legacy","legacy","legacy","0","congruent","uniform","1","undefined","1","s","0","0","0","0","0","0","2","0","2","2","2","2","2","0","2","2","Fri Sep 23 19:16:42 2022","1500","The main experiment item","yes","lab_2.1.osexp","C:\Users\joey.knofczynski\Downloads","no","mono","no","18","no","white","no","yes","768","legacy","2","2","C:/Users/joey.knofczynski/Downloads/subject-2.csv","legacy","Lentiform Loewenfeld","3.3.12","yes","0","s","s","NA","NA","s","NA","488","17095","NA","NA","488","NA","2","legacy","1024","2","48000","-16","experiment","SSSSS","2","even","19447","NA","NA","2350","NA","NA","NA","2346","NA","23032","21976","23133","23621","NA","23027","23133","Lab 2.1","3","1689","3","yes","1024"
"100","100","528.75","528.75","black","legacy","legacy","legacy","0","incongruent","uniform","1","undefined","1","s","0","0","0","0","0","0","3","0","3","3","3","3","3","0","3","3","Fri Sep 23 19:16:42 2022","1500","The main experiment item","yes","lab_2.1.osexp","C:\Users\joey.knofczynski\Downloads","no","mono","no","18","no","white","no","yes","768","legacy","3","3","C:/Users/joey.knofczynski/Downloads/subject-2.csv","legacy","Lentiform Loewenfeld","3.3.12","yes","0","s","s","NA","NA","s","NA","426","17095","NA","NA","426","NA","2","legacy","1024","2","48000","-16","experiment","HHSHH","2","even","19447","NA","NA","2350","NA","NA","NA","2346","NA","24679","23625","24780","25207","NA","24676","24780","Lab 2.1","4","2115","4","yes","1024"
"100","100","517.8","517.8","black","legacy","legacy","legacy","0","incongruent","uniform","1","undefined","1","s","0","0","0","0","0","0","4","0","4","4","4","4","4","0","4","4","Fri Sep 23 19:16:42 2022","1500","The main experiment item","yes","lab_2.1.osexp","C:\Users\joey.knofczynski\Downloads","no","mono","no","18","no","white","no","yes","768","legacy","4","4","C:/Users/joey.knofczynski/Downloads/subject-2.csv","legacy","Lentiform Loewenfeld","3.3.12","yes","0","s","s","NA","NA","s","NA","474","17095","NA","NA","474","NA","2","legacy","1024","2","48000","-16","experiment","HHSHH","2","even","19447","NA","NA","2350","NA","NA","NA","2346","NA","26266","25212","26367","26843","NA","26263","26367","Lab 2.1","5","2589","5","yes","1024"
"100","100","507.3333333333333","507.3333333333333","black","legacy","legacy","legacy","0","incongruent","uniform","1","undefined","1","s","0","0","0","0","0","0","5","0","5","5","5","5","5","0","5","5","Fri Sep 23 19:16:42 2022","1500","The main experiment item","yes","lab_2.1.osexp","C:\Users\joey.knofczynski\Downloads","no","mono","no","18","no","white","no","yes","768","legacy","5","5","C:/Users/joey.knofczynski/Downloads/subject-2.csv","legacy","Lentiform Loewenfeld","3.3.12","yes","0","s","s","NA","NA","s","NA","455","17095","NA","NA","455","NA","2","legacy","1024","2","48000","-16","experiment","HHSHH","2","even","19447","NA","NA","2350","NA","NA","NA","2346","NA","27910","26848","28011","28466","NA","27907","28011","Lab 2.1","6","3044","6","yes","1024"
"100","100","499.42857142857144","499.42857142857144","black","legacy","legacy","legacy","0","incongruent","uniform","1","undefined","1","h","0","0","0","0","0","0","6","0","6","6","6","6","6","0","6","6","Fri Sep 23 19:16:42 2022","1500","The main experiment item","yes","lab_2.1.osexp","C:\Users\joey.knofczynski\Downloads","no","mono","no","18","no","white","no","yes","768","legacy","6","6","C:/Users/joey.knofczynski/Downloads/subject-2.csv","legacy","Lentiform Loewenfeld","3.3.12","yes","0","h","s","NA","NA","h","NA","452","17095","NA","NA","452","NA","2","legacy","1024","2","48000","-16","experiment","SSHSS","2","even","19447","NA","NA","2350","NA","NA","NA","2346","NA","29523","28470","29624","30077","NA","29519","29624","Lab 2.1","7","3496","7","yes","1024"
"100","100","489.875","489.875","black","legacy","legacy","legacy","0","incongruent","uniform","1","undefined","1","s","0","0","0","0","0","0","7","0","7","7","7","7","7","0","7","7","Fri Sep 23 19:16:42 2022","1500","The main experiment item","yes","lab_2.1.osexp","C:\Users\joey.knofczynski\Downloads","no","mono","no","18","no","white","no","yes","768","legacy","7","7","C:/Users/joey.knofczynski/Downloads/subject-2.csv","legacy","Lentiform Loewenfeld","3.3.12","yes","0","s","s","NA","NA","s","NA","423","17095","NA","NA","423","NA","2","legacy","1024","2","48000","-16","experiment","HHSHH","2","even","19447","NA","NA","2350","NA","NA","NA","2346","NA","31135","30081","31237","31661","NA","31131","31237","Lab 2.1","8","3919","8","yes","1024"
"100","100","474.1111111111111","474.1111111111111","black","legacy","legacy","legacy","0","incongruent","uniform","1","undefined","1","s","0","0","0","0","0","0","8","0","8","8","8","8","8","0","8","8","Fri Sep 23 19:16:42 2022","1500","The main experiment item","yes","lab_2.1.osexp","C:\Users\joey.knofczynski\Downloads","no","mono","no","18","no","white","no","yes","768","legacy","8","8","C:/Users/joey.knofczynski/Downloads/subject-2.csv","legacy","Lentiform Loewenfeld","3.3.12","yes","0","s","s","NA","NA","s","NA","348","17095","NA","NA","348","NA","2","legacy","1024","2","48000","-16","experiment","HHSHH","2","even","19447","NA","NA","2350","NA","NA","NA","2346","NA","32718","31665","32820","33168","NA","32715","32820","Lab 2.1","9","4267","9","yes","1024"
"100","100","467.5","467.5","black","legacy","legacy","legacy","0","congruent","uniform","1","undefined","1","s","0","0","0","0","0","0","9","0","9","9","9","9","9","0","9","9","Fri Sep 23 19:16:42 2022","1500","The main experiment item","yes","lab_2.1.osexp","C:\Users\joey.knofczynski\Downloads","no","mono","no","18","no","white","no","yes","768","legacy","9","9","C:/Users/joey.knofczynski/Downloads/subject-2.csv","legacy","Lentiform Loewenfeld","3.3.12","yes","0","s","s","NA","NA","s","NA","408","17095","NA","NA","408","NA","2","legacy","1024","2","48000","-16","experiment","SSSSS","2","even","19447","NA","NA","2350","NA","NA","NA","2346","NA","34224","33173","34326","34734","NA","34221","34326","Lab 2.1","10","4675","10","yes","1024"
"100","100","464.09090909090907","464.09090909090907","black","legacy","legacy","legacy","0","incongruent","uniform","1","undefined","1","h","0","0","0","0","0","0","10","0","10","10","10","10","10","0","10","10","Fri Sep 23 19:16:42 2022","1500","The main experiment item","yes","lab_2.1.osexp","C:\Users\joey.knofczynski\Downloads","no","mono","no","18","no","white","no","yes","768","legacy","10","10","C:/Users/joey.knofczynski/Downloads/subject-2.csv","legacy","Lentiform Loewenfeld","3.3.12","yes","0","h","s","NA","NA","h","NA","430","17095","NA","NA","430","NA","2","legacy","1024","2","48000","-16","experiment","SSHSS","2","even","19447","NA","NA","2350","NA","NA","NA","2346","NA","35791","34738","35893","36324","NA","35788","35893","Lab 2.1","11","5105","11","yes","1024"
"91.66666666666667","91.66666666666667","453.1666666666667","453.1666666666667","black","legacy","legacy","legacy","0","incongruent","uniform","0","undefined","0","h","0","0","0","0","0","0","11","0","11","11","11","11","11","0","11","11","Fri Sep 23 19:16:42 2022","1500","The main experiment item","yes","lab_2.1.osexp","C:\Users\joey.knofczynski\Downloads","no","mono","no","18","no","white","no","yes","768","legacy","11","11","C:/Users/joey.knofczynski/Downloads/subject-2.csv","legacy","Lentiform Loewenfeld","3.3.12","yes","0","s","s","NA","NA","s","NA","333","17095","NA","NA","333","NA","2","legacy","1024","2","48000","-16","experiment","SSHSS","2","even","19447","NA","NA","2350","NA","NA","NA","2346","NA","37384","36328","37486","37820","NA","37380","37486","Lab 2.1","11","5438","12","yes","1024"
"92.3076923076923","92.3076923076923","453.2307692307692","453.2307692307692","black","legacy","legacy","legacy","0","incongruent","uniform","1","undefined","1","h","0","0","0","0","0","0","12","0","12","12","12","12","12","0","12","12","Fri Sep 23 19:16:42 2022","1500","The main experiment item","yes","lab_2.1.osexp","C:\Users\joey.knofczynski\Downloads","no","mono","no","18","no","white","no","yes","768","legacy","12","12","C:/Users/joey.knofczynski/Downloads/subject-2.csv","legacy","Lentiform Loewenfeld","3.3.12","yes","0","h","s","NA","NA","h","NA","454","17095","NA","NA","454","NA","2","legacy","1024","2","48000","-16","experiment","SSHSS","2","even","19447","NA","NA","2350","NA","NA","37824","2346","NA","39378","38326","39481","39936","NA","39375","39481","Lab 2.1","12","5892","13","yes","1024"
"92.85714285714286","92.85714285714286","452.92857142857144","452.92857142857144","black","legacy","legacy","legacy","0","congruent","uniform","1","undefined","1","h","0","0","0","0","0","0","13","0","13","13","13","13","13","0","13","13","Fri Sep 23 19:16:42 2022","1500","The main experiment item","yes","lab_2.1.osexp","C:\Users\joey.knofczynski\Downloads","no","mono","no","18","no","white","no","yes","768","legacy","13","13","C:/Users/joey.knofczynski/Downloads/subject-2.csv","legacy","Lentiform Loewenfeld","3.3.12","yes","0","h","s","NA","NA","h","NA","449","17095","NA","NA","449","NA","2","legacy","1024","2","48000","-16","experiment","HHHHH","2","even","19447","NA","NA","2350","NA","NA","37824","2346","NA","40995","39940","41096","41545","NA","40993","41096","Lab 2.1","13","6341","14","yes","1024"
"93.33333333333333","93.33333333333333","453.26666666666665","453.26666666666665","black","legacy","legacy","legacy","0","congruent","uniform","1","undefined","1","s","0","0","0","0","0","0","14","0","14","14","14","14","14","0","14","14","Fri Sep 23 19:16:42 2022","1500","The main experiment item","yes","lab_2.1.osexp","C:\Users\joey.knofczynski\Downloads","no","mono","no","18","no","white","no","yes","768","legacy","14","14","C:/Users/joey.knofczynski/Downloads/subject-2.csv","legacy","Lentiform Loewenfeld","3.3.12","yes","0","s","s","NA","NA","s","NA","458","17095","NA","NA","458","NA","2","legacy","1024","2","48000","-16","experiment","SSSSS","2","even","19447","NA","NA","2350","NA","NA","37824","2346","NA","42605","41551","42707","43165","NA","42602","42707","Lab 2.1","14","6799","15","yes","1024"
"93.75","93.75","452.25","452.25","black","legacy","legacy","legacy","0","incongruent","uniform","1","undefined","1","h","0","0","0","0","0","0","15","0","15","15","15","15","15","0","15","15","Fri Sep 23 19:16:42 2022","1500","The main experiment item","yes","lab_2.1.osexp","C:\Users\joey.knofczynski\Downloads","no","mono","no","18","no","white","no","yes","768","legacy","15","15","C:/Users/joey.knofczynski/Downloads/subject-2.csv","legacy","Lentiform Loewenfeld","3.3.12","yes","0","h","s","NA","NA","h","NA","437","17095","NA","NA","437","NA","2","legacy","1024","2","48000","-16","experiment","SSHSS","2","even","19447","NA","NA","2350","NA","NA","37824","2346","NA","44232","43170","44334","44772","NA","44230","44334","Lab 2.1","15","7236","16","yes","1024"
"94.11764705882354","94.11764705882354","450.29411764705884","450.29411764705884","black","legacy","legacy","legacy","0","incongruent","uniform","1","undefined","1","h","0","0","0","0","0","0","16","0","16","16","16","16","16","0","16","16","Fri Sep 23 19:16:42 2022","1500","The main experiment item","yes","lab_2.1.osexp","C:\Users\joey.knofczynski\Downloads","no","mono","no","18","no","white","no","yes","768","legacy","16","16","C:/Users/joey.knofczynski/Downloads/subject-2.csv","legacy","Lentiform Loewenfeld","3.3.12","yes","0","h","s","NA","NA","h","NA","419","17095","NA","NA","419","NA","2","legacy","1024","2","48000","-16","experiment","SSHSS","2","even","19447","NA","NA","2350","NA","NA","37824","2346","NA","45830","44776","45931","46350","NA","45826","45931","Lab 2.1","16","7655","17","yes","1024"
"94.44444444444444","94.44444444444444","447.6111111111111","447.6111111111111","black","legacy","legacy","legacy","0","congruent","uniform","1","undefined","1","s","0","0","0","0","0","0","17","0","17","17","17","17","17","0","17","17","Fri Sep 23 19:16:42 2022","1500","The main experiment item","yes","lab_2.1.osexp","C:\Users\joey.knofczynski\Downloads","no","mono","no","18","no","white","no","yes","768","legacy","17","17","C:/Users/joey.knofczynski/Downloads/subject-2.csv","legacy","Lentiform Loewenfeld","3.3.12","yes","0","s","s","NA","NA","s","NA","402","17095","NA","NA","402","NA","2","legacy","1024","2","48000","-16","experiment","SSSSS","2","even","19447","NA","NA","2350","NA","NA","37824","2346","NA","47409","46355","47511","47914","NA","47405","47511","Lab 2.1","17","8057","18","yes","1024"
"94.73684210526316","94.73684210526316","446.8421052631579","446.8421052631579","black","legacy","legacy","legacy","0","congruent","uniform","1","undefined","1","s","0","0","0","0","0","0","18","0","18","18","18","18","18","0","18","18","Fri Sep 23 19:16:42 2022","1500","The main experiment item","yes","lab_2.1.osexp","C:\Users\joey.knofczynski\Downloads","no","mono","no","18","no","white","no","yes","768","legacy","18","18","C:/Users/joey.knofczynski/Downloads/subject-2.csv","legacy","Lentiform Loewenfeld","3.3.12","yes","0","s","s","NA","NA","s","NA","433","17095","NA","NA","433","NA","2","legacy","1024","2","48000","-16","experiment","SSSSS","2","even","19447","NA","NA","2350","NA","NA","37824","2346","NA","48972","47917","49074","49507","NA","48969","49074","Lab 2.1","18","8490","19","yes","1024"
"95","95","441.75","441.75","black","legacy","legacy","legacy","0","congruent","uniform","1","undefined","1","h","0","0","0","0","0","0","19","0","19","19","19","19","19","0","19","19","Fri Sep 23 19:16:42 2022","1500","The main experiment item","yes","lab_2.1.osexp","C:\Users\joey.knofczynski\Downloads","no","mono","no","18","no","white","no","yes","768","legacy","19","19","C:/Users/joey.knofczynski/Downloads/subject-2.csv","legacy","Lentiform Loewenfeld","3.3.12","yes","0","h","s","NA","NA","h","NA","345","17095","NA","NA","345","NA","2","legacy","1024","2","48000","-16","experiment","HHHHH","2","even","19447","NA","NA","2350","NA","NA","37824","2346","NA","50569","49513","50671","51016","NA","50566","50671","Lab 2.1","19","8835","20","yes","1024"
"95.23809523809524","95.23809523809524","440.57142857142856","440.57142857142856","black","legacy","legacy","legacy","0","congruent","uniform","1","undefined","1","h","0","0","0","0","0","0","20","0","20","20","20","20","20","0","20","20","Fri Sep 23 19:16:42 2022","1500","The main experiment item","yes","lab_2.1.osexp","C:\Users\joey.knofczynski\Downloads","no","mono","no","18","no","white","no","yes","768","legacy","20","20","C:/Users/joey.knofczynski/Downloads/subject-2.csv","legacy","Lentiform Loewenfeld","3.3.12","yes","0","h","s","NA","NA","h","NA","417","17095","NA","NA","417","NA","2","legacy","1024","2","48000","-16","experiment","HHHHH","2","even","19447","NA","NA","2350","NA","NA","37824","2346","NA","52075","51020","52176","52593","NA","52073","52176","Lab 2.1","20","9252","21","yes","1024"
"95.45454545454545","95.45454545454545","439.6818181818182","439.6818181818182","black","legacy","legacy","legacy","0","congruent","uniform","1","undefined","1","h","0","0","0","0","0","0","21","0","21","21","21","21","21","0","21","21","Fri Sep 23 19:16:42 2022","1500","The main experiment item","yes","lab_2.1.osexp","C:\Users\joey.knofczynski\Downloads","no","mono","no","18","no","white","no","yes","768","legacy","21","21","C:/Users/joey.knofczynski/Downloads/subject-2.csv","legacy","Lentiform Loewenfeld","3.3.12","yes","0","h","s","NA","NA","h","NA","421","17095","NA","NA","421","NA","2","legacy","1024","2","48000","-16","experiment","HHHHH","2","even","19447","NA","NA","2350","NA","NA","37824","2346","NA","53652","52597","53755","54177","NA","53649","53755","Lab 2.1","21","9673","22","yes","1024"
"95.65217391304348","95.65217391304348","437.17391304347825","437.17391304347825","black","legacy","legacy","legacy","0","congruent","uniform","1","undefined","1","s","0","0","0","0","0","0","22","0","22","22","22","22","22","0","22","22","Fri Sep 23 19:16:42 2022","1500","The main experiment item","yes","lab_2.1.osexp","C:\Users\joey.knofczynski\Downloads","no","mono","no","18","no","white","no","yes","768","legacy","22","22","C:/Users/joey.knofczynski/Downloads/subject-2.csv","legacy","Lentiform Loewenfeld","3.3.12","yes","0","s","s","NA","NA","s","NA","382","17095","NA","NA","382","NA","2","legacy","1024","2","48000","-16","experiment","SSSSS","2","even","19447","NA","NA","2350","NA","NA","37824","2346","NA","55237","54182","55339","55722","NA","55234","55339","Lab 2.1","22","10055","23","yes","1024"
"91.66666666666667","91.66666666666667","436.7083333333333","436.7083333333333","black","legacy","legacy","legacy","0","incongruent","uniform","0","undefined","0","s","0","0","0","0","0","0","23","0","23","23","23","23","23","0","23","23","Fri Sep 23 19:16:42 2022","1500","The main experiment item","yes","lab_2.1.osexp","C:\Users\joey.knofczynski\Downloads","no","mono","no","18","no","white","no","yes","768","legacy","23","23","C:/Users/joey.knofczynski/Downloads/subject-2.csv","legacy","Lentiform Loewenfeld","3.3.12","yes","0","h","s","NA","NA","h","NA","426","17095","NA","NA","426","NA","2","legacy","1024","2","48000","-16","experiment","HHSHH","2","even","19447","NA","NA","2350","NA","NA","37824","2346","NA","56780","55726","56882","57310","NA","56777","56882","Lab 2.1","22","10481","24","yes","1024"
"92","92","436.12","436.12","black","legacy","legacy","legacy","0","congruent","uniform","1","undefined","1","h","0","0","0","0","0","0","24","0","24","24","24","24","24","0","24","24","Fri Sep 23 19:16:42 2022","1500","The main experiment item","yes","lab_2.1.osexp","C:\Users\joey.knofczynski\Downloads","no","mono","no","18","no","white","no","yes","768","legacy","24","24","C:/Users/joey.knofczynski/Downloads/subject-2.csv","legacy","Lentiform Loewenfeld","3.3.12","yes","0","h","s","NA","NA","h","NA","422","17095","NA","NA","422","NA","2","legacy","1024","2","48000","-16","experiment","HHHHH","2","even","19447","NA","NA","2350","NA","NA","57314","2346","NA","58876","57815","58978","59401","NA","58873","58978","Lab 2.1","23","10903","25","yes","1024"
"92.3076923076923","92.3076923076923","435.88461538461536","435.88461538461536","black","legacy","legacy","legacy","0","congruent","uniform","1","undefined","1","s","0","0","0","0","0","0","25","0","25","25","25","25","25","0","25","25","Fri Sep 23 19:16:42 2022","1500","The main experiment item","yes","lab_2.1.osexp","C:\Users\joey.knofczynski\Downloads","no","mono","no","18","no","white","no","yes","768","legacy","25","25","C:/Users/joey.knofczynski/Downloads/subject-2.csv","legacy","Lentiform Loewenfeld","3.3.12","yes","0","s","s","NA","NA","s","NA","430","17095","NA","NA","430","NA","2","legacy","1024","2","48000","-16","experiment","SSSSS","2","even","19447","NA","NA","2350","NA","NA","57314","2346","NA","60459","59405","60562","60994","NA","60455","60562","Lab 2.1","24","11333","26","yes","1024"
"92.5925925925926","92.5925925925926","437.51851851851853","437.51851851851853","black","legacy","legacy","legacy","0","incongruent","uniform","1","undefined","1","s","0","0","0","0","0","0","26","0","26","26","26","26","26","0","26","26","Fri Sep 23 19:16:42 2022","1500","The main experiment item","yes","lab_2.1.osexp","C:\Users\joey.knofczynski\Downloads","no","mono","no","18","no","white","no","yes","768","legacy","26","26","C:/Users/joey.knofczynski/Downloads/subject-2.csv","legacy","Lentiform Loewenfeld","3.3.12","yes","0","s","s","NA","NA","s","NA","480","17095","NA","NA","480","NA","2","legacy","1024","2","48000","-16","experiment","HHSHH","2","even","19447","NA","NA","2350","NA","NA","57314","2346","NA","62053","60998","62154","62634","NA","62051","62154","Lab 2.1","25","11813","27","yes","1024"
"92.85714285714286","92.85714285714286","436.10714285714283","436.10714285714283","black","legacy","legacy","legacy","0","incongruent","uniform","1","undefined","1","h","0","0","0","0","0","0","27","0","27","27","27","27","27","0","27","27","Fri Sep 23 19:16:42 2022","1500","The main experiment item","yes","lab_2.1.osexp","C:\Users\joey.knofczynski\Downloads","no","mono","no","18","no","white","no","yes","768","legacy","27","27","C:/Users/joey.knofczynski/Downloads/subject-2.csv","legacy","Lentiform Loewenfeld","3.3.12","yes","0","h","s","NA","NA","h","NA","398","17095","NA","NA","398","NA","2","legacy","1024","2","48000","-16","experiment","SSHSS","2","even","19447","NA","NA","2350","NA","NA","57314","2346","NA","63691","62637","63792","64190","NA","63688","63792","Lab 2.1","26","12211","28","yes","1024"
"93.10344827586206","93.10344827586206","435","435","black","legacy","legacy","legacy","0","congruent","uniform","1","undefined","1","s","0","0","0","0","0","0","28","0","28","28","28","28","28","0","28","28","Fri Sep 23 19:16:42 2022","1500","The main experiment item","yes","lab_2.1.osexp","C:\Users\joey.knofczynski\Downloads","no","mono","no","18","no","white","no","yes","768","legacy","28","28","C:/Users/joey.knofczynski/Downloads/subject-2.csv","legacy","Lentiform Loewenfeld","3.3.12","yes","0","s","s","NA","NA","s","NA","404","17095","NA","NA","404","NA","2","legacy","1024","2","48000","-16","experiment","SSSSS","2","even","19447","NA","NA","2350","NA","NA","57314","2346","NA","65247","64194","65349","65754","NA","65245","65349","Lab 2.1","27","12615","29","yes","1024"
"93.33333333333333","93.33333333333333","433.3","433.3","black","legacy","legacy","legacy","0","congruent","uniform","1","undefined","1","h","0","0","0","0","0","0","29","0","29","29","29","29","29","0","29","29","Fri Sep 23 19:16:42 2022","1500","The main experiment item","yes","lab_2.1.osexp","C:\Users\joey.knofczynski\Downloads","no","mono","no","18","no","white","no","yes","768","legacy","29","29","C:/Users/joey.knofczynski/Downloads/subject-2.csv","legacy","Lentiform Loewenfeld","3.3.12","yes","0","h","s","NA","NA","h","NA","384","17095","NA","NA","384","NA","2","legacy","1024","2","48000","-16","experiment","HHHHH","2","even","19447","NA","NA","2350","NA","NA","57314","2346","NA","66812","65759","66913","67299","NA","66809","66913","Lab 2.1","28","12999","30","yes","1024"
"93.54838709677419","93.54838709677419","433.7096774193548","433.7096774193548","black","legacy","legacy","legacy","0","incongruent","uniform","1","undefined","1","s","0","0","0","0","0","0","30","0","30","30","30","30","30","0","30","30","Fri Sep 23 19:16:42 2022","1500","The main experiment item","yes","lab_2.1.osexp","C:\Users\joey.knofczynski\Downloads","no","mono","no","18","no","white","no","yes","768","legacy","30","30","C:/Users/joey.knofczynski/Downloads/subject-2.csv","legacy","Lentiform Loewenfeld","3.3.12","yes","0","s","s","NA","NA","s","NA","446","17095","NA","NA","446","NA","2","legacy","1024","2","48000","-16","experiment","HHSHH","2","even","19447","NA","NA","2350","NA","NA","57314","2346","NA","68355","67302","68457","68904","NA","68352","68457","Lab 2.1","29","13445","31","yes","1024"
"93.75","93.75","432.25","432.25","black","legacy","legacy","legacy","0","congruent","uniform","1","undefined","1","s","0","0","0","0","0","0","31","0","31","31","31","31","31","0","31","31","Fri Sep 23 19:16:42 2022","1500","The main experiment item","yes","lab_2.1.osexp","C:\Users\joey.knofczynski\Downloads","no","mono","no","18","no","white","no","yes","768","legacy","31","31","C:/Users/joey.knofczynski/Downloads/subject-2.csv","legacy","Lentiform Loewenfeld","3.3.12","yes","0","s","s","NA","NA","s","NA","387","17095","NA","NA","387","NA","2","legacy","1024","2","48000","-16","experiment","SSSSS","2","even","19447","NA","NA","2350","NA","NA","57314","2346","NA","69964","68908","70065","70454","NA","69961","70065","Lab 2.1","30","13832","32","yes","1024"
"93.93939393939394","93.93939393939394","430.7878787878788","430.7878787878788","black","legacy","legacy","legacy","0","incongruent","uniform","1","undefined","1","h","0","0","0","0","0","0","32","0","32","32","32","32","32","0","32","32","Fri Sep 23 19:16:42 2022","1500","The main experiment item","yes","lab_2.1.osexp","C:\Users\joey.knofczynski\Downloads","no","mono","no","18","no","white","no","yes","768","legacy","32","32","C:/Users/joey.knofczynski/Downloads/subject-2.csv","legacy","Lentiform Loewenfeld","3.3.12","yes","0","h","s","NA","NA","h","NA","384","17095","NA","NA","384","NA","2","legacy","1024","2","48000","-16","experiment","SSHSS","2","even","19447","NA","NA","2350","NA","NA","57314","2346","NA","71511","70458","71613","71998","NA","71508","71613","Lab 2.1","31","14216","33","yes","1024"
"94.11764705882354","94.11764705882354","432.5","432.5","black","legacy","legacy","legacy","0","incongruent","uniform","1","undefined","1","s","0","0","0","0","0","0","33","0","33","33","33","33","33","0","33","33","Fri Sep 23 19:16:42 2022","1500","The main experiment item","yes","lab_2.1.osexp","C:\Users\joey.knofczynski\Downloads","no","mono","no","18","no","white","no","yes","768","legacy","33","33","C:/Users/joey.knofczynski/Downloads/subject-2.csv","legacy","Lentiform Loewenfeld","3.3.12","yes","0","s","s","NA","NA","s","NA","489","17095","NA","NA","489","NA","2","legacy","1024","2","48000","-16","experiment","HHSHH","2","even","19447","NA","NA","2350","NA","NA","57314","2346","NA","73056","72002","73158","73648","NA","73054","73158","Lab 2.1","32","14705","34","yes","1024"
"94.28571428571429","94.28571428571429","431.37142857142857","431.37142857142857","black","legacy","legacy","legacy","0","congruent","uniform","1","undefined","1","h","0","0","0","0","0","0","34","0","34","34","34","34","34","0","34","34","Fri Sep 23 19:16:42 2022","1500","The main experiment item","yes","lab_2.1.osexp","C:\Users\joey.knofczynski\Downloads","no","mono","no","18","no","white","no","yes","768","legacy","34","34","C:/Users/joey.knofczynski/Downloads/subject-2.csv","legacy","Lentiform Loewenfeld","3.3.12","yes","0","h","s","NA","NA","h","NA","393","17095","NA","NA","393","NA","2","legacy","1024","2","48000","-16","experiment","HHHHH","2","even","19447","NA","NA","2350","NA","NA","57314","2346","NA","74707","73652","74810","75204","NA","74704","74809","Lab 2.1","33","15098","35","yes","1024"
"94.44444444444444","94.44444444444444","428.19444444444446","428.19444444444446","black","legacy","legacy","legacy","0","incongruent","uniform","1","undefined","1","s","0","0","0","0","0","0","35","0","35","35","35","35","35","0","35","35","Fri Sep 23 19:16:42 2022","1500","The main experiment item","yes","lab_2.1.osexp","C:\Users\joey.knofczynski\Downloads","no","mono","no","18","no","white","no","yes","768","legacy","35","35","C:/Users/joey.knofczynski/Downloads/subject-2.csv","legacy","Lentiform Loewenfeld","3.3.12","yes","0","s","s","NA","NA","s","NA","317","17095","NA","NA","317","NA","2","legacy","1024","2","48000","-16","experiment","HHSHH","2","even","19447","NA","NA","2350","NA","NA","57314","2346","NA","76260","75208","76361","76679","NA","76258","76361","Lab 2.1","34","15415","36","yes","1024"
"91.89189189189189","91.89189189189189","425.5135135135135","425.5135135135135","black","legacy","legacy","legacy","0","incongruent","uniform","0","undefined","0","s","0","0","0","0","0","0","36","0","36","36","36","36","36","0","36","36","Fri Sep 23 19:16:42 2022","1500","The main experiment item","yes","lab_2.1.osexp","C:\Users\joey.knofczynski\Downloads","no","mono","no","18","no","white","no","yes","768","legacy","36","36","C:/Users/joey.knofczynski/Downloads/subject-2.csv","legacy","Lentiform Loewenfeld","3.3.12","yes","0","h","s","NA","NA","h","NA","329","17095","NA","NA","329","NA","2","legacy","1024","2","48000","-16","experiment","HHSHH","2","even","19447","NA","NA","2350","NA","NA","57314","2346","NA","77736","76683","77837","78167","NA","77734","77837","Lab 2.1","34","15744","37","yes","1024"
"92.10526315789474","92.10526315789474","427.2105263157895","427.2105263157895","black","legacy","legacy","legacy","0","incongruent","uniform","1","undefined","1","s","0","0","0","0","0","0","37","0","37","37","37","37","37","0","37","37","Fri Sep 23 19:16:42 2022","1500","The main experiment item","yes","lab_2.1.osexp","C:\Users\joey.knofczynski\Downloads","no","mono","no","18","no","white","no","yes","768","legacy","37","37","C:/Users/joey.knofczynski/Downloads/subject-2.csv","legacy","Lentiform Loewenfeld","3.3.12","yes","0","s","s","NA","NA","s","NA","490","17095","NA","NA","490","NA","2","legacy","1024","2","48000","-16","experiment","HHSHH","2","even","19447","NA","NA","2350","NA","NA","78171","2346","NA","79724","78672","79825","80316","NA","79722","79825","Lab 2.1","35","16234","38","yes","1024"
"92.3076923076923","92.3076923076923","426.43589743589746","426.43589743589746","black","legacy","legacy","legacy","0","incongruent","uniform","1","undefined","1","s","0","0","0","0","0","0","38","0","38","38","38","38","38","0","38","38","Fri Sep 23 19:16:42 2022","1500","The main experiment item","yes","lab_2.1.osexp","C:\Users\joey.knofczynski\Downloads","no","mono","no","18","no","white","no","yes","768","legacy","38","38","C:/Users/joey.knofczynski/Downloads/subject-2.csv","legacy","Lentiform Loewenfeld","3.3.12","yes","0","s","s","NA","NA","s","NA","397","17095","NA","NA","397","NA","2","legacy","1024","2","48000","-16","experiment","HHSHH","2","even","19447","NA","NA","2350","NA","NA","78171","2346","NA","81373","80320","81474","81872","NA","81370","81474","Lab 2.1","36","16631","39","yes","1024"
"92.5","92.5","427.825","427.825","black","legacy","legacy","legacy","0","congruent","uniform","1","undefined","1","h","0","0","0","0","0","0","39","0","39","39","39","39","39","0","39","39","Fri Sep 23 19:16:42 2022","1500","The main experiment item","yes","lab_2.1.osexp","C:\Users\joey.knofczynski\Downloads","no","mono","no","18","no","white","no","yes","768","legacy","39","39","C:/Users/joey.knofczynski/Downloads/subject-2.csv","legacy","Lentiform Loewenfeld","3.3.12","yes","0","h","s","NA","NA","h","NA","482","17095","NA","NA","482","NA","2","legacy","1024","2","48000","-16","experiment","HHHHH","2","even","19447","NA","NA","2350","NA","NA","78171","2346","NA","82930","81876","83031","83515","NA","82928","83031","Lab 2.1","37","17113","40","yes","1024"
"92.6829268292683","92.6829268292683","430.1463414634146","430.1463414634146","black","legacy","legacy","legacy","0","incongruent","uniform","1","undefined","1","h","0","0","0","0","0","0","40","0","40","40","40","40","40","0","40","40","Fri Sep 23 19:16:42 2022","1500","The main experiment item","yes","lab_2.1.osexp","C:\Users\joey.knofczynski\Downloads","no","mono","no","18","no","white","no","yes","768","legacy","40","40","C:/Users/joey.knofczynski/Downloads/subject-2.csv","legacy","Lentiform Loewenfeld","3.3.12","yes","0","h","s","NA","NA","h","NA","523","17095","NA","NA","523","NA","2","legacy","1024","2","48000","-16","experiment","SSHSS","2","even","19447","NA","NA","2350","NA","NA","78171","2346","NA","84582","83519","84683","85207","NA","84578","84683","Lab 2.1","38","17636","41","yes","1024"
"92.85714285714286","92.85714285714286","431.1904761904762","431.1904761904762","black","legacy","legacy","legacy","0","congruent","uniform","1","undefined","1","h","0","0","0","0","0","0","41","0","41","41","41","41","41","0","41","41","Fri Sep 23 19:16:42 2022","1500","The main experiment item","yes","lab_2.1.osexp","C:\Users\joey.knofczynski\Downloads","no","mono","no","18","no","white","no","yes","768","legacy","41","41","C:/Users/joey.knofczynski/Downloads/subject-2.csv","legacy","Lentiform Loewenfeld","3.3.12","yes","0","h","s","NA","NA","h","NA","474","17095","NA","NA","474","NA","2","legacy","1024","2","48000","-16","experiment","HHHHH","2","even","19447","NA","NA","2350","NA","NA","78171","2346","NA","86265","85211","86366","86841","NA","86262","86366","Lab 2.1","39","18110","42","yes","1024"
"93.02325581395348","93.02325581395348","432.25581395348837","432.25581395348837","black","legacy","legacy","legacy","0","incongruent","uniform","1","undefined","1","h","0","0","0","0","0","0","42","0","42","42","42","42","42","0","42","42","Fri Sep 23 19:16:42 2022","1500","The main experiment item","yes","lab_2.1.osexp","C:\Users\joey.knofczynski\Downloads","no","mono","no","18","no","white","no","yes","768","legacy","42","42","C:/Users/joey.knofczynski/Downloads/subject-2.csv","legacy","Lentiform Loewenfeld","3.3.12","yes","0","h","s","NA","NA","h","NA","477","17095","NA","NA","477","NA","2","legacy","1024","2","48000","-16","experiment","SSHSS","2","even","19447","NA","NA","2350","NA","NA","78171","2346","NA","87900","86845","88002","88480","NA","87897","88001","Lab 2.1","40","18587","43","yes","1024"
"93.18181818181819","93.18181818181819","433.27272727272725","433.27272727272725","black","legacy","legacy","legacy","0","congruent","uniform","1","undefined","1","s","0","0","0","0","0","0","43","0","43","43","43","43","43","0","43","43","Fri Sep 23 19:16:42 2022","1500","The main experiment item","yes","lab_2.1.osexp","C:\Users\joey.knofczynski\Downloads","no","mono","no","18","no","white","no","yes","768","legacy","43","43","C:/Users/joey.knofczynski/Downloads/subject-2.csv","legacy","Lentiform Loewenfeld","3.3.12","yes","0","s","s","NA","NA","s","NA","477","17095","NA","NA","477","NA","2","legacy","1024","2","48000","-16","experiment","SSSSS","2","even","19447","NA","NA","2350","NA","NA","78171","2346","NA","89538","88484","89640","90118","NA","89535","89640","Lab 2.1","41","19064","44","yes","1024"
"93.33333333333333","93.33333333333333","433.1333333333333","433.1333333333333","black","legacy","legacy","legacy","0","incongruent","uniform","1","undefined","1","s","0","0","0","0","0","0","44","0","44","44","44","44","44","0","44","44","Fri Sep 23 19:16:42 2022","1500","The main experiment item","yes","lab_2.1.osexp","C:\Users\joey.knofczynski\Downloads","no","mono","no","18","no","white","no","yes","768","legacy","44","44","C:/Users/joey.knofczynski/Downloads/subject-2.csv","legacy","Lentiform Loewenfeld","3.3.12","yes","0","s","s","NA","NA","s","NA","427","17095","NA","NA","427","NA","2","legacy","1024","2","48000","-16","experiment","HHSHH","2","even","19447","NA","NA","2350","NA","NA","78171","2346","NA","91174","90122","91276","91704","NA","91171","91276","Lab 2.1","42","19491","45","yes","1024"
"93.47826086956522","93.47826086956522","433.4130434782609","433.4130434782609","black","legacy","legacy","legacy","0","congruent","uniform","1","undefined","1","s","0","0","0","0","0","0","45","0","45","45","45","45","45","0","45","45","Fri Sep 23 19:16:42 2022","1500","The main experiment item","yes","lab_2.1.osexp","C:\Users\joey.knofczynski\Downloads","no","mono","no","18","no","white","no","yes","768","legacy","45","45","C:/Users/joey.knofczynski/Downloads/subject-2.csv","legacy","Lentiform Loewenfeld","3.3.12","yes","0","s","s","NA","NA","s","NA","446","17095","NA","NA","446","NA","2","legacy","1024","2","48000","-16","experiment","SSSSS","2","even","19447","NA","NA","2350","NA","NA","78171","2346","NA","92762","91708","92863","93310","NA","92758","92863","Lab 2.1","43","19937","46","yes","1024"
"93.61702127659575","93.61702127659575","433.78723404255317","433.78723404255317","black","legacy","legacy","legacy","0","congruent","uniform","1","undefined","1","s","0","0","0","0","0","0","46","0","46","46","46","46","46","0","46","46","Fri Sep 23 19:16:42 2022","1500","The main experiment item","yes","lab_2.1.osexp","C:\Users\joey.knofczynski\Downloads","no","mono","no","18","no","white","no","yes","768","legacy","46","46","C:/Users/joey.knofczynski/Downloads/subject-2.csv","legacy","Lentiform Loewenfeld","3.3.12","yes","0","s","s","NA","NA","s","NA","451","17095","NA","NA","451","NA","2","legacy","1024","2","48000","-16","experiment","SSSSS","2","even","19447","NA","NA","2350","NA","NA","78171","2346","NA","94370","93314","94471","94923","NA","94367","94471","Lab 2.1","44","20388","47","yes","1024"
"93.75","93.75","435.5625","435.5625","black","legacy","legacy","legacy","0","incongruent","uniform","1","undefined","1","s","0","0","0","0","0","0","47","0","47","47","47","47","47","0","47","47","Fri Sep 23 19:16:42 2022","1500","The main experiment item","yes","lab_2.1.osexp","C:\Users\joey.knofczynski\Downloads","no","mono","no","18","no","white","no","yes","768","legacy","47","47","C:/Users/joey.knofczynski/Downloads/subject-2.csv","legacy","Lentiform Loewenfeld","3.3.12","yes","0","s","s","NA","NA","s","NA","519","17095","NA","NA","519","NA","2","legacy","1024","2","48000","-16","experiment","HHSHH","2","even","19447","NA","NA","2350","NA","NA","78171","2346","NA","95980","94927","96082","96602","NA","95977","96082","Lab 2.1","45","20907","48","yes","1024"
"93.87755102040816","93.87755102040816","436.42857142857144","436.42857142857144","black","legacy","legacy","legacy","0","congruent","uniform","1","undefined","1","h","0","0","0","0","0","0","48","0","48","48","48","48","48","0","48","48","Fri Sep 23 19:16:42 2022","1500","The main experiment item","yes","lab_2.1.osexp","C:\Users\joey.knofczynski\Downloads","no","mono","no","18","no","white","no","yes","768","legacy","48","48","C:/Users/joey.knofczynski/Downloads/subject-2.csv","legacy","Lentiform Loewenfeld","3.3.12","yes","0","h","s","NA","NA","h","NA","478","17095","NA","NA","478","NA","2","legacy","1024","2","48000","-16","experiment","HHHHH","2","even","19447","NA","NA","2350","NA","NA","78171","2346","NA","97660","96606","97762","98241","NA","97657","97762","Lab 2.1","46","21385","49","yes","1024"
"94","94","437.64","437.64","black","legacy","legacy","legacy","0","congruent","uniform","1","undefined","1","s","0","0","0","0","0","0","49","0","49","49","49","49","49","0","49","49","Fri Sep 23 19:16:42 2022","1500","The main experiment item","yes","lab_2.1.osexp","C:\Users\joey.knofczynski\Downloads","no","mono","no","18","no","white","no","yes","768","legacy","49","49","C:/Users/joey.knofczynski/Downloads/subject-2.csv","legacy","Lentiform Loewenfeld","3.3.12","yes","0","s","s","NA","NA","s","NA","497","17095","NA","NA","497","NA","2","legacy","1024","2","48000","-16","experiment","SSSSS","2","even","19447","NA","NA","2350","NA","NA","78171","2346","NA","99297","98245","99398","99896","NA","99294","99398","Lab 2.1","47","21882","50","yes","1024"
"94.11764705882354","94.11764705882354","439.03921568627453","439.03921568627453","black","legacy","legacy","legacy","0","incongruent","uniform","1","undefined","1","s","0","0","0","0","0","0","50","0","50","50","50","50","50","0","50","50","Fri Sep 23 19:16:42 2022","1500","The main experiment item","yes","lab_2.1.osexp","C:\Users\joey.knofczynski\Downloads","no","mono","no","18","no","white","no","yes","768","legacy","50","50","C:/Users/joey.knofczynski/Downloads/subject-2.csv","legacy","Lentiform Loewenfeld","3.3.12","yes","0","s","s","NA","NA","s","NA","509","17095","NA","NA","509","NA","2","legacy","1024","2","48000","-16","experiment","HHSHH","2","even","19447","NA","NA","2350","NA","NA","78171","2346","NA","100962","99900","101068","101577","NA","100959","101067","Lab 2.1","48","22391","51","yes","1024"
"94.23076923076923","94.23076923076923","438.5","438.5","black","legacy","legacy","legacy","0","congruent","uniform","1","undefined","1","h","0","0","0","0","0","0","51","0","51","51","51","51","51","0","51","51","Fri Sep 23 19:16:42 2022","1500","The main experiment item","yes","lab_2.1.osexp","C:\Users\joey.knofczynski\Downloads","no","mono","no","18","no","white","no","yes","768","legacy","51","51","C:/Users/joey.knofczynski/Downloads/subject-2.csv","legacy","Lentiform Loewenfeld","3.3.12","yes","0","h","s","NA","NA","h","NA","411","17095","NA","NA","411","NA","2","legacy","1024","2","48000","-16","experiment","HHHHH","2","even","19447","NA","NA","2350","NA","NA","78171","2346","NA","102636","101581","102738","103150","NA","102634","102738","Lab 2.1","49","22802","52","yes","1024"
"94.33962264150944","94.33962264150944","438.7169811320755","438.7169811320755","black","legacy","legacy","legacy","0","incongruent","uniform","1","undefined","1","s","0","0","0","0","0","0","52","0","52","52","52","52","52","0","52","52","Fri Sep 23 19:16:42 2022","1500","The main experiment item","yes","lab_2.1.osexp","C:\Users\joey.knofczynski\Downloads","no","mono","no","18","no","white","no","yes","768","legacy","52","52","C:/Users/joey.knofczynski/Downloads/subject-2.csv","legacy","Lentiform Loewenfeld","3.3.12","yes","0","s","s","NA","NA","s","NA","450","17095","NA","NA","450","NA","2","legacy","1024","2","48000","-16","experiment","HHSHH","2","even","19447","NA","NA","2350","NA","NA","78171","2346","NA","104209","103154","104311","104761","NA","104206","104311","Lab 2.1","50","23252","53","yes","1024"
"94.44444444444444","94.44444444444444","439.81481481481484","439.81481481481484","black","legacy","legacy","legacy","0","incongruent","uniform","1","undefined","1","h","0","0","0","0","0","0","53","0","53","53","53","53","53","0","53","53","Fri Sep 23 19:16:42 2022","1500","The main experiment item","yes","lab_2.1.osexp","C:\Users\joey.knofczynski\Downloads","no","mono","no","18","no","white","no","yes","768","legacy","53","53","C:/Users/joey.knofczynski/Downloads/subject-2.csv","legacy","Lentiform Loewenfeld","3.3.12","yes","0","h","s","NA","NA","h","NA","498","17095","NA","NA","498","NA","2","legacy","1024","2","48000","-16","experiment","SSHSS","2","even","19447","NA","NA","2350","NA","NA","78171","2346","NA","105820","104766","105922","106420","NA","105817","105922","Lab 2.1","51","23750","54","yes","1024"
"94.54545454545455","94.54545454545455","439.1272727272727","439.1272727272727","black","legacy","legacy","legacy","0","incongruent","uniform","1","undefined","1","h","0","0","0","0","0","0","54","0","54","54","54","54","54","0","54","54","Fri Sep 23 19:16:42 2022","1500","The main experiment item","yes","lab_2.1.osexp","C:\Users\joey.knofczynski\Downloads","no","mono","no","18","no","white","no","yes","768","legacy","54","54","C:/Users/joey.knofczynski/Downloads/subject-2.csv","legacy","Lentiform Loewenfeld","3.3.12","yes","0","h","s","NA","NA","h","NA","402","17095","NA","NA","402","NA","2","legacy","1024","2","48000","-16","experiment","SSHSS","2","even","19447","NA","NA","2350","NA","NA","78171","2346","NA","107480","106425","107582","107985","NA","107477","107582","Lab 2.1","52","24152","55","yes","1024"
"94.64285714285714","94.64285714285714","438.75","438.75","black","legacy","legacy","legacy","0","congruent","uniform","1","undefined","1","h","0","0","0","0","0","0","55","0","55","55","55","55","55","0","55","55","Fri Sep 23 19:16:42 2022","1500","The main experiment item","yes","lab_2.1.osexp","C:\Users\joey.knofczynski\Downloads","no","mono","no","18","no","white","no","yes","768","legacy","55","55","C:/Users/joey.knofczynski/Downloads/subject-2.csv","legacy","Lentiform Loewenfeld","3.3.12","yes","0","h","s","NA","NA","h","NA","418","17095","NA","NA","418","NA","2","legacy","1024","2","48000","-16","experiment","HHHHH","2","even","19447","NA","NA","2350","NA","NA","78171","2346","NA","109047","107989","109149","109568","NA","109042","109149","Lab 2.1","53","24570","56","yes","1024"
"92.98245614035088","92.98245614035088","438","438","black","legacy","legacy","legacy","0","incongruent","uniform","0","undefined","0","h","0","0","0","0","0","0","56","0","56","56","56","56","56","0","56","56","Fri Sep 23 19:16:42 2022","1500","The main experiment item","yes","lab_2.1.osexp","C:\Users\joey.knofczynski\Downloads","no","mono","no","18","no","white","no","yes","768","legacy","56","56","C:/Users/joey.knofczynski/Downloads/subject-2.csv","legacy","Lentiform Loewenfeld","3.3.12","yes","0","s","s","NA","NA","s","NA","396","17095","NA","NA","396","NA","2","legacy","1024","2","48000","-16","experiment","SSHSS","2","even","19447","NA","NA","2350","NA","NA","78171","2346","NA","110627","109573","110729","111125","NA","110623","110729","Lab 2.1","53","24966","57","yes","1024"
"93.10344827586206","93.10344827586206","438.8103448275862","438.8103448275862","black","legacy","legacy","legacy","0","incongruent","uniform","1","undefined","1","h","0","0","0","0","0","0","57","0","57","57","57","57","57","0","57","57","Fri Sep 23 19:16:42 2022","1500","The main experiment item","yes","lab_2.1.osexp","C:\Users\joey.knofczynski\Downloads","no","mono","no","18","no","white","no","yes","768","legacy","57","57","C:/Users/joey.knofczynski/Downloads/subject-2.csv","legacy","Lentiform Loewenfeld","3.3.12","yes","0","h","s","NA","NA","h","NA","485","17095","NA","NA","485","NA","2","legacy","1024","2","48000","-16","experiment","SSHSS","2","even","19447","NA","NA","2350","NA","NA","111130","2346","NA","112684","111631","112786","113272","NA","112681","112786","Lab 2.1","54","25451","58","yes","1024"
"93.22033898305085","93.22033898305085","439.1186440677966","439.1186440677966","black","legacy","legacy","legacy","0","congruent","uniform","1","undefined","1","h","0","0","0","0","0","0","58","0","58","58","58","58","58","0","58","58","Fri Sep 23 19:16:42 2022","1500","The main experiment item","yes","lab_2.1.osexp","C:\Users\joey.knofczynski\Downloads","no","mono","no","18","no","white","no","yes","768","legacy","58","58","C:/Users/joey.knofczynski/Downloads/subject-2.csv","legacy","Lentiform Loewenfeld","3.3.12","yes","0","h","s","NA","NA","h","NA","457","17095","NA","NA","457","NA","2","legacy","1024","2","48000","-16","experiment","HHHHH","2","even","19447","NA","NA","2350","NA","NA","111130","2346","NA","114329","113276","114430","114887","NA","114327","114430","Lab 2.1","55","25908","59","yes","1024"
"93.33333333333333","93.33333333333333","438.65","438.65","black","legacy","legacy","legacy","0","congruent","uniform","1","undefined","1","h","0","0","0","0","0","0","59","0","59","59","59","59","59","0","59","59","Fri Sep 23 19:16:42 2022","1500","The main experiment item","yes","lab_2.1.osexp","C:\Users\joey.knofczynski\Downloads","no","mono","no","18","no","white","no","yes","768","legacy","59","59","C:/Users/joey.knofczynski/Downloads/subject-2.csv","legacy","Lentiform Loewenfeld","3.3.12","yes","0","h","s","NA","NA","h","NA","411","17095","NA","NA","411","NA","2","legacy","1024","2","48000","-16","experiment","HHHHH","2","even","19447","NA","NA","2350","NA","NA","111130","2346","NA","115956","114892","116058","116470","NA","115953","116058","Lab 2.1","56","26319","60","yes","1024"
"93.44262295081967","93.44262295081967","438.1967213114754","438.1967213114754","black","legacy","legacy","legacy","0","incongruent","uniform","1","undefined","1","h","0","0","0","0","0","0","60","0","60","60","60","60","60","0","60","60","Fri Sep 23 19:16:42 2022","1500","The main experiment item","yes","lab_2.1.osexp","C:\Users\joey.knofczynski\Downloads","no","mono","no","18","no","white","no","yes","768","legacy","60","60","C:/Users/joey.knofczynski/Downloads/subject-2.csv","legacy","Lentiform Loewenfeld","3.3.12","yes","0","h","s","NA","NA","h","NA","411","17095","NA","NA","411","NA","2","legacy","1024","2","48000","-16","experiment","SSHSS","2","even","19447","NA","NA","2350","NA","NA","111130","2346","NA","117534","116473","117636","118048","NA","117531","117636","Lab 2.1","57","26730","61","yes","1024"
"93.54838709677419","93.54838709677419","437.98387096774195","437.98387096774195","black","legacy","legacy","legacy","0","incongruent","uniform","1","undefined","1","h","0","0","0","0","0","0","61","0","61","61","61","61","61","0","61","61","Fri Sep 23 19:16:42 2022","1500","The main experiment item","yes","lab_2.1.osexp","C:\Users\joey.knofczynski\Downloads","no","mono","no","18","no","white","no","yes","768","legacy","61","61","C:/Users/joey.knofczynski/Downloads/subject-2.csv","legacy","Lentiform Loewenfeld","3.3.12","yes","0","h","s","NA","NA","h","NA","425","17095","NA","NA","425","NA","2","legacy","1024","2","48000","-16","experiment","SSHSS","2","even","19447","NA","NA","2350","NA","NA","111130","2346","NA","119109","118052","119211","119636","NA","119106","119211","Lab 2.1","58","27155","62","yes","1024"
"93.65079365079364","93.65079365079364","437.26984126984127","437.26984126984127","black","legacy","legacy","legacy","0","congruent","uniform","1","undefined","1","h","0","0","0","0","0","0","62","0","62","62","62","62","62","0","62","62","Fri Sep 23 19:16:42 2022","1500","The main experiment item","yes","lab_2.1.osexp","C:\Users\joey.knofczynski\Downloads","no","mono","no","18","no","white","no","yes","768","legacy","62","62","C:/Users/joey.knofczynski/Downloads/subject-2.csv","legacy","Lentiform Loewenfeld","3.3.12","yes","0","h","s","NA","NA","h","NA","393","17095","NA","NA","393","NA","2","legacy","1024","2","48000","-16","experiment","HHHHH","2","even","19447","NA","NA","2350","NA","NA","111130","2346","NA","120697","119641","120799","121193","NA","120693","120799","Lab 2.1","59","27548","63","yes","1024"
"93.75","93.75","436.515625","436.515625","black","legacy","legacy","legacy","0","congruent","uniform","1","undefined","1","h","0","0","0","0","0","0","63","0","63","63","63","63","63","0","63","63","Fri Sep 23 19:16:42 2022","1500","The main experiment item","yes","lab_2.1.osexp","C:\Users\joey.knofczynski\Downloads","no","mono","no","18","no","white","no","yes","768","legacy","63","63","C:/Users/joey.knofczynski/Downloads/subject-2.csv","legacy","Lentiform Loewenfeld","3.3.12","yes","0","h","s","NA","NA","h","NA","389","17095","NA","NA","389","NA","2","legacy","1024","2","48000","-16","experiment","HHHHH","2","even","19447","NA","NA","2350","NA","NA","111130","2346","NA","122254","121198","122355","122745","NA","122249","122355","Lab 2.1","60","27937","64","yes","1024"
"93.84615384615384","93.84615384615384","435.5230769230769","435.5230769230769","black","legacy","legacy","legacy","0","congruent","uniform","1","undefined","1","h","0","0","0","0","0","0","64","0","64","64","64","64","64","0","64","64","Fri Sep 23 19:16:42 2022","1500","The main experiment item","yes","lab_2.1.osexp","C:\Users\joey.knofczynski\Downloads","no","mono","no","18","no","white","no","yes","768","legacy","64","64","C:/Users/joey.knofczynski/Downloads/subject-2.csv","legacy","Lentiform Loewenfeld","3.3.12","yes","0","h","s","NA","NA","h","NA","372","17095","NA","NA","372","NA","2","legacy","1024","2","48000","-16","experiment","HHHHH","2","even","19447","NA","NA","2350","NA","NA","111130","2346","NA","123809","122749","123911","124284","NA","123805","123911","Lab 2.1","61","28309","65","yes","1024"
"93.93939393939394","93.93939393939394","435.8181818181818","435.8181818181818","black","legacy","legacy","legacy","0","congruent","uniform","1","undefined","1","s","0","0","0","0","0","0","65","0","65","65","65","65","65","0","65","65","Fri Sep 23 19:16:42 2022","1500","The main experiment item","yes","lab_2.1.osexp","C:\Users\joey.knofczynski\Downloads","no","mono","no","18","no","white","no","yes","768","legacy","65","65","C:/Users/joey.knofczynski/Downloads/subject-2.csv","legacy","Lentiform Loewenfeld","3.3.12","yes","0","s","s","NA","NA","s","NA","455","17095","NA","NA","455","NA","2","legacy","1024","2","48000","-16","experiment","SSSSS","2","even","19447","NA","NA","2350","NA","NA","111130","2346","NA","125343","124288","125444","125900","NA","125339","125444","Lab 2.1","62","28764","66","yes","1024"
"94.02985074626865","94.02985074626865","435.14925373134326","435.14925373134326","black","legacy","legacy","legacy","0","congruent","uniform","1","undefined","1","s","0","0","0","0","0","0","66","0","66","66","66","66","66","0","66","66","Fri Sep 23 19:16:42 2022","1500","The main experiment item","yes","lab_2.1.osexp","C:\Users\joey.knofczynski\Downloads","no","mono","no","18","no","white","no","yes","768","legacy","66","66","C:/Users/joey.knofczynski/Downloads/subject-2.csv","legacy","Lentiform Loewenfeld","3.3.12","yes","0","s","s","NA","NA","s","NA","391","17095","NA","NA","391","NA","2","legacy","1024","2","48000","-16","experiment","SSSSS","2","even","19447","NA","NA","2350","NA","NA","111130","2346","NA","126957","125905","127059","127450","NA","126954","127059","Lab 2.1","63","29155","67","yes","1024"
"94.11764705882354","94.11764705882354","435.1617647058824","435.1617647058824","black","legacy","legacy","legacy","0","congruent","uniform","1","undefined","1","s","0","0","0","0","0","0","67","0","67","67","67","67","67","0","67","67","Fri Sep 23 19:16:42 2022","1500","The main experiment item","yes","lab_2.1.osexp","C:\Users\joey.knofczynski\Downloads","no","mono","no","18","no","white","no","yes","768","legacy","67","67","C:/Users/joey.knofczynski/Downloads/subject-2.csv","legacy","Lentiform Loewenfeld","3.3.12","yes","0","s","s","NA","NA","s","NA","436","17095","NA","NA","436","NA","2","legacy","1024","2","48000","-16","experiment","SSSSS","2","even","19447","NA","NA","2350","NA","NA","111130","2346","NA","128513","127455","128615","129052","NA","128509","128615","Lab 2.1","64","29591","68","yes","1024"
"94.20289855072464","94.20289855072464","435.3188405797101","435.3188405797101","black","legacy","legacy","legacy","0","incongruent","uniform","1","undefined","1","h","0","0","0","0","0","0","68","0","68","68","68","68","68","0","68","68","Fri Sep 23 19:16:42 2022","1500","The main experiment item","yes","lab_2.1.osexp","C:\Users\joey.knofczynski\Downloads","no","mono","no","18","no","white","no","yes","768","legacy","68","68","C:/Users/joey.knofczynski/Downloads/subject-2.csv","legacy","Lentiform Loewenfeld","3.3.12","yes","0","h","s","NA","NA","h","NA","446","17095","NA","NA","446","NA","2","legacy","1024","2","48000","-16","experiment","SSHSS","2","even","19447","NA","NA","2350","NA","NA","111130","2346","NA","130112","129057","130214","130660","NA","130109","130214","Lab 2.1","65","30037","69","yes","1024"
"94.28571428571429","94.28571428571429","434.3142857142857","434.3142857142857","black","legacy","legacy","legacy","0","incongruent","uniform","1","undefined","1","h","0","0","0","0","0","0","69","0","69","69","69","69","69","0","69","69","Fri Sep 23 19:16:42 2022","1500","The main experiment item","yes","lab_2.1.osexp","C:\Users\joey.knofczynski\Downloads","no","mono","no","18","no","white","no","yes","768","legacy","69","69","C:/Users/joey.knofczynski/Downloads/subject-2.csv","legacy","Lentiform Loewenfeld","3.3.12","yes","0","h","s","NA","NA","h","NA","365","17095","NA","NA","365","NA","2","legacy","1024","2","48000","-16","experiment","SSHSS","2","even","19447","NA","NA","2350","NA","NA","111130","2346","NA","131719","130665","131821","132186","NA","131716","131821","Lab 2.1","66","30402","70","yes","1024"
"94.36619718309859","94.36619718309859","433.6478873239437","433.6478873239437","black","legacy","legacy","legacy","0","congruent","uniform","1","undefined","1","h","0","0","0","0","0","0","70","0","70","70","70","70","70","0","70","70","Fri Sep 23 19:16:42 2022","1500","The main experiment item","yes","lab_2.1.osexp","C:\Users\joey.knofczynski\Downloads","no","mono","no","18","no","white","no","yes","768","legacy","70","70","C:/Users/joey.knofczynski/Downloads/subject-2.csv","legacy","Lentiform Loewenfeld","3.3.12","yes","0","h","s","NA","NA","h","NA","387","17095","NA","NA","387","NA","2","legacy","1024","2","48000","-16","experiment","HHHHH","2","even","19447","NA","NA","2350","NA","NA","111130","2346","NA","133246","132191","133347","133735","NA","133243","133347","Lab 2.1","67","30789","71","yes","1024"
"94.44444444444444","94.44444444444444","433.1388888888889","433.1388888888889","black","legacy","legacy","legacy","0","incongruent","uniform","1","undefined","1","h","0","0","0","0","0","0","71","0","71","71","71","71","71","0","71","71","Fri Sep 23 19:16:42 2022","1500","The main experiment item","yes","lab_2.1.osexp","C:\Users\joey.knofczynski\Downloads","no","mono","no","18","no","white","no","yes","768","legacy","71","71","C:/Users/joey.knofczynski/Downloads/subject-2.csv","legacy","Lentiform Loewenfeld","3.3.12","yes","0","h","s","NA","NA","h","NA","397","17095","NA","NA","397","NA","2","legacy","1024","2","48000","-16","experiment","SSHSS","2","even","19447","NA","NA","2350","NA","NA","111130","2346","NA","134798","133739","134900","135298","NA","134795","134900","Lab 2.1","68","31186","72","yes","1024"
"93.15068493150685","93.15068493150685","431.8767123287671","431.8767123287671","black","legacy","legacy","legacy","0","incongruent","uniform","0","undefined","0","s","0","0","0","0","0","0","72","0","72","72","72","72","72","0","72","72","Fri Sep 23 19:16:42 2022","1500","The main experiment item","yes","lab_2.1.osexp","C:\Users\joey.knofczynski\Downloads","no","mono","no","18","no","white","no","yes","768","legacy","72","72","C:/Users/joey.knofczynski/Downloads/subject-2.csv","legacy","Lentiform Loewenfeld","3.3.12","yes","0","h","s","NA","NA","h","NA","341","17095","NA","NA","341","NA","2","legacy","1024","2","48000","-16","experiment","HHSHH","2","even","19447","NA","NA","2350","NA","NA","111130","2346","NA","136359","135302","136461","136803","NA","136356","136461","Lab 2.1","68","31527","73","yes","1024"
"93.24324324324324","93.24324324324324","431.5405405405405","431.5405405405405","black","legacy","legacy","legacy","0","congruent","uniform","1","undefined","1","h","0","0","0","0","0","0","73","0","73","73","73","73","73","0","73","73","Fri Sep 23 19:16:42 2022","1500","The main experiment item","yes","lab_2.1.osexp","C:\Users\joey.knofczynski\Downloads","no","mono","no","18","no","white","no","yes","768","legacy","73","73","C:/Users/joey.knofczynski/Downloads/subject-2.csv","legacy","Lentiform Loewenfeld","3.3.12","yes","0","h","s","NA","NA","h","NA","407","17095","NA","NA","407","NA","2","legacy","1024","2","48000","-16","experiment","HHHHH","2","even","19447","NA","NA","2350","NA","NA","136807","2346","NA","138360","137308","138462","138870","NA","138357","138462","Lab 2.1","69","31934","74","yes","1024"
"93.33333333333333","93.33333333333333","431.7866666666667","431.7866666666667","black","legacy","legacy","legacy","0","incongruent","uniform","1","undefined","1","h","0","0","0","0","0","0","74","0","74","74","74","74","74","0","74","74","Fri Sep 23 19:16:42 2022","1500","The main experiment item","yes","lab_2.1.osexp","C:\Users\joey.knofczynski\Downloads","no","mono","no","18","no","white","no","yes","768","legacy","74","74","C:/Users/joey.knofczynski/Downloads/subject-2.csv","legacy","Lentiform Loewenfeld","3.3.12","yes","0","h","s","NA","NA","h","NA","450","17095","NA","NA","450","NA","2","legacy","1024","2","48000","-16","experiment","SSHSS","2","even","19447","NA","NA","2350","NA","NA","136807","2346","NA","139930","138874","140032","140483","NA","139927","140032","Lab 2.1","70","32384","75","yes","1024"
"93.42105263157895","93.42105263157895","431.2631578947368","431.2631578947368","black","legacy","legacy","legacy","0","congruent","uniform","1","undefined","1","s","0","0","0","0","0","0","75","0","75","75","75","75","75","0","75","75","Fri Sep 23 19:16:42 2022","1500","The main experiment item","yes","lab_2.1.osexp","C:\Users\joey.knofczynski\Downloads","no","mono","no","18","no","white","no","yes","768","legacy","75","75","C:/Users/joey.knofczynski/Downloads/subject-2.csv","legacy","Lentiform Loewenfeld","3.3.12","yes","0","s","s","NA","NA","s","NA","392","17095","NA","NA","392","NA","2","legacy","1024","2","48000","-16","experiment","SSSSS","2","even","19447","NA","NA","2350","NA","NA","136807","2346","NA","141548","140488","141650","142043","NA","141543","141650","Lab 2.1","71","32776","76","yes","1024"
"93.50649350649351","93.50649350649351","430.2077922077922","430.2077922077922","black","legacy","legacy","legacy","0","congruent","uniform","1","undefined","1","h","0","0","0","0","0","0","76","0","76","76","76","76","76","0","76","76","Fri Sep 23 19:16:42 2022","1500","The main experiment item","yes","lab_2.1.osexp","C:\Users\joey.knofczynski\Downloads","no","mono","no","18","no","white","no","yes","768","legacy","76","76","C:/Users/joey.knofczynski/Downloads/subject-2.csv","legacy","Lentiform Loewenfeld","3.3.12","yes","0","h","s","NA","NA","h","NA","350","17095","NA","NA","350","NA","2","legacy","1024","2","48000","-16","experiment","HHHHH","2","even","19447","NA","NA","2350","NA","NA","136807","2346","NA","143102","142048","143204","143555","NA","143099","143204","Lab 2.1","72","33126","77","yes","1024"
"93.58974358974359","93.58974358974359","429.6923076923077","429.6923076923077","black","legacy","legacy","legacy","0","congruent","uniform","1","undefined","1","s","0","0","0","0","0","0","77","0","77","77","77","77","77","0","77","77","Fri Sep 23 19:16:42 2022","1500","The main experiment item","yes","lab_2.1.osexp","C:\Users\joey.knofczynski\Downloads","no","mono","no","18","no","white","no","yes","768","legacy","77","77","C:/Users/joey.knofczynski/Downloads/subject-2.csv","legacy","Lentiform Loewenfeld","3.3.12","yes","0","s","s","NA","NA","s","NA","390","17095","NA","NA","390","NA","2","legacy","1024","2","48000","-16","experiment","SSSSS","2","even","19447","NA","NA","2350","NA","NA","136807","2346","NA","144614","143560","144716","145107","NA","144611","144716","Lab 2.1","73","33516","78","yes","1024"
"93.67088607594937","93.67088607594937","429.24050632911394","429.24050632911394","black","legacy","legacy","legacy","0","congruent","uniform","1","undefined","1","s","0","0","0","0","0","0","78","0","78","78","78","78","78","0","78","78","Fri Sep 23 19:16:42 2022","1500","The main experiment item","yes","lab_2.1.osexp","C:\Users\joey.knofczynski\Downloads","no","mono","no","18","no","white","no","yes","768","legacy","78","78","C:/Users/joey.knofczynski/Downloads/subject-2.csv","legacy","Lentiform Loewenfeld","3.3.12","yes","0","s","s","NA","NA","s","NA","394","17095","NA","NA","394","NA","2","legacy","1024","2","48000","-16","experiment","SSSSS","2","even","19447","NA","NA","2350","NA","NA","136807","2346","NA","146170","145111","146272","146667","NA","146166","146272","Lab 2.1","74","33910","79","yes","1024"
"93.75","93.75","429.025","429.025","black","legacy","legacy","legacy","0","congruent","uniform","1","undefined","1","s","0","0","0","0","0","0","79","0","79","79","79","79","79","0","79","79","Fri Sep 23 19:16:42 2022","1500","The main experiment item","yes","lab_2.1.osexp","C:\Users\joey.knofczynski\Downloads","no","mono","no","18","no","white","no","yes","768","legacy","79","79","C:/Users/joey.knofczynski/Downloads/subject-2.csv","legacy","Lentiform Loewenfeld","3.3.12","yes","0","s","s","NA","NA","s","NA","412","17095","NA","NA","412","NA","2","legacy","1024","2","48000","-16","experiment","SSSSS","2","even","19447","NA","NA","2350","NA","NA","136807","2346","NA","147726","146671","147827","148239","NA","147724","147827","Lab 2.1","75","34322","80","yes","1024"
"93.82716049382717","93.82716049382717","430.037037037037","430.037037037037","black","legacy","legacy","legacy","0","congruent","uniform","1","undefined","1","s","0","0","0","0","0","0","80","0","80","80","80","80","80","0","80","80","Fri Sep 23 19:16:42 2022","600","The main experiment item","yes","lab_2.1.osexp","C:\Users\joey.knofczynski\Downloads","no","mono","no","18","no","white","no","yes","768","legacy","0","79","C:/Users/joey.knofczynski/Downloads/subject-2.csv","legacy","Lentiform Loewenfeld","3.3.12","yes","0","s","s","s","NA","s","NA","511","17095","3195","NA","511","NA","2","legacy","1024","2","48000","-16","experiment","SSSSS","2","even","19447","152457","NA","2350","149261","NA","136807","2346","NA","152498","148244","152600","153112","NA","152495","152600","Lab 2.1","76","34833","81","yes","1024"
"93.90243902439025","93.90243902439025","430.6463414634146","430.6463414634146","black","legacy","legacy","legacy","0","incongruent","uniform","1","undefined","1","h","0","0","0","0","0","0","81","0","81","81","81","81","81","0","81","81","Fri Sep 23 19:16:42 2022","600","The main experiment item","yes","lab_2.1.osexp","C:\Users\joey.knofczynski\Downloads","no","mono","no","18","no","white","no","yes","768","legacy","1","79","C:/Users/joey.knofczynski/Downloads/subject-2.csv","legacy","Lentiform Loewenfeld","3.3.12","yes","0","h","s","s","NA","h","NA","480","17095","3195","NA","480","NA","2","legacy","1024","2","48000","-16","experiment","SSHSS","2","even","19447","152457","NA","2350","149261","NA","136807","2346","NA","154171","153116","154272","154753","NA","154168","154272","Lab 2.1","77","35313","82","yes","1024"
"93.97590361445783","93.97590361445783","430.6144578313253","430.6144578313253","black","legacy","legacy","legacy","0","incongruent","uniform","1","undefined","1","s","0","0","0","0","0","0","82","0","82","82","82","82","82","0","82","82","Fri Sep 23 19:16:42 2022","600","The main experiment item","yes","lab_2.1.osexp","C:\Users\joey.knofczynski\Downloads","no","mono","no","18","no","white","no","yes","768","legacy","2","79","C:/Users/joey.knofczynski/Downloads/subject-2.csv","legacy","Lentiform Loewenfeld","3.3.12","yes","0","s","s","s","NA","s","NA","428","17095","3195","NA","428","NA","2","legacy","1024","2","48000","-16","experiment","HHSHH","2","even","19447","152457","NA","2350","149261","NA","136807","2346","NA","155811","154757","155913","156342","NA","155808","155912","Lab 2.1","78","35741","83","yes","1024"
"94.04761904761905","94.04761904761905","429.85714285714283","429.85714285714283","black","legacy","legacy","legacy","0","congruent","uniform","1","undefined","1","h","0","0","0","0","0","0","83","0","83","83","83","83","83","0","83","83","Fri Sep 23 19:16:42 2022","600","The main experiment item","yes","lab_2.1.osexp","C:\Users\joey.knofczynski\Downloads","no","mono","no","18","no","white","no","yes","768","legacy","3","79","C:/Users/joey.knofczynski/Downloads/subject-2.csv","legacy","Lentiform Loewenfeld","3.3.12","yes","0","h","s","s","NA","h","NA","367","17095","3195","NA","367","NA","2","legacy","1024","2","48000","-16","experiment","HHHHH","2","even","19447","152457","NA","2350","149261","NA","136807","2346","NA","157407","156346","157509","157877","NA","157404","157509","Lab 2.1","79","36108","84","yes","1024"
"94.11764705882354","94.11764705882354","428.6941176470588","428.6941176470588","black","legacy","legacy","legacy","0","incongruent","uniform","1","undefined","1","s","0","0","0","0","0","0","84","0","84","84","84","84","84","0","84","84","Fri Sep 23 19:16:42 2022","600","The main experiment item","yes","lab_2.1.osexp","C:\Users\joey.knofczynski\Downloads","no","mono","no","18","no","white","no","yes","768","legacy","4","79","C:/Users/joey.knofczynski/Downloads/subject-2.csv","legacy","Lentiform Loewenfeld","3.3.12","yes","0","s","s","s","NA","s","NA","331","17095","3195","NA","331","NA","2","legacy","1024","2","48000","-16","experiment","HHSHH","2","even","19447","152457","NA","2350","149261","NA","136807","2346","NA","158937","157881","159039","159371","NA","158934","159039","Lab 2.1","80","36439","85","yes","1024"
"94.18604651162791","94.18604651162791","427.5581395348837","427.5581395348837","black","legacy","legacy","legacy","0","congruent","uniform","1","undefined","1","h","0","0","0","0","0","0","85","0","85","85","85","85","85","0","85","85","Fri Sep 23 19:16:42 2022","600","The main experiment item","yes","lab_2.1.osexp","C:\Users\joey.knofczynski\Downloads","no","mono","no","18","no","white","no","yes","768","legacy","5","79","C:/Users/joey.knofczynski/Downloads/subject-2.csv","legacy","Lentiform Loewenfeld","3.3.12","yes","0","h","s","s","NA","h","NA","331","17095","3195","NA","331","NA","2","legacy","1024","2","48000","-16","experiment","HHHHH","2","even","19447","152457","NA","2350","149261","NA","136807","2346","NA","160429","159375","160531","160863","NA","160426","160531","Lab 2.1","81","36770","86","yes","1024"
"94.25287356321839","94.25287356321839","427.2298850574713","427.2298850574713","black","legacy","legacy","legacy","0","congruent","uniform","1","undefined","1","s","0","0","0","0","0","0","86","0","86","86","86","86","86","0","86","86","Fri Sep 23 19:16:42 2022","600","The main experiment item","yes","lab_2.1.osexp","C:\Users\joey.knofczynski\Downloads","no","mono","no","18","no","white","no","yes","768","legacy","6","79","C:/Users/joey.knofczynski/Downloads/subject-2.csv","legacy","Lentiform Loewenfeld","3.3.12","yes","0","s","s","s","NA","s","NA","399","17095","3195","NA","399","NA","2","legacy","1024","2","48000","-16","experiment","SSSSS","2","even","19447","152457","NA","2350","149261","NA","136807","2346","NA","161924","160868","162026","162426","NA","161921","162026","Lab 2.1","82","37169","87","yes","1024"
"94.31818181818181","94.31818181818181","426.95454545454544","426.95454545454544","black","legacy","legacy","legacy","0","incongruent","uniform","1","undefined","1","h","0","0","0","0","0","0","87","0","87","87","87","87","87","0","87","87","Fri Sep 23 19:16:42 2022","600","The main experiment item","yes","lab_2.1.osexp","C:\Users\joey.knofczynski\Downloads","no","mono","no","18","no","white","no","yes","768","legacy","7","79","C:/Users/joey.knofczynski/Downloads/subject-2.csv","legacy","Lentiform Loewenfeld","3.3.12","yes","0","h","s","s","NA","h","NA","403","17095","3195","NA","403","NA","2","legacy","1024","2","48000","-16","experiment","SSHSS","2","even","19447","152457","NA","2350","149261","NA","136807","2346","NA","163488","162431","163589","163993","NA","163485","163589","Lab 2.1","83","37572","88","yes","1024"
"94.38202247191012","94.38202247191012","426.3707865168539","426.3707865168539","black","legacy","legacy","legacy","0","congruent","uniform","1","undefined","1","h","0","0","0","0","0","0","88","0","88","88","88","88","88","0","88","88","Fri Sep 23 19:16:42 2022","600","The main experiment item","yes","lab_2.1.osexp","C:\Users\joey.knofczynski\Downloads","no","mono","no","18","no","white","no","yes","768","legacy","8","79","C:/Users/joey.knofczynski/Downloads/subject-2.csv","legacy","Lentiform Loewenfeld","3.3.12","yes","0","h","s","s","NA","h","NA","375","17095","3195","NA","375","NA","2","legacy","1024","2","48000","-16","experiment","HHHHH","2","even","19447","152457","NA","2350","149261","NA","136807","2346","NA","165053","163997","165155","165530","NA","165050","165155","Lab 2.1","84","37947","89","yes","1024"
"94.44444444444444","94.44444444444444","426.35555555555555","426.35555555555555","black","legacy","legacy","legacy","0","incongruent","uniform","1","undefined","1","h","0","0","0","0","0","0","89","0","89","89","89","89","89","0","89","89","Fri Sep 23 19:16:42 2022","600","The main experiment item","yes","lab_2.1.osexp","C:\Users\joey.knofczynski\Downloads","no","mono","no","18","no","white","no","yes","768","legacy","9","79","C:/Users/joey.knofczynski/Downloads/subject-2.csv","legacy","Lentiform Loewenfeld","3.3.12","yes","0","h","s","s","NA","h","NA","425","17095","3195","NA","425","NA","2","legacy","1024","2","48000","-16","experiment","SSHSS","2","even","19447","152457","NA","2350","149261","NA","136807","2346","NA","166589","165535","166691","167117","NA","166587","166691","Lab 2.1","85","38372","90","yes","1024"
"94.50549450549451","94.50549450549451","426.02197802197804","426.02197802197804","black","legacy","legacy","legacy","0","incongruent","uniform","1","undefined","1","h","0","0","0","0","0","0","90","0","90","90","90","90","90","0","90","90","Fri Sep 23 19:16:42 2022","600","The main experiment item","yes","lab_2.1.osexp","C:\Users\joey.knofczynski\Downloads","no","mono","no","18","no","white","no","yes","768","legacy","10","79","C:/Users/joey.knofczynski/Downloads/subject-2.csv","legacy","Lentiform Loewenfeld","3.3.12","yes","0","h","s","s","NA","h","NA","396","17095","3195","NA","396","NA","2","legacy","1024","2","48000","-16","experiment","SSHSS","2","even","19447","152457","NA","2350","149261","NA","136807","2346","NA","168174","167121","168276","168673","NA","168172","168276","Lab 2.1","86","38768","91","yes","1024"
"94.56521739130434","94.56521739130434","425.7717391304348","425.7717391304348","black","legacy","legacy","legacy","0","incongruent","uniform","1","undefined","1","h","0","0","0","0","0","0","91","0","91","91","91","91","91","0","91","91","Fri Sep 23 19:16:42 2022","600","The main experiment item","yes","lab_2.1.osexp","C:\Users\joey.knofczynski\Downloads","no","mono","no","18","no","white","no","yes","768","legacy","11","79","C:/Users/joey.knofczynski/Downloads/subject-2.csv","legacy","Lentiform Loewenfeld","3.3.12","yes","0","h","s","s","NA","h","NA","403","17095","3195","NA","403","NA","2","legacy","1024","2","48000","-16","experiment","SSHSS","2","even","19447","152457","NA","2350","149261","NA","136807","2346","NA","169731","168677","169833","170237","NA","169728","169833","Lab 2.1","87","39171","92","yes","1024"
"94.6236559139785","94.6236559139785","425.0860215053763","425.0860215053763","black","legacy","legacy","legacy","0","congruent","uniform","1","undefined","1","h","0","0","0","0","0","0","92","0","92","92","92","92","92","0","92","92","Fri Sep 23 19:16:42 2022","600","The main experiment item","yes","lab_2.1.osexp","C:\Users\joey.knofczynski\Downloads","no","mono","no","18","no","white","no","yes","768","legacy","12","79","C:/Users/joey.knofczynski/Downloads/subject-2.csv","legacy","Lentiform Loewenfeld","3.3.12","yes","0","h","s","s","NA","h","NA","362","17095","3195","NA","362","NA","2","legacy","1024","2","48000","-16","experiment","HHHHH","2","even","19447","152457","NA","2350","149261","NA","136807","2346","NA","171296","170241","171398","171762","NA","171293","171398","Lab 2.1","88","39533","93","yes","1024"
"94.68085106382979","94.68085106382979","424","424","black","legacy","legacy","legacy","0","congruent","uniform","1","undefined","1","h","0","0","0","0","0","0","93","0","93","93","93","93","93","0","93","93","Fri Sep 23 19:16:42 2022","600","The main experiment item","yes","lab_2.1.osexp","C:\Users\joey.knofczynski\Downloads","no","mono","no","18","no","white","no","yes","768","legacy","13","79","C:/Users/joey.knofczynski/Downloads/subject-2.csv","legacy","Lentiform Loewenfeld","3.3.12","yes","0","h","s","s","NA","h","NA","323","17095","3195","NA","323","NA","2","legacy","1024","2","48000","-16","experiment","HHHHH","2","even","19447","152457","NA","2350","149261","NA","136807","2346","NA","172822","171767","172924","173248","NA","172819","172924","Lab 2.1","89","39856","94","yes","1024"
"94.73684210526316","94.73684210526316","423.4842105263158","423.4842105263158","black","legacy","legacy","legacy","0","congruent","uniform","1","undefined","1","s","0","0","0","0","0","0","94","0","94","94","94","94","94","0","94","94","Fri Sep 23 19:16:42 2022","600","The main experiment item","yes","lab_2.1.osexp","C:\Users\joey.knofczynski\Downloads","no","mono","no","18","no","white","no","yes","768","legacy","14","79","C:/Users/joey.knofczynski/Downloads/subject-2.csv","legacy","Lentiform Loewenfeld","3.3.12","yes","0","s","s","s","NA","s","NA","375","17095","3195","NA","375","NA","2","legacy","1024","2","48000","-16","experiment","SSSSS","2","even","19447","152457","NA","2350","149261","NA","136807","2346","NA","174305","173253","174407","174782","NA","174302","174407","Lab 2.1","90","40231","95","yes","1024"
"94.79166666666667","94.79166666666667","423.1145833333333","423.1145833333333","black","legacy","legacy","legacy","0","incongruent","uniform","1","undefined","1","h","0","0","0","0","0","0","95","0","95","95","95","95","95","0","95","95","Fri Sep 23 19:16:42 2022","600","The main experiment item","yes","lab_2.1.osexp","C:\Users\joey.knofczynski\Downloads","no","mono","no","18","no","white","no","yes","768","legacy","15","79","C:/Users/joey.knofczynski/Downloads/subject-2.csv","legacy","Lentiform Loewenfeld","3.3.12","yes","0","h","s","s","NA","h","NA","388","17095","3195","NA","388","NA","2","legacy","1024","2","48000","-16","experiment","SSHSS","2","even","19447","152457","NA","2350","149261","NA","136807","2346","NA","175841","174787","175943","176331","NA","175838","175943","Lab 2.1","91","40619","96","yes","1024"
"94.84536082474227","94.84536082474227","422.35051546391753","422.35051546391753","black","legacy","legacy","legacy","0","congruent","uniform","1","undefined","1","s","0","0","0","0","0","0","96","0","96","96","96","96","96","0","96","96","Fri Sep 23 19:16:42 2022","600","The main experiment item","yes","lab_2.1.osexp","C:\Users\joey.knofczynski\Downloads","no","mono","no","18","no","white","no","yes","768","legacy","16","79","C:/Users/joey.knofczynski/Downloads/subject-2.csv","legacy","Lentiform Loewenfeld","3.3.12","yes","0","s","s","s","NA","s","NA","349","17095","3195","NA","349","NA","2","legacy","1024","2","48000","-16","experiment","SSSSS","2","even","19447","152457","NA","2350","149261","NA","136807","2346","NA","177387","176335","177489","177839","NA","177385","177489","Lab 2.1","92","40968","97","yes","1024"
"94.89795918367346","94.89795918367346","423.1326530612245","423.1326530612245","black","legacy","legacy","legacy","0","incongruent","uniform","1","undefined","1","s","0","0","0","0","0","0","97","0","97","97","97","97","97","0","97","97","Fri Sep 23 19:16:42 2022","600","The main experiment item","yes","lab_2.1.osexp","C:\Users\joey.knofczynski\Downloads","no","mono","no","18","no","white","no","yes","768","legacy","17","79","C:/Users/joey.knofczynski/Downloads/subject-2.csv","legacy","Lentiform Loewenfeld","3.3.12","yes","0","s","s","s","NA","s","NA","499","17095","3195","NA","499","NA","2","legacy","1024","2","48000","-16","experiment","HHSHH","2","even","19447","152457","NA","2350","149261","NA","136807","2346","NA","178896","177842","178998","179498","NA","178893","178998","Lab 2.1","93","41467","98","yes","1024"
"94.94949494949495","94.94949494949495","423.2121212121212","423.2121212121212","black","legacy","legacy","legacy","0","incongruent","uniform","1","undefined","1","h","0","0","0","0","0","0","98","0","98","98","98","98","98","0","98","98","Fri Sep 23 19:16:42 2022","600","The main experiment item","yes","lab_2.1.osexp","C:\Users\joey.knofczynski\Downloads","no","mono","no","18","no","white","no","yes","768","legacy","18","79","C:/Users/joey.knofczynski/Downloads/subject-2.csv","legacy","Lentiform Loewenfeld","3.3.12","yes","0","h","s","s","NA","h","NA","431","17095","3195","NA","431","NA","2","legacy","1024","2","48000","-16","experiment","SSHSS","2","even","19447","152457","NA","2350","149261","NA","136807","2346","NA","180561","179503","180663","181095","NA","180555","180663","Lab 2.1","94","41898","99","yes","1024"
"95","95","422.82","422.82","black","legacy","legacy","legacy","0","congruent","uniform","1","undefined","1","s","0","0","0","0","0","0","99","0","99","99","99","99","99","0","99","99","Fri Sep 23 19:16:42 2022","600","The main experiment item","yes","lab_2.1.osexp","C:\Users\joey.knofczynski\Downloads","no","mono","no","18","no","white","no","yes","768","legacy","19","79","C:/Users/joey.knofczynski/Downloads/subject-2.csv","legacy","Lentiform Loewenfeld","3.3.12","yes","0","s","s","s","NA","s","NA","384","17095","3195","NA","384","NA","2","legacy","1024","2","48000","-16","experiment","SSSSS","2","even","19447","152457","NA","2350","149261","NA","136807","2346","NA","182154","181100","182256","182643","NA","182151","182256","Lab 2.1","95","42282","100","yes","1024"
"95.04950495049505","95.04950495049505","422.2772277227723","422.2772277227723","black","legacy","legacy","legacy","0","congruent","uniform","1","undefined","1","h","0","0","0","0","0","0","100","0","100","100","100","100","100","0","100","100","Fri Sep 23 19:16:42 2022","600","The main experiment item","yes","lab_2.1.osexp","C:\Users\joey.knofczynski\Downloads","no","mono","no","18","no","white","no","yes","768","legacy","20","79","C:/Users/joey.knofczynski/Downloads/subject-2.csv","legacy","Lentiform Loewenfeld","3.3.12","yes","0","h","s","s","NA","h","NA","368","17095","3195","NA","368","NA","2","legacy","1024","2","48000","-16","experiment","HHHHH","2","even","19447","152457","NA","2350","149261","NA","136807","2346","NA","183701","182646","183804","184172","NA","183698","183803","Lab 2.1","96","42650","101","yes","1024"
"95.09803921568627","95.09803921568627","422.55882352941177","422.55882352941177","black","legacy","legacy","legacy","0","congruent","uniform","1","undefined","1","s","0","0","0","0","0","0","101","0","101","101","101","101","101","0","101","101","Fri Sep 23 19:16:42 2022","600","The main experiment item","yes","lab_2.1.osexp","C:\Users\joey.knofczynski\Downloads","no","mono","no","18","no","white","no","yes","768","legacy","21","79","C:/Users/joey.knofczynski/Downloads/subject-2.csv","legacy","Lentiform Loewenfeld","3.3.12","yes","0","s","s","s","NA","s","NA","451","17095","3195","NA","451","NA","2","legacy","1024","2","48000","-16","experiment","SSSSS","2","even","19447","152457","NA","2350","149261","NA","136807","2346","NA","185230","184176","185332","185783","NA","185227","185332","Lab 2.1","97","43101","102","yes","1024"
"95.14563106796116","95.14563106796116","422.93203883495147","422.93203883495147","black","legacy","legacy","legacy","0","incongruent","uniform","1","undefined","1","s","0","0","0","0","0","0","102","0","102","102","102","102","102","0","102","102","Fri Sep 23 19:16:42 2022","600","The main experiment item","yes","lab_2.1.osexp","C:\Users\joey.knofczynski\Downloads","no","mono","no","18","no","white","no","yes","768","legacy","22","79","C:/Users/joey.knofczynski/Downloads/subject-2.csv","legacy","Lentiform Loewenfeld","3.3.12","yes","0","s","s","s","NA","s","NA","461","17095","3195","NA","461","NA","2","legacy","1024","2","48000","-16","experiment","HHSHH","2","even","19447","152457","NA","2350","149261","NA","136807","2346","NA","186841","185787","186943","187404","NA","186839","186943","Lab 2.1","98","43562","103","yes","1024"
"94.23076923076923","94.23076923076923","422.34615384615387","422.34615384615387","black","legacy","legacy","legacy","0","incongruent","uniform","0","undefined","0","s","0","0","0","0","0","0","103","0","103","103","103","103","103","0","103","103","Fri Sep 23 19:16:42 2022","600","The main experiment item","yes","lab_2.1.osexp","C:\Users\joey.knofczynski\Downloads","no","mono","no","18","no","white","no","yes","768","legacy","23","79","C:/Users/joey.knofczynski/Downloads/subject-2.csv","legacy","Lentiform Loewenfeld","3.3.12","yes","0","h","s","s","NA","h","NA","362","17095","3195","NA","362","NA","2","legacy","1024","2","48000","-16","experiment","HHSHH","2","even","19447","152457","NA","2350","149261","NA","136807","2346","NA","188464","187409","188565","188928","NA","188462","188565","Lab 2.1","98","43924","104","yes","1024"
"94.28571428571429","94.28571428571429","423.0571428571429","423.0571428571429","black","legacy","legacy","legacy","0","incongruent","uniform","1","undefined","1","s","0","0","0","0","0","0","104","0","104","104","104","104","104","0","104","104","Fri Sep 23 19:16:42 2022","600","The main experiment item","yes","lab_2.1.osexp","C:\Users\joey.knofczynski\Downloads","no","mono","no","18","no","white","no","yes","768","legacy","24","79","C:/Users/joey.knofczynski/Downloads/subject-2.csv","legacy","Lentiform Loewenfeld","3.3.12","yes","0","s","s","s","NA","s","NA","497","17095","3195","NA","497","NA","2","legacy","1024","2","48000","-16","experiment","HHSHH","2","even","19447","152457","NA","2350","149261","NA","188933","2346","NA","190487","189434","190589","191087","NA","190484","190589","Lab 2.1","99","44421","105","yes","1024"
"94.33962264150944","94.33962264150944","423.39622641509436","423.39622641509436","black","legacy","legacy","legacy","0","incongruent","uniform","1","undefined","1","s","0","0","0","0","0","0","105","0","105","105","105","105","105","0","105","105","Fri Sep 23 19:16:42 2022","600","The main experiment item","yes","lab_2.1.osexp","C:\Users\joey.knofczynski\Downloads","no","mono","no","18","no","white","no","yes","768","legacy","25","79","C:/Users/joey.knofczynski/Downloads/subject-2.csv","legacy","Lentiform Loewenfeld","3.3.12","yes","0","s","s","s","NA","s","NA","459","17095","3195","NA","459","NA","2","legacy","1024","2","48000","-16","experiment","HHSHH","2","even","19447","152457","NA","2350","149261","NA","188933","2346","NA","192149","191091","192251","192712","NA","192145","192251","Lab 2.1","100","44880","106","yes","1024"
"94.39252336448598","94.39252336448598","423.14018691588785","423.14018691588785","black","legacy","legacy","legacy","0","incongruent","uniform","1","undefined","1","h","0","0","0","0","0","0","106","0","106","106","106","106","106","0","106","106","Fri Sep 23 19:16:42 2022","600","The main experiment item","yes","lab_2.1.osexp","C:\Users\joey.knofczynski\Downloads","no","mono","no","18","no","white","no","yes","768","legacy","26","79","C:/Users/joey.knofczynski/Downloads/subject-2.csv","legacy","Lentiform Loewenfeld","3.3.12","yes","0","h","s","s","NA","h","NA","396","17095","3195","NA","396","NA","2","legacy","1024","2","48000","-16","experiment","SSHSS","2","even","19447","152457","NA","2350","149261","NA","188933","2346","NA","193771","192717","193872","194269","NA","193768","193872","Lab 2.1","101","45276","107","yes","1024"
"94.44444444444444","94.44444444444444","423.30555555555554","423.30555555555554","black","legacy","legacy","legacy","0","incongruent","uniform","1","undefined","1","s","0","0","0","0","0","0","107","0","107","107","107","107","107","0","107","107","Fri Sep 23 19:16:42 2022","600","The main experiment item","yes","lab_2.1.osexp","C:\Users\joey.knofczynski\Downloads","no","mono","no","18","no","white","no","yes","768","legacy","27","79","C:/Users/joey.knofczynski/Downloads/subject-2.csv","legacy","Lentiform Loewenfeld","3.3.12","yes","0","s","s","s","NA","s","NA","441","17095","3195","NA","441","NA","2","legacy","1024","2","48000","-16","experiment","HHSHH","2","even","19447","152457","NA","2350","149261","NA","188933","2346","NA","195330","194274","195431","195873","NA","195327","195431","Lab 2.1","102","45717","108","yes","1024"
"94.4954128440367","94.4954128440367","423.38532110091745","423.38532110091745","black","legacy","legacy","legacy","0","incongruent","uniform","1","undefined","1","s","0","0","0","0","0","0","108","0","108","108","108","108","108","0","108","108","Fri Sep 23 19:16:42 2022","600","The main experiment item","yes","lab_2.1.osexp","C:\Users\joey.knofczynski\Downloads","no","mono","no","18","no","white","no","yes","768","legacy","28","79","C:/Users/joey.knofczynski/Downloads/subject-2.csv","legacy","Lentiform Loewenfeld","3.3.12","yes","0","s","s","s","NA","s","NA","432","17095","3195","NA","432","NA","2","legacy","1024","2","48000","-16","experiment","HHSHH","2","even","19447","152457","NA","2350","149261","NA","188933","2346","NA","196930","195876","197032","197465","NA","196927","197032","Lab 2.1","103","46149","109","yes","1024"
"94.54545454545455","94.54545454545455","423.3363636363636","423.3363636363636","black","legacy","legacy","legacy","0","congruent","uniform","1","undefined","1","h","0","0","0","0","0","0","109","0","109","109","109","109","109","0","109","109","Fri Sep 23 19:16:42 2022","600","The main experiment item","yes","lab_2.1.osexp","C:\Users\joey.knofczynski\Downloads","no","mono","no","18","no","white","no","yes","768","legacy","29","79","C:/Users/joey.knofczynski/Downloads/subject-2.csv","legacy","Lentiform Loewenfeld","3.3.12","yes","0","h","s","s","NA","h","NA","418","17095","3195","NA","418","NA","2","legacy","1024","2","48000","-16","experiment","HHHHH","2","even","19447","152457","NA","2350","149261","NA","188933","2346","NA","198523","197469","198624","199043","NA","198520","198624","Lab 2.1","104","46567","110","yes","1024"
"94.5945945945946","94.5945945945946","424.01801801801804","424.01801801801804","black","legacy","legacy","legacy","0","incongruent","uniform","1","undefined","1","s","0","0","0","0","0","0","110","0","110","110","110","110","110","0","110","110","Fri Sep 23 19:16:42 2022","600","The main experiment item","yes","lab_2.1.osexp","C:\Users\joey.knofczynski\Downloads","no","mono","no","18","no","white","no","yes","768","legacy","30","79","C:/Users/joey.knofczynski/Downloads/subject-2.csv","legacy","Lentiform Loewenfeld","3.3.12","yes","0","s","s","s","NA","s","NA","499","17095","3195","NA","499","NA","2","legacy","1024","2","48000","-16","experiment","HHSHH","2","even","19447","152457","NA","2350","149261","NA","188933","2346","NA","200103","199047","200205","200705","NA","200097","200204","Lab 2.1","105","47066","111","yes","1024"
"94.64285714285714","94.64285714285714","424.125","424.125","black","legacy","legacy","legacy","0","incongruent","uniform","1","undefined","1","s","0","0","0","0","0","0","111","0","111","111","111","111","111","0","111","111","Fri Sep 23 19:16:42 2022","600","The main experiment item","yes","lab_2.1.osexp","C:\Users\joey.knofczynski\Downloads","no","mono","no","18","no","white","no","yes","768","legacy","31","79","C:/Users/joey.knofczynski/Downloads/subject-2.csv","legacy","Lentiform Loewenfeld","3.3.12","yes","0","s","s","s","NA","s","NA","436","17095","3195","NA","436","NA","2","legacy","1024","2","48000","-16","experiment","HHSHH","2","even","19447","152457","NA","2350","149261","NA","188933","2346","NA","201763","200709","201865","202302","NA","201760","201865","Lab 2.1","106","47502","112","yes","1024"
"94.69026548672566","94.69026548672566","424.2566371681416","424.2566371681416","black","legacy","legacy","legacy","0","incongruent","uniform","1","undefined","1","s","0","0","0","0","0","0","112","0","112","112","112","112","112","0","112","112","Fri Sep 23 19:16:42 2022","600","The main experiment item","yes","lab_2.1.osexp","C:\Users\joey.knofczynski\Downloads","no","mono","no","18","no","white","no","yes","768","legacy","32","79","C:/Users/joey.knofczynski/Downloads/subject-2.csv","legacy","Lentiform Loewenfeld","3.3.12","yes","0","s","s","s","NA","s","NA","439","17095","3195","NA","439","NA","2","legacy","1024","2","48000","-16","experiment","HHSHH","2","even","19447","152457","NA","2350","149261","NA","188933","2346","NA","203358","202306","203460","203900","NA","203356","203460","Lab 2.1","107","47941","113","yes","1024"
"94.73684210526316","94.73684210526316","424.5438596491228","424.5438596491228","black","legacy","legacy","legacy","0","incongruent","uniform","1","undefined","1","s","0","0","0","0","0","0","113","0","113","113","113","113","113","0","113","113","Fri Sep 23 19:16:42 2022","600","The main experiment item","yes","lab_2.1.osexp","C:\Users\joey.knofczynski\Downloads","no","mono","no","18","no","white","no","yes","768","legacy","33","79","C:/Users/joey.knofczynski/Downloads/subject-2.csv","legacy","Lentiform Loewenfeld","3.3.12","yes","0","s","s","s","NA","s","NA","457","17095","3195","NA","457","NA","2","legacy","1024","2","48000","-16","experiment","HHSHH","2","even","19447","152457","NA","2350","149261","NA","188933","2346","NA","204966","203904","205068","205526","NA","204962","205068","Lab 2.1","108","48398","114","yes","1024"
"93.91304347826087","93.91304347826087","424.0086956521739","424.0086956521739","black","legacy","legacy","legacy","0","incongruent","uniform","0","undefined","0","h","0","0","0","0","0","0","114","0","114","114","114","114","114","0","114","114","Fri Sep 23 19:16:42 2022","600","The main experiment item","yes","lab_2.1.osexp","C:\Users\joey.knofczynski\Downloads","no","mono","no","18","no","white","no","yes","768","legacy","34","79","C:/Users/joey.knofczynski/Downloads/subject-2.csv","legacy","Lentiform Loewenfeld","3.3.12","yes","0","s","s","s","NA","s","NA","363","17095","3195","NA","363","NA","2","legacy","1024","2","48000","-16","experiment","SSHSS","2","even","19447","152457","NA","2350","149261","NA","188933","2346","NA","206586","205530","206687","207051","NA","206583","206687","Lab 2.1","108","48761","115","yes","1024"
"93.96551724137932","93.96551724137932","423.2931034482759","423.2931034482759","black","legacy","legacy","legacy","0","congruent","uniform","1","undefined","1","s","0","0","0","0","0","0","115","0","115","115","115","115","115","0","115","115","Fri Sep 23 19:16:42 2022","600","The main experiment item","yes","lab_2.1.osexp","C:\Users\joey.knofczynski\Downloads","no","mono","no","18","no","white","no","yes","768","legacy","35","79","C:/Users/joey.knofczynski/Downloads/subject-2.csv","legacy","Lentiform Loewenfeld","3.3.12","yes","0","s","s","s","NA","s","NA","341","17095","3195","NA","341","NA","2","legacy","1024","2","48000","-16","experiment","SSSSS","2","even","19447","152457","NA","2350","149261","NA","207055","2346","NA","208607","207556","208709","209051","NA","208604","208709","Lab 2.1","109","49102","116","yes","1024"
"94.01709401709402","94.01709401709402","423.2564102564103","423.2564102564103","black","legacy","legacy","legacy","0","incongruent","uniform","1","undefined","1","h","0","0","0","0","0","0","116","0","116","116","116","116","116","0","116","116","Fri Sep 23 19:16:42 2022","600","The main experiment item","yes","lab_2.1.osexp","C:\Users\joey.knofczynski\Downloads","no","mono","no","18","no","white","no","yes","768","legacy","36","79","C:/Users/joey.knofczynski/Downloads/subject-2.csv","legacy","Lentiform Loewenfeld","3.3.12","yes","0","h","s","s","NA","h","NA","419","17095","3195","NA","419","NA","2","legacy","1024","2","48000","-16","experiment","SSHSS","2","even","19447","152457","NA","2350","149261","NA","207055","2346","NA","210111","209056","210212","210632","NA","210108","210212","Lab 2.1","110","49521","117","yes","1024"
"94.0677966101695","94.0677966101695","423.00847457627117","423.00847457627117","black","legacy","legacy","legacy","0","congruent","uniform","1","undefined","1","h","0","0","0","0","0","0","117","0","117","117","117","117","117","0","117","117","Fri Sep 23 19:16:42 2022","600","The main experiment item","yes","lab_2.1.osexp","C:\Users\joey.knofczynski\Downloads","no","mono","no","18","no","white","no","yes","768","legacy","37","79","C:/Users/joey.knofczynski/Downloads/subject-2.csv","legacy","Lentiform Loewenfeld","3.3.12","yes","0","h","s","s","NA","h","NA","394","17095","3195","NA","394","NA","2","legacy","1024","2","48000","-16","experiment","HHHHH","2","even","19447","152457","NA","2350","149261","NA","207055","2346","NA","211691","210636","211793","212188","NA","211688","211793","Lab 2.1","111","49915","118","yes","1024"
"94.11764705882354","94.11764705882354","423.4453781512605","423.4453781512605","black","legacy","legacy","legacy","0","incongruent","uniform","1","undefined","1","h","0","0","0","0","0","0","118","0","118","118","118","118","118","0","118","118","Fri Sep 23 19:16:42 2022","600","The main experiment item","yes","lab_2.1.osexp","C:\Users\joey.knofczynski\Downloads","no","mono","no","18","no","white","no","yes","768","legacy","38","79","C:/Users/joey.knofczynski/Downloads/subject-2.csv","legacy","Lentiform Loewenfeld","3.3.12","yes","0","h","s","s","NA","h","NA","475","17095","3195","NA","475","NA","2","legacy","1024","2","48000","-16","experiment","SSHSS","2","even","19447","152457","NA","2350","149261","NA","207055","2346","NA","213246","212192","213348","213824","NA","213244","213348","Lab 2.1","112","50390","119","yes","1024"
"94.16666666666667","94.16666666666667","423.2416666666667","423.2416666666667","black","legacy","legacy","legacy","0","congruent","uniform","1","undefined","1","h","0","0","0","0","0","0","119","0","119","119","119","119","119","0","119","119","Fri Sep 23 19:16:42 2022","600","The main experiment item","yes","lab_2.1.osexp","C:\Users\joey.knofczynski\Downloads","no","mono","no","18","no","white","no","yes","768","legacy","39","79","C:/Users/joey.knofczynski/Downloads/subject-2.csv","legacy","Lentiform Loewenfeld","3.3.12","yes","0","h","s","s","NA","h","NA","399","17095","3195","NA","399","NA","2","legacy","1024","2","48000","-16","experiment","HHHHH","2","even","19447","152457","NA","2350","149261","NA","207055","2346","NA","214883","213828","214985","215386","NA","214879","214985","Lab 2.1","113","50789","120","yes","1024"
