"acc","accuracy","average_response_time","avg_rt","background","canvas_backend","clock_backend","color_backend","compensation","condition","coordinates","correct","correct_InstructionsOne","correct_Keyboard_Response","correct_response","count_BlockOne","count_BlockThree","count_BlockTwo","count_Error_Feedback","count_Faster","count_Finish","count_Fixation","count_ISI","count_InstructionsOne","count_InstructionsThree","count_InstructionsTwo","count_Keyboard_Response","count_Logger","count_Sequence","count_Stimulus","count_experiment","datetime","deadline","description","disable_garbage_collection","experiment_file","experiment_path","font_bold","font_family","font_italic","font_size","font_underline","foreground","form_clicks","fullscreen","height","keyboard_backend","live_row","live_row_BlockOne","logfile","mouse_backend","opensesame_codename","opensesame_version","repeat_cycle","response","response_Finish","response_InstructionsOne","response_InstructionsThree","response_InstructionsTwo","response_Keyboard_Response","response_time","response_time_Finish","response_time_InstructionsOne","response_time_InstructionsThree","response_time_InstructionsTwo","response_time_Keyboard_Response","round_decimals","sampler_backend","sound_buf_size","sound_channels","sound_freq","sound_sample_size","start","stimulus","subject_nr","subject_parity","time_BlockOne","time_BlockThree","time_BlockTwo","time_Error_Feedback","time_Faster","time_Finish","time_Fixation","time_ISI","time_InstructionsOne","time_InstructionsThree","time_InstructionsTwo","time_Keyboard_Response","time_Logger","time_Sequence","time_Stimulus","time_experiment","title","total_correct","total_response_time","total_responses","uniform_coordinates","width"
"100","100","638","638","black","legacy","legacy","legacy","0","Congruent","uniform","1","undefined","1","s","0","0","0","0","0","0","0","0","0","0","0","0","0","0","0","0","Wed Sep 21 09:51:32 2022","1500","The main experiment item","yes","FlankerTask.osexp","C:/Users/Austin/Downloads","no","mono","no","18","no","white","no","yes","768","legacy","0","0","C:/Users/Austin/Downloads/AH-subject-2.csv","legacy","Lentiform Loewenfeld","3.3.12","0","s","NA","s","NA","NA","s","638","NA","21776","NA","NA","638","2","legacy","1024","2","48000","-16","experiment","SSSSS","2","even","26996","NA","NA","NA","NA","NA","27123","NA","5218","NA","NA","27228","27867","27119","27227","5210","Flanker Task","1","638","1","yes","1024"
"100","100","554","554","black","legacy","legacy","legacy","0","Congruent","uniform","1","undefined","1","h","0","0","0","1","1","0","1","1","0","0","0","1","1","1","1","0","Wed Sep 21 09:51:32 2022","1500","The main experiment item","yes","FlankerTask.osexp","C:/Users/Austin/Downloads","no","mono","no","18","no","white","no","yes","768","legacy","1","1","C:/Users/Austin/Downloads/AH-subject-2.csv","legacy","Lentiform Loewenfeld","3.3.12","0","h","NA","s","NA","NA","h","470","NA","21776","NA","NA","470","2","legacy","1024","2","48000","-16","experiment","HHHHH","2","even","26996","NA","NA","NA","NA","NA","29092","27882","5218","NA","NA","29199","29670","29085","29199","5210","Flanker Task","2","1108","2","yes","1024"
"100","100","588","588","black","legacy","legacy","legacy","0","Incongruent","uniform","1","undefined","1","s","0","0","0","2","2","0","2","2","0","0","0","2","2","2","2","0","Wed Sep 21 09:51:32 2022","1500","The main experiment item","yes","FlankerTask.osexp","C:/Users/Austin/Downloads","no","mono","no","18","no","white","no","yes","768","legacy","2","2","C:/Users/Austin/Downloads/AH-subject-2.csv","legacy","Lentiform Loewenfeld","3.3.12","0","s","NA","s","NA","NA","s","656","NA","21776","NA","NA","656","2","legacy","1024","2","48000","-16","experiment","HHSHH","2","even","26996","NA","NA","NA","NA","NA","30880","29681","5218","NA","NA","30987","31644","30873","30986","5210","Flanker Task","3","1764","3","yes","1024"
"100","100","595.75","595.75","black","legacy","legacy","legacy","0","Congruent","uniform","1","undefined","1","h","0","0","0","3","3","0","3","3","0","0","0","3","3","3","3","0","Wed Sep 21 09:51:32 2022","1500","The main experiment item","yes","FlankerTask.osexp","C:/Users/Austin/Downloads","no","mono","no","18","no","white","no","yes","768","legacy","3","3","C:/Users/Austin/Downloads/AH-subject-2.csv","legacy","Lentiform Loewenfeld","3.3.12","0","h","NA","s","NA","NA","h","619","NA","21776","NA","NA","619","2","legacy","1024","2","48000","-16","experiment","HHHHH","2","even","26996","NA","NA","NA","NA","NA","32855","31656","5218","NA","NA","32963","33583","32848","32962","5210","Flanker Task","4","2383","4","yes","1024"
"100","100","583.4","583.4","black","legacy","legacy","legacy","0","Congruent","uniform","1","undefined","1","h","0","0","0","4","4","0","4","4","0","0","0","4","4","4","4","0","Wed Sep 21 09:51:32 2022","1500","The main experiment item","yes","FlankerTask.osexp","C:/Users/Austin/Downloads","no","mono","no","18","no","white","no","yes","768","legacy","4","4","C:/Users/Austin/Downloads/AH-subject-2.csv","legacy","Lentiform Loewenfeld","3.3.12","0","h","NA","s","NA","NA","h","534","NA","21776","NA","NA","534","2","legacy","1024","2","48000","-16","experiment","HHHHH","2","even","26996","NA","NA","NA","NA","NA","34796","33595","5218","NA","NA","34904","35439","34788","34903","5210","Flanker Task","5","2917","5","yes","1024"
"100","100","569.1666666666666","569.1666666666666","black","legacy","legacy","legacy","0","Congruent","uniform","1","undefined","1","h","0","0","0","5","5","0","5","5","0","0","0","5","5","5","5","0","Wed Sep 21 09:51:32 2022","1500","The main experiment item","yes","FlankerTask.osexp","C:/Users/Austin/Downloads","no","mono","no","18","no","white","no","yes","768","legacy","5","5","C:/Users/Austin/Downloads/AH-subject-2.csv","legacy","Lentiform Loewenfeld","3.3.12","0","h","NA","s","NA","NA","h","498","NA","21776","NA","NA","498","2","legacy","1024","2","48000","-16","experiment","HHHHH","2","even","26996","NA","NA","NA","NA","NA","36647","35448","5218","NA","NA","36753","37252","36640","36753","5210","Flanker Task","6","3415","6","yes","1024"
"85.71428571428571","85.71428571428571","577.5714285714286","577.5714285714286","black","legacy","legacy","legacy","0","Incongruent","uniform","0","undefined","0","h","0","0","0","6","6","0","6","6","0","0","0","6","6","6","6","0","Wed Sep 21 09:51:32 2022","1500","The main experiment item","yes","FlankerTask.osexp","C:/Users/Austin/Downloads","no","mono","no","18","no","white","no","yes","768","legacy","6","6","C:/Users/Austin/Downloads/AH-subject-2.csv","legacy","Lentiform Loewenfeld","3.3.12","0","s","NA","s","NA","NA","s","628","NA","21776","NA","NA","628","2","legacy","1024","2","48000","-16","experiment","SSHSS","2","even","26996","NA","NA","NA","NA","NA","38459","37263","5218","NA","NA","38565","39195","38452","38565","5210","Flanker Task","6","4043","7","yes","1024"
"87.5","87.5","591.125","591.125","black","legacy","legacy","legacy","0","Incongruent","uniform","1","undefined","1","s","0","0","0","7","7","0","7","7","0","0","0","7","7","7","7","0","Wed Sep 21 09:51:32 2022","1500","The main experiment item","yes","FlankerTask.osexp","C:/Users/Austin/Downloads","no","mono","no","18","no","white","no","yes","768","legacy","7","7","C:/Users/Austin/Downloads/AH-subject-2.csv","legacy","Lentiform Loewenfeld","3.3.12","0","s","NA","s","NA","NA","s","686","NA","21776","NA","NA","686","2","legacy","1024","2","48000","-16","experiment","HHSHH","2","even","26996","NA","NA","39205","NA","NA","40912","39713","5218","NA","NA","41020","41707","40905","41019","5210","Flanker Task","7","4729","8","yes","1024"
"88.88888888888889","88.88888888888889","597.1111111111111","597.1111111111111","black","legacy","legacy","legacy","0","Incongruent","uniform","1","undefined","1","h","0","0","0","8","8","0","8","8","0","0","0","8","8","8","8","0","Wed Sep 21 09:51:32 2022","1500","The main experiment item","yes","FlankerTask.osexp","C:/Users/Austin/Downloads","no","mono","no","18","no","white","no","yes","768","legacy","8","8","C:/Users/Austin/Downloads/AH-subject-2.csv","legacy","Lentiform Loewenfeld","3.3.12","0","h","NA","s","NA","NA","h","645","NA","21776","NA","NA","645","2","legacy","1024","2","48000","-16","experiment","SSHSS","2","even","26996","NA","NA","39205","NA","NA","42920","41718","5218","NA","NA","43027","43673","42913","43027","5210","Flanker Task","8","5374","9","yes","1024"
"90","90","595","595","black","legacy","legacy","legacy","0","Congruent","uniform","1","undefined","1","s","0","0","0","9","9","0","9","9","0","0","0","9","9","9","9","0","Wed Sep 21 09:51:32 2022","1500","The main experiment item","yes","FlankerTask.osexp","C:/Users/Austin/Downloads","no","mono","no","18","no","white","no","yes","768","legacy","9","9","C:/Users/Austin/Downloads/AH-subject-2.csv","legacy","Lentiform Loewenfeld","3.3.12","0","s","NA","s","NA","NA","s","576","NA","21776","NA","NA","576","2","legacy","1024","2","48000","-16","experiment","SSSSS","2","even","26996","NA","NA","39205","NA","NA","44884","43685","5218","NA","NA","44990","45567","44877","44989","5210","Flanker Task","9","5950","10","yes","1024"
"90.9090909090909","90.9090909090909","606.4545454545455","606.4545454545455","black","legacy","legacy","legacy","0","Incongruent","uniform","1","undefined","1","s","0","0","0","10","10","0","10","10","0","0","0","10","10","10","10","0","Wed Sep 21 09:51:32 2022","1500","The main experiment item","yes","FlankerTask.osexp","C:/Users/Austin/Downloads","no","mono","no","18","no","white","no","yes","768","legacy","10","10","C:/Users/Austin/Downloads/AH-subject-2.csv","legacy","Lentiform Loewenfeld","3.3.12","0","s","NA","s","NA","NA","s","721","NA","21776","NA","NA","721","2","legacy","1024","2","48000","-16","experiment","HHSHH","2","even","26996","NA","NA","39205","NA","NA","46781","45578","5218","NA","NA","46888","47610","46774","46887","5210","Flanker Task","10","6671","11","yes","1024"
"91.66666666666667","91.66666666666667","600.25","600.25","black","legacy","legacy","legacy","0","Congruent","uniform","1","undefined","1","s","0","0","0","11","11","0","11","11","0","0","0","11","11","11","11","0","Wed Sep 21 09:51:32 2022","1500","The main experiment item","yes","FlankerTask.osexp","C:/Users/Austin/Downloads","no","mono","no","18","no","white","no","yes","768","legacy","11","11","C:/Users/Austin/Downloads/AH-subject-2.csv","legacy","Lentiform Loewenfeld","3.3.12","0","s","NA","s","NA","NA","s","532","NA","21776","NA","NA","532","2","legacy","1024","2","48000","-16","experiment","SSSSS","2","even","26996","NA","NA","39205","NA","NA","48847","47621","5218","NA","NA","48952","49485","48840","48952","5210","Flanker Task","11","7203","12","yes","1024"
"92.3076923076923","92.3076923076923","593.7692307692307","593.7692307692307","black","legacy","legacy","legacy","0","Incongruent","uniform","1","undefined","1","h","0","0","0","12","12","0","12","12","0","0","0","12","12","12","12","0","Wed Sep 21 09:51:32 2022","1500","The main experiment item","yes","FlankerTask.osexp","C:/Users/Austin/Downloads","no","mono","no","18","no","white","no","yes","768","legacy","12","12","C:/Users/Austin/Downloads/AH-subject-2.csv","legacy","Lentiform Loewenfeld","3.3.12","0","h","NA","s","NA","NA","h","516","NA","21776","NA","NA","516","2","legacy","1024","2","48000","-16","experiment","SSHSS","2","even","26996","NA","NA","39205","NA","NA","50702","49497","5218","NA","NA","50810","51327","50695","50809","5210","Flanker Task","12","7719","13","yes","1024"
"92.85714285714286","92.85714285714286","584.7142857142857","584.7142857142857","black","legacy","legacy","legacy","0","Incongruent","uniform","1","undefined","1","h","0","0","0","13","13","0","13","13","0","0","0","13","13","13","13","0","Wed Sep 21 09:51:32 2022","1500","The main experiment item","yes","FlankerTask.osexp","C:/Users/Austin/Downloads","no","mono","no","18","no","white","no","yes","768","legacy","13","13","C:/Users/Austin/Downloads/AH-subject-2.csv","legacy","Lentiform Loewenfeld","3.3.12","0","h","NA","s","NA","NA","h","467","NA","21776","NA","NA","467","2","legacy","1024","2","48000","-16","experiment","SSHSS","2","even","26996","NA","NA","39205","NA","NA","52540","51339","5218","NA","NA","52647","53115","52533","52647","5210","Flanker Task","13","8186","14","yes","1024"
"93.33333333333333","93.33333333333333","592.4","592.4","black","legacy","legacy","legacy","0","Congruent","uniform","1","undefined","1","h","0","0","0","14","14","0","14","14","0","0","0","14","14","14","14","0","Wed Sep 21 09:51:32 2022","1500","The main experiment item","yes","FlankerTask.osexp","C:/Users/Austin/Downloads","no","mono","no","18","no","white","no","yes","768","legacy","14","14","C:/Users/Austin/Downloads/AH-subject-2.csv","legacy","Lentiform Loewenfeld","3.3.12","0","h","NA","s","NA","NA","h","700","NA","21776","NA","NA","700","2","legacy","1024","2","48000","-16","experiment","HHHHH","2","even","26996","NA","NA","39205","NA","NA","54331","53127","5218","NA","NA","54440","55142","54325","54439","5210","Flanker Task","14","8886","15","yes","1024"
"93.75","93.75","585.4375","585.4375","black","legacy","legacy","legacy","0","Congruent","uniform","1","undefined","1","h","0","0","0","15","15","0","15","15","0","0","0","15","15","15","15","0","Wed Sep 21 09:51:32 2022","1500","The main experiment item","yes","FlankerTask.osexp","C:/Users/Austin/Downloads","no","mono","no","18","no","white","no","yes","768","legacy","15","15","C:/Users/Austin/Downloads/AH-subject-2.csv","legacy","Lentiform Loewenfeld","3.3.12","0","h","NA","s","NA","NA","h","481","NA","21776","NA","NA","481","2","legacy","1024","2","48000","-16","experiment","HHHHH","2","even","26996","NA","NA","39205","NA","NA","56354","55153","5218","NA","NA","56462","56945","56347","56461","5210","Flanker Task","15","9367","16","yes","1024"
"94.11764705882354","94.11764705882354","579.6470588235294","579.6470588235294","black","legacy","legacy","legacy","0","Congruent","uniform","1","undefined","1","s","0","0","0","16","16","0","16","16","0","0","0","16","16","16","16","0","Wed Sep 21 09:51:32 2022","1500","The main experiment item","yes","FlankerTask.osexp","C:/Users/Austin/Downloads","no","mono","no","18","no","white","no","yes","768","legacy","16","16","C:/Users/Austin/Downloads/AH-subject-2.csv","legacy","Lentiform Loewenfeld","3.3.12","0","s","NA","s","NA","NA","s","487","NA","21776","NA","NA","487","2","legacy","1024","2","48000","-16","experiment","SSSSS","2","even","26996","NA","NA","39205","NA","NA","58157","56956","5218","NA","NA","58263","58751","58149","58263","5210","Flanker Task","16","9854","17","yes","1024"
"94.44444444444444","94.44444444444444","579.2777777777778","579.2777777777778","black","legacy","legacy","legacy","0","Incongruent","uniform","1","undefined","1","h","0","0","0","17","17","0","17","17","0","0","0","17","17","17","17","0","Wed Sep 21 09:51:32 2022","1500","The main experiment item","yes","FlankerTask.osexp","C:/Users/Austin/Downloads","no","mono","no","18","no","white","no","yes","768","legacy","17","17","C:/Users/Austin/Downloads/AH-subject-2.csv","legacy","Lentiform Loewenfeld","3.3.12","0","h","NA","s","NA","NA","h","573","NA","21776","NA","NA","573","2","legacy","1024","2","48000","-16","experiment","SSHSS","2","even","26996","NA","NA","39205","NA","NA","59960","58763","5218","NA","NA","60067","60642","59953","60067","5210","Flanker Task","17","10427","18","yes","1024"
"94.73684210526316","94.73684210526316","579.7894736842105","579.7894736842105","black","legacy","legacy","legacy","0","Congruent","uniform","1","undefined","1","h","0","0","0","18","18","0","18","18","0","0","0","18","18","18","18","0","Wed Sep 21 09:51:32 2022","1500","The main experiment item","yes","FlankerTask.osexp","C:/Users/Austin/Downloads","no","mono","no","18","no","white","no","yes","768","legacy","18","18","C:/Users/Austin/Downloads/AH-subject-2.csv","legacy","Lentiform Loewenfeld","3.3.12","0","h","NA","s","NA","NA","h","589","NA","21776","NA","NA","589","2","legacy","1024","2","48000","-16","experiment","HHHHH","2","even","26996","NA","NA","39205","NA","NA","61849","60652","5218","NA","NA","61957","62547","61843","61957","5210","Flanker Task","18","11016","19","yes","1024"
"95","95","572.85","572.85","black","legacy","legacy","legacy","0","Congruent","uniform","1","undefined","1","h","0","0","0","19","19","0","19","19","0","0","0","19","19","19","19","0","Wed Sep 21 09:51:32 2022","1500","The main experiment item","yes","FlankerTask.osexp","C:/Users/Austin/Downloads","no","mono","no","18","no","white","no","yes","768","legacy","19","19","C:/Users/Austin/Downloads/AH-subject-2.csv","legacy","Lentiform Loewenfeld","3.3.12","0","h","NA","s","NA","NA","h","441","NA","21776","NA","NA","441","2","legacy","1024","2","48000","-16","experiment","HHHHH","2","even","26996","NA","NA","39205","NA","NA","63767","62559","5218","NA","NA","63874","64317","63761","63874","5210","Flanker Task","19","11457","20","yes","1024"
"95.23809523809524","95.23809523809524","572.3809523809524","572.3809523809524","black","legacy","legacy","legacy","0","Incongruent","uniform","1","undefined","1","s","0","0","0","20","20","0","20","20","0","0","0","20","20","20","20","0","Wed Sep 21 09:51:32 2022","1500","The main experiment item","yes","FlankerTask.osexp","C:/Users/Austin/Downloads","no","mono","no","18","no","white","no","yes","768","legacy","20","20","C:/Users/Austin/Downloads/AH-subject-2.csv","legacy","Lentiform Loewenfeld","3.3.12","0","s","NA","s","NA","NA","s","563","NA","21776","NA","NA","563","2","legacy","1024","2","48000","-16","experiment","HHSHH","2","even","26996","NA","NA","39205","NA","NA","65529","64329","5218","NA","NA","65636","66201","65523","65636","5210","Flanker Task","20","12020","21","yes","1024"
"95.45454545454545","95.45454545454545","574.5909090909091","574.5909090909091","black","legacy","legacy","legacy","0","Incongruent","uniform","1","undefined","1","s","0","0","0","21","21","0","21","21","0","0","0","21","21","21","21","0","Wed Sep 21 09:51:32 2022","1500","The main experiment item","yes","FlankerTask.osexp","C:/Users/Austin/Downloads","no","mono","no","18","no","white","no","yes","768","legacy","21","21","C:/Users/Austin/Downloads/AH-subject-2.csv","legacy","Lentiform Loewenfeld","3.3.12","0","s","NA","s","NA","NA","s","621","NA","21776","NA","NA","621","2","legacy","1024","2","48000","-16","experiment","HHSHH","2","even","26996","NA","NA","39205","NA","NA","67416","66211","5218","NA","NA","67523","68146","67409","67523","5210","Flanker Task","21","12641","22","yes","1024"
"95.65217391304348","95.65217391304348","579.4347826086956","579.4347826086956","black","legacy","legacy","legacy","0","Incongruent","uniform","1","undefined","1","s","0","0","0","22","22","0","22","22","0","0","0","22","22","22","22","0","Wed Sep 21 09:51:32 2022","1500","The main experiment item","yes","FlankerTask.osexp","C:/Users/Austin/Downloads","no","mono","no","18","no","white","no","yes","768","legacy","22","22","C:/Users/Austin/Downloads/AH-subject-2.csv","legacy","Lentiform Loewenfeld","3.3.12","0","s","NA","s","NA","NA","s","686","NA","21776","NA","NA","686","2","legacy","1024","2","48000","-16","experiment","HHSHH","2","even","26996","NA","NA","39205","NA","NA","69357","68156","5218","NA","NA","69464","70152","69350","69463","5210","Flanker Task","22","13327","23","yes","1024"
"95.83333333333333","95.83333333333333","581.2916666666666","581.2916666666666","black","legacy","legacy","legacy","0","Congruent","uniform","1","undefined","1","s","0","0","0","23","23","0","23","23","0","0","0","23","23","23","23","0","Wed Sep 21 09:51:32 2022","1500","The main experiment item","yes","FlankerTask.osexp","C:/Users/Austin/Downloads","no","mono","no","18","no","white","no","yes","768","legacy","23","23","C:/Users/Austin/Downloads/AH-subject-2.csv","legacy","Lentiform Loewenfeld","3.3.12","0","s","NA","s","NA","NA","s","624","NA","21776","NA","NA","624","2","legacy","1024","2","48000","-16","experiment","SSSSS","2","even","26996","NA","NA","39205","NA","NA","71370","70163","5218","NA","NA","71476","72101","71362","71476","5210","Flanker Task","23","13951","24","yes","1024"
"96","96","579.24","579.24","black","legacy","legacy","legacy","0","Incongruent","uniform","1","undefined","1","h","0","0","0","24","24","0","24","24","0","0","0","24","24","24","24","0","Wed Sep 21 09:51:32 2022","1500","The main experiment item","yes","FlankerTask.osexp","C:/Users/Austin/Downloads","no","mono","no","18","no","white","no","yes","768","legacy","24","24","C:/Users/Austin/Downloads/AH-subject-2.csv","legacy","Lentiform Loewenfeld","3.3.12","0","h","NA","s","NA","NA","h","530","NA","21776","NA","NA","530","2","legacy","1024","2","48000","-16","experiment","SSHSS","2","even","26996","NA","NA","39205","NA","NA","73341","72113","5218","NA","NA","73448","73979","73334","73448","5210","Flanker Task","24","14481","25","yes","1024"
"96.15384615384616","96.15384615384616","581.8076923076923","581.8076923076923","black","legacy","legacy","legacy","0","Incongruent","uniform","1","undefined","1","h","0","0","0","25","25","0","25","25","0","0","0","25","25","25","25","0","Wed Sep 21 09:51:32 2022","1500","The main experiment item","yes","FlankerTask.osexp","C:/Users/Austin/Downloads","no","mono","no","18","no","white","no","yes","768","legacy","25","25","C:/Users/Austin/Downloads/AH-subject-2.csv","legacy","Lentiform Loewenfeld","3.3.12","0","h","NA","s","NA","NA","h","646","NA","21776","NA","NA","646","2","legacy","1024","2","48000","-16","experiment","SSHSS","2","even","26996","NA","NA","39205","NA","NA","75218","73991","5218","NA","NA","75326","75973","75211","75326","5210","Flanker Task","25","15127","26","yes","1024"
"96.29629629629629","96.29629629629629","579.0370370370371","579.0370370370371","black","legacy","legacy","legacy","0","Congruent","uniform","1","undefined","1","h","0","0","0","26","26","0","26","26","0","0","0","26","26","26","26","0","Wed Sep 21 09:51:32 2022","1500","The main experiment item","yes","FlankerTask.osexp","C:/Users/Austin/Downloads","no","mono","no","18","no","white","no","yes","768","legacy","26","26","C:/Users/Austin/Downloads/AH-subject-2.csv","legacy","Lentiform Loewenfeld","3.3.12","0","h","NA","s","NA","NA","h","507","NA","21776","NA","NA","507","2","legacy","1024","2","48000","-16","experiment","HHHHH","2","even","26996","NA","NA","39205","NA","NA","77190","75984","5218","NA","NA","77297","77806","77184","77296","5210","Flanker Task","26","15634","27","yes","1024"
"96.42857142857143","96.42857142857143","578","578","black","legacy","legacy","legacy","0","Incongruent","uniform","1","undefined","1","s","0","0","0","27","27","0","27","27","0","0","0","27","27","27","27","0","Wed Sep 21 09:51:32 2022","1500","The main experiment item","yes","FlankerTask.osexp","C:/Users/Austin/Downloads","no","mono","no","18","no","white","no","yes","768","legacy","27","27","C:/Users/Austin/Downloads/AH-subject-2.csv","legacy","Lentiform Loewenfeld","3.3.12","0","s","NA","s","NA","NA","s","550","NA","21776","NA","NA","550","2","legacy","1024","2","48000","-16","experiment","HHSHH","2","even","26996","NA","NA","39205","NA","NA","79015","77817","5218","NA","NA","79122","79674","79008","79121","5210","Flanker Task","27","16184","28","yes","1024"
"96.55172413793103","96.55172413793103","579.0344827586207","579.0344827586207","black","legacy","legacy","legacy","0","Incongruent","uniform","1","undefined","1","s","0","0","0","28","28","0","28","28","0","0","0","28","28","28","28","0","Wed Sep 21 09:51:32 2022","1500","The main experiment item","yes","FlankerTask.osexp","C:/Users/Austin/Downloads","no","mono","no","18","no","white","no","yes","768","legacy","28","28","C:/Users/Austin/Downloads/AH-subject-2.csv","legacy","Lentiform Loewenfeld","3.3.12","0","s","NA","s","NA","NA","s","608","NA","21776","NA","NA","608","2","legacy","1024","2","48000","-16","experiment","HHSHH","2","even","26996","NA","NA","39205","NA","NA","80886","79685","5218","NA","NA","80993","81603","80879","80992","5210","Flanker Task","28","16792","29","yes","1024"
"96.66666666666667","96.66666666666667","577.1666666666666","577.1666666666666","black","legacy","legacy","legacy","0","Congruent","uniform","1","undefined","1","s","0","0","0","29","29","0","29","29","0","0","0","29","29","29","29","0","Wed Sep 21 09:51:32 2022","1500","The main experiment item","yes","FlankerTask.osexp","C:/Users/Austin/Downloads","no","mono","no","18","no","white","no","yes","768","legacy","29","29","C:/Users/Austin/Downloads/AH-subject-2.csv","legacy","Lentiform Loewenfeld","3.3.12","0","s","NA","s","NA","NA","s","523","NA","21776","NA","NA","523","2","legacy","1024","2","48000","-16","experiment","SSSSS","2","even","26996","NA","NA","39205","NA","NA","82811","81614","5218","NA","NA","82918","83443","82804","82918","5210","Flanker Task","29","17315","30","yes","1024"
"96.7741935483871","96.7741935483871","573.0645161290323","573.0645161290323","black","legacy","legacy","legacy","0","Congruent","uniform","1","undefined","1","s","0","0","0","30","30","0","30","30","0","0","0","30","30","30","30","0","Wed Sep 21 09:51:32 2022","1500","The main experiment item","yes","FlankerTask.osexp","C:/Users/Austin/Downloads","no","mono","no","18","no","white","no","yes","768","legacy","30","30","C:/Users/Austin/Downloads/AH-subject-2.csv","legacy","Lentiform Loewenfeld","3.3.12","0","s","NA","s","NA","NA","s","450","NA","21776","NA","NA","450","2","legacy","1024","2","48000","-16","experiment","SSSSS","2","even","26996","NA","NA","39205","NA","NA","84649","83453","5218","NA","NA","84756","85208","84642","84755","5210","Flanker Task","30","17765","31","yes","1024"
"96.875","96.875","570.46875","570.46875","black","legacy","legacy","legacy","0","Congruent","uniform","1","undefined","1","s","0","0","0","31","31","0","31","31","0","0","0","31","31","31","31","0","Wed Sep 21 09:51:32 2022","1500","The main experiment item","yes","FlankerTask.osexp","C:/Users/Austin/Downloads","no","mono","no","18","no","white","no","yes","768","legacy","31","31","C:/Users/Austin/Downloads/AH-subject-2.csv","legacy","Lentiform Loewenfeld","3.3.12","0","s","NA","s","NA","NA","s","490","NA","21776","NA","NA","490","2","legacy","1024","2","48000","-16","experiment","SSSSS","2","even","26996","NA","NA","39205","NA","NA","86420","85218","5218","NA","NA","86526","87017","86413","86526","5210","Flanker Task","31","18255","32","yes","1024"
"96.96969696969697","96.96969696969697","568.3939393939394","568.3939393939394","black","legacy","legacy","legacy","0","Congruent","uniform","1","undefined","1","h","0","0","0","32","32","0","32","32","0","0","0","32","32","32","32","0","Wed Sep 21 09:51:32 2022","1500","The main experiment item","yes","FlankerTask.osexp","C:/Users/Austin/Downloads","no","mono","no","18","no","white","no","yes","768","legacy","32","32","C:/Users/Austin/Downloads/AH-subject-2.csv","legacy","Lentiform Loewenfeld","3.3.12","0","h","NA","s","NA","NA","h","502","NA","21776","NA","NA","502","2","legacy","1024","2","48000","-16","experiment","HHHHH","2","even","26996","NA","NA","39205","NA","NA","88242","87029","5218","NA","NA","88349","88852","88235","88349","5210","Flanker Task","32","18757","33","yes","1024"
"97.05882352941177","97.05882352941177","564.7647058823529","564.7647058823529","black","legacy","legacy","legacy","0","Congruent","uniform","1","undefined","1","s","0","0","0","33","33","0","33","33","0","0","0","33","33","33","33","0","Wed Sep 21 09:51:32 2022","1500","The main experiment item","yes","FlankerTask.osexp","C:/Users/Austin/Downloads","no","mono","no","18","no","white","no","yes","768","legacy","33","33","C:/Users/Austin/Downloads/AH-subject-2.csv","legacy","Lentiform Loewenfeld","3.3.12","0","s","NA","s","NA","NA","s","445","NA","21776","NA","NA","445","2","legacy","1024","2","48000","-16","experiment","SSSSS","2","even","26996","NA","NA","39205","NA","NA","90065","88863","5218","NA","NA","90171","90618","90058","90171","5210","Flanker Task","33","19202","34","yes","1024"
"97.14285714285714","97.14285714285714","562.3142857142857","562.3142857142857","black","legacy","legacy","legacy","0","Congruent","uniform","1","undefined","1","s","0","0","0","34","34","0","34","34","0","0","0","34","34","34","34","0","Wed Sep 21 09:51:32 2022","1500","The main experiment item","yes","FlankerTask.osexp","C:/Users/Austin/Downloads","no","mono","no","18","no","white","no","yes","768","legacy","34","34","C:/Users/Austin/Downloads/AH-subject-2.csv","legacy","Lentiform Loewenfeld","3.3.12","0","s","NA","s","NA","NA","s","479","NA","21776","NA","NA","479","2","legacy","1024","2","48000","-16","experiment","SSSSS","2","even","26996","NA","NA","39205","NA","NA","91826","90629","5218","NA","NA","91933","92414","91819","91933","5210","Flanker Task","34","19681","35","yes","1024"
"97.22222222222223","97.22222222222223","562.7222222222222","562.7222222222222","black","legacy","legacy","legacy","0","Incongruent","uniform","1","undefined","1","h","0","0","0","35","35","0","35","35","0","0","0","35","35","35","35","0","Wed Sep 21 09:51:32 2022","1500","The main experiment item","yes","FlankerTask.osexp","C:/Users/Austin/Downloads","no","mono","no","18","no","white","no","yes","768","legacy","35","35","C:/Users/Austin/Downloads/AH-subject-2.csv","legacy","Lentiform Loewenfeld","3.3.12","0","h","NA","s","NA","NA","h","577","NA","21776","NA","NA","577","2","legacy","1024","2","48000","-16","experiment","SSHSS","2","even","26996","NA","NA","39205","NA","NA","93627","92425","5218","NA","NA","93735","94314","93620","93735","5210","Flanker Task","35","20258","36","yes","1024"
"97.29729729729729","97.29729729729729","562.6486486486486","562.6486486486486","black","legacy","legacy","legacy","0","Incongruent","uniform","1","undefined","1","s","0","0","0","36","36","0","36","36","0","0","0","36","36","36","36","0","Wed Sep 21 09:51:32 2022","1500","The main experiment item","yes","FlankerTask.osexp","C:/Users/Austin/Downloads","no","mono","no","18","no","white","no","yes","768","legacy","36","36","C:/Users/Austin/Downloads/AH-subject-2.csv","legacy","Lentiform Loewenfeld","3.3.12","0","s","NA","s","NA","NA","s","560","NA","21776","NA","NA","560","2","legacy","1024","2","48000","-16","experiment","HHSHH","2","even","26996","NA","NA","39205","NA","NA","95542","94328","5218","NA","NA","95648","96210","95535","95648","5210","Flanker Task","36","20818","37","yes","1024"
"97.36842105263158","97.36842105263158","561.5526315789474","561.5526315789474","black","legacy","legacy","legacy","0","Incongruent","uniform","1","undefined","1","s","0","0","0","37","37","0","37","37","0","0","0","37","37","37","37","0","Wed Sep 21 09:51:32 2022","1500","The main experiment item","yes","FlankerTask.osexp","C:/Users/Austin/Downloads","no","mono","no","18","no","white","no","yes","768","legacy","37","37","C:/Users/Austin/Downloads/AH-subject-2.csv","legacy","Lentiform Loewenfeld","3.3.12","0","s","NA","s","NA","NA","s","521","NA","21776","NA","NA","521","2","legacy","1024","2","48000","-16","experiment","HHSHH","2","even","26996","NA","NA","39205","NA","NA","97422","96221","5218","NA","NA","97530","98053","97416","97530","5210","Flanker Task","37","21339","38","yes","1024"
"97.43589743589743","97.43589743589743","560.6666666666666","560.6666666666666","black","legacy","legacy","legacy","0","Incongruent","uniform","1","undefined","1","h","0","0","0","38","38","0","38","38","0","0","0","38","38","38","38","0","Wed Sep 21 09:51:32 2022","1500","The main experiment item","yes","FlankerTask.osexp","C:/Users/Austin/Downloads","no","mono","no","18","no","white","no","yes","768","legacy","38","38","C:/Users/Austin/Downloads/AH-subject-2.csv","legacy","Lentiform Loewenfeld","3.3.12","0","h","NA","s","NA","NA","h","527","NA","21776","NA","NA","527","2","legacy","1024","2","48000","-16","experiment","SSHSS","2","even","26996","NA","NA","39205","NA","NA","99277","98065","5218","NA","NA","99384","99912","99270","99384","5210","Flanker Task","38","21866","39","yes","1024"
"97.5","97.5","558.325","558.325","black","legacy","legacy","legacy","0","Incongruent","uniform","1","undefined","1","h","0","0","0","39","39","0","39","39","0","0","0","39","39","39","39","0","Wed Sep 21 09:51:32 2022","1500","The main experiment item","yes","FlankerTask.osexp","C:/Users/Austin/Downloads","no","mono","no","18","no","white","no","yes","768","legacy","39","39","C:/Users/Austin/Downloads/AH-subject-2.csv","legacy","Lentiform Loewenfeld","3.3.12","0","h","NA","s","NA","NA","h","467","NA","21776","NA","NA","467","2","legacy","1024","2","48000","-16","experiment","SSHSS","2","even","26996","NA","NA","39205","NA","NA","101128","99924","5218","NA","NA","101236","101705","101121","101235","5210","Flanker Task","39","22333","40","yes","1024"
"97.5609756097561","97.5609756097561","555.439024390244","555.439024390244","black","legacy","legacy","legacy","0","Incongruent","uniform","1","undefined","1","h","0","0","0","40","40","0","40","40","0","0","0","40","40","40","40","0","Wed Sep 21 09:51:32 2022","1500","The main experiment item","yes","FlankerTask.osexp","C:/Users/Austin/Downloads","no","mono","no","18","no","white","no","yes","768","legacy","40","40","C:/Users/Austin/Downloads/AH-subject-2.csv","legacy","Lentiform Loewenfeld","3.3.12","0","h","NA","s","NA","NA","h","440","NA","21776","NA","NA","440","2","legacy","1024","2","48000","-16","experiment","SSHSS","2","even","26996","NA","NA","39205","NA","NA","102921","101716","5218","NA","NA","103027","103468","102914","103027","5210","Flanker Task","40","22773","41","yes","1024"
"97.61904761904762","97.61904761904762","553.0714285714286","553.0714285714286","black","legacy","legacy","legacy","0","Incongruent","uniform","1","undefined","1","s","0","0","0","41","41","0","41","41","0","0","0","41","41","41","41","0","Wed Sep 21 09:51:32 2022","1500","The main experiment item","yes","FlankerTask.osexp","C:/Users/Austin/Downloads","no","mono","no","18","no","white","no","yes","768","legacy","41","41","C:/Users/Austin/Downloads/AH-subject-2.csv","legacy","Lentiform Loewenfeld","3.3.12","0","s","NA","s","NA","NA","s","456","NA","21776","NA","NA","456","2","legacy","1024","2","48000","-16","experiment","HHSHH","2","even","26996","NA","NA","39205","NA","NA","104688","103480","5218","NA","NA","104794","105251","104681","104794","5210","Flanker Task","41","23229","42","yes","1024"
"95.34883720930233","95.34883720930233","551.2093023255813","551.2093023255813","black","legacy","legacy","legacy","0","Incongruent","uniform","0","undefined","0","h","0","0","0","42","42","0","42","42","0","0","0","42","42","42","42","0","Wed Sep 21 09:51:32 2022","1500","The main experiment item","yes","FlankerTask.osexp","C:/Users/Austin/Downloads","no","mono","no","18","no","white","no","yes","768","legacy","42","42","C:/Users/Austin/Downloads/AH-subject-2.csv","legacy","Lentiform Loewenfeld","3.3.12","0","s","NA","s","NA","NA","s","473","NA","21776","NA","NA","473","2","legacy","1024","2","48000","-16","experiment","SSHSS","2","even","26996","NA","NA","39205","NA","NA","106462","105263","5218","NA","NA","106569","107044","106455","106569","5210","Flanker Task","41","23702","43","yes","1024"
"95.45454545454545","95.45454545454545","554.1818181818181","554.1818181818181","black","legacy","legacy","legacy","0","Incongruent","uniform","1","undefined","1","s","0","0","0","43","43","0","43","43","0","0","0","43","43","43","43","0","Wed Sep 21 09:51:32 2022","1500","The main experiment item","yes","FlankerTask.osexp","C:/Users/Austin/Downloads","no","mono","no","18","no","white","no","yes","768","legacy","43","43","C:/Users/Austin/Downloads/AH-subject-2.csv","legacy","Lentiform Loewenfeld","3.3.12","0","s","NA","s","NA","NA","s","682","NA","21776","NA","NA","682","2","legacy","1024","2","48000","-16","experiment","HHSHH","2","even","26996","NA","NA","107056","NA","NA","108767","107563","5218","NA","NA","108875","109558","108760","108875","5210","Flanker Task","42","24384","44","yes","1024"
"95.55555555555556","95.55555555555556","552.8666666666667","552.8666666666667","black","legacy","legacy","legacy","0","Incongruent","uniform","1","undefined","1","s","0","0","0","44","44","0","44","44","0","0","0","44","44","44","44","0","Wed Sep 21 09:51:32 2022","1500","The main experiment item","yes","FlankerTask.osexp","C:/Users/Austin/Downloads","no","mono","no","18","no","white","no","yes","768","legacy","44","44","C:/Users/Austin/Downloads/AH-subject-2.csv","legacy","Lentiform Loewenfeld","3.3.12","0","s","NA","s","NA","NA","s","495","NA","21776","NA","NA","495","2","legacy","1024","2","48000","-16","experiment","HHSHH","2","even","26996","NA","NA","107056","NA","NA","110783","109570","5218","NA","NA","110890","111386","110777","110890","5210","Flanker Task","43","24879","45","yes","1024"
"95.65217391304348","95.65217391304348","551.5434782608696","551.5434782608696","black","legacy","legacy","legacy","0","Congruent","uniform","1","undefined","1","h","0","0","0","45","45","0","45","45","0","0","0","45","45","45","45","0","Wed Sep 21 09:51:32 2022","1500","The main experiment item","yes","FlankerTask.osexp","C:/Users/Austin/Downloads","no","mono","no","18","no","white","no","yes","768","legacy","45","45","C:/Users/Austin/Downloads/AH-subject-2.csv","legacy","Lentiform Loewenfeld","3.3.12","0","h","NA","s","NA","NA","h","492","NA","21776","NA","NA","492","2","legacy","1024","2","48000","-16","experiment","HHHHH","2","even","26996","NA","NA","107056","NA","NA","112600","111398","5218","NA","NA","112707","113202","112591","112707","5210","Flanker Task","44","25371","46","yes","1024"
"95.74468085106383","95.74468085106383","548.7446808510638","548.7446808510638","black","legacy","legacy","legacy","0","Incongruent","uniform","1","undefined","1","h","0","0","0","46","46","0","46","46","0","0","0","46","46","46","46","0","Wed Sep 21 09:51:32 2022","1500","The main experiment item","yes","FlankerTask.osexp","C:/Users/Austin/Downloads","no","mono","no","18","no","white","no","yes","768","legacy","46","46","C:/Users/Austin/Downloads/AH-subject-2.csv","legacy","Lentiform Loewenfeld","3.3.12","0","h","NA","s","NA","NA","h","420","NA","21776","NA","NA","420","2","legacy","1024","2","48000","-16","experiment","SSHSS","2","even","26996","NA","NA","107056","NA","NA","114418","113213","5218","NA","NA","114526","114948","114411","114525","5210","Flanker Task","45","25791","47","yes","1024"
"95.83333333333333","95.83333333333333","546.3958333333334","546.3958333333334","black","legacy","legacy","legacy","0","Congruent","uniform","1","undefined","1","h","0","0","0","47","47","0","47","47","0","0","0","47","47","47","47","0","Wed Sep 21 09:51:32 2022","1500","The main experiment item","yes","FlankerTask.osexp","C:/Users/Austin/Downloads","no","mono","no","18","no","white","no","yes","768","legacy","47","47","C:/Users/Austin/Downloads/AH-subject-2.csv","legacy","Lentiform Loewenfeld","3.3.12","0","h","NA","s","NA","NA","h","436","NA","21776","NA","NA","436","2","legacy","1024","2","48000","-16","experiment","HHHHH","2","even","26996","NA","NA","107056","NA","NA","116164","114959","5218","NA","NA","116271","116709","116157","116271","5210","Flanker Task","46","26227","48","yes","1024"
"95.91836734693878","95.91836734693878","544.6734693877551","544.6734693877551","black","legacy","legacy","legacy","0","Congruent","uniform","1","undefined","1","h","0","0","0","48","48","0","48","48","0","0","0","48","48","48","48","0","Wed Sep 21 09:51:32 2022","1500","The main experiment item","yes","FlankerTask.osexp","C:/Users/Austin/Downloads","no","mono","no","18","no","white","no","yes","768","legacy","48","48","C:/Users/Austin/Downloads/AH-subject-2.csv","legacy","Lentiform Loewenfeld","3.3.12","0","h","NA","s","NA","NA","h","462","NA","21776","NA","NA","462","2","legacy","1024","2","48000","-16","experiment","HHHHH","2","even","26996","NA","NA","107056","NA","NA","117925","116721","5218","NA","NA","118033","118496","117918","118032","5210","Flanker Task","47","26689","49","yes","1024"
"96","96","543","543","black","legacy","legacy","legacy","0","Congruent","uniform","1","undefined","1","h","0","0","0","49","49","0","49","49","0","0","0","49","49","49","49","0","Wed Sep 21 09:51:32 2022","1500","The main experiment item","yes","FlankerTask.osexp","C:/Users/Austin/Downloads","no","mono","no","18","no","white","no","yes","768","legacy","49","49","C:/Users/Austin/Downloads/AH-subject-2.csv","legacy","Lentiform Loewenfeld","3.3.12","0","h","NA","s","NA","NA","h","461","NA","21776","NA","NA","461","2","legacy","1024","2","48000","-16","experiment","HHHHH","2","even","26996","NA","NA","107056","NA","NA","119708","118507","5218","NA","NA","119817","120279","119701","119816","5210","Flanker Task","48","27150","50","yes","1024"
"96.07843137254902","96.07843137254902","541.6274509803922","541.6274509803922","black","legacy","legacy","legacy","0","Congruent","uniform","1","undefined","1","s","0","0","0","50","50","0","50","50","0","0","0","50","50","50","50","0","Wed Sep 21 09:51:32 2022","1500","The main experiment item","yes","FlankerTask.osexp","C:/Users/Austin/Downloads","no","mono","no","18","no","white","no","yes","768","legacy","50","50","C:/Users/Austin/Downloads/AH-subject-2.csv","legacy","Lentiform Loewenfeld","3.3.12","0","s","NA","s","NA","NA","s","473","NA","21776","NA","NA","473","2","legacy","1024","2","48000","-16","experiment","SSSSS","2","even","26996","NA","NA","107056","NA","NA","121508","120291","5218","NA","NA","121616","122091","121501","121615","5210","Flanker Task","49","27623","51","yes","1024"
"96.15384615384616","96.15384615384616","540.0384615384615","540.0384615384615","black","legacy","legacy","legacy","0","Congruent","uniform","1","undefined","1","s","0","0","0","51","51","0","51","51","0","0","0","51","51","51","51","0","Wed Sep 21 09:51:32 2022","1500","The main experiment item","yes","FlankerTask.osexp","C:/Users/Austin/Downloads","no","mono","no","18","no","white","no","yes","768","legacy","51","51","C:/Users/Austin/Downloads/AH-subject-2.csv","legacy","Lentiform Loewenfeld","3.3.12","0","s","NA","s","NA","NA","s","459","NA","21776","NA","NA","459","2","legacy","1024","2","48000","-16","experiment","SSSSS","2","even","26996","NA","NA","107056","NA","NA","123303","122102","5218","NA","NA","123411","123872","123295","123411","5210","Flanker Task","50","28082","52","yes","1024"
"96.22641509433963","96.22641509433963","538.0377358490566","538.0377358490566","black","legacy","legacy","legacy","0","Congruent","uniform","1","undefined","1","h","0","0","0","52","52","0","52","52","0","0","0","52","52","52","52","0","Wed Sep 21 09:51:32 2022","1500","The main experiment item","yes","FlankerTask.osexp","C:/Users/Austin/Downloads","no","mono","no","18","no","white","no","yes","768","legacy","52","52","C:/Users/Austin/Downloads/AH-subject-2.csv","legacy","Lentiform Loewenfeld","3.3.12","0","h","NA","s","NA","NA","h","434","NA","21776","NA","NA","434","2","legacy","1024","2","48000","-16","experiment","HHHHH","2","even","26996","NA","NA","107056","NA","NA","125090","123882","5218","NA","NA","125198","125634","125083","125198","5210","Flanker Task","51","28516","53","yes","1024"
"96.29629629629629","96.29629629629629","538.8333333333334","538.8333333333334","black","legacy","legacy","legacy","0","Incongruent","uniform","1","undefined","1","s","0","0","0","53","53","0","53","53","0","0","0","53","53","53","53","0","Wed Sep 21 09:51:32 2022","1500","The main experiment item","yes","FlankerTask.osexp","C:/Users/Austin/Downloads","no","mono","no","18","no","white","no","yes","768","legacy","53","53","C:/Users/Austin/Downloads/AH-subject-2.csv","legacy","Lentiform Loewenfeld","3.3.12","0","s","NA","s","NA","NA","s","581","NA","21776","NA","NA","581","2","legacy","1024","2","48000","-16","experiment","HHSHH","2","even","26996","NA","NA","107056","NA","NA","126861","125646","5218","NA","NA","126967","127550","126854","126967","5210","Flanker Task","52","29097","54","yes","1024"
"96.36363636363636","96.36363636363636","538.0363636363636","538.0363636363636","black","legacy","legacy","legacy","0","Incongruent","uniform","1","undefined","1","h","0","0","0","54","54","0","54","54","0","0","0","54","54","54","54","0","Wed Sep 21 09:51:32 2022","1500","The main experiment item","yes","FlankerTask.osexp","C:/Users/Austin/Downloads","no","mono","no","18","no","white","no","yes","768","legacy","54","54","C:/Users/Austin/Downloads/AH-subject-2.csv","legacy","Lentiform Loewenfeld","3.3.12","0","h","NA","s","NA","NA","h","495","NA","21776","NA","NA","495","2","legacy","1024","2","48000","-16","experiment","SSHSS","2","even","26996","NA","NA","107056","NA","NA","128759","127561","5218","NA","NA","128867","129364","128752","128867","5210","Flanker Task","53","29592","55","yes","1024"
"96.42857142857143","96.42857142857143","539.1071428571429","539.1071428571429","black","legacy","legacy","legacy","0","Incongruent","uniform","1","undefined","1","s","0","0","0","55","55","0","55","55","0","0","0","55","55","55","55","0","Wed Sep 21 09:51:32 2022","1500","The main experiment item","yes","FlankerTask.osexp","C:/Users/Austin/Downloads","no","mono","no","18","no","white","no","yes","768","legacy","55","55","C:/Users/Austin/Downloads/AH-subject-2.csv","legacy","Lentiform Loewenfeld","3.3.12","0","s","NA","s","NA","NA","s","598","NA","21776","NA","NA","598","2","legacy","1024","2","48000","-16","experiment","HHSHH","2","even","26996","NA","NA","107056","NA","NA","130586","129375","5218","NA","NA","130694","131293","130579","130694","5210","Flanker Task","54","30190","56","yes","1024"
"96.49122807017544","96.49122807017544","539.140350877193","539.140350877193","black","legacy","legacy","legacy","0","Incongruent","uniform","1","undefined","1","s","0","0","0","56","56","0","56","56","0","0","0","56","56","56","56","0","Wed Sep 21 09:51:32 2022","1500","The main experiment item","yes","FlankerTask.osexp","C:/Users/Austin/Downloads","no","mono","no","18","no","white","no","yes","768","legacy","56","56","C:/Users/Austin/Downloads/AH-subject-2.csv","legacy","Lentiform Loewenfeld","3.3.12","0","s","NA","s","NA","NA","s","541","NA","21776","NA","NA","541","2","legacy","1024","2","48000","-16","experiment","HHSHH","2","even","26996","NA","NA","107056","NA","NA","132511","131305","5218","NA","NA","132617","133160","132504","132616","5210","Flanker Task","55","30731","57","yes","1024"
"96.55172413793103","96.55172413793103","537.1724137931035","537.1724137931035","black","legacy","legacy","legacy","0","Congruent","uniform","1","undefined","1","s","0","0","0","57","57","0","57","57","0","0","0","57","57","57","57","0","Wed Sep 21 09:51:32 2022","1500","The main experiment item","yes","FlankerTask.osexp","C:/Users/Austin/Downloads","no","mono","no","18","no","white","no","yes","768","legacy","57","57","C:/Users/Austin/Downloads/AH-subject-2.csv","legacy","Lentiform Loewenfeld","3.3.12","0","s","NA","s","NA","NA","s","425","NA","21776","NA","NA","425","2","legacy","1024","2","48000","-16","experiment","SSSSS","2","even","26996","NA","NA","107056","NA","NA","134374","133170","5218","NA","NA","134482","134908","134368","134482","5210","Flanker Task","56","31156","58","yes","1024"
"96.61016949152543","96.61016949152543","536.1016949152543","536.1016949152543","black","legacy","legacy","legacy","0","Congruent","uniform","1","undefined","1","s","0","0","0","58","58","0","58","58","0","0","0","58","58","58","58","0","Wed Sep 21 09:51:32 2022","1500","The main experiment item","yes","FlankerTask.osexp","C:/Users/Austin/Downloads","no","mono","no","18","no","white","no","yes","768","legacy","58","58","C:/Users/Austin/Downloads/AH-subject-2.csv","legacy","Lentiform Loewenfeld","3.3.12","0","s","NA","s","NA","NA","s","474","NA","21776","NA","NA","474","2","legacy","1024","2","48000","-16","experiment","SSSSS","2","even","26996","NA","NA","107056","NA","NA","136129","134920","5218","NA","NA","136236","136712","136122","136236","5210","Flanker Task","57","31630","59","yes","1024"
"96.66666666666667","96.66666666666667","536.8666666666667","536.8666666666667","black","legacy","legacy","legacy","0","Incongruent","uniform","1","undefined","1","s","0","0","0","59","59","0","59","59","0","0","0","59","59","59","59","0","Wed Sep 21 09:51:32 2022","1500","The main experiment item","yes","FlankerTask.osexp","C:/Users/Austin/Downloads","no","mono","no","18","no","white","no","yes","768","legacy","59","59","C:/Users/Austin/Downloads/AH-subject-2.csv","legacy","Lentiform Loewenfeld","3.3.12","0","s","NA","s","NA","NA","s","582","NA","21776","NA","NA","582","2","legacy","1024","2","48000","-16","experiment","HHSHH","2","even","26996","NA","NA","107056","NA","NA","137924","136723","5218","NA","NA","138031","138615","137916","138031","5210","Flanker Task","58","32212","60","yes","1024"
"96.72131147540983","96.72131147540983","536.5409836065573","536.5409836065573","black","legacy","legacy","legacy","0","Incongruent","uniform","1","undefined","1","s","0","0","0","60","60","0","60","60","0","0","0","60","60","60","60","0","Wed Sep 21 09:51:32 2022","1500","The main experiment item","yes","FlankerTask.osexp","C:/Users/Austin/Downloads","no","mono","no","18","no","white","no","yes","768","legacy","60","60","C:/Users/Austin/Downloads/AH-subject-2.csv","legacy","Lentiform Loewenfeld","3.3.12","0","s","NA","s","NA","NA","s","517","NA","21776","NA","NA","517","2","legacy","1024","2","48000","-16","experiment","HHSHH","2","even","26996","NA","NA","107056","NA","NA","139828","138626","5218","NA","NA","139936","140455","139821","139935","5210","Flanker Task","59","32729","61","yes","1024"
"96.7741935483871","96.7741935483871","536.1774193548387","536.1774193548387","black","legacy","legacy","legacy","0","Congruent","uniform","1","undefined","1","s","0","0","0","61","61","0","61","61","0","0","0","61","61","61","61","0","Wed Sep 21 09:51:32 2022","1500","The main experiment item","yes","FlankerTask.osexp","C:/Users/Austin/Downloads","no","mono","no","18","no","white","no","yes","768","legacy","61","61","C:/Users/Austin/Downloads/AH-subject-2.csv","legacy","Lentiform Loewenfeld","3.3.12","0","s","NA","s","NA","NA","s","514","NA","21776","NA","NA","514","2","legacy","1024","2","48000","-16","experiment","SSSSS","2","even","26996","NA","NA","107056","NA","NA","141667","140465","5218","NA","NA","141775","142292","141659","141774","5210","Flanker Task","60","33243","62","yes","1024"
"96.82539682539682","96.82539682539682","534.3809523809524","534.3809523809524","black","legacy","legacy","legacy","0","Congruent","uniform","1","undefined","1","s","0","0","0","62","62","0","62","62","0","0","0","62","62","62","62","0","Wed Sep 21 09:51:32 2022","1500","The main experiment item","yes","FlankerTask.osexp","C:/Users/Austin/Downloads","no","mono","no","18","no","white","no","yes","768","legacy","62","62","C:/Users/Austin/Downloads/AH-subject-2.csv","legacy","Lentiform Loewenfeld","3.3.12","0","s","NA","s","NA","NA","s","423","NA","21776","NA","NA","423","2","legacy","1024","2","48000","-16","experiment","SSSSS","2","even","26996","NA","NA","107056","NA","NA","143510","142306","5218","NA","NA","143617","144041","143503","143617","5210","Flanker Task","61","33666","63","yes","1024"
"96.875","96.875","534.109375","534.109375","black","legacy","legacy","legacy","0","Congruent","uniform","1","undefined","1","h","0","0","0","63","63","0","63","63","0","0","0","63","63","63","63","0","Wed Sep 21 09:51:32 2022","1500","The main experiment item","yes","FlankerTask.osexp","C:/Users/Austin/Downloads","no","mono","no","18","no","white","no","yes","768","legacy","63","63","C:/Users/Austin/Downloads/AH-subject-2.csv","legacy","Lentiform Loewenfeld","3.3.12","0","h","NA","s","NA","NA","h","517","NA","21776","NA","NA","517","2","legacy","1024","2","48000","-16","experiment","HHHHH","2","even","26996","NA","NA","107056","NA","NA","145259","144053","5218","NA","NA","145365","145884","145252","145365","5210","Flanker Task","62","34183","64","yes","1024"
"96.92307692307692","96.92307692307692","533.9846153846154","533.9846153846154","black","legacy","legacy","legacy","0","Congruent","uniform","1","undefined","1","s","0","0","0","64","64","0","64","64","0","0","0","64","64","64","64","0","Wed Sep 21 09:51:32 2022","1500","The main experiment item","yes","FlankerTask.osexp","C:/Users/Austin/Downloads","no","mono","no","18","no","white","no","yes","768","legacy","64","64","C:/Users/Austin/Downloads/AH-subject-2.csv","legacy","Lentiform Loewenfeld","3.3.12","0","s","NA","s","NA","NA","s","526","NA","21776","NA","NA","526","2","legacy","1024","2","48000","-16","experiment","SSSSS","2","even","26996","NA","NA","107056","NA","NA","147098","145896","5218","NA","NA","147206","147734","147091","147206","5210","Flanker Task","63","34709","65","yes","1024"
"96.96969696969697","96.96969696969697","534.030303030303","534.030303030303","black","legacy","legacy","legacy","0","Incongruent","uniform","1","undefined","1","h","0","0","0","65","65","0","65","65","0","0","0","65","65","65","65","0","Wed Sep 21 09:51:32 2022","1500","The main experiment item","yes","FlankerTask.osexp","C:/Users/Austin/Downloads","no","mono","no","18","no","white","no","yes","768","legacy","65","65","C:/Users/Austin/Downloads/AH-subject-2.csv","legacy","Lentiform Loewenfeld","3.3.12","0","h","NA","s","NA","NA","h","537","NA","21776","NA","NA","537","2","legacy","1024","2","48000","-16","experiment","SSHSS","2","even","26996","NA","NA","107056","NA","NA","148949","147745","5218","NA","NA","149057","149596","148943","149057","5210","Flanker Task","64","35246","66","yes","1024"
"95.5223880597015","95.5223880597015","533.3432835820895","533.3432835820895","black","legacy","legacy","legacy","0","Incongruent","uniform","0","undefined","0","s","0","0","0","66","66","0","66","66","0","0","0","66","66","66","66","0","Wed Sep 21 09:51:32 2022","1500","The main experiment item","yes","FlankerTask.osexp","C:/Users/Austin/Downloads","no","mono","no","18","no","white","no","yes","768","legacy","66","66","C:/Users/Austin/Downloads/AH-subject-2.csv","legacy","Lentiform Loewenfeld","3.3.12","0","h","NA","s","NA","NA","h","488","NA","21776","NA","NA","488","2","legacy","1024","2","48000","-16","experiment","HHSHH","2","even","26996","NA","NA","107056","NA","NA","150832","149608","5218","NA","NA","150939","151429","150825","150939","5210","Flanker Task","64","35734","67","yes","1024"
"95.58823529411765","95.58823529411765","531.9705882352941","531.9705882352941","black","legacy","legacy","legacy","0","Congruent","uniform","1","undefined","1","s","0","0","0","67","67","0","67","67","0","0","0","67","67","67","67","0","Wed Sep 21 09:51:32 2022","1500","The main experiment item","yes","FlankerTask.osexp","C:/Users/Austin/Downloads","no","mono","no","18","no","white","no","yes","768","legacy","67","67","C:/Users/Austin/Downloads/AH-subject-2.csv","legacy","Lentiform Loewenfeld","3.3.12","0","s","NA","s","NA","NA","s","440","NA","21776","NA","NA","440","2","legacy","1024","2","48000","-16","experiment","SSSSS","2","even","26996","NA","NA","151441","NA","NA","153151","151947","5218","NA","NA","153258","153700","153144","153258","5210","Flanker Task","65","36174","68","yes","1024"
"95.65217391304348","95.65217391304348","532.2463768115942","532.2463768115942","black","legacy","legacy","legacy","0","Incongruent","uniform","1","undefined","1","h","0","0","0","68","68","0","68","68","0","0","0","68","68","68","68","0","Wed Sep 21 09:51:32 2022","1500","The main experiment item","yes","FlankerTask.osexp","C:/Users/Austin/Downloads","no","mono","no","18","no","white","no","yes","768","legacy","68","68","C:/Users/Austin/Downloads/AH-subject-2.csv","legacy","Lentiform Loewenfeld","3.3.12","0","h","NA","s","NA","NA","h","551","NA","21776","NA","NA","551","2","legacy","1024","2","48000","-16","experiment","SSHSS","2","even","26996","NA","NA","151441","NA","NA","154913","153711","5218","NA","NA","155021","155574","154906","155020","5210","Flanker Task","66","36725","69","yes","1024"
"95.71428571428571","95.71428571428571","532.7","532.7","black","legacy","legacy","legacy","0","Congruent","uniform","1","undefined","1","h","0","0","0","69","69","0","69","69","0","0","0","69","69","69","69","0","Wed Sep 21 09:51:32 2022","1500","The main experiment item","yes","FlankerTask.osexp","C:/Users/Austin/Downloads","no","mono","no","18","no","white","no","yes","768","legacy","69","69","C:/Users/Austin/Downloads/AH-subject-2.csv","legacy","Lentiform Loewenfeld","3.3.12","0","h","NA","s","NA","NA","h","564","NA","21776","NA","NA","564","2","legacy","1024","2","48000","-16","experiment","HHHHH","2","even","26996","NA","NA","151441","NA","NA","156788","155586","5218","NA","NA","156895","157461","156781","156895","5210","Flanker Task","67","37289","70","yes","1024"
"95.77464788732394","95.77464788732394","532.0281690140845","532.0281690140845","black","legacy","legacy","legacy","0","Congruent","uniform","1","undefined","1","h","0","0","0","70","70","0","70","70","0","0","0","70","70","70","70","0","Wed Sep 21 09:51:32 2022","1500","The main experiment item","yes","FlankerTask.osexp","C:/Users/Austin/Downloads","no","mono","no","18","no","white","no","yes","768","legacy","70","70","C:/Users/Austin/Downloads/AH-subject-2.csv","legacy","Lentiform Loewenfeld","3.3.12","0","h","NA","s","NA","NA","h","485","NA","21776","NA","NA","485","2","legacy","1024","2","48000","-16","experiment","HHHHH","2","even","26996","NA","NA","151441","NA","NA","158675","157473","5218","NA","NA","158783","159270","158668","158783","5210","Flanker Task","68","37774","71","yes","1024"
"95.83333333333333","95.83333333333333","531.4583333333334","531.4583333333334","black","legacy","legacy","legacy","0","Congruent","uniform","1","undefined","1","h","0","0","0","71","71","0","71","71","0","0","0","71","71","71","71","0","Wed Sep 21 09:51:32 2022","1500","The main experiment item","yes","FlankerTask.osexp","C:/Users/Austin/Downloads","no","mono","no","18","no","white","no","yes","768","legacy","71","71","C:/Users/Austin/Downloads/AH-subject-2.csv","legacy","Lentiform Loewenfeld","3.3.12","0","h","NA","s","NA","NA","h","491","NA","21776","NA","NA","491","2","legacy","1024","2","48000","-16","experiment","HHHHH","2","even","26996","NA","NA","151441","NA","NA","160482","159281","5218","NA","NA","160590","161084","160475","160590","5210","Flanker Task","69","38265","72","yes","1024"
"95.89041095890411","95.89041095890411","530.3424657534247","530.3424657534247","black","legacy","legacy","legacy","0","Congruent","uniform","1","undefined","1","h","0","0","0","72","72","0","72","72","0","0","0","72","72","72","72","0","Wed Sep 21 09:51:32 2022","1500","The main experiment item","yes","FlankerTask.osexp","C:/Users/Austin/Downloads","no","mono","no","18","no","white","no","yes","768","legacy","72","72","C:/Users/Austin/Downloads/AH-subject-2.csv","legacy","Lentiform Loewenfeld","3.3.12","0","h","NA","s","NA","NA","h","450","NA","21776","NA","NA","450","2","legacy","1024","2","48000","-16","experiment","HHHHH","2","even","26996","NA","NA","151441","NA","NA","162300","161095","5218","NA","NA","162407","162859","162293","162407","5210","Flanker Task","70","38715","73","yes","1024"
"95.94594594594595","95.94594594594595","529.5540540540541","529.5540540540541","black","legacy","legacy","legacy","0","Congruent","uniform","1","undefined","1","s","0","0","0","73","73","0","73","73","0","0","0","73","73","73","73","0","Wed Sep 21 09:51:32 2022","1500","The main experiment item","yes","FlankerTask.osexp","C:/Users/Austin/Downloads","no","mono","no","18","no","white","no","yes","768","legacy","73","73","C:/Users/Austin/Downloads/AH-subject-2.csv","legacy","Lentiform Loewenfeld","3.3.12","0","s","NA","s","NA","NA","s","472","NA","21776","NA","NA","472","2","legacy","1024","2","48000","-16","experiment","SSSSS","2","even","26996","NA","NA","151441","NA","NA","164073","162871","5218","NA","NA","164180","164654","164066","164180","5210","Flanker Task","71","39187","74","yes","1024"
"96","96","530.0666666666667","530.0666666666667","black","legacy","legacy","legacy","0","Incongruent","uniform","1","undefined","1","s","0","0","0","74","74","0","74","74","0","0","0","74","74","74","74","0","Wed Sep 21 09:51:32 2022","1500","The main experiment item","yes","FlankerTask.osexp","C:/Users/Austin/Downloads","no","mono","no","18","no","white","no","yes","768","legacy","74","74","C:/Users/Austin/Downloads/AH-subject-2.csv","legacy","Lentiform Loewenfeld","3.3.12","0","s","NA","s","NA","NA","s","568","NA","21776","NA","NA","568","2","legacy","1024","2","48000","-16","experiment","HHSHH","2","even","26996","NA","NA","151441","NA","NA","165860","164666","5218","NA","NA","165966","166536","165853","165966","5210","Flanker Task","72","39755","75","yes","1024"
"96.05263157894737","96.05263157894737","530.0526315789474","530.0526315789474","black","legacy","legacy","legacy","0","Incongruent","uniform","1","undefined","1","h","0","0","0","75","75","0","75","75","0","0","0","75","75","75","75","0","Wed Sep 21 09:51:32 2022","1500","The main experiment item","yes","FlankerTask.osexp","C:/Users/Austin/Downloads","no","mono","no","18","no","white","no","yes","768","legacy","75","75","C:/Users/Austin/Downloads/AH-subject-2.csv","legacy","Lentiform Loewenfeld","3.3.12","0","h","NA","s","NA","NA","h","529","NA","21776","NA","NA","529","2","legacy","1024","2","48000","-16","experiment","SSHSS","2","even","26996","NA","NA","151441","NA","NA","167747","166547","5218","NA","NA","167855","168386","167740","167854","5210","Flanker Task","73","40284","76","yes","1024"
"96.1038961038961","96.1038961038961","530.2597402597403","530.2597402597403","black","legacy","legacy","legacy","0","Incongruent","uniform","1","undefined","1","h","0","0","0","76","76","0","76","76","0","0","0","76","76","76","76","0","Wed Sep 21 09:51:32 2022","1500","The main experiment item","yes","FlankerTask.osexp","C:/Users/Austin/Downloads","no","mono","no","18","no","white","no","yes","768","legacy","76","76","C:/Users/Austin/Downloads/AH-subject-2.csv","legacy","Lentiform Loewenfeld","3.3.12","0","h","NA","s","NA","NA","h","546","NA","21776","NA","NA","546","2","legacy","1024","2","48000","-16","experiment","SSHSS","2","even","26996","NA","NA","151441","NA","NA","169615","168398","5218","NA","NA","169722","170271","169608","169722","5210","Flanker Task","74","40830","77","yes","1024"
"96.15384615384616","96.15384615384616","530.5641025641025","530.5641025641025","black","legacy","legacy","legacy","0","Incongruent","uniform","1","undefined","1","h","0","0","0","77","77","0","77","77","0","0","0","77","77","77","77","0","Wed Sep 21 09:51:32 2022","1500","The main experiment item","yes","FlankerTask.osexp","C:/Users/Austin/Downloads","no","mono","no","18","no","white","no","yes","768","legacy","77","77","C:/Users/Austin/Downloads/AH-subject-2.csv","legacy","Lentiform Loewenfeld","3.3.12","0","h","NA","s","NA","NA","h","554","NA","21776","NA","NA","554","2","legacy","1024","2","48000","-16","experiment","SSHSS","2","even","26996","NA","NA","151441","NA","NA","171484","170286","5218","NA","NA","171591","172147","171477","171591","5210","Flanker Task","75","41384","78","yes","1024"
"96.20253164556962","96.20253164556962","532.9746835443038","532.9746835443038","black","legacy","legacy","legacy","0","Congruent","uniform","1","undefined","1","s","0","0","0","78","78","0","78","78","0","0","0","78","78","78","78","0","Wed Sep 21 09:51:32 2022","1500","The main experiment item","yes","FlankerTask.osexp","C:/Users/Austin/Downloads","no","mono","no","18","no","white","no","yes","768","legacy","78","78","C:/Users/Austin/Downloads/AH-subject-2.csv","legacy","Lentiform Loewenfeld","3.3.12","0","s","NA","s","NA","NA","s","721","NA","21776","NA","NA","721","2","legacy","1024","2","48000","-16","experiment","SSSSS","2","even","26996","NA","NA","151441","NA","NA","173355","172157","5218","NA","NA","173462","174186","173348","173461","5210","Flanker Task","76","42105","79","yes","1024"
"96.25","96.25","532.75","532.75","black","legacy","legacy","legacy","0","Incongruent","uniform","1","undefined","1","h","0","0","0","79","79","0","79","79","0","0","0","79","79","79","79","0","Wed Sep 21 09:51:32 2022","1500","The main experiment item","yes","FlankerTask.osexp","C:/Users/Austin/Downloads","no","mono","no","18","no","white","no","yes","768","legacy","79","79","C:/Users/Austin/Downloads/AH-subject-2.csv","legacy","Lentiform Loewenfeld","3.3.12","0","h","NA","s","NA","NA","h","515","NA","21776","NA","NA","515","2","legacy","1024","2","48000","-16","experiment","SSHSS","2","even","26996","NA","NA","151441","NA","NA","175398","174196","5218","NA","NA","175505","176023","175391","175505","5210","Flanker Task","77","42620","80","yes","1024"
"96.29629629629629","96.29629629629629","531.679012345679","531.679012345679","black","legacy","legacy","legacy","0","Congruent","uniform","1","undefined","1","h","0","0","0","80","80","0","80","80","0","0","0","80","80","80","80","0","Wed Sep 21 09:51:32 2022","600","The main experiment item","yes","FlankerTask.osexp","C:/Users/Austin/Downloads","no","mono","no","18","no","white","no","yes","768","legacy","0","79","C:/Users/Austin/Downloads/AH-subject-2.csv","legacy","Lentiform Loewenfeld","3.3.12","0","h","NA","s","NA","h","h","446","NA","21776","NA","22738","446","2","legacy","1024","2","48000","-16","experiment","HHHHH","2","even","26996","NA","199857","151441","NA","NA","199960","176034","5218","NA","177117","200066","200515","199956","200066","5210","Flanker Task","78","43066","81","yes","1024"
"96.34146341463415","96.34146341463415","531.6341463414634","531.6341463414634","black","legacy","legacy","legacy","0","Incongruent","uniform","1","undefined","1","s","0","0","0","81","81","0","81","81","0","0","0","81","81","81","81","0","Wed Sep 21 09:51:32 2022","600","The main experiment item","yes","FlankerTask.osexp","C:/Users/Austin/Downloads","no","mono","no","18","no","white","no","yes","768","legacy","1","79","C:/Users/Austin/Downloads/AH-subject-2.csv","legacy","Lentiform Loewenfeld","3.3.12","0","s","NA","s","NA","h","s","528","NA","21776","NA","22738","528","2","legacy","1024","2","48000","-16","experiment","HHSHH","2","even","26996","NA","199857","151441","NA","NA","201726","200525","5218","NA","177117","201834","202364","201719","201834","5210","Flanker Task","79","43594","82","yes","1024"
"96.3855421686747","96.3855421686747","530.289156626506","530.289156626506","black","legacy","legacy","legacy","0","Congruent","uniform","1","undefined","1","s","0","0","0","82","82","0","82","82","0","0","0","82","82","82","82","0","Wed Sep 21 09:51:32 2022","600","The main experiment item","yes","FlankerTask.osexp","C:/Users/Austin/Downloads","no","mono","no","18","no","white","no","yes","768","legacy","2","79","C:/Users/Austin/Downloads/AH-subject-2.csv","legacy","Lentiform Loewenfeld","3.3.12","0","s","NA","s","NA","h","s","420","NA","21776","NA","22738","420","2","legacy","1024","2","48000","-16","experiment","SSSSS","2","even","26996","NA","199857","151441","NA","NA","203602","202376","5218","NA","177117","203709","204131","203595","203708","5210","Flanker Task","80","44014","83","yes","1024"
"96.42857142857143","96.42857142857143","530.8690476190476","530.8690476190476","black","legacy","legacy","legacy","0","Incongruent","uniform","1","undefined","1","s","0","0","0","83","83","0","83","83","0","0","0","83","83","83","83","0","Wed Sep 21 09:51:32 2022","600","The main experiment item","yes","FlankerTask.osexp","C:/Users/Austin/Downloads","no","mono","no","18","no","white","no","yes","768","legacy","3","79","C:/Users/Austin/Downloads/AH-subject-2.csv","legacy","Lentiform Loewenfeld","3.3.12","0","s","NA","s","NA","h","s","579","NA","21776","NA","22738","579","2","legacy","1024","2","48000","-16","experiment","HHSHH","2","even","26996","NA","199857","151441","NA","NA","205345","204143","5218","NA","177117","205453","206034","205337","205453","5210","Flanker Task","81","44593","84","yes","1024"
"96.47058823529412","96.47058823529412","529.4941176470588","529.4941176470588","black","legacy","legacy","legacy","0","Congruent","uniform","1","undefined","1","h","0","0","0","84","84","0","84","84","0","0","0","84","84","84","84","0","Wed Sep 21 09:51:32 2022","600","The main experiment item","yes","FlankerTask.osexp","C:/Users/Austin/Downloads","no","mono","no","18","no","white","no","yes","768","legacy","4","79","C:/Users/Austin/Downloads/AH-subject-2.csv","legacy","Lentiform Loewenfeld","3.3.12","0","h","NA","s","NA","h","h","414","NA","21776","NA","22738","414","2","legacy","1024","2","48000","-16","experiment","HHHHH","2","even","26996","NA","199857","151441","NA","NA","207265","206046","5218","NA","177117","207372","207789","207258","207372","5210","Flanker Task","82","45007","85","yes","1024"
"96.51162790697674","96.51162790697674","528.7441860465116","528.7441860465116","black","legacy","legacy","legacy","0","Congruent","uniform","1","undefined","1","h","0","0","0","85","85","0","85","85","0","0","0","85","85","85","85","0","Wed Sep 21 09:51:32 2022","600","The main experiment item","yes","FlankerTask.osexp","C:/Users/Austin/Downloads","no","mono","no","18","no","white","no","yes","768","legacy","5","79","C:/Users/Austin/Downloads/AH-subject-2.csv","legacy","Lentiform Loewenfeld","3.3.12","0","h","NA","s","NA","h","h","465","NA","21776","NA","22738","465","2","legacy","1024","2","48000","-16","experiment","HHHHH","2","even","26996","NA","199857","151441","NA","NA","208999","207799","5218","NA","177117","209106","209573","208992","209106","5210","Flanker Task","83","45472","86","yes","1024"
"96.55172413793103","96.55172413793103","529.6206896551724","529.6206896551724","black","legacy","legacy","legacy","0","Incongruent","uniform","1","undefined","1","h","0","0","0","86","86","0","86","86","0","0","0","86","86","86","86","0","Wed Sep 21 09:51:32 2022","600","The main experiment item","yes","FlankerTask.osexp","C:/Users/Austin/Downloads","no","mono","no","18","no","white","no","yes","768","legacy","6","79","C:/Users/Austin/Downloads/AH-subject-2.csv","legacy","Lentiform Loewenfeld","3.3.12","0","h","NA","s","NA","h","h","605","NA","21776","NA","22738","605","2","legacy","1024","2","48000","-16","experiment","SSHSS","2","even","26996","NA","199857","151441","NA","NA","210786","209584","5218","NA","177117","210893","211501","210779","210893","5210","Flanker Task","84","46077","87","yes","1024"
"96.5909090909091","96.5909090909091","528.5227272727273","528.5227272727273","black","legacy","legacy","legacy","0","Congruent","uniform","1","undefined","1","h","0","0","0","87","87","0","87","87","0","0","0","87","87","87","87","0","Wed Sep 21 09:51:32 2022","600","The main experiment item","yes","FlankerTask.osexp","C:/Users/Austin/Downloads","no","mono","no","18","no","white","no","yes","768","legacy","7","79","C:/Users/Austin/Downloads/AH-subject-2.csv","legacy","Lentiform Loewenfeld","3.3.12","0","h","NA","s","NA","h","h","433","NA","21776","NA","22738","433","2","legacy","1024","2","48000","-16","experiment","HHHHH","2","even","26996","NA","199857","151441","211512","NA","213221","212019","5218","NA","177117","213327","213762","213214","213327","5210","Flanker Task","85","46510","88","yes","1024"
"96.62921348314607","96.62921348314607","527.8314606741573","527.8314606741573","black","legacy","legacy","legacy","0","Incongruent","uniform","1","undefined","1","h","0","0","0","88","88","0","88","88","0","0","0","88","88","88","88","0","Wed Sep 21 09:51:32 2022","600","The main experiment item","yes","FlankerTask.osexp","C:/Users/Austin/Downloads","no","mono","no","18","no","white","no","yes","768","legacy","8","79","C:/Users/Austin/Downloads/AH-subject-2.csv","legacy","Lentiform Loewenfeld","3.3.12","0","h","NA","s","NA","h","h","467","NA","21776","NA","22738","467","2","legacy","1024","2","48000","-16","experiment","SSHSS","2","even","26996","NA","199857","151441","211512","NA","214977","213774","5218","NA","177117","215085","215555","214970","215085","5210","Flanker Task","86","46977","89","yes","1024"
"96.66666666666667","96.66666666666667","526.4555555555555","526.4555555555555","black","legacy","legacy","legacy","0","Congruent","uniform","1","undefined","1","s","0","0","0","89","89","0","89","89","0","0","0","89","89","89","89","0","Wed Sep 21 09:51:32 2022","600","The main experiment item","yes","FlankerTask.osexp","C:/Users/Austin/Downloads","no","mono","no","18","no","white","no","yes","768","legacy","9","79","C:/Users/Austin/Downloads/AH-subject-2.csv","legacy","Lentiform Loewenfeld","3.3.12","0","s","NA","s","NA","h","s","404","NA","21776","NA","22738","404","2","legacy","1024","2","48000","-16","experiment","SSSSS","2","even","26996","NA","199857","151441","211512","NA","216780","215566","5218","NA","177117","216887","217293","216773","216887","5210","Flanker Task","87","47381","90","yes","1024"
"96.7032967032967","96.7032967032967","525.4835164835165","525.4835164835165","black","legacy","legacy","legacy","0","Congruent","uniform","1","undefined","1","h","0","0","0","90","90","0","90","90","0","0","0","90","90","90","90","0","Wed Sep 21 09:51:32 2022","600","The main experiment item","yes","FlankerTask.osexp","C:/Users/Austin/Downloads","no","mono","no","18","no","white","no","yes","768","legacy","10","79","C:/Users/Austin/Downloads/AH-subject-2.csv","legacy","Lentiform Loewenfeld","3.3.12","0","h","NA","s","NA","h","h","438","NA","21776","NA","22738","438","2","legacy","1024","2","48000","-16","experiment","HHHHH","2","even","26996","NA","199857","151441","211512","NA","218505","217305","5218","NA","177117","218613","219055","218497","218612","5210","Flanker Task","88","47819","91","yes","1024"
"96.73913043478261","96.73913043478261","525.0217391304348","525.0217391304348","black","legacy","legacy","legacy","0","Incongruent","uniform","1","undefined","1","s","0","0","0","91","91","0","91","91","0","0","0","91","91","91","91","0","Wed Sep 21 09:51:32 2022","600","The main experiment item","yes","FlankerTask.osexp","C:/Users/Austin/Downloads","no","mono","no","18","no","white","no","yes","768","legacy","11","79","C:/Users/Austin/Downloads/AH-subject-2.csv","legacy","Lentiform Loewenfeld","3.3.12","0","s","NA","s","NA","h","s","483","NA","21776","NA","22738","483","2","legacy","1024","2","48000","-16","experiment","HHSHH","2","even","26996","NA","199857","151441","211512","NA","220277","219068","5218","NA","177117","220384","220870","220270","220384","5210","Flanker Task","89","48302","92","yes","1024"
"96.7741935483871","96.7741935483871","523.8387096774194","523.8387096774194","black","legacy","legacy","legacy","0","Congruent","uniform","1","undefined","1","s","0","0","0","92","92","0","92","92","0","0","0","92","92","92","92","0","Wed Sep 21 09:51:32 2022","600","The main experiment item","yes","FlankerTask.osexp","C:/Users/Austin/Downloads","no","mono","no","18","no","white","no","yes","768","legacy","12","79","C:/Users/Austin/Downloads/AH-subject-2.csv","legacy","Lentiform Loewenfeld","3.3.12","0","s","NA","s","NA","h","s","415","NA","21776","NA","22738","415","2","legacy","1024","2","48000","-16","experiment","SSSSS","2","even","26996","NA","199857","151441","211512","NA","222085","220881","5218","NA","177117","222192","222609","222078","222192","5210","Flanker Task","90","48717","93","yes","1024"
"96.80851063829788","96.80851063829788","522.7021276595744","522.7021276595744","black","legacy","legacy","legacy","0","Congruent","uniform","1","undefined","1","h","0","0","0","93","93","0","93","93","0","0","0","93","93","93","93","0","Wed Sep 21 09:51:32 2022","600","The main experiment item","yes","FlankerTask.osexp","C:/Users/Austin/Downloads","no","mono","no","18","no","white","no","yes","768","legacy","13","79","C:/Users/Austin/Downloads/AH-subject-2.csv","legacy","Lentiform Loewenfeld","3.3.12","0","h","NA","s","NA","h","h","417","NA","21776","NA","22738","417","2","legacy","1024","2","48000","-16","experiment","HHHHH","2","even","26996","NA","199857","151441","211512","NA","223848","222621","5218","NA","177117","223957","224376","223841","223956","5210","Flanker Task","91","49134","94","yes","1024"
"96.84210526315789","96.84210526315789","521.5578947368421","521.5578947368421","black","legacy","legacy","legacy","0","Congruent","uniform","1","undefined","1","s","0","0","0","94","94","0","94","94","0","0","0","94","94","94","94","0","Wed Sep 21 09:51:32 2022","600","The main experiment item","yes","FlankerTask.osexp","C:/Users/Austin/Downloads","no","mono","no","18","no","white","no","yes","768","legacy","14","79","C:/Users/Austin/Downloads/AH-subject-2.csv","legacy","Lentiform Loewenfeld","3.3.12","0","s","NA","s","NA","h","s","414","NA","21776","NA","22738","414","2","legacy","1024","2","48000","-16","experiment","SSSSS","2","even","26996","NA","199857","151441","211512","NA","225584","224387","5218","NA","177117","225691","226108","225577","225690","5210","Flanker Task","92","49548","95","yes","1024"
"96.875","96.875","521.2916666666666","521.2916666666666","black","legacy","legacy","legacy","0","Incongruent","uniform","1","undefined","1","s","0","0","0","95","95","0","95","95","0","0","0","95","95","95","95","0","Wed Sep 21 09:51:32 2022","600","The main experiment item","yes","FlankerTask.osexp","C:/Users/Austin/Downloads","no","mono","no","18","no","white","no","yes","768","legacy","15","79","C:/Users/Austin/Downloads/AH-subject-2.csv","legacy","Lentiform Loewenfeld","3.3.12","0","s","NA","s","NA","h","s","496","NA","21776","NA","22738","496","2","legacy","1024","2","48000","-16","experiment","HHSHH","2","even","26996","NA","199857","151441","211512","NA","227379","226118","5218","NA","177117","227485","227984","227372","227485","5210","Flanker Task","93","50044","96","yes","1024"
"96.90721649484536","96.90721649484536","520.340206185567","520.340206185567","black","legacy","legacy","legacy","0","Congruent","uniform","1","undefined","1","s","0","0","0","96","96","0","96","96","0","0","0","96","96","96","96","0","Wed Sep 21 09:51:32 2022","600","The main experiment item","yes","FlankerTask.osexp","C:/Users/Austin/Downloads","no","mono","no","18","no","white","no","yes","768","legacy","16","79","C:/Users/Austin/Downloads/AH-subject-2.csv","legacy","Lentiform Loewenfeld","3.3.12","0","s","NA","s","NA","h","s","429","NA","21776","NA","22738","429","2","legacy","1024","2","48000","-16","experiment","SSSSS","2","even","26996","NA","199857","151441","211512","NA","229198","227995","5218","NA","177117","229305","229736","229191","229305","5210","Flanker Task","94","50473","97","yes","1024"
"96.93877551020408","96.93877551020408","519.8775510204082","519.8775510204082","black","legacy","legacy","legacy","0","Incongruent","uniform","1","undefined","1","s","0","0","0","97","97","0","97","97","0","0","0","97","97","97","97","0","Wed Sep 21 09:51:32 2022","600","The main experiment item","yes","FlankerTask.osexp","C:/Users/Austin/Downloads","no","mono","no","18","no","white","no","yes","768","legacy","17","79","C:/Users/Austin/Downloads/AH-subject-2.csv","legacy","Lentiform Loewenfeld","3.3.12","0","s","NA","s","NA","h","s","475","NA","21776","NA","22738","475","2","legacy","1024","2","48000","-16","experiment","HHSHH","2","even","26996","NA","199857","151441","211512","NA","230947","229748","5218","NA","177117","231055","231533","230941","231054","5210","Flanker Task","95","50948","98","yes","1024"
"96.96969696969697","96.96969696969697","519.060606060606","519.060606060606","black","legacy","legacy","legacy","0","Congruent","uniform","1","undefined","1","s","0","0","0","98","98","0","98","98","0","0","0","98","98","98","98","0","Wed Sep 21 09:51:32 2022","600","The main experiment item","yes","FlankerTask.osexp","C:/Users/Austin/Downloads","no","mono","no","18","no","white","no","yes","768","legacy","18","79","C:/Users/Austin/Downloads/AH-subject-2.csv","legacy","Lentiform Loewenfeld","3.3.12","0","s","NA","s","NA","h","s","439","NA","21776","NA","22738","439","2","legacy","1024","2","48000","-16","experiment","SSSSS","2","even","26996","NA","199857","151441","211512","NA","232742","231543","5218","NA","177117","232849","233290","232735","232849","5210","Flanker Task","96","51387","99","yes","1024"
"97","97","519.21","519.21","black","legacy","legacy","legacy","0","Incongruent","uniform","1","undefined","1","s","0","0","0","99","99","0","99","99","0","0","0","99","99","99","99","0","Wed Sep 21 09:51:32 2022","600","The main experiment item","yes","FlankerTask.osexp","C:/Users/Austin/Downloads","no","mono","no","18","no","white","no","yes","768","legacy","19","79","C:/Users/Austin/Downloads/AH-subject-2.csv","legacy","Lentiform Loewenfeld","3.3.12","0","s","NA","s","NA","h","s","534","NA","21776","NA","22738","534","2","legacy","1024","2","48000","-16","experiment","HHSHH","2","even","26996","NA","199857","151441","211512","NA","234508","233301","5218","NA","177117","234616","235153","234501","234615","5210","Flanker Task","97","51921","100","yes","1024"
"97.02970297029702","97.02970297029702","519.2871287128713","519.2871287128713","black","legacy","legacy","legacy","0","Congruent","uniform","1","undefined","1","h","0","0","0","100","100","0","100","100","0","0","0","100","100","100","100","0","Wed Sep 21 09:51:32 2022","600","The main experiment item","yes","FlankerTask.osexp","C:/Users/Austin/Downloads","no","mono","no","18","no","white","no","yes","768","legacy","20","79","C:/Users/Austin/Downloads/AH-subject-2.csv","legacy","Lentiform Loewenfeld","3.3.12","0","h","NA","s","NA","h","h","527","NA","21776","NA","22738","527","2","legacy","1024","2","48000","-16","experiment","HHHHH","2","even","26996","NA","199857","151441","211512","NA","236366","235163","5218","NA","177117","236475","237005","236359","236474","5210","Flanker Task","98","52448","101","yes","1024"
"97.05882352941177","97.05882352941177","517.8725490196078","517.8725490196078","black","legacy","legacy","legacy","0","Congruent","uniform","1","undefined","1","s","0","0","0","101","101","0","101","101","0","0","0","101","101","101","101","0","Wed Sep 21 09:51:32 2022","600","The main experiment item","yes","FlankerTask.osexp","C:/Users/Austin/Downloads","no","mono","no","18","no","white","no","yes","768","legacy","21","79","C:/Users/Austin/Downloads/AH-subject-2.csv","legacy","Lentiform Loewenfeld","3.3.12","0","s","NA","s","NA","h","s","375","NA","21776","NA","22738","375","2","legacy","1024","2","48000","-16","experiment","SSSSS","2","even","26996","NA","199857","151441","211512","NA","238224","237015","5218","NA","177117","238332","238710","238217","238332","5210","Flanker Task","99","52823","102","yes","1024"
"97.0873786407767","97.0873786407767","516.5631067961165","516.5631067961165","black","legacy","legacy","legacy","0","Congruent","uniform","1","undefined","1","s","0","0","0","102","102","0","102","102","0","0","0","102","102","102","102","0","Wed Sep 21 09:51:32 2022","600","The main experiment item","yes","FlankerTask.osexp","C:/Users/Austin/Downloads","no","mono","no","18","no","white","no","yes","768","legacy","22","79","C:/Users/Austin/Downloads/AH-subject-2.csv","legacy","Lentiform Loewenfeld","3.3.12","0","s","NA","s","NA","h","s","383","NA","21776","NA","22738","383","2","legacy","1024","2","48000","-16","experiment","SSSSS","2","even","26996","NA","199857","151441","211512","NA","239919","238720","5218","NA","177117","240027","240412","239912","240026","5210","Flanker Task","100","53206","103","yes","1024"
"97.11538461538461","97.11538461538461","515.6538461538462","515.6538461538462","black","legacy","legacy","legacy","0","Incongruent","uniform","1","undefined","1","s","0","0","0","103","103","0","103","103","0","0","0","103","103","103","103","0","Wed Sep 21 09:51:32 2022","600","The main experiment item","yes","FlankerTask.osexp","C:/Users/Austin/Downloads","no","mono","no","18","no","white","no","yes","768","legacy","23","79","C:/Users/Austin/Downloads/AH-subject-2.csv","legacy","Lentiform Loewenfeld","3.3.12","0","s","NA","s","NA","h","s","422","NA","21776","NA","22738","422","2","legacy","1024","2","48000","-16","experiment","HHSHH","2","even","26996","NA","199857","151441","211512","NA","241626","240423","5218","NA","177117","241734","242158","241618","241733","5210","Flanker Task","101","53628","104","yes","1024"
"97.14285714285714","97.14285714285714","514.952380952381","514.952380952381","black","legacy","legacy","legacy","0","Congruent","uniform","1","undefined","1","h","0","0","0","104","104","0","104","104","0","0","0","104","104","104","104","0","Wed Sep 21 09:51:32 2022","600","The main experiment item","yes","FlankerTask.osexp","C:/Users/Austin/Downloads","no","mono","no","18","no","white","no","yes","768","legacy","24","79","C:/Users/Austin/Downloads/AH-subject-2.csv","legacy","Lentiform Loewenfeld","3.3.12","0","h","NA","s","NA","h","h","442","NA","21776","NA","22738","442","2","legacy","1024","2","48000","-16","experiment","HHHHH","2","even","26996","NA","199857","151441","211512","NA","243369","242169","5218","NA","177117","243477","243922","243362","243476","5210","Flanker Task","102","54070","105","yes","1024"
"97.16981132075472","97.16981132075472","514.5471698113207","514.5471698113207","black","legacy","legacy","legacy","0","Congruent","uniform","1","undefined","1","h","0","0","0","105","105","0","105","105","0","0","0","105","105","105","105","0","Wed Sep 21 09:51:32 2022","600","The main experiment item","yes","FlankerTask.osexp","C:/Users/Austin/Downloads","no","mono","no","18","no","white","no","yes","768","legacy","25","79","C:/Users/Austin/Downloads/AH-subject-2.csv","legacy","Lentiform Loewenfeld","3.3.12","0","h","NA","s","NA","h","h","472","NA","21776","NA","22738","472","2","legacy","1024","2","48000","-16","experiment","HHHHH","2","even","26996","NA","199857","151441","211512","NA","245137","243934","5218","NA","177117","245244","245718","245129","245244","5210","Flanker Task","103","54542","106","yes","1024"
"97.19626168224299","97.19626168224299","514.0467289719626","514.0467289719626","black","legacy","legacy","legacy","0","Incongruent","uniform","1","undefined","1","s","0","0","0","106","106","0","106","106","0","0","0","106","106","106","106","0","Wed Sep 21 09:51:32 2022","600","The main experiment item","yes","FlankerTask.osexp","C:/Users/Austin/Downloads","no","mono","no","18","no","white","no","yes","768","legacy","26","79","C:/Users/Austin/Downloads/AH-subject-2.csv","legacy","Lentiform Loewenfeld","3.3.12","0","s","NA","s","NA","h","s","461","NA","21776","NA","22738","461","2","legacy","1024","2","48000","-16","experiment","HHSHH","2","even","26996","NA","199857","151441","211512","NA","246932","245732","5218","NA","177117","247039","247503","246925","247039","5210","Flanker Task","104","55003","107","yes","1024"
"97.22222222222223","97.22222222222223","513.0925925925926","513.0925925925926","black","legacy","legacy","legacy","0","Congruent","uniform","1","undefined","1","s","0","0","0","107","107","0","107","107","0","0","0","107","107","107","107","0","Wed Sep 21 09:51:32 2022","600","The main experiment item","yes","FlankerTask.osexp","C:/Users/Austin/Downloads","no","mono","no","18","no","white","no","yes","768","legacy","27","79","C:/Users/Austin/Downloads/AH-subject-2.csv","legacy","Lentiform Loewenfeld","3.3.12","0","s","NA","s","NA","h","s","411","NA","21776","NA","22738","411","2","legacy","1024","2","48000","-16","experiment","SSSSS","2","even","26996","NA","199857","151441","211512","NA","248718","247514","5218","NA","177117","248825","249238","248710","248825","5210","Flanker Task","105","55414","108","yes","1024"
"97.24770642201835","97.24770642201835","512.0183486238532","512.0183486238532","black","legacy","legacy","legacy","0","Congruent","uniform","1","undefined","1","s","0","0","0","108","108","0","108","108","0","0","0","108","108","108","108","0","Wed Sep 21 09:51:32 2022","600","The main experiment item","yes","FlankerTask.osexp","C:/Users/Austin/Downloads","no","mono","no","18","no","white","no","yes","768","legacy","28","79","C:/Users/Austin/Downloads/AH-subject-2.csv","legacy","Lentiform Loewenfeld","3.3.12","0","s","NA","s","NA","h","s","396","NA","21776","NA","22738","396","2","legacy","1024","2","48000","-16","experiment","SSSSS","2","even","26996","NA","199857","151441","211512","NA","250459","249250","5218","NA","177117","250567","250965","250453","250567","5210","Flanker Task","106","55810","109","yes","1024"
"97.27272727272727","97.27272727272727","511.2090909090909","511.2090909090909","black","legacy","legacy","legacy","0","Congruent","uniform","1","undefined","1","s","0","0","0","109","109","0","109","109","0","0","0","109","109","109","109","0","Wed Sep 21 09:51:32 2022","600","The main experiment item","yes","FlankerTask.osexp","C:/Users/Austin/Downloads","no","mono","no","18","no","white","no","yes","768","legacy","29","79","C:/Users/Austin/Downloads/AH-subject-2.csv","legacy","Lentiform Loewenfeld","3.3.12","0","s","NA","s","NA","h","s","423","NA","21776","NA","22738","423","2","legacy","1024","2","48000","-16","experiment","SSSSS","2","even","26996","NA","199857","151441","211512","NA","252180","250977","5218","NA","177117","252287","252713","252173","252286","5210","Flanker Task","107","56233","110","yes","1024"
"97.29729729729729","97.29729729729729","510.76576576576576","510.76576576576576","black","legacy","legacy","legacy","0","Congruent","uniform","1","undefined","1","h","0","0","0","110","110","0","110","110","0","0","0","110","110","110","110","0","Wed Sep 21 09:51:32 2022","600","The main experiment item","yes","FlankerTask.osexp","C:/Users/Austin/Downloads","no","mono","no","18","no","white","no","yes","768","legacy","30","79","C:/Users/Austin/Downloads/AH-subject-2.csv","legacy","Lentiform Loewenfeld","3.3.12","0","h","NA","s","NA","h","h","462","NA","21776","NA","22738","462","2","legacy","1024","2","48000","-16","experiment","HHHHH","2","even","26996","NA","199857","151441","211512","NA","253929","252724","5218","NA","177117","254036","254501","253921","254036","5210","Flanker Task","108","56695","111","yes","1024"
"97.32142857142857","97.32142857142857","510.85714285714283","510.85714285714283","black","legacy","legacy","legacy","0","Incongruent","uniform","1","undefined","1","h","0","0","0","111","111","0","111","111","0","0","0","111","111","111","111","0","Wed Sep 21 09:51:32 2022","600","The main experiment item","yes","FlankerTask.osexp","C:/Users/Austin/Downloads","no","mono","no","18","no","white","no","yes","768","legacy","31","79","C:/Users/Austin/Downloads/AH-subject-2.csv","legacy","Lentiform Loewenfeld","3.3.12","0","h","NA","s","NA","h","h","521","NA","21776","NA","22738","521","2","legacy","1024","2","48000","-16","experiment","SSHSS","2","even","26996","NA","199857","151441","211512","NA","255718","254513","5218","NA","177117","255825","256349","255711","255825","5210","Flanker Task","109","57216","112","yes","1024"
"97.34513274336283","97.34513274336283","509.9646017699115","509.9646017699115","black","legacy","legacy","legacy","0","Congruent","uniform","1","undefined","1","s","0","0","0","112","112","0","112","112","0","0","0","112","112","112","112","0","Wed Sep 21 09:51:32 2022","600","The main experiment item","yes","FlankerTask.osexp","C:/Users/Austin/Downloads","no","mono","no","18","no","white","no","yes","768","legacy","32","79","C:/Users/Austin/Downloads/AH-subject-2.csv","legacy","Lentiform Loewenfeld","3.3.12","0","s","NA","s","NA","h","s","410","NA","21776","NA","22738","410","2","legacy","1024","2","48000","-16","experiment","SSSSS","2","even","26996","NA","199857","151441","211512","NA","257570","256361","5218","NA","177117","257677","258090","257563","257677","5210","Flanker Task","110","57626","113","yes","1024"
"97.36842105263158","97.36842105263158","509.7368421052632","509.7368421052632","black","legacy","legacy","legacy","0","Incongruent","uniform","1","undefined","1","h","0","0","0","113","113","0","113","113","0","0","0","113","113","113","113","0","Wed Sep 21 09:51:32 2022","600","The main experiment item","yes","FlankerTask.osexp","C:/Users/Austin/Downloads","no","mono","no","18","no","white","no","yes","768","legacy","33","79","C:/Users/Austin/Downloads/AH-subject-2.csv","legacy","Lentiform Loewenfeld","3.3.12","0","h","NA","s","NA","h","h","484","NA","21776","NA","22738","484","2","legacy","1024","2","48000","-16","experiment","SSHSS","2","even","26996","NA","199857","151441","211512","NA","259322","258101","5218","NA","177117","259429","259916","259315","259429","5210","Flanker Task","111","58110","114","yes","1024"
"97.3913043478261","97.3913043478261","509.30434782608694","509.30434782608694","black","legacy","legacy","legacy","0","Incongruent","uniform","1","undefined","1","h","0","0","0","114","114","0","114","114","0","0","0","114","114","114","114","0","Wed Sep 21 09:51:32 2022","600","The main experiment item","yes","FlankerTask.osexp","C:/Users/Austin/Downloads","no","mono","no","18","no","white","no","yes","768","legacy","34","79","C:/Users/Austin/Downloads/AH-subject-2.csv","legacy","Lentiform Loewenfeld","3.3.12","0","h","NA","s","NA","h","h","460","NA","21776","NA","22738","460","2","legacy","1024","2","48000","-16","experiment","SSHSS","2","even","26996","NA","199857","151441","211512","NA","261127","259928","5218","NA","177117","261235","261698","261120","261235","5210","Flanker Task","112","58570","115","yes","1024"
"97.41379310344827","97.41379310344827","508.8103448275862","508.8103448275862","black","legacy","legacy","legacy","0","Congruent","uniform","1","undefined","1","h","0","0","0","115","115","0","115","115","0","0","0","115","115","115","115","0","Wed Sep 21 09:51:32 2022","600","The main experiment item","yes","FlankerTask.osexp","C:/Users/Austin/Downloads","no","mono","no","18","no","white","no","yes","768","legacy","35","79","C:/Users/Austin/Downloads/AH-subject-2.csv","legacy","Lentiform Loewenfeld","3.3.12","0","h","NA","s","NA","h","h","452","NA","21776","NA","22738","452","2","legacy","1024","2","48000","-16","experiment","HHHHH","2","even","26996","NA","199857","151441","211512","NA","262916","261709","5218","NA","177117","263024","263479","262909","263023","5210","Flanker Task","113","59022","116","yes","1024"
"97.43589743589743","97.43589743589743","508.4786324786325","508.4786324786325","black","legacy","legacy","legacy","0","Incongruent","uniform","1","undefined","1","h","0","0","0","116","116","0","116","116","0","0","0","116","116","116","116","0","Wed Sep 21 09:51:32 2022","600","The main experiment item","yes","FlankerTask.osexp","C:/Users/Austin/Downloads","no","mono","no","18","no","white","no","yes","768","legacy","36","79","C:/Users/Austin/Downloads/AH-subject-2.csv","legacy","Lentiform Loewenfeld","3.3.12","0","h","NA","s","NA","h","h","470","NA","21776","NA","22738","470","2","legacy","1024","2","48000","-16","experiment","SSHSS","2","even","26996","NA","199857","151441","211512","NA","264695","263491","5218","NA","177117","264801","265274","264688","264801","5210","Flanker Task","114","59492","117","yes","1024"
"97.45762711864407","97.45762711864407","507.72033898305085","507.72033898305085","black","legacy","legacy","legacy","0","Incongruent","uniform","1","undefined","1","h","0","0","0","117","117","0","117","117","0","0","0","117","117","117","117","0","Wed Sep 21 09:51:32 2022","600","The main experiment item","yes","FlankerTask.osexp","C:/Users/Austin/Downloads","no","mono","no","18","no","white","no","yes","768","legacy","37","79","C:/Users/Austin/Downloads/AH-subject-2.csv","legacy","Lentiform Loewenfeld","3.3.12","0","h","NA","s","NA","h","h","419","NA","21776","NA","22738","419","2","legacy","1024","2","48000","-16","experiment","SSHSS","2","even","26996","NA","199857","151441","211512","NA","266485","265286","5218","NA","177117","266592","267014","266477","266591","5210","Flanker Task","115","59911","118","yes","1024"
"97.47899159663865","97.47899159663865","507.52941176470586","507.52941176470586","black","legacy","legacy","legacy","0","Incongruent","uniform","1","undefined","1","h","0","0","0","118","118","0","118","118","0","0","0","118","118","118","118","0","Wed Sep 21 09:51:32 2022","600","The main experiment item","yes","FlankerTask.osexp","C:/Users/Austin/Downloads","no","mono","no","18","no","white","no","yes","768","legacy","38","79","C:/Users/Austin/Downloads/AH-subject-2.csv","legacy","Lentiform Loewenfeld","3.3.12","0","h","NA","s","NA","h","h","485","NA","21776","NA","22738","485","2","legacy","1024","2","48000","-16","experiment","SSHSS","2","even","26996","NA","199857","151441","211512","NA","268220","267024","5218","NA","177117","268326","268814","268214","268326","5210","Flanker Task","116","60396","119","yes","1024"
"97.5","97.5","506.725","506.725","black","legacy","legacy","legacy","0","Congruent","uniform","1","undefined","1","h","0","0","0","119","119","0","119","119","0","0","0","119","119","119","119","0","Wed Sep 21 09:51:32 2022","600","The main experiment item","yes","FlankerTask.osexp","C:/Users/Austin/Downloads","no","mono","no","18","no","white","no","yes","768","legacy","39","79","C:/Users/Austin/Downloads/AH-subject-2.csv","legacy","Lentiform Loewenfeld","3.3.12","0","h","NA","s","NA","h","h","411","NA","21776","NA","22738","411","2","legacy","1024","2","48000","-16","experiment","HHHHH","2","even","26996","NA","199857","151441","211512","NA","270025","268825","5218","NA","177117","270132","270546","270018","270132","5210","Flanker Task","117","60807","120","yes","1024"
"97.52066115702479","97.52066115702479","506.46280991735534","506.46280991735534","black","legacy","legacy","legacy","0","Congruent","uniform","1","undefined","1","s","0","0","0","120","120","0","120","120","0","0","0","120","120","120","120","0","Wed Sep 21 09:51:32 2022","600","The main experiment item","yes","FlankerTask.osexp","C:/Users/Austin/Downloads","no","mono","no","18","no","white","no","yes","768","legacy","40","79","C:/Users/Austin/Downloads/AH-subject-2.csv","legacy","Lentiform Loewenfeld","3.3.12","0","s","NA","s","NA","h","s","475","NA","21776","NA","22738","475","2","legacy","1024","2","48000","-16","experiment","SSSSS","2","even","26996","NA","199857","151441","211512","NA","271755","270555","5218","NA","177117","271862","272341","271748","271862","5210","Flanker Task","118","61282","121","yes","1024"
"97.54098360655738","97.54098360655738","507","507","black","legacy","legacy","legacy","0","Incongruent","uniform","1","undefined","1","s","0","0","0","121","121","0","121","121","0","0","0","121","121","121","121","0","Wed Sep 21 09:51:32 2022","600","The main experiment item","yes","FlankerTask.osexp","C:/Users/Austin/Downloads","no","mono","no","18","no","white","no","yes","768","legacy","41","79","C:/Users/Austin/Downloads/AH-subject-2.csv","legacy","Lentiform Loewenfeld","3.3.12","0","s","NA","s","NA","h","s","572","NA","21776","NA","22738","572","2","legacy","1024","2","48000","-16","experiment","HHSHH","2","even","26996","NA","199857","151441","211512","NA","273565","272356","5218","NA","177117","273672","274247","273559","273672","5210","Flanker Task","119","61854","122","yes","1024"
