"acc","accuracy","average_response_time","avg_rt","background","canvas_backend","clock_backend","color_backend","compensation","condition","coordinates","correct","correct_instructions1","correct_keyboard_response","correct_response","count_ISI","count_block1","count_block2","count_block3","count_errorFeedback","count_experiment","count_faster","count_finish","count_fixation","count_instructions1","count_instructions2","count_instructions3","count_keyboard_response","count_logger","count_sequence","count_stimulus","datetime","deadline","description","disable_garbage_collection","experiment_file","experiment_path","font_bold","font_family","font_italic","font_size","font_underline","foreground","form_clicks","fullscreen","height","keyboard_backend","live_row","live_row_block1","logfile","mouse_backend","opensesame_codename","opensesame_version","repeat_cycle","response","response_finish","response_instructions1","response_instructions2","response_instructions3","response_keyboard_response","response_time","response_time_finish","response_time_instructions1","response_time_instructions2","response_time_instructions3","response_time_keyboard_response","round_decimals","sampler_backend","sound_buf_size","sound_channels","sound_freq","sound_sample_size","start","stimulus","subject_nr","subject_parity","time_ISI","time_block1","time_block2","time_block3","time_errorFeedback","time_experiment","time_faster","time_finish","time_fixation","time_instructions1","time_instructions2","time_instructions3","time_keyboard_response","time_logger","time_sequence","time_stimulus","title","total_correct","total_response_time","total_responses","uniform_coordinates","width"
"100","100","529","529","black","legacy","legacy","legacy","0","congruent","uniform","1","undefined","1","s","0","0","0","0","0","0","0","0","0","0","0","0","0","0","0","0","09/25/22 19:10:11","1500","The main experiment item","yes","FlankerTask.osexp","C:\Users\casme\OneDrive\Desktop\Fall 2022","no","mono","no","18","no","white","no","yes","768","legacy","0","0","C:/Users/casme/OneDrive/Desktop/Fall 2022/IC-subject-4.csv","legacy","Lentiform Loewenfeld","3.3.12","0","s","NA","h","NA","NA","s","529","NA","15871","NA","NA","529","2","legacy","1024","2","48000","-16","experiment","SSSSS","4","even","NA","18162","NA","NA","NA","2285","NA","NA","18230","2290","NA","NA","18332","18861","18229","18331","Flanker Task","1","529","1","yes","1024"
"100","100","577","577","black","legacy","legacy","legacy","0","incongruent","uniform","1","undefined","1","s","1","0","0","0","1","0","1","0","1","0","0","0","1","1","1","1","09/25/22 19:10:11","1500","The main experiment item","yes","FlankerTask.osexp","C:\Users\casme\OneDrive\Desktop\Fall 2022","no","mono","no","18","no","white","no","yes","768","legacy","1","1","C:/Users/casme/OneDrive/Desktop/Fall 2022/IC-subject-4.csv","legacy","Lentiform Loewenfeld","3.3.12","0","s","NA","h","NA","NA","s","625","NA","15871","NA","NA","625","2","legacy","1024","2","48000","-16","experiment","HHSHH","4","even","18872","18162","NA","NA","NA","2285","NA","NA","19928","2290","NA","NA","20029","20654","19926","20029","Flanker Task","2","1154","2","yes","1024"
"66.6666666667","66.6666666667","489.333333333","489.333333333","black","legacy","legacy","legacy","0","incongruent","uniform","0","undefined","0","h","2","0","0","0","2","0","2","0","2","0","0","0","2","2","2","2","09/25/22 19:10:11","1500","The main experiment item","yes","FlankerTask.osexp","C:\Users\casme\OneDrive\Desktop\Fall 2022","no","mono","no","18","no","white","no","yes","768","legacy","2","2","C:/Users/casme/OneDrive/Desktop/Fall 2022/IC-subject-4.csv","legacy","Lentiform Loewenfeld","3.3.12","0","s","NA","h","NA","NA","s","314","NA","15871","NA","NA","314","2","legacy","1024","2","48000","-16","experiment","SSHSS","4","even","20660","18162","NA","NA","NA","2285","NA","NA","21714","2290","NA","NA","21817","22131","21712","21817","Flanker Task","2","1468","3","yes","1024"
"75","75","489.5","489.5","black","legacy","legacy","legacy","0","congruent","uniform","1","undefined","1","h","3","0","0","0","3","0","3","0","3","0","0","0","3","3","3","3","09/25/22 19:10:11","1500","The main experiment item","yes","FlankerTask.osexp","C:\Users\casme\OneDrive\Desktop\Fall 2022","no","mono","no","18","no","white","no","yes","768","legacy","3","3","C:/Users/casme/OneDrive/Desktop/Fall 2022/IC-subject-4.csv","legacy","Lentiform Loewenfeld","3.3.12","0","h","NA","h","NA","NA","h","490","NA","15871","NA","NA","490","2","legacy","1024","2","48000","-16","experiment","HHHHH","4","even","22641","18162","NA","NA","22138","2285","NA","NA","23702","2290","NA","NA","23804","24295","23700","23804","Flanker Task","3","1958","4","yes","1024"
"80","80","487.6","487.6","black","legacy","legacy","legacy","0","incongruent","uniform","1","undefined","1","h","4","0","0","0","4","0","4","0","4","0","0","0","4","4","4","4","09/25/22 19:10:11","1500","The main experiment item","yes","FlankerTask.osexp","C:\Users\casme\OneDrive\Desktop\Fall 2022","no","mono","no","18","no","white","no","yes","768","legacy","4","4","C:/Users/casme/OneDrive/Desktop/Fall 2022/IC-subject-4.csv","legacy","Lentiform Loewenfeld","3.3.12","0","h","NA","h","NA","NA","h","480","NA","15871","NA","NA","480","2","legacy","1024","2","48000","-16","experiment","SSHSS","4","even","24300","18162","NA","NA","22138","2285","NA","NA","25365","2290","NA","NA","25466","25947","25363","25466","Flanker Task","4","2438","5","yes","1024"
"83.3333333333","83.3333333333","475.5","475.5","black","legacy","legacy","legacy","0","congruent","uniform","1","undefined","1","h","5","0","0","0","5","0","5","0","5","0","0","0","5","5","5","5","09/25/22 19:10:11","1500","The main experiment item","yes","FlankerTask.osexp","C:\Users\casme\OneDrive\Desktop\Fall 2022","no","mono","no","18","no","white","no","yes","768","legacy","5","5","C:/Users/casme/OneDrive/Desktop/Fall 2022/IC-subject-4.csv","legacy","Lentiform Loewenfeld","3.3.12","0","h","NA","h","NA","NA","h","415","NA","15871","NA","NA","415","2","legacy","1024","2","48000","-16","experiment","HHHHH","4","even","25953","18162","NA","NA","22138","2285","NA","NA","27008","2290","NA","NA","27110","27525","27006","27109","Flanker Task","5","2853","6","yes","1024"
"85.7142857143","85.7142857143","490.285714286","490.285714286","black","legacy","legacy","legacy","0","incongruent","uniform","1","undefined","1","h","6","0","0","0","6","0","6","0","6","0","0","0","6","6","6","6","09/25/22 19:10:11","1500","The main experiment item","yes","FlankerTask.osexp","C:\Users\casme\OneDrive\Desktop\Fall 2022","no","mono","no","18","no","white","no","yes","768","legacy","6","6","C:/Users/casme/OneDrive/Desktop/Fall 2022/IC-subject-4.csv","legacy","Lentiform Loewenfeld","3.3.12","0","h","NA","h","NA","NA","h","579","NA","15871","NA","NA","579","2","legacy","1024","2","48000","-16","experiment","SSHSS","4","even","27532","18162","NA","NA","22138","2285","NA","NA","28585","2290","NA","NA","28690","29270","28583","28690","Flanker Task","6","3432","7","yes","1024"
"87.5","87.5","487","487","black","legacy","legacy","legacy","0","congruent","uniform","1","undefined","1","s","7","0","0","0","7","0","7","0","7","0","0","0","7","7","7","7","09/25/22 19:10:11","1500","The main experiment item","yes","FlankerTask.osexp","C:\Users\casme\OneDrive\Desktop\Fall 2022","no","mono","no","18","no","white","no","yes","768","legacy","7","7","C:/Users/casme/OneDrive/Desktop/Fall 2022/IC-subject-4.csv","legacy","Lentiform Loewenfeld","3.3.12","0","s","NA","h","NA","NA","s","464","NA","15871","NA","NA","464","2","legacy","1024","2","48000","-16","experiment","SSSSS","4","even","29276","18162","NA","NA","22138","2285","NA","NA","30342","2290","NA","NA","30445","30909","30340","30445","Flanker Task","7","3896","8","yes","1024"
"88.8888888889","88.8888888889","492.777777778","492.777777778","black","legacy","legacy","legacy","0","incongruent","uniform","1","undefined","1","h","8","0","0","0","8","0","8","0","8","0","0","0","8","8","8","8","09/25/22 19:10:11","1500","The main experiment item","yes","FlankerTask.osexp","C:\Users\casme\OneDrive\Desktop\Fall 2022","no","mono","no","18","no","white","no","yes","768","legacy","8","8","C:/Users/casme/OneDrive/Desktop/Fall 2022/IC-subject-4.csv","legacy","Lentiform Loewenfeld","3.3.12","0","h","NA","h","NA","NA","h","539","NA","15871","NA","NA","539","2","legacy","1024","2","48000","-16","experiment","SSHSS","4","even","30915","18162","NA","NA","22138","2285","NA","NA","31971","2290","NA","NA","32073","32612","31969","32072","Flanker Task","8","4435","9","yes","1024"
"90","90","495.7","495.7","black","legacy","legacy","legacy","0","congruent","uniform","1","undefined","1","s","9","0","0","0","9","0","9","0","9","0","0","0","9","9","9","9","09/25/22 19:10:11","1500","The main experiment item","yes","FlankerTask.osexp","C:\Users\casme\OneDrive\Desktop\Fall 2022","no","mono","no","18","no","white","no","yes","768","legacy","9","9","C:/Users/casme/OneDrive/Desktop/Fall 2022/IC-subject-4.csv","legacy","Lentiform Loewenfeld","3.3.12","0","s","NA","h","NA","NA","s","522","NA","15871","NA","NA","522","2","legacy","1024","2","48000","-16","experiment","SSSSS","4","even","32618","18162","NA","NA","22138","2285","NA","NA","33684","2290","NA","NA","33785","34308","33682","33785","Flanker Task","9","4957","10","yes","1024"
"90.9090909091","90.9090909091","485.909090909","485.909090909","black","legacy","legacy","legacy","0","congruent","uniform","1","undefined","1","h","10","0","0","0","10","0","10","0","10","0","0","0","10","10","10","10","09/25/22 19:10:11","1500","The main experiment item","yes","FlankerTask.osexp","C:\Users\casme\OneDrive\Desktop\Fall 2022","no","mono","no","18","no","white","no","yes","768","legacy","10","10","C:/Users/casme/OneDrive/Desktop/Fall 2022/IC-subject-4.csv","legacy","Lentiform Loewenfeld","3.3.12","0","h","NA","h","NA","NA","h","388","NA","15871","NA","NA","388","2","legacy","1024","2","48000","-16","experiment","HHHHH","4","even","34314","18162","NA","NA","22138","2285","NA","NA","35367","2290","NA","NA","35469","35857","35365","35469","Flanker Task","10","5345","11","yes","1024"
"91.6666666667","91.6666666667","480.583333333","480.583333333","black","legacy","legacy","legacy","0","incongruent","uniform","1","undefined","1","h","11","0","0","0","11","0","11","0","11","0","0","0","11","11","11","11","09/25/22 19:10:11","1500","The main experiment item","yes","FlankerTask.osexp","C:\Users\casme\OneDrive\Desktop\Fall 2022","no","mono","no","18","no","white","no","yes","768","legacy","11","11","C:/Users/casme/OneDrive/Desktop/Fall 2022/IC-subject-4.csv","legacy","Lentiform Loewenfeld","3.3.12","0","h","NA","h","NA","NA","h","422","NA","15871","NA","NA","422","2","legacy","1024","2","48000","-16","experiment","SSHSS","4","even","35864","18162","NA","NA","22138","2285","NA","NA","36929","2290","NA","NA","37032","37454","36927","37032","Flanker Task","11","5767","12","yes","1024"
"92.3076923077","92.3076923077","485.923076923","485.923076923","black","legacy","legacy","legacy","0","incongruent","uniform","1","undefined","1","h","12","0","0","0","12","0","12","0","12","0","0","0","12","12","12","12","09/25/22 19:10:11","1500","The main experiment item","yes","FlankerTask.osexp","C:\Users\casme\OneDrive\Desktop\Fall 2022","no","mono","no","18","no","white","no","yes","768","legacy","12","12","C:/Users/casme/OneDrive/Desktop/Fall 2022/IC-subject-4.csv","legacy","Lentiform Loewenfeld","3.3.12","0","h","NA","h","NA","NA","h","550","NA","15871","NA","NA","550","2","legacy","1024","2","48000","-16","experiment","SSHSS","4","even","37461","18162","NA","NA","22138","2285","NA","NA","38515","2290","NA","NA","38619","39169","38512","38619","Flanker Task","12","6317","13","yes","1024"
"92.8571428571","92.8571428571","490.571428571","490.571428571","black","legacy","legacy","legacy","0","incongruent","uniform","1","undefined","1","s","13","0","0","0","13","0","13","0","13","0","0","0","13","13","13","13","09/25/22 19:10:11","1500","The main experiment item","yes","FlankerTask.osexp","C:\Users\casme\OneDrive\Desktop\Fall 2022","no","mono","no","18","no","white","no","yes","768","legacy","13","13","C:/Users/casme/OneDrive/Desktop/Fall 2022/IC-subject-4.csv","legacy","Lentiform Loewenfeld","3.3.12","0","s","NA","h","NA","NA","s","551","NA","15871","NA","NA","551","2","legacy","1024","2","48000","-16","experiment","HHSHH","4","even","39175","18162","NA","NA","22138","2285","NA","NA","40231","2290","NA","NA","40333","40885","40229","40333","Flanker Task","13","6868","14","yes","1024"
"93.3333333333","93.3333333333","483.4","483.4","black","legacy","legacy","legacy","0","congruent","uniform","1","undefined","1","s","14","0","0","0","14","0","14","0","14","0","0","0","14","14","14","14","09/25/22 19:10:11","1500","The main experiment item","yes","FlankerTask.osexp","C:\Users\casme\OneDrive\Desktop\Fall 2022","no","mono","no","18","no","white","no","yes","768","legacy","14","14","C:/Users/casme/OneDrive/Desktop/Fall 2022/IC-subject-4.csv","legacy","Lentiform Loewenfeld","3.3.12","0","s","NA","h","NA","NA","s","383","NA","15871","NA","NA","383","2","legacy","1024","2","48000","-16","experiment","SSSSS","4","even","40890","18162","NA","NA","22138","2285","NA","NA","41945","2290","NA","NA","42050","42434","41943","42049","Flanker Task","14","7251","15","yes","1024"
"93.75","93.75","479.8125","479.8125","black","legacy","legacy","legacy","0","congruent","uniform","1","undefined","1","h","15","0","0","0","15","0","15","0","15","0","0","0","15","15","15","15","09/25/22 19:10:11","1500","The main experiment item","yes","FlankerTask.osexp","C:\Users\casme\OneDrive\Desktop\Fall 2022","no","mono","no","18","no","white","no","yes","768","legacy","15","15","C:/Users/casme/OneDrive/Desktop/Fall 2022/IC-subject-4.csv","legacy","Lentiform Loewenfeld","3.3.12","0","h","NA","h","NA","NA","h","426","NA","15871","NA","NA","426","2","legacy","1024","2","48000","-16","experiment","HHHHH","4","even","42439","18162","NA","NA","22138","2285","NA","NA","43509","2290","NA","NA","43613","44040","43507","43613","Flanker Task","15","7677","16","yes","1024"
"94.1176470588","94.1176470588","484.235294118","484.235294118","black","legacy","legacy","legacy","0","incongruent","uniform","1","undefined","1","s","16","0","0","0","16","0","16","0","16","0","0","0","16","16","16","16","09/25/22 19:10:11","1500","The main experiment item","yes","FlankerTask.osexp","C:\Users\casme\OneDrive\Desktop\Fall 2022","no","mono","no","18","no","white","no","yes","768","legacy","16","16","C:/Users/casme/OneDrive/Desktop/Fall 2022/IC-subject-4.csv","legacy","Lentiform Loewenfeld","3.3.12","0","s","NA","h","NA","NA","s","555","NA","15871","NA","NA","555","2","legacy","1024","2","48000","-16","experiment","HHSHH","4","even","44046","18162","NA","NA","22138","2285","NA","NA","45112","2290","NA","NA","45215","45770","45110","45215","Flanker Task","16","8232","17","yes","1024"
"94.4444444444","94.4444444444","482.055555556","482.055555556","black","legacy","legacy","legacy","0","congruent","uniform","1","undefined","1","h","17","0","0","0","17","0","17","0","17","0","0","0","17","17","17","17","09/25/22 19:10:11","1500","The main experiment item","yes","FlankerTask.osexp","C:\Users\casme\OneDrive\Desktop\Fall 2022","no","mono","no","18","no","white","no","yes","768","legacy","17","17","C:/Users/casme/OneDrive/Desktop/Fall 2022/IC-subject-4.csv","legacy","Lentiform Loewenfeld","3.3.12","0","h","NA","h","NA","NA","h","445","NA","15871","NA","NA","445","2","legacy","1024","2","48000","-16","experiment","HHHHH","4","even","45776","18162","NA","NA","22138","2285","NA","NA","46829","2290","NA","NA","46930","47376","46826","46930","Flanker Task","17","8677","18","yes","1024"
"94.7368421053","94.7368421053","482.842105263","482.842105263","black","legacy","legacy","legacy","0","congruent","uniform","1","undefined","1","h","18","0","0","0","18","0","18","0","18","0","0","0","18","18","18","18","09/25/22 19:10:11","1500","The main experiment item","yes","FlankerTask.osexp","C:\Users\casme\OneDrive\Desktop\Fall 2022","no","mono","no","18","no","white","no","yes","768","legacy","18","18","C:/Users/casme/OneDrive/Desktop/Fall 2022/IC-subject-4.csv","legacy","Lentiform Loewenfeld","3.3.12","0","h","NA","h","NA","NA","h","497","NA","15871","NA","NA","497","2","legacy","1024","2","48000","-16","experiment","HHHHH","4","even","47382","18162","NA","NA","22138","2285","NA","NA","48447","2290","NA","NA","48549","49046","48444","48549","Flanker Task","18","9174","19","yes","1024"
"95","95","489.4","489.4","black","legacy","legacy","legacy","0","congruent","uniform","1","undefined","1","s","19","0","0","0","19","0","19","0","19","0","0","0","19","19","19","19","09/25/22 19:10:11","1500","The main experiment item","yes","FlankerTask.osexp","C:\Users\casme\OneDrive\Desktop\Fall 2022","no","mono","no","18","no","white","no","yes","768","legacy","19","19","C:/Users/casme/OneDrive/Desktop/Fall 2022/IC-subject-4.csv","legacy","Lentiform Loewenfeld","3.3.12","0","s","NA","h","NA","NA","s","614","NA","15871","NA","NA","614","2","legacy","1024","2","48000","-16","experiment","SSSSS","4","even","49053","18162","NA","NA","22138","2285","NA","NA","50122","2290","NA","NA","50225","50840","50120","50225","Flanker Task","19","9788","20","yes","1024"
"95.2380952381","95.2380952381","482.952380952","482.952380952","black","legacy","legacy","legacy","0","congruent","uniform","1","undefined","1","s","20","0","0","0","20","0","20","0","20","0","0","0","20","20","20","20","09/25/22 19:10:11","1500","The main experiment item","yes","FlankerTask.osexp","C:\Users\casme\OneDrive\Desktop\Fall 2022","no","mono","no","18","no","white","no","yes","768","legacy","20","20","C:/Users/casme/OneDrive/Desktop/Fall 2022/IC-subject-4.csv","legacy","Lentiform Loewenfeld","3.3.12","0","s","NA","h","NA","NA","s","354","NA","15871","NA","NA","354","2","legacy","1024","2","48000","-16","experiment","SSSSS","4","even","50846","18162","NA","NA","22138","2285","NA","NA","51900","2290","NA","NA","52003","52358","51898","52003","Flanker Task","20","10142","21","yes","1024"
"95.4545454545","95.4545454545","487.681818182","487.681818182","black","legacy","legacy","legacy","0","congruent","uniform","1","undefined","1","h","21","0","0","0","21","0","21","0","21","0","0","0","21","21","21","21","09/25/22 19:10:11","1500","The main experiment item","yes","FlankerTask.osexp","C:\Users\casme\OneDrive\Desktop\Fall 2022","no","mono","no","18","no","white","no","yes","768","legacy","21","21","C:/Users/casme/OneDrive/Desktop/Fall 2022/IC-subject-4.csv","legacy","Lentiform Loewenfeld","3.3.12","0","h","NA","h","NA","NA","h","587","NA","15871","NA","NA","587","2","legacy","1024","2","48000","-16","experiment","HHHHH","4","even","52364","18162","NA","NA","22138","2285","NA","NA","53426","2290","NA","NA","53528","54116","53423","53528","Flanker Task","21","10729","22","yes","1024"
"91.3043478261","91.3043478261","484.47826087","484.47826087","black","legacy","legacy","legacy","0","incongruent","uniform","0","undefined","0","h","22","0","0","0","22","0","22","0","22","0","0","0","22","22","22","22","09/25/22 19:10:11","1500","The main experiment item","yes","FlankerTask.osexp","C:\Users\casme\OneDrive\Desktop\Fall 2022","no","mono","no","18","no","white","no","yes","768","legacy","22","22","C:/Users/casme/OneDrive/Desktop/Fall 2022/IC-subject-4.csv","legacy","Lentiform Loewenfeld","3.3.12","0","s","NA","h","NA","NA","s","414","NA","15871","NA","NA","414","2","legacy","1024","2","48000","-16","experiment","SSHSS","4","even","54124","18162","NA","NA","22138","2285","NA","NA","55191","2290","NA","NA","55292","55706","55189","55292","Flanker Task","21","11143","23","yes","1024"
"91.6666666667","91.6666666667","487.625","487.625","black","legacy","legacy","legacy","0","congruent","uniform","1","undefined","1","h","23","0","0","0","23","0","23","0","23","0","0","0","23","23","23","23","09/25/22 19:10:11","1500","The main experiment item","yes","FlankerTask.osexp","C:\Users\casme\OneDrive\Desktop\Fall 2022","no","mono","no","18","no","white","no","yes","768","legacy","23","23","C:/Users/casme/OneDrive/Desktop/Fall 2022/IC-subject-4.csv","legacy","Lentiform Loewenfeld","3.3.12","0","h","NA","h","NA","NA","h","560","NA","15871","NA","NA","560","2","legacy","1024","2","48000","-16","experiment","HHHHH","4","even","56217","18162","NA","NA","55712","2285","NA","NA","57286","2290","NA","NA","57391","57952","57284","57391","Flanker Task","22","11703","24","yes","1024"
"92","92","508.88","508.88","black","legacy","legacy","legacy","0","incongruent","uniform","1","undefined","1","h","24","0","0","0","24","0","24","0","24","0","0","0","24","24","24","24","09/25/22 19:10:11","1500","The main experiment item","yes","FlankerTask.osexp","C:\Users\casme\OneDrive\Desktop\Fall 2022","no","mono","no","18","no","white","no","yes","768","legacy","24","24","C:/Users/casme/OneDrive/Desktop/Fall 2022/IC-subject-4.csv","legacy","Lentiform Loewenfeld","3.3.12","0","h","NA","h","NA","NA","h","1019","NA","15871","NA","NA","1019","2","legacy","1024","2","48000","-16","experiment","SSHSS","4","even","57958","18162","NA","NA","55712","2285","NA","NA","59013","2290","NA","NA","59115","60135","59011","59115","Flanker Task","23","12722","25","yes","1024"
"92.3076923077","92.3076923077","506.461538462","506.461538462","black","legacy","legacy","legacy","0","congruent","uniform","1","undefined","1","h","25","0","0","0","25","0","25","0","25","0","0","0","25","25","25","25","09/25/22 19:10:11","1500","The main experiment item","yes","FlankerTask.osexp","C:\Users\casme\OneDrive\Desktop\Fall 2022","no","mono","no","18","no","white","no","yes","768","legacy","25","25","C:/Users/casme/OneDrive/Desktop/Fall 2022/IC-subject-4.csv","legacy","Lentiform Loewenfeld","3.3.12","0","h","NA","h","NA","NA","h","446","NA","15871","NA","NA","446","2","legacy","1024","2","48000","-16","experiment","HHHHH","4","even","60141","18162","NA","NA","55712","2285","NA","NA","61196","2290","NA","NA","61298","61745","61194","61298","Flanker Task","24","13168","26","yes","1024"
"92.5925925926","92.5925925926","504.814814815","504.814814815","black","legacy","legacy","legacy","0","incongruent","uniform","1","undefined","1","s","26","0","0","0","26","0","26","0","26","0","0","0","26","26","26","26","09/25/22 19:10:11","1500","The main experiment item","yes","FlankerTask.osexp","C:\Users\casme\OneDrive\Desktop\Fall 2022","no","mono","no","18","no","white","no","yes","768","legacy","26","26","C:/Users/casme/OneDrive/Desktop/Fall 2022/IC-subject-4.csv","legacy","Lentiform Loewenfeld","3.3.12","0","s","NA","h","NA","NA","s","462","NA","15871","NA","NA","462","2","legacy","1024","2","48000","-16","experiment","HHSHH","4","even","61751","18162","NA","NA","55712","2285","NA","NA","62806","2290","NA","NA","62907","63370","62804","62907","Flanker Task","25","13630","27","yes","1024"
"92.8571428571","92.8571428571","509.357142857","509.357142857","black","legacy","legacy","legacy","0","incongruent","uniform","1","undefined","1","s","27","0","0","0","27","0","27","0","27","0","0","0","27","27","27","27","09/25/22 19:10:11","1500","The main experiment item","yes","FlankerTask.osexp","C:\Users\casme\OneDrive\Desktop\Fall 2022","no","mono","no","18","no","white","no","yes","768","legacy","27","27","C:/Users/casme/OneDrive/Desktop/Fall 2022/IC-subject-4.csv","legacy","Lentiform Loewenfeld","3.3.12","0","s","NA","h","NA","NA","s","632","NA","15871","NA","NA","632","2","legacy","1024","2","48000","-16","experiment","HHSHH","4","even","63377","18162","NA","NA","55712","2285","NA","NA","64442","2290","NA","NA","64544","65177","64440","64544","Flanker Task","26","14262","28","yes","1024"
"93.1034482759","93.1034482759","506.620689655","506.620689655","black","legacy","legacy","legacy","0","congruent","uniform","1","undefined","1","s","28","0","0","0","28","0","28","0","28","0","0","0","28","28","28","28","09/25/22 19:10:11","1500","The main experiment item","yes","FlankerTask.osexp","C:\Users\casme\OneDrive\Desktop\Fall 2022","no","mono","no","18","no","white","no","yes","768","legacy","28","28","C:/Users/casme/OneDrive/Desktop/Fall 2022/IC-subject-4.csv","legacy","Lentiform Loewenfeld","3.3.12","0","s","NA","h","NA","NA","s","430","NA","15871","NA","NA","430","2","legacy","1024","2","48000","-16","experiment","SSSSS","4","even","65183","18162","NA","NA","55712","2285","NA","NA","66245","2290","NA","NA","66347","66778","66243","66347","Flanker Task","27","14692","29","yes","1024"
"93.3333333333","93.3333333333","502.766666667","502.766666667","black","legacy","legacy","legacy","0","congruent","uniform","1","undefined","1","s","29","0","0","0","29","0","29","0","29","0","0","0","29","29","29","29","09/25/22 19:10:11","1500","The main experiment item","yes","FlankerTask.osexp","C:\Users\casme\OneDrive\Desktop\Fall 2022","no","mono","no","18","no","white","no","yes","768","legacy","29","29","C:/Users/casme/OneDrive/Desktop/Fall 2022/IC-subject-4.csv","legacy","Lentiform Loewenfeld","3.3.12","0","s","NA","h","NA","NA","s","391","NA","15871","NA","NA","391","2","legacy","1024","2","48000","-16","experiment","SSSSS","4","even","66784","18162","NA","NA","55712","2285","NA","NA","67848","2290","NA","NA","67950","68342","67845","67950","Flanker Task","28","15083","30","yes","1024"
"93.5483870968","93.5483870968","502.161290323","502.161290323","black","legacy","legacy","legacy","0","incongruent","uniform","1","undefined","1","s","30","0","0","0","30","0","30","0","30","0","0","0","30","30","30","30","09/25/22 19:10:11","1500","The main experiment item","yes","FlankerTask.osexp","C:\Users\casme\OneDrive\Desktop\Fall 2022","no","mono","no","18","no","white","no","yes","768","legacy","30","30","C:/Users/casme/OneDrive/Desktop/Fall 2022/IC-subject-4.csv","legacy","Lentiform Loewenfeld","3.3.12","0","s","NA","h","NA","NA","s","484","NA","15871","NA","NA","484","2","legacy","1024","2","48000","-16","experiment","HHSHH","4","even","68348","18162","NA","NA","55712","2285","NA","NA","69405","2290","NA","NA","69507","69991","69403","69507","Flanker Task","29","15567","31","yes","1024"
"93.75","93.75","497.65625","497.65625","black","legacy","legacy","legacy","0","congruent","uniform","1","undefined","1","s","31","0","0","0","31","0","31","0","31","0","0","0","31","31","31","31","09/25/22 19:10:11","1500","The main experiment item","yes","FlankerTask.osexp","C:\Users\casme\OneDrive\Desktop\Fall 2022","no","mono","no","18","no","white","no","yes","768","legacy","31","31","C:/Users/casme/OneDrive/Desktop/Fall 2022/IC-subject-4.csv","legacy","Lentiform Loewenfeld","3.3.12","0","s","NA","h","NA","NA","s","358","NA","15871","NA","NA","358","2","legacy","1024","2","48000","-16","experiment","SSSSS","4","even","69998","18162","NA","NA","55712","2285","NA","NA","71064","2290","NA","NA","71168","71527","71062","71168","Flanker Task","30","15925","32","yes","1024"
"90.9090909091","90.9090909091","494.272727273","494.272727273","black","legacy","legacy","legacy","0","incongruent","uniform","0","undefined","0","h","32","0","0","0","32","0","32","0","32","0","0","0","32","32","32","32","09/25/22 19:10:11","1500","The main experiment item","yes","FlankerTask.osexp","C:\Users\casme\OneDrive\Desktop\Fall 2022","no","mono","no","18","no","white","no","yes","768","legacy","32","32","C:/Users/casme/OneDrive/Desktop/Fall 2022/IC-subject-4.csv","legacy","Lentiform Loewenfeld","3.3.12","0","s","NA","h","NA","NA","s","386","NA","15871","NA","NA","386","2","legacy","1024","2","48000","-16","experiment","SSHSS","4","even","71533","18162","NA","NA","55712","2285","NA","NA","72586","2290","NA","NA","72689","73075","72584","72689","Flanker Task","30","16311","33","yes","1024"
"91.1764705882","91.1764705882","495.5","495.5","black","legacy","legacy","legacy","0","incongruent","uniform","1","undefined","1","s","33","0","0","0","33","0","33","0","33","0","0","0","33","33","33","33","09/25/22 19:10:11","1500","The main experiment item","yes","FlankerTask.osexp","C:\Users\casme\OneDrive\Desktop\Fall 2022","no","mono","no","18","no","white","no","yes","768","legacy","33","33","C:/Users/casme/OneDrive/Desktop/Fall 2022/IC-subject-4.csv","legacy","Lentiform Loewenfeld","3.3.12","0","s","NA","h","NA","NA","s","536","NA","15871","NA","NA","536","2","legacy","1024","2","48000","-16","experiment","HHSHH","4","even","73584","18162","NA","NA","73082","2285","NA","NA","74638","2290","NA","NA","74742","75279","74636","74742","Flanker Task","31","16847","34","yes","1024"
"91.4285714286","91.4285714286","495.885714286","495.885714286","black","legacy","legacy","legacy","0","incongruent","uniform","1","undefined","1","s","34","0","0","0","34","0","34","0","34","0","0","0","34","34","34","34","09/25/22 19:10:11","1500","The main experiment item","yes","FlankerTask.osexp","C:\Users\casme\OneDrive\Desktop\Fall 2022","no","mono","no","18","no","white","no","yes","768","legacy","34","34","C:/Users/casme/OneDrive/Desktop/Fall 2022/IC-subject-4.csv","legacy","Lentiform Loewenfeld","3.3.12","0","s","NA","h","NA","NA","s","509","NA","15871","NA","NA","509","2","legacy","1024","2","48000","-16","experiment","HHSHH","4","even","75285","18162","NA","NA","73082","2285","NA","NA","76340","2290","NA","NA","76445","76955","76338","76444","Flanker Task","32","17356","35","yes","1024"
"91.6666666667","91.6666666667","494.666666667","494.666666667","black","legacy","legacy","legacy","0","incongruent","uniform","1","undefined","1","h","35","0","0","0","35","0","35","0","35","0","0","0","35","35","35","35","09/25/22 19:10:11","1500","The main experiment item","yes","FlankerTask.osexp","C:\Users\casme\OneDrive\Desktop\Fall 2022","no","mono","no","18","no","white","no","yes","768","legacy","35","35","C:/Users/casme/OneDrive/Desktop/Fall 2022/IC-subject-4.csv","legacy","Lentiform Loewenfeld","3.3.12","0","h","NA","h","NA","NA","h","452","NA","15871","NA","NA","452","2","legacy","1024","2","48000","-16","experiment","SSHSS","4","even","76960","18162","NA","NA","73082","2285","NA","NA","78014","2290","NA","NA","78116","78569","78012","78116","Flanker Task","33","17808","36","yes","1024"
"91.8918918919","91.8918918919","492.945945946","492.945945946","black","legacy","legacy","legacy","0","congruent","uniform","1","undefined","1","s","36","0","0","0","36","0","36","0","36","0","0","0","36","36","36","36","09/25/22 19:10:11","1500","The main experiment item","yes","FlankerTask.osexp","C:\Users\casme\OneDrive\Desktop\Fall 2022","no","mono","no","18","no","white","no","yes","768","legacy","36","36","C:/Users/casme/OneDrive/Desktop/Fall 2022/IC-subject-4.csv","legacy","Lentiform Loewenfeld","3.3.12","0","s","NA","h","NA","NA","s","431","NA","15871","NA","NA","431","2","legacy","1024","2","48000","-16","experiment","SSSSS","4","even","78575","18162","NA","NA","73082","2285","NA","NA","79629","2290","NA","NA","79732","80163","79626","79732","Flanker Task","34","18239","37","yes","1024"
"92.1052631579","92.1052631579","490.894736842","490.894736842","black","legacy","legacy","legacy","0","congruent","uniform","1","undefined","1","s","37","0","0","0","37","0","37","0","37","0","0","0","37","37","37","37","09/25/22 19:10:11","1500","The main experiment item","yes","FlankerTask.osexp","C:\Users\casme\OneDrive\Desktop\Fall 2022","no","mono","no","18","no","white","no","yes","768","legacy","37","37","C:/Users/casme/OneDrive/Desktop/Fall 2022/IC-subject-4.csv","legacy","Lentiform Loewenfeld","3.3.12","0","s","NA","h","NA","NA","s","415","NA","15871","NA","NA","415","2","legacy","1024","2","48000","-16","experiment","SSSSS","4","even","80169","18162","NA","NA","73082","2285","NA","NA","81239","2290","NA","NA","81341","81756","81237","81341","Flanker Task","35","18654","38","yes","1024"
"92.3076923077","92.3076923077","491.41025641","491.41025641","black","legacy","legacy","legacy","0","incongruent","uniform","1","undefined","1","s","38","0","0","0","38","0","38","0","38","0","0","0","38","38","38","38","09/25/22 19:10:11","1500","The main experiment item","yes","FlankerTask.osexp","C:\Users\casme\OneDrive\Desktop\Fall 2022","no","mono","no","18","no","white","no","yes","768","legacy","38","38","C:/Users/casme/OneDrive/Desktop/Fall 2022/IC-subject-4.csv","legacy","Lentiform Loewenfeld","3.3.12","0","s","NA","h","NA","NA","s","511","NA","15871","NA","NA","511","2","legacy","1024","2","48000","-16","experiment","HHSHH","4","even","81763","18162","NA","NA","73082","2285","NA","NA","82821","2290","NA","NA","82924","83436","82819","82924","Flanker Task","36","19165","39","yes","1024"
"92.5","92.5","488.55","488.55","black","legacy","legacy","legacy","0","congruent","uniform","1","undefined","1","s","39","0","0","0","39","0","39","0","39","0","0","0","39","39","39","39","09/25/22 19:10:11","1500","The main experiment item","yes","FlankerTask.osexp","C:\Users\casme\OneDrive\Desktop\Fall 2022","no","mono","no","18","no","white","no","yes","768","legacy","39","39","C:/Users/casme/OneDrive/Desktop/Fall 2022/IC-subject-4.csv","legacy","Lentiform Loewenfeld","3.3.12","0","s","NA","h","NA","NA","s","377","NA","15871","NA","NA","377","2","legacy","1024","2","48000","-16","experiment","SSSSS","4","even","83441","18162","NA","NA","73082","2285","NA","NA","84496","2290","NA","NA","84598","84976","84494","84598","Flanker Task","37","19542","40","yes","1024"
"92.6829268293","92.6829268293","487.365853659","487.365853659","black","legacy","legacy","legacy","0","congruent","uniform","1","undefined","1","h","40","0","0","0","40","0","40","0","40","0","0","0","40","40","40","40","09/25/22 19:10:11","1500","The main experiment item","yes","FlankerTask.osexp","C:\Users\casme\OneDrive\Desktop\Fall 2022","no","mono","no","18","no","white","no","yes","768","legacy","40","40","C:/Users/casme/OneDrive/Desktop/Fall 2022/IC-subject-4.csv","legacy","Lentiform Loewenfeld","3.3.12","0","h","NA","h","NA","NA","h","440","NA","15871","NA","NA","440","2","legacy","1024","2","48000","-16","experiment","HHHHH","4","even","84983","18162","NA","NA","73082","2285","NA","NA","86048","2290","NA","NA","86152","86593","86047","86151","Flanker Task","38","19982","41","yes","1024"
"92.8571428571","92.8571428571","483.476190476","483.476190476","black","legacy","legacy","legacy","0","congruent","uniform","1","undefined","1","h","41","0","0","0","41","0","41","0","41","0","0","0","41","41","41","41","09/25/22 19:10:11","1500","The main experiment item","yes","FlankerTask.osexp","C:\Users\casme\OneDrive\Desktop\Fall 2022","no","mono","no","18","no","white","no","yes","768","legacy","41","41","C:/Users/casme/OneDrive/Desktop/Fall 2022/IC-subject-4.csv","legacy","Lentiform Loewenfeld","3.3.12","0","h","NA","h","NA","NA","h","324","NA","15871","NA","NA","324","2","legacy","1024","2","48000","-16","experiment","HHHHH","4","even","86600","18162","NA","NA","73082","2285","NA","NA","87655","2290","NA","NA","87757","88082","87653","87757","Flanker Task","39","20306","42","yes","1024"
"93.023255814","93.023255814","488.069767442","488.069767442","black","legacy","legacy","legacy","0","incongruent","uniform","1","undefined","1","s","42","0","0","0","42","0","42","0","42","0","0","0","42","42","42","42","09/25/22 19:10:11","1500","The main experiment item","yes","FlankerTask.osexp","C:\Users\casme\OneDrive\Desktop\Fall 2022","no","mono","no","18","no","white","no","yes","768","legacy","42","42","C:/Users/casme/OneDrive/Desktop/Fall 2022/IC-subject-4.csv","legacy","Lentiform Loewenfeld","3.3.12","0","s","NA","h","NA","NA","s","681","NA","15871","NA","NA","681","2","legacy","1024","2","48000","-16","experiment","HHSHH","4","even","88088","18162","NA","NA","73082","2285","NA","NA","89149","2290","NA","NA","89251","89933","89147","89251","Flanker Task","40","20987","43","yes","1024"
"93.1818181818","93.1818181818","485.659090909","485.659090909","black","legacy","legacy","legacy","0","congruent","uniform","1","undefined","1","s","43","0","0","0","43","0","43","0","43","0","0","0","43","43","43","43","09/25/22 19:10:11","1500","The main experiment item","yes","FlankerTask.osexp","C:\Users\casme\OneDrive\Desktop\Fall 2022","no","mono","no","18","no","white","no","yes","768","legacy","43","43","C:/Users/casme/OneDrive/Desktop/Fall 2022/IC-subject-4.csv","legacy","Lentiform Loewenfeld","3.3.12","0","s","NA","h","NA","NA","s","382","NA","15871","NA","NA","382","2","legacy","1024","2","48000","-16","experiment","SSSSS","4","even","89938","18162","NA","NA","73082","2285","NA","NA","90994","2290","NA","NA","91099","91482","90992","91099","Flanker Task","41","21369","44","yes","1024"
"93.3333333333","93.3333333333","485.511111111","485.511111111","black","legacy","legacy","legacy","0","incongruent","uniform","1","undefined","1","h","44","0","0","0","44","0","44","0","44","0","0","0","44","44","44","44","09/25/22 19:10:11","1500","The main experiment item","yes","FlankerTask.osexp","C:\Users\casme\OneDrive\Desktop\Fall 2022","no","mono","no","18","no","white","no","yes","768","legacy","44","44","C:/Users/casme/OneDrive/Desktop/Fall 2022/IC-subject-4.csv","legacy","Lentiform Loewenfeld","3.3.12","0","h","NA","h","NA","NA","h","479","NA","15871","NA","NA","479","2","legacy","1024","2","48000","-16","experiment","SSHSS","4","even","91488","18162","NA","NA","73082","2285","NA","NA","92562","2290","NA","NA","92667","93147","92560","92666","Flanker Task","42","21848","45","yes","1024"
"93.4782608696","93.4782608696","485.586956522","485.586956522","black","legacy","legacy","legacy","0","incongruent","uniform","1","undefined","1","s","45","0","0","0","45","0","45","0","45","0","0","0","45","45","45","45","09/25/22 19:10:11","1500","The main experiment item","yes","FlankerTask.osexp","C:\Users\casme\OneDrive\Desktop\Fall 2022","no","mono","no","18","no","white","no","yes","768","legacy","45","45","C:/Users/casme/OneDrive/Desktop/Fall 2022/IC-subject-4.csv","legacy","Lentiform Loewenfeld","3.3.12","0","s","NA","h","NA","NA","s","489","NA","15871","NA","NA","489","2","legacy","1024","2","48000","-16","experiment","HHSHH","4","even","93153","18162","NA","NA","73082","2285","NA","NA","94219","2290","NA","NA","94321","94811","94217","94320","Flanker Task","43","22337","46","yes","1024"
"93.6170212766","93.6170212766","485.319148936","485.319148936","black","legacy","legacy","legacy","0","incongruent","uniform","1","undefined","1","s","46","0","0","0","46","0","46","0","46","0","0","0","46","46","46","46","09/25/22 19:10:11","1500","The main experiment item","yes","FlankerTask.osexp","C:\Users\casme\OneDrive\Desktop\Fall 2022","no","mono","no","18","no","white","no","yes","768","legacy","46","46","C:/Users/casme/OneDrive/Desktop/Fall 2022/IC-subject-4.csv","legacy","Lentiform Loewenfeld","3.3.12","0","s","NA","h","NA","NA","s","473","NA","15871","NA","NA","473","2","legacy","1024","2","48000","-16","experiment","HHSHH","4","even","94816","18162","NA","NA","73082","2285","NA","NA","95873","2290","NA","NA","95977","96451","95871","95977","Flanker Task","44","22810","47","yes","1024"
"93.75","93.75","483.5625","483.5625","black","legacy","legacy","legacy","0","congruent","uniform","1","undefined","1","s","47","0","0","0","47","0","47","0","47","0","0","0","47","47","47","47","09/25/22 19:10:11","1500","The main experiment item","yes","FlankerTask.osexp","C:\Users\casme\OneDrive\Desktop\Fall 2022","no","mono","no","18","no","white","no","yes","768","legacy","47","47","C:/Users/casme/OneDrive/Desktop/Fall 2022/IC-subject-4.csv","legacy","Lentiform Loewenfeld","3.3.12","0","s","NA","h","NA","NA","s","401","NA","15871","NA","NA","401","2","legacy","1024","2","48000","-16","experiment","SSSSS","4","even","96457","18162","NA","NA","73082","2285","NA","NA","97527","2290","NA","NA","97630","98032","97525","97630","Flanker Task","45","23211","48","yes","1024"
"93.8775510204","93.8775510204","486.06122449","486.06122449","black","legacy","legacy","legacy","0","incongruent","uniform","1","undefined","1","s","48","0","0","0","48","0","48","0","48","0","0","0","48","48","48","48","09/25/22 19:10:11","1500","The main experiment item","yes","FlankerTask.osexp","C:\Users\casme\OneDrive\Desktop\Fall 2022","no","mono","no","18","no","white","no","yes","768","legacy","48","48","C:/Users/casme/OneDrive/Desktop/Fall 2022/IC-subject-4.csv","legacy","Lentiform Loewenfeld","3.3.12","0","s","NA","h","NA","NA","s","606","NA","15871","NA","NA","606","2","legacy","1024","2","48000","-16","experiment","HHSHH","4","even","98038","18162","NA","NA","73082","2285","NA","NA","99103","2290","NA","NA","99205","99812","99101","99205","Flanker Task","46","23817","49","yes","1024"
"92","92","483","483","black","legacy","legacy","legacy","0","incongruent","uniform","0","undefined","0","h","49","0","0","0","49","0","49","0","49","0","0","0","49","49","49","49","09/25/22 19:10:11","1500","The main experiment item","yes","FlankerTask.osexp","C:\Users\casme\OneDrive\Desktop\Fall 2022","no","mono","no","18","no","white","no","yes","768","legacy","49","49","C:/Users/casme/OneDrive/Desktop/Fall 2022/IC-subject-4.csv","legacy","Lentiform Loewenfeld","3.3.12","0","s","NA","h","NA","NA","s","333","NA","15871","NA","NA","333","2","legacy","1024","2","48000","-16","experiment","SSHSS","4","even","99818","18162","NA","NA","73082","2285","NA","NA","100878","2290","NA","NA","100980","101314","100876","100980","Flanker Task","46","24150","50","yes","1024"
"92.1568627451","92.1568627451","481.196078431","481.196078431","black","legacy","legacy","legacy","0","incongruent","uniform","1","undefined","1","h","50","0","0","0","50","0","50","0","50","0","0","0","50","50","50","50","09/25/22 19:10:11","1500","The main experiment item","yes","FlankerTask.osexp","C:\Users\casme\OneDrive\Desktop\Fall 2022","no","mono","no","18","no","white","no","yes","768","legacy","50","50","C:/Users/casme/OneDrive/Desktop/Fall 2022/IC-subject-4.csv","legacy","Lentiform Loewenfeld","3.3.12","0","h","NA","h","NA","NA","h","391","NA","15871","NA","NA","391","2","legacy","1024","2","48000","-16","experiment","SSHSS","4","even","101825","18162","NA","NA","101320","2285","NA","NA","102893","2290","NA","NA","102996","103388","102890","102996","Flanker Task","47","24541","51","yes","1024"
"92.3076923077","92.3076923077","480.288461538","480.288461538","black","legacy","legacy","legacy","0","incongruent","uniform","1","undefined","1","h","51","0","0","0","51","0","51","0","51","0","0","0","51","51","51","51","09/25/22 19:10:11","1500","The main experiment item","yes","FlankerTask.osexp","C:\Users\casme\OneDrive\Desktop\Fall 2022","no","mono","no","18","no","white","no","yes","768","legacy","51","51","C:/Users/casme/OneDrive/Desktop/Fall 2022/IC-subject-4.csv","legacy","Lentiform Loewenfeld","3.3.12","0","h","NA","h","NA","NA","h","434","NA","15871","NA","NA","434","2","legacy","1024","2","48000","-16","experiment","SSHSS","4","even","103394","18162","NA","NA","101320","2285","NA","NA","104449","2290","NA","NA","104551","104986","104448","104551","Flanker Task","48","24975","52","yes","1024"
"92.4528301887","92.4528301887","478","478","black","legacy","legacy","legacy","0","congruent","uniform","1","undefined","1","h","52","0","0","0","52","0","52","0","52","0","0","0","52","52","52","52","09/25/22 19:10:11","1500","The main experiment item","yes","FlankerTask.osexp","C:\Users\casme\OneDrive\Desktop\Fall 2022","no","mono","no","18","no","white","no","yes","768","legacy","52","52","C:/Users/casme/OneDrive/Desktop/Fall 2022/IC-subject-4.csv","legacy","Lentiform Loewenfeld","3.3.12","0","h","NA","h","NA","NA","h","359","NA","15871","NA","NA","359","2","legacy","1024","2","48000","-16","experiment","HHHHH","4","even","104993","18162","NA","NA","101320","2285","NA","NA","106054","2290","NA","NA","106157","106517","106052","106157","Flanker Task","49","25334","53","yes","1024"
"92.5925925926","92.5925925926","476.944444444","476.944444444","black","legacy","legacy","legacy","0","congruent","uniform","1","undefined","1","s","53","0","0","0","53","0","53","0","53","0","0","0","53","53","53","53","09/25/22 19:10:11","1500","The main experiment item","yes","FlankerTask.osexp","C:\Users\casme\OneDrive\Desktop\Fall 2022","no","mono","no","18","no","white","no","yes","768","legacy","53","53","C:/Users/casme/OneDrive/Desktop/Fall 2022/IC-subject-4.csv","legacy","Lentiform Loewenfeld","3.3.12","0","s","NA","h","NA","NA","s","421","NA","15871","NA","NA","421","2","legacy","1024","2","48000","-16","experiment","SSSSS","4","even","106524","18162","NA","NA","101320","2285","NA","NA","107591","2290","NA","NA","107693","108115","107589","107692","Flanker Task","50","25755","54","yes","1024"
"92.7272727273","92.7272727273","474.618181818","474.618181818","black","legacy","legacy","legacy","0","congruent","uniform","1","undefined","1","s","54","0","0","0","54","0","54","0","54","0","0","0","54","54","54","54","09/25/22 19:10:11","1500","The main experiment item","yes","FlankerTask.osexp","C:\Users\casme\OneDrive\Desktop\Fall 2022","no","mono","no","18","no","white","no","yes","768","legacy","54","54","C:/Users/casme/OneDrive/Desktop/Fall 2022/IC-subject-4.csv","legacy","Lentiform Loewenfeld","3.3.12","0","s","NA","h","NA","NA","s","349","NA","15871","NA","NA","349","2","legacy","1024","2","48000","-16","experiment","SSSSS","4","even","108121","18162","NA","NA","101320","2285","NA","NA","109174","2290","NA","NA","109279","109628","109172","109279","Flanker Task","51","26104","55","yes","1024"
"91.0714285714","91.0714285714","471.517857143","471.517857143","black","legacy","legacy","legacy","0","incongruent","uniform","0","undefined","0","h","55","0","0","0","55","0","55","0","55","0","0","0","55","55","55","55","09/25/22 19:10:11","1500","The main experiment item","yes","FlankerTask.osexp","C:\Users\casme\OneDrive\Desktop\Fall 2022","no","mono","no","18","no","white","no","yes","768","legacy","55","55","C:/Users/casme/OneDrive/Desktop/Fall 2022/IC-subject-4.csv","legacy","Lentiform Loewenfeld","3.3.12","0","s","NA","h","NA","NA","s","301","NA","15871","NA","NA","301","2","legacy","1024","2","48000","-16","experiment","SSHSS","4","even","109635","18162","NA","NA","101320","2285","NA","NA","110705","2290","NA","NA","110808","111110","110702","110807","Flanker Task","51","26405","56","yes","1024"
"91.2280701754","91.2280701754","474.824561404","474.824561404","black","legacy","legacy","legacy","0","incongruent","uniform","1","undefined","1","s","56","0","0","0","56","0","56","0","56","0","0","0","56","56","56","56","09/25/22 19:10:11","1500","The main experiment item","yes","FlankerTask.osexp","C:\Users\casme\OneDrive\Desktop\Fall 2022","no","mono","no","18","no","white","no","yes","768","legacy","56","56","C:/Users/casme/OneDrive/Desktop/Fall 2022/IC-subject-4.csv","legacy","Lentiform Loewenfeld","3.3.12","0","s","NA","h","NA","NA","s","660","NA","15871","NA","NA","660","2","legacy","1024","2","48000","-16","experiment","HHSHH","4","even","111620","18162","NA","NA","111116","2285","NA","NA","112686","2290","NA","NA","112787","113447","112684","112787","Flanker Task","52","27065","57","yes","1024"
"91.3793103448","91.3793103448","473.327586207","473.327586207","black","legacy","legacy","legacy","0","incongruent","uniform","1","undefined","1","s","57","0","0","0","57","0","57","0","57","0","0","0","57","57","57","57","09/25/22 19:10:11","1500","The main experiment item","yes","FlankerTask.osexp","C:\Users\casme\OneDrive\Desktop\Fall 2022","no","mono","no","18","no","white","no","yes","768","legacy","57","57","C:/Users/casme/OneDrive/Desktop/Fall 2022/IC-subject-4.csv","legacy","Lentiform Loewenfeld","3.3.12","0","s","NA","h","NA","NA","s","388","NA","15871","NA","NA","388","2","legacy","1024","2","48000","-16","experiment","HHSHH","4","even","113454","18162","NA","NA","111116","2285","NA","NA","114508","2290","NA","NA","114610","114999","114506","114609","Flanker Task","53","27453","58","yes","1024"
"91.5254237288","91.5254237288","473.423728814","473.423728814","black","legacy","legacy","legacy","0","congruent","uniform","1","undefined","1","h","58","0","0","0","58","0","58","0","58","0","0","0","58","58","58","58","09/25/22 19:10:11","1500","The main experiment item","yes","FlankerTask.osexp","C:\Users\casme\OneDrive\Desktop\Fall 2022","no","mono","no","18","no","white","no","yes","768","legacy","58","58","C:/Users/casme/OneDrive/Desktop/Fall 2022/IC-subject-4.csv","legacy","Lentiform Loewenfeld","3.3.12","0","h","NA","h","NA","NA","h","479","NA","15871","NA","NA","479","2","legacy","1024","2","48000","-16","experiment","HHHHH","4","even","115005","18162","NA","NA","111116","2285","NA","NA","116058","2290","NA","NA","116162","116642","116056","116161","Flanker Task","54","27932","59","yes","1024"
"91.6666666667","91.6666666667","473.05","473.05","black","legacy","legacy","legacy","0","incongruent","uniform","1","undefined","1","h","59","0","0","0","59","0","59","0","59","0","0","0","59","59","59","59","09/25/22 19:10:11","1500","The main experiment item","yes","FlankerTask.osexp","C:\Users\casme\OneDrive\Desktop\Fall 2022","no","mono","no","18","no","white","no","yes","768","legacy","59","59","C:/Users/casme/OneDrive/Desktop/Fall 2022/IC-subject-4.csv","legacy","Lentiform Loewenfeld","3.3.12","0","h","NA","h","NA","NA","h","451","NA","15871","NA","NA","451","2","legacy","1024","2","48000","-16","experiment","SSHSS","4","even","116648","18162","NA","NA","111116","2285","NA","NA","117707","2290","NA","NA","117808","118259","117705","117808","Flanker Task","55","28383","60","yes","1024"
"91.8032786885","91.8032786885","471.639344262","471.639344262","black","legacy","legacy","legacy","0","incongruent","uniform","1","undefined","1","h","60","0","0","0","60","0","60","0","60","0","0","0","60","60","60","60","09/25/22 19:10:11","1500","The main experiment item","yes","FlankerTask.osexp","C:\Users\casme\OneDrive\Desktop\Fall 2022","no","mono","no","18","no","white","no","yes","768","legacy","60","60","C:/Users/casme/OneDrive/Desktop/Fall 2022/IC-subject-4.csv","legacy","Lentiform Loewenfeld","3.3.12","0","h","NA","h","NA","NA","h","387","NA","15871","NA","NA","387","2","legacy","1024","2","48000","-16","experiment","SSHSS","4","even","118267","18162","NA","NA","111116","2285","NA","NA","119322","2290","NA","NA","119425","119813","119319","119425","Flanker Task","56","28770","61","yes","1024"
"91.935483871","91.935483871","470.483870968","470.483870968","black","legacy","legacy","legacy","0","incongruent","uniform","1","undefined","1","h","61","0","0","0","61","0","61","0","61","0","0","0","61","61","61","61","09/25/22 19:10:11","1500","The main experiment item","yes","FlankerTask.osexp","C:\Users\casme\OneDrive\Desktop\Fall 2022","no","mono","no","18","no","white","no","yes","768","legacy","61","61","C:/Users/casme/OneDrive/Desktop/Fall 2022/IC-subject-4.csv","legacy","Lentiform Loewenfeld","3.3.12","0","h","NA","h","NA","NA","h","400","NA","15871","NA","NA","400","2","legacy","1024","2","48000","-16","experiment","SSHSS","4","even","119819","18162","NA","NA","111116","2285","NA","NA","120874","2290","NA","NA","120975","121376","120872","120975","Flanker Task","57","29170","62","yes","1024"
"92.0634920635","92.0634920635","469.619047619","469.619047619","black","legacy","legacy","legacy","0","congruent","uniform","1","undefined","1","s","62","0","0","0","62","0","62","0","62","0","0","0","62","62","62","62","09/25/22 19:10:11","1500","The main experiment item","yes","FlankerTask.osexp","C:\Users\casme\OneDrive\Desktop\Fall 2022","no","mono","no","18","no","white","no","yes","768","legacy","62","62","C:/Users/casme/OneDrive/Desktop/Fall 2022/IC-subject-4.csv","legacy","Lentiform Loewenfeld","3.3.12","0","s","NA","h","NA","NA","s","416","NA","15871","NA","NA","416","2","legacy","1024","2","48000","-16","experiment","SSSSS","4","even","121383","18162","NA","NA","111116","2285","NA","NA","122436","2290","NA","NA","122538","122955","122434","122538","Flanker Task","58","29586","63","yes","1024"
"92.1875","92.1875","469.203125","469.203125","black","legacy","legacy","legacy","0","congruent","uniform","1","undefined","1","h","63","0","0","0","63","0","63","0","63","0","0","0","63","63","63","63","09/25/22 19:10:11","1500","The main experiment item","yes","FlankerTask.osexp","C:\Users\casme\OneDrive\Desktop\Fall 2022","no","mono","no","18","no","white","no","yes","768","legacy","63","63","C:/Users/casme/OneDrive/Desktop/Fall 2022/IC-subject-4.csv","legacy","Lentiform Loewenfeld","3.3.12","0","h","NA","h","NA","NA","h","443","NA","15871","NA","NA","443","2","legacy","1024","2","48000","-16","experiment","HHHHH","4","even","122963","18162","NA","NA","111116","2285","NA","NA","124028","2290","NA","NA","124129","124573","124026","124129","Flanker Task","59","30029","64","yes","1024"
"92.3076923077","92.3076923077","467.6","467.6","black","legacy","legacy","legacy","0","congruent","uniform","1","undefined","1","h","64","0","0","0","64","0","64","0","64","0","0","0","64","64","64","64","09/25/22 19:10:11","1500","The main experiment item","yes","FlankerTask.osexp","C:\Users\casme\OneDrive\Desktop\Fall 2022","no","mono","no","18","no","white","no","yes","768","legacy","64","64","C:/Users/casme/OneDrive/Desktop/Fall 2022/IC-subject-4.csv","legacy","Lentiform Loewenfeld","3.3.12","0","h","NA","h","NA","NA","h","365","NA","15871","NA","NA","365","2","legacy","1024","2","48000","-16","experiment","HHHHH","4","even","124579","18162","NA","NA","111116","2285","NA","NA","125646","2290","NA","NA","125749","126114","125644","125748","Flanker Task","60","30394","65","yes","1024"
"92.4242424242","92.4242424242","467.46969697","467.46969697","black","legacy","legacy","legacy","0","incongruent","uniform","1","undefined","1","s","65","0","0","0","65","0","65","0","65","0","0","0","65","65","65","65","09/25/22 19:10:11","1500","The main experiment item","yes","FlankerTask.osexp","C:\Users\casme\OneDrive\Desktop\Fall 2022","no","mono","no","18","no","white","no","yes","768","legacy","65","65","C:/Users/casme/OneDrive/Desktop/Fall 2022/IC-subject-4.csv","legacy","Lentiform Loewenfeld","3.3.12","0","s","NA","h","NA","NA","s","459","NA","15871","NA","NA","459","2","legacy","1024","2","48000","-16","experiment","HHSHH","4","even","126120","18162","NA","NA","111116","2285","NA","NA","127175","2290","NA","NA","127277","127737","127173","127277","Flanker Task","61","30853","66","yes","1024"
"92.5373134328","92.5373134328","466.940298507","466.940298507","black","legacy","legacy","legacy","0","incongruent","uniform","1","undefined","1","h","66","0","0","0","66","0","66","0","66","0","0","0","66","66","66","66","09/25/22 19:10:11","1500","The main experiment item","yes","FlankerTask.osexp","C:\Users\casme\OneDrive\Desktop\Fall 2022","no","mono","no","18","no","white","no","yes","768","legacy","66","66","C:/Users/casme/OneDrive/Desktop/Fall 2022/IC-subject-4.csv","legacy","Lentiform Loewenfeld","3.3.12","0","h","NA","h","NA","NA","h","432","NA","15871","NA","NA","432","2","legacy","1024","2","48000","-16","experiment","SSHSS","4","even","127743","18162","NA","NA","111116","2285","NA","NA","128803","2290","NA","NA","128907","129340","128801","128907","Flanker Task","62","31285","67","yes","1024"
"92.6470588235","92.6470588235","466.529411765","466.529411765","black","legacy","legacy","legacy","0","congruent","uniform","1","undefined","1","h","67","0","0","0","67","0","67","0","67","0","0","0","67","67","67","67","09/25/22 19:10:11","1500","The main experiment item","yes","FlankerTask.osexp","C:\Users\casme\OneDrive\Desktop\Fall 2022","no","mono","no","18","no","white","no","yes","768","legacy","67","67","C:/Users/casme/OneDrive/Desktop/Fall 2022/IC-subject-4.csv","legacy","Lentiform Loewenfeld","3.3.12","0","h","NA","h","NA","NA","h","439","NA","15871","NA","NA","439","2","legacy","1024","2","48000","-16","experiment","HHHHH","4","even","129345","18162","NA","NA","111116","2285","NA","NA","130402","2290","NA","NA","130505","130944","130400","130505","Flanker Task","63","31724","68","yes","1024"
"92.7536231884","92.7536231884","465.304347826","465.304347826","black","legacy","legacy","legacy","0","congruent","uniform","1","undefined","1","h","68","0","0","0","68","0","68","0","68","0","0","0","68","68","68","68","09/25/22 19:10:11","1500","The main experiment item","yes","FlankerTask.osexp","C:\Users\casme\OneDrive\Desktop\Fall 2022","no","mono","no","18","no","white","no","yes","768","legacy","68","68","C:/Users/casme/OneDrive/Desktop/Fall 2022/IC-subject-4.csv","legacy","Lentiform Loewenfeld","3.3.12","0","h","NA","h","NA","NA","h","382","NA","15871","NA","NA","382","2","legacy","1024","2","48000","-16","experiment","HHHHH","4","even","130951","18162","NA","NA","111116","2285","NA","NA","132008","2290","NA","NA","132109","132492","132006","132109","Flanker Task","64","32106","69","yes","1024"
"91.4285714286","91.4285714286","463.9","463.9","black","legacy","legacy","legacy","0","incongruent","uniform","0","undefined","0","s","69","0","0","0","69","0","69","0","69","0","0","0","69","69","69","69","09/25/22 19:10:11","1500","The main experiment item","yes","FlankerTask.osexp","C:\Users\casme\OneDrive\Desktop\Fall 2022","no","mono","no","18","no","white","no","yes","768","legacy","69","69","C:/Users/casme/OneDrive/Desktop/Fall 2022/IC-subject-4.csv","legacy","Lentiform Loewenfeld","3.3.12","0","h","NA","h","NA","NA","h","367","NA","15871","NA","NA","367","2","legacy","1024","2","48000","-16","experiment","HHSHH","4","even","132499","18162","NA","NA","111116","2285","NA","NA","133554","2290","NA","NA","133657","134025","133551","133657","Flanker Task","64","32473","70","yes","1024"
"91.5492957746","91.5492957746","463.295774648","463.295774648","black","legacy","legacy","legacy","0","congruent","uniform","1","undefined","1","h","70","0","0","0","70","0","70","0","70","0","0","0","70","70","70","70","09/25/22 19:10:11","1500","The main experiment item","yes","FlankerTask.osexp","C:\Users\casme\OneDrive\Desktop\Fall 2022","no","mono","no","18","no","white","no","yes","768","legacy","70","70","C:/Users/casme/OneDrive/Desktop/Fall 2022/IC-subject-4.csv","legacy","Lentiform Loewenfeld","3.3.12","0","h","NA","h","NA","NA","h","421","NA","15871","NA","NA","421","2","legacy","1024","2","48000","-16","experiment","HHHHH","4","even","134531","18162","NA","NA","134030","2285","NA","NA","135597","2290","NA","NA","135700","136122","135595","135700","Flanker Task","65","32894","71","yes","1024"
"91.6666666667","91.6666666667","463.402777778","463.402777778","black","legacy","legacy","legacy","0","incongruent","uniform","1","undefined","1","s","71","0","0","0","71","0","71","0","71","0","0","0","71","71","71","71","09/25/22 19:10:11","1500","The main experiment item","yes","FlankerTask.osexp","C:\Users\casme\OneDrive\Desktop\Fall 2022","no","mono","no","18","no","white","no","yes","768","legacy","71","71","C:/Users/casme/OneDrive/Desktop/Fall 2022/IC-subject-4.csv","legacy","Lentiform Loewenfeld","3.3.12","0","s","NA","h","NA","NA","s","471","NA","15871","NA","NA","471","2","legacy","1024","2","48000","-16","experiment","HHSHH","4","even","136129","18162","NA","NA","134030","2285","NA","NA","137185","2290","NA","NA","137288","137760","137183","137288","Flanker Task","66","33365","72","yes","1024"
"91.7808219178","91.7808219178","461.794520548","461.794520548","black","legacy","legacy","legacy","0","incongruent","uniform","1","undefined","1","s","72","0","0","0","72","0","72","0","72","0","0","0","72","72","72","72","09/25/22 19:10:11","1500","The main experiment item","yes","FlankerTask.osexp","C:\Users\casme\OneDrive\Desktop\Fall 2022","no","mono","no","18","no","white","no","yes","768","legacy","72","72","C:/Users/casme/OneDrive/Desktop/Fall 2022/IC-subject-4.csv","legacy","Lentiform Loewenfeld","3.3.12","0","s","NA","h","NA","NA","s","346","NA","15871","NA","NA","346","2","legacy","1024","2","48000","-16","experiment","HHSHH","4","even","137767","18162","NA","NA","134030","2285","NA","NA","138825","2290","NA","NA","138927","139274","138823","138927","Flanker Task","67","33711","73","yes","1024"
"91.8918918919","91.8918918919","462.351351351","462.351351351","black","legacy","legacy","legacy","0","congruent","uniform","1","undefined","1","s","73","0","0","0","73","0","73","0","73","0","0","0","73","73","73","73","09/25/22 19:10:11","1500","The main experiment item","yes","FlankerTask.osexp","C:\Users\casme\OneDrive\Desktop\Fall 2022","no","mono","no","18","no","white","no","yes","768","legacy","73","73","C:/Users/casme/OneDrive/Desktop/Fall 2022/IC-subject-4.csv","legacy","Lentiform Loewenfeld","3.3.12","0","s","NA","h","NA","NA","s","503","NA","15871","NA","NA","503","2","legacy","1024","2","48000","-16","experiment","SSSSS","4","even","139280","18162","NA","NA","134030","2285","NA","NA","140336","2290","NA","NA","140438","140942","140334","140438","Flanker Task","68","34214","74","yes","1024"
"92","92","460.826666667","460.826666667","black","legacy","legacy","legacy","0","congruent","uniform","1","undefined","1","s","74","0","0","0","74","0","74","0","74","0","0","0","74","74","74","74","09/25/22 19:10:11","1500","The main experiment item","yes","FlankerTask.osexp","C:\Users\casme\OneDrive\Desktop\Fall 2022","no","mono","no","18","no","white","no","yes","768","legacy","74","74","C:/Users/casme/OneDrive/Desktop/Fall 2022/IC-subject-4.csv","legacy","Lentiform Loewenfeld","3.3.12","0","s","NA","h","NA","NA","s","348","NA","15871","NA","NA","348","2","legacy","1024","2","48000","-16","experiment","SSSSS","4","even","140948","18162","NA","NA","134030","2285","NA","NA","142004","2290","NA","NA","142105","142454","142002","142105","Flanker Task","69","34562","75","yes","1024"
"92.1052631579","92.1052631579","459.881578947","459.881578947","black","legacy","legacy","legacy","0","congruent","uniform","1","undefined","1","h","75","0","0","0","75","0","75","0","75","0","0","0","75","75","75","75","09/25/22 19:10:11","1500","The main experiment item","yes","FlankerTask.osexp","C:\Users\casme\OneDrive\Desktop\Fall 2022","no","mono","no","18","no","white","no","yes","768","legacy","75","75","C:/Users/casme/OneDrive/Desktop/Fall 2022/IC-subject-4.csv","legacy","Lentiform Loewenfeld","3.3.12","0","h","NA","h","NA","NA","h","389","NA","15871","NA","NA","389","2","legacy","1024","2","48000","-16","experiment","HHHHH","4","even","142460","18162","NA","NA","134030","2285","NA","NA","143516","2290","NA","NA","143618","144008","143514","143618","Flanker Task","70","34951","76","yes","1024"
"92.2077922078","92.2077922078","460.883116883","460.883116883","black","legacy","legacy","legacy","0","incongruent","uniform","1","undefined","1","h","76","0","0","0","76","0","76","0","76","0","0","0","76","76","76","76","09/25/22 19:10:11","1500","The main experiment item","yes","FlankerTask.osexp","C:\Users\casme\OneDrive\Desktop\Fall 2022","no","mono","no","18","no","white","no","yes","768","legacy","76","76","C:/Users/casme/OneDrive/Desktop/Fall 2022/IC-subject-4.csv","legacy","Lentiform Loewenfeld","3.3.12","0","h","NA","h","NA","NA","h","537","NA","15871","NA","NA","537","2","legacy","1024","2","48000","-16","experiment","SSHSS","4","even","144014","18162","NA","NA","134030","2285","NA","NA","145081","2290","NA","NA","145184","145722","145079","145184","Flanker Task","71","35488","77","yes","1024"
"92.3076923077","92.3076923077","460.423076923","460.423076923","black","legacy","legacy","legacy","0","congruent","uniform","1","undefined","1","s","77","0","0","0","77","0","77","0","77","0","0","0","77","77","77","77","09/25/22 19:10:11","1500","The main experiment item","yes","FlankerTask.osexp","C:\Users\casme\OneDrive\Desktop\Fall 2022","no","mono","no","18","no","white","no","yes","768","legacy","77","77","C:/Users/casme/OneDrive/Desktop/Fall 2022/IC-subject-4.csv","legacy","Lentiform Loewenfeld","3.3.12","0","s","NA","h","NA","NA","s","425","NA","15871","NA","NA","425","2","legacy","1024","2","48000","-16","experiment","SSSSS","4","even","145729","18162","NA","NA","134030","2285","NA","NA","146783","2290","NA","NA","146888","147314","146781","146887","Flanker Task","72","35913","78","yes","1024"
"92.4050632911","92.4050632911","461.101265823","461.101265823","black","legacy","legacy","legacy","0","incongruent","uniform","1","undefined","1","s","78","0","0","0","78","0","78","0","78","0","0","0","78","78","78","78","09/25/22 19:10:11","1500","The main experiment item","yes","FlankerTask.osexp","C:\Users\casme\OneDrive\Desktop\Fall 2022","no","mono","no","18","no","white","no","yes","768","legacy","78","78","C:/Users/casme/OneDrive/Desktop/Fall 2022/IC-subject-4.csv","legacy","Lentiform Loewenfeld","3.3.12","0","s","NA","h","NA","NA","s","514","NA","15871","NA","NA","514","2","legacy","1024","2","48000","-16","experiment","HHSHH","4","even","147320","18162","NA","NA","134030","2285","NA","NA","148375","2290","NA","NA","148476","148992","148372","148476","Flanker Task","73","36427","79","yes","1024"
"92.5","92.5","459.9375","459.9375","black","legacy","legacy","legacy","0","congruent","uniform","1","undefined","1","h","79","0","0","0","79","0","79","0","79","0","0","0","79","79","79","79","09/25/22 19:10:11","1500","The main experiment item","yes","FlankerTask.osexp","C:\Users\casme\OneDrive\Desktop\Fall 2022","no","mono","no","18","no","white","no","yes","768","legacy","79","79","C:/Users/casme/OneDrive/Desktop/Fall 2022/IC-subject-4.csv","legacy","Lentiform Loewenfeld","3.3.12","0","h","NA","h","NA","NA","h","368","NA","15871","NA","NA","368","2","legacy","1024","2","48000","-16","experiment","HHHHH","4","even","148997","18162","NA","NA","134030","2285","NA","NA","150054","2290","NA","NA","150156","150525","150052","150156","Flanker Task","74","36795","80","yes","1024"
"92.5925925926","92.5925925926","462.172839506","462.172839506","black","legacy","legacy","legacy","0","incongruent","uniform","1","undefined","1","s","80","0","0","0","80","0","80","0","80","0","0","0","80","80","80","80","09/25/22 19:10:11","600","The main experiment item","yes","FlankerTask.osexp","C:\Users\casme\OneDrive\Desktop\Fall 2022","no","mono","no","18","no","white","no","yes","768","legacy","0","79","C:/Users/casme/OneDrive/Desktop/Fall 2022/IC-subject-4.csv","legacy","Lentiform Loewenfeld","3.3.12","0","s","NA","h","h","NA","s","641","NA","15871","82165","NA","641","2","legacy","1024","2","48000","-16","experiment","HHSHH","4","even","150530","18162","233715","NA","134030","2285","NA","NA","233777","2290","151549","NA","233880","234521","233775","233880","Flanker Task","75","37436","81","yes","1024"
"92.6829268293","92.6829268293","461.268292683","461.268292683","black","legacy","legacy","legacy","0","congruent","uniform","1","undefined","1","s","81","0","0","0","81","0","81","0","81","0","0","0","81","81","81","81","09/25/22 19:10:11","600","The main experiment item","yes","FlankerTask.osexp","C:\Users\casme\OneDrive\Desktop\Fall 2022","no","mono","no","18","no","white","no","yes","768","legacy","1","79","C:/Users/casme/OneDrive/Desktop/Fall 2022/IC-subject-4.csv","legacy","Lentiform Loewenfeld","3.3.12","0","s","NA","h","h","NA","s","388","NA","15871","82165","NA","388","2","legacy","1024","2","48000","-16","experiment","SSSSS","4","even","235030","18162","233715","NA","134030","2285","234527","NA","236083","2290","151549","NA","236184","236573","236081","236184","Flanker Task","76","37824","82","yes","1024"
"92.7710843373","92.7710843373","460.265060241","460.265060241","black","legacy","legacy","legacy","0","incongruent","uniform","1","undefined","1","s","82","0","0","0","82","0","82","0","82","0","0","0","82","82","82","82","09/25/22 19:10:11","600","The main experiment item","yes","FlankerTask.osexp","C:\Users\casme\OneDrive\Desktop\Fall 2022","no","mono","no","18","no","white","no","yes","768","legacy","2","79","C:/Users/casme/OneDrive/Desktop/Fall 2022/IC-subject-4.csv","legacy","Lentiform Loewenfeld","3.3.12","0","s","NA","h","h","NA","s","378","NA","15871","82165","NA","378","2","legacy","1024","2","48000","-16","experiment","HHSHH","4","even","236578","18162","233715","NA","134030","2285","234527","NA","237648","2290","151549","NA","237752","238131","237646","237751","Flanker Task","77","38202","83","yes","1024"
"92.8571428571","92.8571428571","460.214285714","460.214285714","black","legacy","legacy","legacy","0","incongruent","uniform","1","undefined","1","h","83","0","0","0","83","0","83","0","83","0","0","0","83","83","83","83","09/25/22 19:10:11","600","The main experiment item","yes","FlankerTask.osexp","C:\Users\casme\OneDrive\Desktop\Fall 2022","no","mono","no","18","no","white","no","yes","768","legacy","3","79","C:/Users/casme/OneDrive/Desktop/Fall 2022/IC-subject-4.csv","legacy","Lentiform Loewenfeld","3.3.12","0","h","NA","h","h","NA","h","456","NA","15871","82165","NA","456","2","legacy","1024","2","48000","-16","experiment","SSHSS","4","even","238137","18162","233715","NA","134030","2285","234527","NA","239200","2290","151549","NA","239301","239758","239198","239301","Flanker Task","78","38658","84","yes","1024"
"92.9411764706","92.9411764706","459.505882353","459.505882353","black","legacy","legacy","legacy","0","congruent","uniform","1","undefined","1","s","84","0","0","0","84","0","84","0","84","0","0","0","84","84","84","84","09/25/22 19:10:11","600","The main experiment item","yes","FlankerTask.osexp","C:\Users\casme\OneDrive\Desktop\Fall 2022","no","mono","no","18","no","white","no","yes","768","legacy","4","79","C:/Users/casme/OneDrive/Desktop/Fall 2022/IC-subject-4.csv","legacy","Lentiform Loewenfeld","3.3.12","0","s","NA","h","h","NA","s","400","NA","15871","82165","NA","400","2","legacy","1024","2","48000","-16","experiment","SSSSS","4","even","239764","18162","233715","NA","134030","2285","234527","NA","240831","2290","151549","NA","240934","241335","240829","240934","Flanker Task","79","39058","85","yes","1024"
"91.8604651163","91.8604651163","459.709302326","459.709302326","black","legacy","legacy","legacy","0","incongruent","uniform","0","undefined","0","s","85","0","0","0","85","0","85","0","85","0","0","0","85","85","85","85","09/25/22 19:10:11","600","The main experiment item","yes","FlankerTask.osexp","C:\Users\casme\OneDrive\Desktop\Fall 2022","no","mono","no","18","no","white","no","yes","768","legacy","5","79","C:/Users/casme/OneDrive/Desktop/Fall 2022/IC-subject-4.csv","legacy","Lentiform Loewenfeld","3.3.12","0","h","NA","h","h","NA","h","477","NA","15871","82165","NA","477","2","legacy","1024","2","48000","-16","experiment","HHSHH","4","even","241341","18162","233715","NA","134030","2285","234527","NA","242401","2290","151549","NA","242504","242982","242399","242504","Flanker Task","79","39535","86","yes","1024"
"91.9540229885","91.9540229885","459.195402299","459.195402299","black","legacy","legacy","legacy","0","congruent","uniform","1","undefined","1","h","86","0","0","0","86","0","86","0","86","0","0","0","86","86","86","86","09/25/22 19:10:11","600","The main experiment item","yes","FlankerTask.osexp","C:\Users\casme\OneDrive\Desktop\Fall 2022","no","mono","no","18","no","white","no","yes","768","legacy","6","79","C:/Users/casme/OneDrive/Desktop/Fall 2022/IC-subject-4.csv","legacy","Lentiform Loewenfeld","3.3.12","0","h","NA","h","h","NA","h","415","NA","15871","82165","NA","415","2","legacy","1024","2","48000","-16","experiment","HHHHH","4","even","243492","18162","233715","NA","242987","2285","234527","NA","244554","2290","151549","NA","244655","245071","244551","244655","Flanker Task","80","39950","87","yes","1024"
"92.0454545455","92.0454545455","459.102272727","459.102272727","black","legacy","legacy","legacy","0","incongruent","uniform","1","undefined","1","s","87","0","0","0","87","0","87","0","87","0","0","0","87","87","87","87","09/25/22 19:10:11","600","The main experiment item","yes","FlankerTask.osexp","C:\Users\casme\OneDrive\Desktop\Fall 2022","no","mono","no","18","no","white","no","yes","768","legacy","7","79","C:/Users/casme/OneDrive/Desktop/Fall 2022/IC-subject-4.csv","legacy","Lentiform Loewenfeld","3.3.12","0","s","NA","h","h","NA","s","451","NA","15871","82165","NA","451","2","legacy","1024","2","48000","-16","experiment","HHSHH","4","even","245077","18162","233715","NA","242987","2285","234527","NA","246137","2290","151549","NA","246238","246690","246135","246238","Flanker Task","81","40401","88","yes","1024"
"91.0112359551","91.0112359551","457.786516854","457.786516854","black","legacy","legacy","legacy","0","incongruent","uniform","0","undefined","0","h","88","0","0","0","88","0","88","0","88","0","0","0","88","88","88","88","09/25/22 19:10:11","600","The main experiment item","yes","FlankerTask.osexp","C:\Users\casme\OneDrive\Desktop\Fall 2022","no","mono","no","18","no","white","no","yes","768","legacy","8","79","C:/Users/casme/OneDrive/Desktop/Fall 2022/IC-subject-4.csv","legacy","Lentiform Loewenfeld","3.3.12","0","s","NA","h","h","NA","s","342","NA","15871","82165","NA","342","2","legacy","1024","2","48000","-16","experiment","SSHSS","4","even","246696","18162","233715","NA","242987","2285","234527","NA","247749","2290","151549","NA","247850","248194","247746","247850","Flanker Task","81","40743","89","yes","1024"
"91.1111111111","91.1111111111","457.233333333","457.233333333","black","legacy","legacy","legacy","0","congruent","uniform","1","undefined","1","h","89","0","0","0","89","0","89","0","89","0","0","0","89","89","89","89","09/25/22 19:10:11","600","The main experiment item","yes","FlankerTask.osexp","C:\Users\casme\OneDrive\Desktop\Fall 2022","no","mono","no","18","no","white","no","yes","768","legacy","9","79","C:/Users/casme/OneDrive/Desktop/Fall 2022/IC-subject-4.csv","legacy","Lentiform Loewenfeld","3.3.12","0","h","NA","h","h","NA","h","408","NA","15871","82165","NA","408","2","legacy","1024","2","48000","-16","experiment","HHHHH","4","even","248703","18162","233715","NA","248201","2285","234527","NA","249759","2290","151549","NA","249860","250269","249757","249860","Flanker Task","82","41151","90","yes","1024"
"91.2087912088","91.2087912088","457.010989011","457.010989011","black","legacy","legacy","legacy","0","incongruent","uniform","1","undefined","1","s","90","0","0","0","90","0","90","0","90","0","0","0","90","90","90","90","09/25/22 19:10:11","600","The main experiment item","yes","FlankerTask.osexp","C:\Users\casme\OneDrive\Desktop\Fall 2022","no","mono","no","18","no","white","no","yes","768","legacy","10","79","C:/Users/casme/OneDrive/Desktop/Fall 2022/IC-subject-4.csv","legacy","Lentiform Loewenfeld","3.3.12","0","s","NA","h","h","NA","s","437","NA","15871","82165","NA","437","2","legacy","1024","2","48000","-16","experiment","HHSHH","4","even","250276","18162","233715","NA","248201","2285","234527","NA","251330","2290","151549","NA","251432","251869","251328","251431","Flanker Task","83","41588","91","yes","1024"
"91.3043478261","91.3043478261","456.130434783","456.130434783","black","legacy","legacy","legacy","0","congruent","uniform","1","undefined","1","s","91","0","0","0","91","0","91","0","91","0","0","0","91","91","91","91","09/25/22 19:10:11","600","The main experiment item","yes","FlankerTask.osexp","C:\Users\casme\OneDrive\Desktop\Fall 2022","no","mono","no","18","no","white","no","yes","768","legacy","11","79","C:/Users/casme/OneDrive/Desktop/Fall 2022/IC-subject-4.csv","legacy","Lentiform Loewenfeld","3.3.12","0","s","NA","h","h","NA","s","376","NA","15871","82165","NA","376","2","legacy","1024","2","48000","-16","experiment","SSSSS","4","even","251875","18162","233715","NA","248201","2285","234527","NA","252933","2290","151549","NA","253034","253411","252930","253034","Flanker Task","84","41964","92","yes","1024"
"91.3978494624","91.3978494624","457.193548387","457.193548387","black","legacy","legacy","legacy","0","incongruent","uniform","1","undefined","1","s","92","0","0","0","92","0","92","0","92","0","0","0","92","92","92","92","09/25/22 19:10:11","600","The main experiment item","yes","FlankerTask.osexp","C:\Users\casme\OneDrive\Desktop\Fall 2022","no","mono","no","18","no","white","no","yes","768","legacy","12","79","C:/Users/casme/OneDrive/Desktop/Fall 2022/IC-subject-4.csv","legacy","Lentiform Loewenfeld","3.3.12","0","s","NA","h","h","NA","s","555","NA","15871","82165","NA","555","2","legacy","1024","2","48000","-16","experiment","HHSHH","4","even","253417","18162","233715","NA","248201","2285","234527","NA","254470","2290","151549","NA","254572","255128","254467","254572","Flanker Task","85","42519","93","yes","1024"
"91.4893617021","91.4893617021","457.329787234","457.329787234","black","legacy","legacy","legacy","0","congruent","uniform","1","undefined","1","h","93","0","0","0","93","0","93","0","93","0","0","0","93","93","93","93","09/25/22 19:10:11","600","The main experiment item","yes","FlankerTask.osexp","C:\Users\casme\OneDrive\Desktop\Fall 2022","no","mono","no","18","no","white","no","yes","768","legacy","13","79","C:/Users/casme/OneDrive/Desktop/Fall 2022/IC-subject-4.csv","legacy","Lentiform Loewenfeld","3.3.12","0","h","NA","h","h","NA","h","470","NA","15871","82165","NA","470","2","legacy","1024","2","48000","-16","experiment","HHHHH","4","even","255137","18162","233715","NA","248201","2285","234527","NA","256190","2290","151549","NA","256293","256764","256188","256293","Flanker Task","86","42989","94","yes","1024"
"91.5789473684","91.5789473684","457.294736842","457.294736842","black","legacy","legacy","legacy","0","congruent","uniform","1","undefined","1","s","94","0","0","0","94","0","94","0","94","0","0","0","94","94","94","94","09/25/22 19:10:11","600","The main experiment item","yes","FlankerTask.osexp","C:\Users\casme\OneDrive\Desktop\Fall 2022","no","mono","no","18","no","white","no","yes","768","legacy","14","79","C:/Users/casme/OneDrive/Desktop/Fall 2022/IC-subject-4.csv","legacy","Lentiform Loewenfeld","3.3.12","0","s","NA","h","h","NA","s","454","NA","15871","82165","NA","454","2","legacy","1024","2","48000","-16","experiment","SSSSS","4","even","256771","18162","233715","NA","248201","2285","234527","NA","257830","2290","151549","NA","257934","258389","257828","257934","Flanker Task","87","43443","95","yes","1024"
"91.6666666667","91.6666666667","457.739583333","457.739583333","black","legacy","legacy","legacy","0","incongruent","uniform","1","undefined","1","h","95","0","0","0","95","0","95","0","95","0","0","0","95","95","95","95","09/25/22 19:10:11","600","The main experiment item","yes","FlankerTask.osexp","C:\Users\casme\OneDrive\Desktop\Fall 2022","no","mono","no","18","no","white","no","yes","768","legacy","15","79","C:/Users/casme/OneDrive/Desktop/Fall 2022/IC-subject-4.csv","legacy","Lentiform Loewenfeld","3.3.12","0","h","NA","h","h","NA","h","500","NA","15871","82165","NA","500","2","legacy","1024","2","48000","-16","experiment","SSHSS","4","even","258395","18162","233715","NA","248201","2285","234527","NA","259463","2290","151549","NA","259564","260065","259461","259564","Flanker Task","88","43943","96","yes","1024"
"90.7216494845","90.7216494845","457.907216495","457.907216495","black","legacy","legacy","legacy","0","congruent","uniform","0","undefined","0","h","96","0","0","0","96","0","96","0","96","0","0","0","96","96","96","96","09/25/22 19:10:11","600","The main experiment item","yes","FlankerTask.osexp","C:\Users\casme\OneDrive\Desktop\Fall 2022","no","mono","no","18","no","white","no","yes","768","legacy","16","79","C:/Users/casme/OneDrive/Desktop/Fall 2022/IC-subject-4.csv","legacy","Lentiform Loewenfeld","3.3.12","0","s","NA","h","h","NA","s","474","NA","15871","82165","NA","474","2","legacy","1024","2","48000","-16","experiment","HHHHH","4","even","260072","18162","233715","NA","248201","2285","234527","NA","261126","2290","151549","NA","261230","261705","261124","261230","Flanker Task","88","44417","97","yes","1024"
"90.8163265306","90.8163265306","457.795918367","457.795918367","black","legacy","legacy","legacy","0","congruent","uniform","1","undefined","1","h","97","0","0","0","97","0","97","0","97","0","0","0","97","97","97","97","09/25/22 19:10:11","600","The main experiment item","yes","FlankerTask.osexp","C:\Users\casme\OneDrive\Desktop\Fall 2022","no","mono","no","18","no","white","no","yes","768","legacy","17","79","C:/Users/casme/OneDrive/Desktop/Fall 2022/IC-subject-4.csv","legacy","Lentiform Loewenfeld","3.3.12","0","h","NA","h","h","NA","h","447","NA","15871","82165","NA","447","2","legacy","1024","2","48000","-16","experiment","HHHHH","4","even","262214","18162","233715","NA","261711","2285","234527","NA","263268","2290","151549","NA","263370","263818","263266","263369","Flanker Task","89","44864","98","yes","1024"
"90.9090909091","90.9090909091","459.343434343","459.343434343","black","legacy","legacy","legacy","0","congruent","uniform","1","undefined","1","h","98","0","0","0","98","0","98","0","98","0","0","0","98","98","98","98","09/25/22 19:10:11","600","The main experiment item","yes","FlankerTask.osexp","C:\Users\casme\OneDrive\Desktop\Fall 2022","no","mono","no","18","no","white","no","yes","768","legacy","18","79","C:/Users/casme/OneDrive/Desktop/Fall 2022/IC-subject-4.csv","legacy","Lentiform Loewenfeld","3.3.12","0","h","NA","h","h","NA","h","611","NA","15871","82165","NA","611","2","legacy","1024","2","48000","-16","experiment","HHHHH","4","even","263823","18162","233715","NA","261711","2285","234527","NA","264896","2290","151549","NA","264998","265610","264894","264998","Flanker Task","90","45475","99","yes","1024"
"91","91","459.8","459.8","black","legacy","legacy","legacy","0","incongruent","uniform","1","undefined","1","h","99","0","0","0","99","0","99","0","99","0","0","0","99","99","99","99","09/25/22 19:10:11","600","The main experiment item","yes","FlankerTask.osexp","C:\Users\casme\OneDrive\Desktop\Fall 2022","no","mono","no","18","no","white","no","yes","768","legacy","19","79","C:/Users/casme/OneDrive/Desktop/Fall 2022/IC-subject-4.csv","legacy","Lentiform Loewenfeld","3.3.12","0","h","NA","h","h","NA","h","505","NA","15871","82165","NA","505","2","legacy","1024","2","48000","-16","experiment","SSHSS","4","even","266120","18162","233715","NA","261711","2285","265616","NA","267186","2290","151549","NA","267288","267795","267184","267288","Flanker Task","91","45980","100","yes","1024"
"90.099009901","90.099009901","458.415841584","458.415841584","black","legacy","legacy","legacy","0","incongruent","uniform","0","undefined","0","s","100","0","0","0","100","0","100","0","100","0","0","0","100","100","100","100","09/25/22 19:10:11","600","The main experiment item","yes","FlankerTask.osexp","C:\Users\casme\OneDrive\Desktop\Fall 2022","no","mono","no","18","no","white","no","yes","768","legacy","20","79","C:/Users/casme/OneDrive/Desktop/Fall 2022/IC-subject-4.csv","legacy","Lentiform Loewenfeld","3.3.12","0","h","NA","h","h","NA","h","320","NA","15871","82165","NA","320","2","legacy","1024","2","48000","-16","experiment","HHSHH","4","even","267802","18162","233715","NA","261711","2285","265616","NA","268871","2290","151549","NA","268976","269298","268869","268975","Flanker Task","91","46300","101","yes","1024"
"90.1960784314","90.1960784314","459.303921569","459.303921569","black","legacy","legacy","legacy","0","incongruent","uniform","1","undefined","1","s","101","0","0","0","101","0","101","0","101","0","0","0","101","101","101","101","09/25/22 19:10:11","600","The main experiment item","yes","FlankerTask.osexp","C:\Users\casme\OneDrive\Desktop\Fall 2022","no","mono","no","18","no","white","no","yes","768","legacy","21","79","C:/Users/casme/OneDrive/Desktop/Fall 2022/IC-subject-4.csv","legacy","Lentiform Loewenfeld","3.3.12","0","s","NA","h","h","NA","s","549","NA","15871","82165","NA","549","2","legacy","1024","2","48000","-16","experiment","HHSHH","4","even","269805","18162","233715","NA","269304","2285","265616","NA","270869","2290","151549","NA","270971","271521","270867","270971","Flanker Task","92","46849","102","yes","1024"
"90.2912621359","90.2912621359","460.941747573","460.941747573","black","legacy","legacy","legacy","0","incongruent","uniform","1","undefined","1","h","102","0","0","0","102","0","102","0","102","0","0","0","102","102","102","102","09/25/22 19:10:11","600","The main experiment item","yes","FlankerTask.osexp","C:\Users\casme\OneDrive\Desktop\Fall 2022","no","mono","no","18","no","white","no","yes","768","legacy","22","79","C:/Users/casme/OneDrive/Desktop/Fall 2022/IC-subject-4.csv","legacy","Lentiform Loewenfeld","3.3.12","0","h","NA","h","h","NA","h","628","NA","15871","82165","NA","628","2","legacy","1024","2","48000","-16","experiment","SSHSS","4","even","271529","18162","233715","NA","269304","2285","265616","NA","272583","2290","151549","NA","272684","273314","272581","272684","Flanker Task","93","47477","103","yes","1024"
"90.3846153846","90.3846153846","461.163461538","461.163461538","black","legacy","legacy","legacy","0","incongruent","uniform","1","undefined","1","s","103","0","0","0","103","0","103","0","103","0","0","0","103","103","103","103","09/25/22 19:10:11","600","The main experiment item","yes","FlankerTask.osexp","C:\Users\casme\OneDrive\Desktop\Fall 2022","no","mono","no","18","no","white","no","yes","768","legacy","23","79","C:/Users/casme/OneDrive/Desktop/Fall 2022/IC-subject-4.csv","legacy","Lentiform Loewenfeld","3.3.12","0","s","NA","h","h","NA","s","484","NA","15871","82165","NA","484","2","legacy","1024","2","48000","-16","experiment","HHSHH","4","even","273823","18162","233715","NA","269304","2285","273319","NA","274878","2290","151549","NA","274980","275465","274876","274980","Flanker Task","94","47961","104","yes","1024"
"90.4761904762","90.4761904762","462.752380952","462.752380952","black","legacy","legacy","legacy","0","incongruent","uniform","1","undefined","1","s","104","0","0","0","104","0","104","0","104","0","0","0","104","104","104","104","09/25/22 19:10:11","600","The main experiment item","yes","FlankerTask.osexp","C:\Users\casme\OneDrive\Desktop\Fall 2022","no","mono","no","18","no","white","no","yes","768","legacy","24","79","C:/Users/casme/OneDrive/Desktop/Fall 2022/IC-subject-4.csv","legacy","Lentiform Loewenfeld","3.3.12","0","s","NA","h","h","NA","s","628","NA","15871","82165","NA","628","2","legacy","1024","2","48000","-16","experiment","HHSHH","4","even","275471","18162","233715","NA","269304","2285","273319","NA","276522","2290","151549","NA","276624","277253","276520","276624","Flanker Task","95","48589","105","yes","1024"
"90.5660377358","90.5660377358","467.971698113","467.971698113","black","legacy","legacy","legacy","0","incongruent","uniform","1","undefined","1","s","105","0","0","0","105","0","105","0","105","0","0","0","105","105","105","105","09/25/22 19:10:11","600","The main experiment item","yes","FlankerTask.osexp","C:\Users\casme\OneDrive\Desktop\Fall 2022","no","mono","no","18","no","white","no","yes","768","legacy","25","79","C:/Users/casme/OneDrive/Desktop/Fall 2022/IC-subject-4.csv","legacy","Lentiform Loewenfeld","3.3.12","0","s","NA","h","h","NA","s","1016","NA","15871","82165","NA","1016","2","legacy","1024","2","48000","-16","experiment","HHSHH","4","even","277765","18162","233715","NA","269304","2285","277261","NA","278833","2290","151549","NA","278934","279951","278831","278934","Flanker Task","96","49605","106","yes","1024"
"90.6542056075","90.6542056075","467.626168224","467.626168224","black","legacy","legacy","legacy","0","incongruent","uniform","1","undefined","1","s","106","0","0","0","106","0","106","0","106","0","0","0","106","106","106","106","09/25/22 19:10:11","600","The main experiment item","yes","FlankerTask.osexp","C:\Users\casme\OneDrive\Desktop\Fall 2022","no","mono","no","18","no","white","no","yes","768","legacy","26","79","C:/Users/casme/OneDrive/Desktop/Fall 2022/IC-subject-4.csv","legacy","Lentiform Loewenfeld","3.3.12","0","s","NA","h","h","NA","s","431","NA","15871","82165","NA","431","2","legacy","1024","2","48000","-16","experiment","HHSHH","4","even","280460","18162","233715","NA","269304","2285","279957","NA","281514","2290","151549","NA","281615","282047","281513","281615","Flanker Task","97","50036","107","yes","1024"
"90.7407407407","90.7407407407","467.805555556","467.805555556","black","legacy","legacy","legacy","0","incongruent","uniform","1","undefined","1","h","107","0","0","0","107","0","107","0","107","0","0","0","107","107","107","107","09/25/22 19:10:11","600","The main experiment item","yes","FlankerTask.osexp","C:\Users\casme\OneDrive\Desktop\Fall 2022","no","mono","no","18","no","white","no","yes","768","legacy","27","79","C:/Users/casme/OneDrive/Desktop/Fall 2022/IC-subject-4.csv","legacy","Lentiform Loewenfeld","3.3.12","0","h","NA","h","h","NA","h","487","NA","15871","82165","NA","487","2","legacy","1024","2","48000","-16","experiment","SSHSS","4","even","282053","18162","233715","NA","269304","2285","279957","NA","283107","2290","151549","NA","283210","283698","283105","283209","Flanker Task","98","50523","108","yes","1024"
"89.9082568807","89.9082568807","468.366972477","468.366972477","black","legacy","legacy","legacy","0","congruent","uniform","0","undefined","0","s","108","0","0","0","108","0","108","0","108","0","0","0","108","108","108","108","09/25/22 19:10:11","600","The main experiment item","yes","FlankerTask.osexp","C:\Users\casme\OneDrive\Desktop\Fall 2022","no","mono","no","18","no","white","no","yes","768","legacy","28","79","C:/Users/casme/OneDrive/Desktop/Fall 2022/IC-subject-4.csv","legacy","Lentiform Loewenfeld","3.3.12","0","h","NA","h","h","NA","h","529","NA","15871","82165","NA","529","2","legacy","1024","2","48000","-16","experiment","SSSSS","4","even","283704","18162","233715","NA","269304","2285","279957","NA","284758","2290","151549","NA","284859","285389","284756","284859","Flanker Task","98","51052","109","yes","1024"
"90","90","469.027272727","469.027272727","black","legacy","legacy","legacy","0","incongruent","uniform","1","undefined","1","h","109","0","0","0","109","0","109","0","109","0","0","0","109","109","109","109","09/25/22 19:10:11","600","The main experiment item","yes","FlankerTask.osexp","C:\Users\casme\OneDrive\Desktop\Fall 2022","no","mono","no","18","no","white","no","yes","768","legacy","29","79","C:/Users/casme/OneDrive/Desktop/Fall 2022/IC-subject-4.csv","legacy","Lentiform Loewenfeld","3.3.12","0","h","NA","h","h","NA","h","541","NA","15871","82165","NA","541","2","legacy","1024","2","48000","-16","experiment","SSHSS","4","even","285900","18162","233715","NA","285399","2285","279957","NA","286954","2290","151549","NA","287055","287597","286952","287055","Flanker Task","99","51593","110","yes","1024"
"90.0900900901","90.0900900901","468.963963964","468.963963964","black","legacy","legacy","legacy","0","incongruent","uniform","1","undefined","1","s","110","0","0","0","110","0","110","0","110","0","0","0","110","110","110","110","09/25/22 19:10:11","600","The main experiment item","yes","FlankerTask.osexp","C:\Users\casme\OneDrive\Desktop\Fall 2022","no","mono","no","18","no","white","no","yes","768","legacy","30","79","C:/Users/casme/OneDrive/Desktop/Fall 2022/IC-subject-4.csv","legacy","Lentiform Loewenfeld","3.3.12","0","s","NA","h","h","NA","s","462","NA","15871","82165","NA","462","2","legacy","1024","2","48000","-16","experiment","HHSHH","4","even","287603","18162","233715","NA","285399","2285","279957","NA","288668","2290","151549","NA","288771","289234","288666","288770","Flanker Task","100","52055","111","yes","1024"
"90.1785714286","90.1785714286","468.258928571","468.258928571","black","legacy","legacy","legacy","0","congruent","uniform","1","undefined","1","s","111","0","0","0","111","0","111","0","111","0","0","0","111","111","111","111","09/25/22 19:10:11","600","The main experiment item","yes","FlankerTask.osexp","C:\Users\casme\OneDrive\Desktop\Fall 2022","no","mono","no","18","no","white","no","yes","768","legacy","31","79","C:/Users/casme/OneDrive/Desktop/Fall 2022/IC-subject-4.csv","legacy","Lentiform Loewenfeld","3.3.12","0","s","NA","h","h","NA","s","390","NA","15871","82165","NA","390","2","legacy","1024","2","48000","-16","experiment","SSSSS","4","even","289240","18162","233715","NA","285399","2285","279957","NA","290301","2290","151549","NA","290404","290795","290299","290403","Flanker Task","101","52445","112","yes","1024"
"90.2654867257","90.2654867257","467.991150442","467.991150442","black","legacy","legacy","legacy","0","congruent","uniform","1","undefined","1","h","112","0","0","0","112","0","112","0","112","0","0","0","112","112","112","112","09/25/22 19:10:11","600","The main experiment item","yes","FlankerTask.osexp","C:\Users\casme\OneDrive\Desktop\Fall 2022","no","mono","no","18","no","white","no","yes","768","legacy","32","79","C:/Users/casme/OneDrive/Desktop/Fall 2022/IC-subject-4.csv","legacy","Lentiform Loewenfeld","3.3.12","0","h","NA","h","h","NA","h","438","NA","15871","82165","NA","438","2","legacy","1024","2","48000","-16","experiment","HHHHH","4","even","290800","18162","233715","NA","285399","2285","279957","NA","291853","2290","151549","NA","291956","292395","291851","291956","Flanker Task","102","52883","113","yes","1024"
"90.350877193","90.350877193","467.850877193","467.850877193","black","legacy","legacy","legacy","0","incongruent","uniform","1","undefined","1","s","113","0","0","0","113","0","113","0","113","0","0","0","113","113","113","113","09/25/22 19:10:11","600","The main experiment item","yes","FlankerTask.osexp","C:\Users\casme\OneDrive\Desktop\Fall 2022","no","mono","no","18","no","white","no","yes","768","legacy","33","79","C:/Users/casme/OneDrive/Desktop/Fall 2022/IC-subject-4.csv","legacy","Lentiform Loewenfeld","3.3.12","0","s","NA","h","h","NA","s","452","NA","15871","82165","NA","452","2","legacy","1024","2","48000","-16","experiment","HHSHH","4","even","292403","18162","233715","NA","285399","2285","279957","NA","293464","2290","151549","NA","293565","294018","293462","293565","Flanker Task","103","53335","114","yes","1024"
"90.4347826087","90.4347826087","467.765217391","467.765217391","black","legacy","legacy","legacy","0","congruent","uniform","1","undefined","1","h","114","0","0","0","114","0","114","0","114","0","0","0","114","114","114","114","09/25/22 19:10:11","600","The main experiment item","yes","FlankerTask.osexp","C:\Users\casme\OneDrive\Desktop\Fall 2022","no","mono","no","18","no","white","no","yes","768","legacy","34","79","C:/Users/casme/OneDrive/Desktop/Fall 2022/IC-subject-4.csv","legacy","Lentiform Loewenfeld","3.3.12","0","h","NA","h","h","NA","h","458","NA","15871","82165","NA","458","2","legacy","1024","2","48000","-16","experiment","HHHHH","4","even","294024","18162","233715","NA","285399","2285","279957","NA","295086","2290","151549","NA","295187","295647","295084","295187","Flanker Task","104","53793","115","yes","1024"
"90.5172413793","90.5172413793","467.431034483","467.431034483","black","legacy","legacy","legacy","0","congruent","uniform","1","undefined","1","s","115","0","0","0","115","0","115","0","115","0","0","0","115","115","115","115","09/25/22 19:10:11","600","The main experiment item","yes","FlankerTask.osexp","C:\Users\casme\OneDrive\Desktop\Fall 2022","no","mono","no","18","no","white","no","yes","768","legacy","35","79","C:/Users/casme/OneDrive/Desktop/Fall 2022/IC-subject-4.csv","legacy","Lentiform Loewenfeld","3.3.12","0","s","NA","h","h","NA","s","429","NA","15871","82165","NA","429","2","legacy","1024","2","48000","-16","experiment","SSSSS","4","even","295653","18162","233715","NA","285399","2285","279957","NA","296705","2290","151549","NA","296809","297239","296703","296809","Flanker Task","105","54222","116","yes","1024"
"90.5982905983","90.5982905983","466.829059829","466.829059829","black","legacy","legacy","legacy","0","congruent","uniform","1","undefined","1","s","116","0","0","0","116","0","116","0","116","0","0","0","116","116","116","116","09/25/22 19:10:11","600","The main experiment item","yes","FlankerTask.osexp","C:\Users\casme\OneDrive\Desktop\Fall 2022","no","mono","no","18","no","white","no","yes","768","legacy","36","79","C:/Users/casme/OneDrive/Desktop/Fall 2022/IC-subject-4.csv","legacy","Lentiform Loewenfeld","3.3.12","0","s","NA","h","h","NA","s","397","NA","15871","82165","NA","397","2","legacy","1024","2","48000","-16","experiment","SSSSS","4","even","297246","18162","233715","NA","285399","2285","279957","NA","298314","2290","151549","NA","298415","298814","298312","298415","Flanker Task","106","54619","117","yes","1024"
"90.6779661017","90.6779661017","465.762711864","465.762711864","black","legacy","legacy","legacy","0","congruent","uniform","1","undefined","1","s","117","0","0","0","117","0","117","0","117","0","0","0","117","117","117","117","09/25/22 19:10:11","600","The main experiment item","yes","FlankerTask.osexp","C:\Users\casme\OneDrive\Desktop\Fall 2022","no","mono","no","18","no","white","no","yes","768","legacy","37","79","C:/Users/casme/OneDrive/Desktop/Fall 2022/IC-subject-4.csv","legacy","Lentiform Loewenfeld","3.3.12","0","s","NA","h","h","NA","s","341","NA","15871","82165","NA","341","2","legacy","1024","2","48000","-16","experiment","SSSSS","4","even","298820","18162","233715","NA","285399","2285","279957","NA","299884","2290","151549","NA","299989","300332","299882","299988","Flanker Task","107","54960","118","yes","1024"
"90.756302521","90.756302521","464.56302521","464.56302521","black","legacy","legacy","legacy","0","congruent","uniform","1","undefined","1","s","118","0","0","0","118","0","118","0","118","0","0","0","118","118","118","118","09/25/22 19:10:11","600","The main experiment item","yes","FlankerTask.osexp","C:\Users\casme\OneDrive\Desktop\Fall 2022","no","mono","no","18","no","white","no","yes","768","legacy","38","79","C:/Users/casme/OneDrive/Desktop/Fall 2022/IC-subject-4.csv","legacy","Lentiform Loewenfeld","3.3.12","0","s","NA","h","h","NA","s","323","NA","15871","82165","NA","323","2","legacy","1024","2","48000","-16","experiment","SSSSS","4","even","300338","18162","233715","NA","285399","2285","279957","NA","301395","2290","151549","NA","301497","301821","301393","301496","Flanker Task","108","55283","119","yes","1024"
"90.8333333333","90.8333333333","463.55","463.55","black","legacy","legacy","legacy","0","congruent","uniform","1","undefined","1","s","119","0","0","0","119","0","119","0","119","0","0","0","119","119","119","119","09/25/22 19:10:11","600","The main experiment item","yes","FlankerTask.osexp","C:\Users\casme\OneDrive\Desktop\Fall 2022","no","mono","no","18","no","white","no","yes","768","legacy","39","79","C:/Users/casme/OneDrive/Desktop/Fall 2022/IC-subject-4.csv","legacy","Lentiform Loewenfeld","3.3.12","0","s","NA","h","h","NA","s","343","NA","15871","82165","NA","343","2","legacy","1024","2","48000","-16","experiment","SSSSS","4","even","301826","18162","233715","NA","285399","2285","279957","NA","302893","2290","151549","NA","302996","303340","302891","302996","Flanker Task","109","55626","120","yes","1024"
