acc,accuracy,average_response_time,avg_rt,background,canvas_backend,clock_backend,color_backend,compensation,condition,coordinates,correct,correct_InstructionsOne,correct_Keyboard_Response,correct_response,count_BlockOne,count_BlockThree,count_BlockTwo,count_Error_Feedback,count_Faster,count_Finish,count_Fixation,count_ISI,count_InstructionsOne,count_InstructionsThree,count_InstructionsTwo,count_Keyboard_Response,count_Logger,count_Sequence,count_Stimulus,count_experiment,datetime,deadline,description,disable_garbage_collection,experiment_file,experiment_path,font_bold,font_family,font_italic,font_size,font_underline,foreground,form_clicks,fullscreen,height,keyboard_backend,live_row,live_row_BlockOne,logfile,mouse_backend,opensesame_codename,opensesame_version,repeat_cycle,response,response_Finish,response_InstructionsOne,response_InstructionsThree,response_InstructionsTwo,response_Keyboard_Response,response_time,response_time_Finish,response_time_InstructionsOne,response_time_InstructionsThree,response_time_InstructionsTwo,response_time_Keyboard_Response,round_decimals,sampler_backend,sound_buf_size,sound_channels,sound_freq,sound_sample_size,start,stimulus,subject_nr,subject_parity,time_BlockOne,time_BlockThree,time_BlockTwo,time_Error_Feedback,time_Faster,time_Finish,time_Fixation,time_ISI,time_InstructionsOne,time_InstructionsThree,time_InstructionsTwo,time_Keyboard_Response,time_Logger,time_Sequence,time_Stimulus,time_experiment,title,total_correct,total_response_time,total_responses,uniform_coordinates,width
100,100,632,632,black,legacy,legacy,legacy,0,Incongruent,uniform,1,undefined,1,h,0,0,0,0,0,0,0,0,0,0,0,0,0,0,0,0,Fri Sep 16 11:45:03 2022,1500,The main experiment item,yes,FlankerTask.osexp,C:/Users/SW_AHarper/Documents,no,mono,no,18,no,white,no,yes,768,legacy,0,0,C:/Users/SW_AHarper/Documents/AH-subject-1.csv,legacy,Lentiform Loewenfeld,3.3.12,0,h,NA,s,NA,NA,h,632,NA,2158,NA,NA,632,2,legacy,1024,2,48000,-16,experiment,SSHSS,1,odd,4687,NA,NA,NA,NA,NA,4758,NA,2528,NA,NA,4861,5494,4755,4861,2524,Flanker Task,1,632,1,yes,1024
100,100,829.5,829.5,black,legacy,legacy,legacy,0,Incongruent,uniform,1,undefined,1,h,0,0,0,1,1,0,1,1,0,0,0,1,1,1,1,0,Fri Sep 16 11:45:03 2022,1500,The main experiment item,yes,FlankerTask.osexp,C:/Users/SW_AHarper/Documents,no,mono,no,18,no,white,no,yes,768,legacy,1,1,C:/Users/SW_AHarper/Documents/AH-subject-1.csv,legacy,Lentiform Loewenfeld,3.3.12,0,h,NA,s,NA,NA,h,1027,NA,2158,NA,NA,1027,2,legacy,1024,2,48000,-16,experiment,SSHSS,1,odd,4687,NA,NA,NA,NA,NA,6588,5515,2528,NA,NA,6691,7718,6585,6691,2524,Flanker Task,2,1659,2,yes,1024
100,100,704.6666667,704.6666667,black,legacy,legacy,legacy,0,Congruent,uniform,1,undefined,1,s,0,0,0,2,2,0,2,2,0,0,0,2,2,2,2,0,Fri Sep 16 11:45:03 2022,1500,The main experiment item,yes,FlankerTask.osexp,C:/Users/SW_AHarper/Documents,no,mono,no,18,no,white,no,yes,768,legacy,2,2,C:/Users/SW_AHarper/Documents/AH-subject-1.csv,legacy,Lentiform Loewenfeld,3.3.12,0,s,NA,s,NA,NA,s,455,NA,2158,NA,NA,455,2,legacy,1024,2,48000,-16,experiment,SSSSS,1,odd,4687,NA,NA,NA,NA,NA,8800,7725,2528,NA,NA,8903,9358,8796,8903,2524,Flanker Task,3,2114,3,yes,1024
100,100,649.75,649.75,black,legacy,legacy,legacy,0,Congruent,uniform,1,undefined,1,h,0,0,0,3,3,0,3,3,0,0,0,3,3,3,3,0,Fri Sep 16 11:45:03 2022,1500,The main experiment item,yes,FlankerTask.osexp,C:/Users/SW_AHarper/Documents,no,mono,no,18,no,white,no,yes,768,legacy,3,3,C:/Users/SW_AHarper/Documents/AH-subject-1.csv,legacy,Lentiform Loewenfeld,3.3.12,0,h,NA,s,NA,NA,h,485,NA,2158,NA,NA,485,2,legacy,1024,2,48000,-16,experiment,HHHHH,1,odd,4687,NA,NA,NA,NA,NA,10433,9364,2528,NA,NA,10536,11023,10429,10536,2524,Flanker Task,4,2599,4,yes,1024
100,100,597.6,597.6,black,legacy,legacy,legacy,0,Incongruent,uniform,1,undefined,1,s,0,0,0,4,4,0,4,4,0,0,0,4,4,4,4,0,Fri Sep 16 11:45:03 2022,1500,The main experiment item,yes,FlankerTask.osexp,C:/Users/SW_AHarper/Documents,no,mono,no,18,no,white,no,yes,768,legacy,4,4,C:/Users/SW_AHarper/Documents/AH-subject-1.csv,legacy,Lentiform Loewenfeld,3.3.12,0,s,NA,s,NA,NA,s,389,NA,2158,NA,NA,389,2,legacy,1024,2,48000,-16,experiment,HHSHH,1,odd,4687,NA,NA,NA,NA,NA,12105,11038,2528,NA,NA,12208,12598,12101,12208,2524,Flanker Task,5,2988,5,yes,1024
100,100,567.6666667,567.6666667,black,legacy,legacy,legacy,0,Incongruent,uniform,1,undefined,1,s,0,0,0,5,5,0,5,5,0,0,0,5,5,5,5,0,Fri Sep 16 11:45:03 2022,1500,The main experiment item,yes,FlankerTask.osexp,C:/Users/SW_AHarper/Documents,no,mono,no,18,no,white,no,yes,768,legacy,5,5,C:/Users/SW_AHarper/Documents/AH-subject-1.csv,legacy,Lentiform Loewenfeld,3.3.12,0,s,NA,s,NA,NA,s,418,NA,2158,NA,NA,418,2,legacy,1024,2,48000,-16,experiment,HHSHH,1,odd,4687,NA,NA,NA,NA,NA,13684,12614,2528,NA,NA,13787,14206,13680,13787,2524,Flanker Task,6,3406,6,yes,1024
85.71428571,85.71428571,539.5714286,539.5714286,black,legacy,legacy,legacy,0,Incongruent,uniform,0,undefined,0,h,0,0,0,6,6,0,6,6,0,0,0,6,6,6,6,0,Fri Sep 16 11:45:03 2022,1500,The main experiment item,yes,FlankerTask.osexp,C:/Users/SW_AHarper/Documents,no,mono,no,18,no,white,no,yes,768,legacy,6,6,C:/Users/SW_AHarper/Documents/AH-subject-1.csv,legacy,Lentiform Loewenfeld,3.3.12,0,s,NA,s,NA,NA,s,371,NA,2158,NA,NA,371,2,legacy,1024,2,48000,-16,experiment,SSHSS,1,odd,4687,NA,NA,NA,NA,NA,15292,14223,2528,NA,NA,15395,15766,15288,15395,2524,Flanker Task,6,3777,7,yes,1024
87.5,87.5,528.75,528.75,black,legacy,legacy,legacy,0,Congruent,uniform,1,undefined,1,h,0,0,0,7,7,0,7,7,0,0,0,7,7,7,7,0,Fri Sep 16 11:45:03 2022,1500,The main experiment item,yes,FlankerTask.osexp,C:/Users/SW_AHarper/Documents,no,mono,no,18,no,white,no,yes,768,legacy,7,7,C:/Users/SW_AHarper/Documents/AH-subject-1.csv,legacy,Lentiform Loewenfeld,3.3.12,0,h,NA,s,NA,NA,h,453,NA,2158,NA,NA,453,2,legacy,1024,2,48000,-16,experiment,HHHHH,1,odd,4687,NA,NA,15782,NA,NA,17354,16285,2528,NA,NA,17457,17910,17351,17457,2524,Flanker Task,7,4230,8,yes,1024
88.88888889,88.88888889,517,517,black,legacy,legacy,legacy,0,Congruent,uniform,1,undefined,1,s,0,0,0,8,8,0,8,8,0,0,0,8,8,8,8,0,Fri Sep 16 11:45:03 2022,1500,The main experiment item,yes,FlankerTask.osexp,C:/Users/SW_AHarper/Documents,no,mono,no,18,no,white,no,yes,768,legacy,8,8,C:/Users/SW_AHarper/Documents/AH-subject-1.csv,legacy,Lentiform Loewenfeld,3.3.12,0,s,NA,s,NA,NA,s,423,NA,2158,NA,NA,423,2,legacy,1024,2,48000,-16,experiment,SSSSS,1,odd,4687,NA,NA,15782,NA,NA,19000,17926,2528,NA,NA,19103,19526,18995,19103,2524,Flanker Task,8,4653,9,yes,1024
90,90,502,502,black,legacy,legacy,legacy,0,Congruent,uniform,1,undefined,1,s,0,0,0,9,9,0,9,9,0,0,0,9,9,9,9,0,Fri Sep 16 11:45:03 2022,1500,The main experiment item,yes,FlankerTask.osexp,C:/Users/SW_AHarper/Documents,no,mono,no,18,no,white,no,yes,768,legacy,9,9,C:/Users/SW_AHarper/Documents/AH-subject-1.csv,legacy,Lentiform Loewenfeld,3.3.12,0,s,NA,s,NA,NA,s,367,NA,2158,NA,NA,367,2,legacy,1024,2,48000,-16,experiment,SSSSS,1,odd,4687,NA,NA,15782,NA,NA,20615,19543,2528,NA,NA,20718,21086,20611,20718,2524,Flanker Task,9,5020,10,yes,1024
90.90909091,90.90909091,494,494,black,legacy,legacy,legacy,0,Congruent,uniform,1,undefined,1,h,0,0,0,10,10,0,10,10,0,0,0,10,10,10,10,0,Fri Sep 16 11:45:03 2022,1500,The main experiment item,yes,FlankerTask.osexp,C:/Users/SW_AHarper/Documents,no,mono,no,18,no,white,no,yes,768,legacy,10,10,C:/Users/SW_AHarper/Documents/AH-subject-1.csv,legacy,Lentiform Loewenfeld,3.3.12,0,h,NA,s,NA,NA,h,414,NA,2158,NA,NA,414,2,legacy,1024,2,48000,-16,experiment,HHHHH,1,odd,4687,NA,NA,15782,NA,NA,22169,21102,2528,NA,NA,22272,22686,22166,22272,2524,Flanker Task,10,5434,11,yes,1024
91.66666667,91.66666667,485.1666667,485.1666667,black,legacy,legacy,legacy,0,Incongruent,uniform,1,undefined,1,h,0,0,0,11,11,0,11,11,0,0,0,11,11,11,11,0,Fri Sep 16 11:45:03 2022,1500,The main experiment item,yes,FlankerTask.osexp,C:/Users/SW_AHarper/Documents,no,mono,no,18,no,white,no,yes,768,legacy,11,11,C:/Users/SW_AHarper/Documents/AH-subject-1.csv,legacy,Lentiform Loewenfeld,3.3.12,0,h,NA,s,NA,NA,h,388,NA,2158,NA,NA,388,2,legacy,1024,2,48000,-16,experiment,SSHSS,1,odd,4687,NA,NA,15782,NA,NA,23771,22702,2528,NA,NA,23874,24262,23767,23874,2524,Flanker Task,11,5822,12,yes,1024
92.30769231,92.30769231,479.5384615,479.5384615,black,legacy,legacy,legacy,0,Congruent,uniform,1,undefined,1,s,0,0,0,12,12,0,12,12,0,0,0,12,12,12,12,0,Fri Sep 16 11:45:03 2022,1500,The main experiment item,yes,FlankerTask.osexp,C:/Users/SW_AHarper/Documents,no,mono,no,18,no,white,no,yes,768,legacy,12,12,C:/Users/SW_AHarper/Documents/AH-subject-1.csv,legacy,Lentiform Loewenfeld,3.3.12,0,s,NA,s,NA,NA,s,412,NA,2158,NA,NA,412,2,legacy,1024,2,48000,-16,experiment,SSSSS,1,odd,4687,NA,NA,15782,NA,NA,25338,24269,2528,NA,NA,25441,25854,25333,25441,2524,Flanker Task,12,6234,13,yes,1024
92.85714286,92.85714286,475.3571429,475.3571429,black,legacy,legacy,legacy,0,Congruent,uniform,1,undefined,1,s,0,0,0,13,13,0,13,13,0,0,0,13,13,13,13,0,Fri Sep 16 11:45:03 2022,1500,The main experiment item,yes,FlankerTask.osexp,C:/Users/SW_AHarper/Documents,no,mono,no,18,no,white,no,yes,768,legacy,13,13,C:/Users/SW_AHarper/Documents/AH-subject-1.csv,legacy,Lentiform Loewenfeld,3.3.12,0,s,NA,s,NA,NA,s,421,NA,2158,NA,NA,421,2,legacy,1024,2,48000,-16,experiment,SSSSS,1,odd,4687,NA,NA,15782,NA,NA,26938,25870,2528,NA,NA,27041,27463,26934,27041,2524,Flanker Task,13,6655,14,yes,1024
93.33333333,93.33333333,475.2666667,475.2666667,black,legacy,legacy,legacy,0,Incongruent,uniform,1,undefined,1,h,0,0,0,14,14,0,14,14,0,0,0,14,14,14,14,0,Fri Sep 16 11:45:03 2022,1500,The main experiment item,yes,FlankerTask.osexp,C:/Users/SW_AHarper/Documents,no,mono,no,18,no,white,no,yes,768,legacy,14,14,C:/Users/SW_AHarper/Documents/AH-subject-1.csv,legacy,Lentiform Loewenfeld,3.3.12,0,h,NA,s,NA,NA,h,474,NA,2158,NA,NA,474,2,legacy,1024,2,48000,-16,experiment,SSHSS,1,odd,4687,NA,NA,15782,NA,NA,28548,27478,2528,NA,NA,28651,29126,28545,28651,2524,Flanker Task,14,7129,15,yes,1024
93.75,93.75,476.4375,476.4375,black,legacy,legacy,legacy,0,Incongruent,uniform,1,undefined,1,h,0,0,0,15,15,0,15,15,0,0,0,15,15,15,15,0,Fri Sep 16 11:45:03 2022,1500,The main experiment item,yes,FlankerTask.osexp,C:/Users/SW_AHarper/Documents,no,mono,no,18,no,white,no,yes,768,legacy,15,15,C:/Users/SW_AHarper/Documents/AH-subject-1.csv,legacy,Lentiform Loewenfeld,3.3.12,0,h,NA,s,NA,NA,h,494,NA,2158,NA,NA,494,2,legacy,1024,2,48000,-16,experiment,SSHSS,1,odd,4687,NA,NA,15782,NA,NA,30216,29142,2528,NA,NA,30319,30814,30213,30319,2524,Flanker Task,15,7623,16,yes,1024
94.11764706,94.11764706,469.3529412,469.3529412,black,legacy,legacy,legacy,0,Incongruent,uniform,1,undefined,1,s,0,0,0,16,16,0,16,16,0,0,0,16,16,16,16,0,Fri Sep 16 11:45:03 2022,1500,The main experiment item,yes,FlankerTask.osexp,C:/Users/SW_AHarper/Documents,no,mono,no,18,no,white,no,yes,768,legacy,16,16,C:/Users/SW_AHarper/Documents/AH-subject-1.csv,legacy,Lentiform Loewenfeld,3.3.12,0,s,NA,s,NA,NA,s,356,NA,2158,NA,NA,356,2,legacy,1024,2,48000,-16,experiment,HHSHH,1,odd,4687,NA,NA,15782,NA,NA,31899,30830,2528,NA,NA,32002,32358,31895,32002,2524,Flanker Task,16,7979,17,yes,1024
94.44444444,94.44444444,470.5555556,470.5555556,black,legacy,legacy,legacy,0,Incongruent,uniform,1,undefined,1,s,0,0,0,17,17,0,17,17,0,0,0,17,17,17,17,0,Fri Sep 16 11:45:03 2022,1500,The main experiment item,yes,FlankerTask.osexp,C:/Users/SW_AHarper/Documents,no,mono,no,18,no,white,no,yes,768,legacy,17,17,C:/Users/SW_AHarper/Documents/AH-subject-1.csv,legacy,Lentiform Loewenfeld,3.3.12,0,s,NA,s,NA,NA,s,491,NA,2158,NA,NA,491,2,legacy,1024,2,48000,-16,experiment,HHSHH,1,odd,4687,NA,NA,15782,NA,NA,33443,32374,2528,NA,NA,33546,34039,33440,33546,2524,Flanker Task,17,8470,18,yes,1024
94.73684211,94.73684211,470.3157895,470.3157895,black,legacy,legacy,legacy,0,Incongruent,uniform,1,undefined,1,h,0,0,0,18,18,0,18,18,0,0,0,18,18,18,18,0,Fri Sep 16 11:45:03 2022,1500,The main experiment item,yes,FlankerTask.osexp,C:/Users/SW_AHarper/Documents,no,mono,no,18,no,white,no,yes,768,legacy,18,18,C:/Users/SW_AHarper/Documents/AH-subject-1.csv,legacy,Lentiform Loewenfeld,3.3.12,0,h,NA,s,NA,NA,h,466,NA,2158,NA,NA,466,2,legacy,1024,2,48000,-16,experiment,SSHSS,1,odd,4687,NA,NA,15782,NA,NA,35124,34055,2528,NA,NA,35227,35694,35120,35227,2524,Flanker Task,18,8936,19,yes,1024
95,95,471.05,471.05,black,legacy,legacy,legacy,0,Incongruent,uniform,1,undefined,1,s,0,0,0,19,19,0,19,19,0,0,0,19,19,19,19,0,Fri Sep 16 11:45:03 2022,1500,The main experiment item,yes,FlankerTask.osexp,C:/Users/SW_AHarper/Documents,no,mono,no,18,no,white,no,yes,768,legacy,19,19,C:/Users/SW_AHarper/Documents/AH-subject-1.csv,legacy,Lentiform Loewenfeld,3.3.12,0,s,NA,s,NA,NA,s,485,NA,2158,NA,NA,485,2,legacy,1024,2,48000,-16,experiment,HHSHH,1,odd,4687,NA,NA,15782,NA,NA,36778,35710,2528,NA,NA,36881,37367,36774,36881,2524,Flanker Task,19,9421,20,yes,1024
95.23809524,95.23809524,472.8095238,472.8095238,black,legacy,legacy,legacy,0,Incongruent,uniform,1,undefined,1,h,0,0,0,20,20,0,20,20,0,0,0,20,20,20,20,0,Fri Sep 16 11:45:03 2022,1500,The main experiment item,yes,FlankerTask.osexp,C:/Users/SW_AHarper/Documents,no,mono,no,18,no,white,no,yes,768,legacy,20,20,C:/Users/SW_AHarper/Documents/AH-subject-1.csv,legacy,Lentiform Loewenfeld,3.3.12,0,h,NA,s,NA,NA,h,508,NA,2158,NA,NA,508,2,legacy,1024,2,48000,-16,experiment,SSHSS,1,odd,4687,NA,NA,15782,NA,NA,38451,37383,2528,NA,NA,38554,39062,38448,38553,2524,Flanker Task,20,9929,21,yes,1024
95.45454545,95.45454545,470.3636364,470.3636364,black,legacy,legacy,legacy,0,Congruent,uniform,1,undefined,1,h,0,0,0,21,21,0,21,21,0,0,0,21,21,21,21,0,Fri Sep 16 11:45:03 2022,1500,The main experiment item,yes,FlankerTask.osexp,C:/Users/SW_AHarper/Documents,no,mono,no,18,no,white,no,yes,768,legacy,21,21,C:/Users/SW_AHarper/Documents/AH-subject-1.csv,legacy,Lentiform Loewenfeld,3.3.12,0,h,NA,s,NA,NA,h,419,NA,2158,NA,NA,419,2,legacy,1024,2,48000,-16,experiment,HHHHH,1,odd,4687,NA,NA,15782,NA,NA,40148,39078,2528,NA,NA,40251,40671,40144,40251,2524,Flanker Task,21,10348,22,yes,1024
95.65217391,95.65217391,469.9565217,469.9565217,black,legacy,legacy,legacy,0,Incongruent,uniform,1,undefined,1,s,0,0,0,22,22,0,22,22,0,0,0,22,22,22,22,0,Fri Sep 16 11:45:03 2022,1500,The main experiment item,yes,FlankerTask.osexp,C:/Users/SW_AHarper/Documents,no,mono,no,18,no,white,no,yes,768,legacy,22,22,C:/Users/SW_AHarper/Documents/AH-subject-1.csv,legacy,Lentiform Loewenfeld,3.3.12,0,s,NA,s,NA,NA,s,461,NA,2158,NA,NA,461,2,legacy,1024,2,48000,-16,experiment,HHSHH,1,odd,4687,NA,NA,15782,NA,NA,41745,40677,2528,NA,NA,41848,42310,41741,41848,2524,Flanker Task,22,10809,23,yes,1024
91.66666667,91.66666667,466.7083333,466.7083333,black,legacy,legacy,legacy,0,Incongruent,uniform,0,undefined,0,h,0,0,0,23,23,0,23,23,0,0,0,23,23,23,23,0,Fri Sep 16 11:45:03 2022,1500,The main experiment item,yes,FlankerTask.osexp,C:/Users/SW_AHarper/Documents,no,mono,no,18,no,white,no,yes,768,legacy,23,23,C:/Users/SW_AHarper/Documents/AH-subject-1.csv,legacy,Lentiform Loewenfeld,3.3.12,0,s,NA,s,NA,NA,s,392,NA,2158,NA,NA,392,2,legacy,1024,2,48000,-16,experiment,SSHSS,1,odd,4687,NA,NA,15782,NA,NA,43398,42327,2528,NA,NA,43501,43894,43395,43501,2524,Flanker Task,22,11201,24,yes,1024
92,92,467.8,467.8,black,legacy,legacy,legacy,0,Incongruent,uniform,1,undefined,1,h,0,0,0,24,24,0,24,24,0,0,0,24,24,24,24,0,Fri Sep 16 11:45:03 2022,1500,The main experiment item,yes,FlankerTask.osexp,C:/Users/SW_AHarper/Documents,no,mono,no,18,no,white,no,yes,768,legacy,24,24,C:/Users/SW_AHarper/Documents/AH-subject-1.csv,legacy,Lentiform Loewenfeld,3.3.12,0,h,NA,s,NA,NA,h,494,NA,2158,NA,NA,494,2,legacy,1024,2,48000,-16,experiment,SSHSS,1,odd,4687,NA,NA,43911,NA,NA,45481,44413,2528,NA,NA,45584,46078,45478,45583,2524,Flanker Task,23,11695,25,yes,1024
92.30769231,92.30769231,469.3846154,469.3846154,black,legacy,legacy,legacy,0,Incongruent,uniform,1,undefined,1,h,0,0,0,25,25,0,25,25,0,0,0,25,25,25,25,0,Fri Sep 16 11:45:03 2022,1500,The main experiment item,yes,FlankerTask.osexp,C:/Users/SW_AHarper/Documents,no,mono,no,18,no,white,no,yes,768,legacy,25,25,C:/Users/SW_AHarper/Documents/AH-subject-1.csv,legacy,Lentiform Loewenfeld,3.3.12,0,h,NA,s,NA,NA,h,509,NA,2158,NA,NA,509,2,legacy,1024,2,48000,-16,experiment,SSHSS,1,odd,4687,NA,NA,43911,NA,NA,47154,46085,2528,NA,NA,47257,47766,47150,47257,2524,Flanker Task,24,12204,26,yes,1024
92.59259259,92.59259259,468.7407407,468.7407407,black,legacy,legacy,legacy,0,Congruent,uniform,1,undefined,1,h,0,0,0,26,26,0,26,26,0,0,0,26,26,26,26,0,Fri Sep 16 11:45:03 2022,1500,The main experiment item,yes,FlankerTask.osexp,C:/Users/SW_AHarper/Documents,no,mono,no,18,no,white,no,yes,768,legacy,26,26,C:/Users/SW_AHarper/Documents/AH-subject-1.csv,legacy,Lentiform Loewenfeld,3.3.12,0,h,NA,s,NA,NA,h,452,NA,2158,NA,NA,452,2,legacy,1024,2,48000,-16,experiment,HHHHH,1,odd,4687,NA,NA,43911,NA,NA,48858,47782,2528,NA,NA,48961,49414,48853,48961,2524,Flanker Task,25,12656,27,yes,1024
92.85714286,92.85714286,472.1428571,472.1428571,black,legacy,legacy,legacy,0,Incongruent,uniform,1,undefined,1,s,0,0,0,27,27,0,27,27,0,0,0,27,27,27,27,0,Fri Sep 16 11:45:03 2022,1500,The main experiment item,yes,FlankerTask.osexp,C:/Users/SW_AHarper/Documents,no,mono,no,18,no,white,no,yes,768,legacy,27,27,C:/Users/SW_AHarper/Documents/AH-subject-1.csv,legacy,Lentiform Loewenfeld,3.3.12,0,s,NA,s,NA,NA,s,564,NA,2158,NA,NA,564,2,legacy,1024,2,48000,-16,experiment,HHSHH,1,odd,4687,NA,NA,43911,NA,NA,50499,49430,2528,NA,NA,50602,51166,50496,50602,2524,Flanker Task,26,13220,28,yes,1024
93.10344828,93.10344828,483,483,black,legacy,legacy,legacy,0,Congruent,uniform,1,undefined,1,s,0,0,0,28,28,0,28,28,0,0,0,28,28,28,28,0,Fri Sep 16 11:45:03 2022,1500,The main experiment item,yes,FlankerTask.osexp,C:/Users/SW_AHarper/Documents,no,mono,no,18,no,white,no,yes,768,legacy,28,28,C:/Users/SW_AHarper/Documents/AH-subject-1.csv,legacy,Lentiform Loewenfeld,3.3.12,0,s,NA,s,NA,NA,s,787,NA,2158,NA,NA,787,2,legacy,1024,2,48000,-16,experiment,SSSSS,1,odd,4687,NA,NA,43911,NA,NA,52252,51183,2528,NA,NA,52355,53143,52248,52355,2524,Flanker Task,27,14007,29,yes,1024
93.33333333,93.33333333,483.5,483.5,black,legacy,legacy,legacy,0,Incongruent,uniform,1,undefined,1,h,0,0,0,29,29,0,29,29,0,0,0,29,29,29,29,0,Fri Sep 16 11:45:03 2022,1500,The main experiment item,yes,FlankerTask.osexp,C:/Users/SW_AHarper/Documents,no,mono,no,18,no,white,no,yes,768,legacy,29,29,C:/Users/SW_AHarper/Documents/AH-subject-1.csv,legacy,Lentiform Loewenfeld,3.3.12,0,h,NA,s,NA,NA,h,498,NA,2158,NA,NA,498,2,legacy,1024,2,48000,-16,experiment,SSHSS,1,odd,4687,NA,NA,43911,NA,NA,54228,53158,2528,NA,NA,54331,54830,54225,54331,2524,Flanker Task,28,14505,30,yes,1024
93.5483871,93.5483871,484.516129,484.516129,black,legacy,legacy,legacy,0,Congruent,uniform,1,undefined,1,s,0,0,0,30,30,0,30,30,0,0,0,30,30,30,30,0,Fri Sep 16 11:45:03 2022,1500,The main experiment item,yes,FlankerTask.osexp,C:/Users/SW_AHarper/Documents,no,mono,no,18,no,white,no,yes,768,legacy,30,30,C:/Users/SW_AHarper/Documents/AH-subject-1.csv,legacy,Lentiform Loewenfeld,3.3.12,0,s,NA,s,NA,NA,s,515,NA,2158,NA,NA,515,2,legacy,1024,2,48000,-16,experiment,SSSSS,1,odd,4687,NA,NA,43911,NA,NA,55916,54847,2528,NA,NA,56019,56534,55912,56019,2524,Flanker Task,29,15020,31,yes,1024
93.75,93.75,481.65625,481.65625,black,legacy,legacy,legacy,0,Incongruent,uniform,1,undefined,1,h,0,0,0,31,31,0,31,31,0,0,0,31,31,31,31,0,Fri Sep 16 11:45:03 2022,1500,The main experiment item,yes,FlankerTask.osexp,C:/Users/SW_AHarper/Documents,no,mono,no,18,no,white,no,yes,768,legacy,31,31,C:/Users/SW_AHarper/Documents/AH-subject-1.csv,legacy,Lentiform Loewenfeld,3.3.12,0,h,NA,s,NA,NA,h,393,NA,2158,NA,NA,393,2,legacy,1024,2,48000,-16,experiment,SSHSS,1,odd,4687,NA,NA,43911,NA,NA,57622,56550,2528,NA,NA,57725,58119,57618,57725,2524,Flanker Task,30,15413,32,yes,1024
93.93939394,93.93939394,479.5151515,479.5151515,black,legacy,legacy,legacy,0,Congruent,uniform,1,undefined,1,h,0,0,0,32,32,0,32,32,0,0,0,32,32,32,32,0,Fri Sep 16 11:45:03 2022,1500,The main experiment item,yes,FlankerTask.osexp,C:/Users/SW_AHarper/Documents,no,mono,no,18,no,white,no,yes,768,legacy,32,32,C:/Users/SW_AHarper/Documents/AH-subject-1.csv,legacy,Lentiform Loewenfeld,3.3.12,0,h,NA,s,NA,NA,h,411,NA,2158,NA,NA,411,2,legacy,1024,2,48000,-16,experiment,HHHHH,1,odd,4687,NA,NA,43911,NA,NA,59203,58135,2528,NA,NA,59306,59718,59200,59306,2524,Flanker Task,31,15824,33,yes,1024
94.11764706,94.11764706,477.5588235,477.5588235,black,legacy,legacy,legacy,0,Congruent,uniform,1,undefined,1,h,0,0,0,33,33,0,33,33,0,0,0,33,33,33,33,0,Fri Sep 16 11:45:03 2022,1500,The main experiment item,yes,FlankerTask.osexp,C:/Users/SW_AHarper/Documents,no,mono,no,18,no,white,no,yes,768,legacy,33,33,C:/Users/SW_AHarper/Documents/AH-subject-1.csv,legacy,Lentiform Loewenfeld,3.3.12,0,h,NA,s,NA,NA,h,413,NA,2158,NA,NA,413,2,legacy,1024,2,48000,-16,experiment,HHHHH,1,odd,4687,NA,NA,43911,NA,NA,60794,59725,2528,NA,NA,60897,61311,60790,60897,2524,Flanker Task,32,16237,34,yes,1024
91.42857143,91.42857143,474.3142857,474.3142857,black,legacy,legacy,legacy,0,Incongruent,uniform,0,undefined,0,h,0,0,0,34,34,0,34,34,0,0,0,34,34,34,34,0,Fri Sep 16 11:45:03 2022,1500,The main experiment item,yes,FlankerTask.osexp,C:/Users/SW_AHarper/Documents,no,mono,no,18,no,white,no,yes,768,legacy,34,34,C:/Users/SW_AHarper/Documents/AH-subject-1.csv,legacy,Lentiform Loewenfeld,3.3.12,0,s,NA,s,NA,NA,s,364,NA,2158,NA,NA,364,2,legacy,1024,2,48000,-16,experiment,SSHSS,1,odd,4687,NA,NA,43911,NA,NA,62395,61327,2528,NA,NA,62498,62862,62392,62498,2524,Flanker Task,32,16601,35,yes,1024
91.66666667,91.66666667,475.0277778,475.0277778,black,legacy,legacy,legacy,0,Congruent,uniform,1,undefined,1,h,0,0,0,35,35,0,35,35,0,0,0,35,35,35,35,0,Fri Sep 16 11:45:03 2022,1500,The main experiment item,yes,FlankerTask.osexp,C:/Users/SW_AHarper/Documents,no,mono,no,18,no,white,no,yes,768,legacy,35,35,C:/Users/SW_AHarper/Documents/AH-subject-1.csv,legacy,Lentiform Loewenfeld,3.3.12,0,h,NA,s,NA,NA,h,500,NA,2158,NA,NA,500,2,legacy,1024,2,48000,-16,experiment,HHHHH,1,odd,4687,NA,NA,62879,NA,NA,64451,63382,2528,NA,NA,64554,65055,64447,64554,2524,Flanker Task,33,17101,36,yes,1024
91.89189189,91.89189189,473.7297297,473.7297297,black,legacy,legacy,legacy,0,Incongruent,uniform,1,undefined,1,s,0,0,0,36,36,0,36,36,0,0,0,36,36,36,36,0,Fri Sep 16 11:45:03 2022,1500,The main experiment item,yes,FlankerTask.osexp,C:/Users/SW_AHarper/Documents,no,mono,no,18,no,white,no,yes,768,legacy,36,36,C:/Users/SW_AHarper/Documents/AH-subject-1.csv,legacy,Lentiform Loewenfeld,3.3.12,0,s,NA,s,NA,NA,s,427,NA,2158,NA,NA,427,2,legacy,1024,2,48000,-16,experiment,HHSHH,1,odd,4687,NA,NA,62879,NA,NA,66140,65070,2528,NA,NA,66243,66671,66136,66243,2524,Flanker Task,34,17528,37,yes,1024
92.10526316,92.10526316,473.1842105,473.1842105,black,legacy,legacy,legacy,0,Incongruent,uniform,1,undefined,1,s,0,0,0,37,37,0,37,37,0,0,0,37,37,37,37,0,Fri Sep 16 11:45:03 2022,1500,The main experiment item,yes,FlankerTask.osexp,C:/Users/SW_AHarper/Documents,no,mono,no,18,no,white,no,yes,768,legacy,37,37,C:/Users/SW_AHarper/Documents/AH-subject-1.csv,legacy,Lentiform Loewenfeld,3.3.12,0,s,NA,s,NA,NA,s,453,NA,2158,NA,NA,453,2,legacy,1024,2,48000,-16,experiment,HHSHH,1,odd,4687,NA,NA,62879,NA,NA,67745,66676,2528,NA,NA,67848,68302,67741,67848,2524,Flanker Task,35,17981,38,yes,1024
89.74358974,89.74358974,471.974359,471.974359,black,legacy,legacy,legacy,0,Congruent,uniform,0,undefined,0,s,0,0,0,38,38,0,38,38,0,0,0,38,38,38,38,0,Fri Sep 16 11:45:03 2022,1500,The main experiment item,yes,FlankerTask.osexp,C:/Users/SW_AHarper/Documents,no,mono,no,18,no,white,no,yes,768,legacy,38,38,C:/Users/SW_AHarper/Documents/AH-subject-1.csv,legacy,Lentiform Loewenfeld,3.3.12,0,h,NA,s,NA,NA,h,426,NA,2158,NA,NA,426,2,legacy,1024,2,48000,-16,experiment,SSSSS,1,odd,4687,NA,NA,62879,NA,NA,69389,68319,2528,NA,NA,69492,69918,69385,69492,2524,Flanker Task,35,18407,39,yes,1024
90,90,471.525,471.525,black,legacy,legacy,legacy,0,Congruent,uniform,1,undefined,1,s,0,0,0,39,39,0,39,39,0,0,0,39,39,39,39,0,Fri Sep 16 11:45:03 2022,1500,The main experiment item,yes,FlankerTask.osexp,C:/Users/SW_AHarper/Documents,no,mono,no,18,no,white,no,yes,768,legacy,39,39,C:/Users/SW_AHarper/Documents/AH-subject-1.csv,legacy,Lentiform Loewenfeld,3.3.12,0,s,NA,s,NA,NA,s,454,NA,2158,NA,NA,454,2,legacy,1024,2,48000,-16,experiment,SSSSS,1,odd,4687,NA,NA,69934,NA,NA,71505,70437,2528,NA,NA,71608,72062,71501,71608,2524,Flanker Task,36,18861,40,yes,1024
90.24390244,90.24390244,471.3414634,471.3414634,black,legacy,legacy,legacy,0,Incongruent,uniform,1,undefined,1,h,0,0,0,40,40,0,40,40,0,0,0,40,40,40,40,0,Fri Sep 16 11:45:03 2022,1500,The main experiment item,yes,FlankerTask.osexp,C:/Users/SW_AHarper/Documents,no,mono,no,18,no,white,no,yes,768,legacy,40,40,C:/Users/SW_AHarper/Documents/AH-subject-1.csv,legacy,Lentiform Loewenfeld,3.3.12,0,h,NA,s,NA,NA,h,464,NA,2158,NA,NA,464,2,legacy,1024,2,48000,-16,experiment,SSHSS,1,odd,4687,NA,NA,69934,NA,NA,73143,72069,2528,NA,NA,73246,73710,73139,73246,2524,Flanker Task,37,19325,41,yes,1024
90.47619048,90.47619048,471.8809524,471.8809524,black,legacy,legacy,legacy,0,Incongruent,uniform,1,undefined,1,s,0,0,0,41,41,0,41,41,0,0,0,41,41,41,41,0,Fri Sep 16 11:45:03 2022,1500,The main experiment item,yes,FlankerTask.osexp,C:/Users/SW_AHarper/Documents,no,mono,no,18,no,white,no,yes,768,legacy,41,41,C:/Users/SW_AHarper/Documents/AH-subject-1.csv,legacy,Lentiform Loewenfeld,3.3.12,0,s,NA,s,NA,NA,s,494,NA,2158,NA,NA,494,2,legacy,1024,2,48000,-16,experiment,HHSHH,1,odd,4687,NA,NA,69934,NA,NA,74800,73726,2528,NA,NA,74903,75398,74796,74903,2524,Flanker Task,38,19819,42,yes,1024
90.69767442,90.69767442,472.9069767,472.9069767,black,legacy,legacy,legacy,0,Congruent,uniform,1,undefined,1,s,0,0,0,42,42,0,42,42,0,0,0,42,42,42,42,0,Fri Sep 16 11:45:03 2022,1500,The main experiment item,yes,FlankerTask.osexp,C:/Users/SW_AHarper/Documents,no,mono,no,18,no,white,no,yes,768,legacy,42,42,C:/Users/SW_AHarper/Documents/AH-subject-1.csv,legacy,Lentiform Loewenfeld,3.3.12,0,s,NA,s,NA,NA,s,516,NA,2158,NA,NA,516,2,legacy,1024,2,48000,-16,experiment,SSSSS,1,odd,4687,NA,NA,69934,NA,NA,76482,75414,2528,NA,NA,76585,77102,76478,76585,2524,Flanker Task,39,20335,43,yes,1024
90.90909091,90.90909091,472.2727273,472.2727273,black,legacy,legacy,legacy,0,Congruent,uniform,1,undefined,1,h,0,0,0,43,43,0,43,43,0,0,0,43,43,43,43,0,Fri Sep 16 11:45:03 2022,1500,The main experiment item,yes,FlankerTask.osexp,C:/Users/SW_AHarper/Documents,no,mono,no,18,no,white,no,yes,768,legacy,43,43,C:/Users/SW_AHarper/Documents/AH-subject-1.csv,legacy,Lentiform Loewenfeld,3.3.12,0,h,NA,s,NA,NA,h,445,NA,2158,NA,NA,445,2,legacy,1024,2,48000,-16,experiment,HHHHH,1,odd,4687,NA,NA,69934,NA,NA,78186,77118,2528,NA,NA,78289,78734,78182,78289,2524,Flanker Task,40,20780,44,yes,1024
91.11111111,91.11111111,470.1777778,470.1777778,black,legacy,legacy,legacy,0,Congruent,uniform,1,undefined,1,s,0,0,0,44,44,0,44,44,0,0,0,44,44,44,44,0,Fri Sep 16 11:45:03 2022,1500,The main experiment item,yes,FlankerTask.osexp,C:/Users/SW_AHarper/Documents,no,mono,no,18,no,white,no,yes,768,legacy,44,44,C:/Users/SW_AHarper/Documents/AH-subject-1.csv,legacy,Lentiform Loewenfeld,3.3.12,0,s,NA,s,NA,NA,s,378,NA,2158,NA,NA,378,2,legacy,1024,2,48000,-16,experiment,SSSSS,1,odd,4687,NA,NA,69934,NA,NA,79820,78751,2528,NA,NA,79923,80302,79816,79923,2524,Flanker Task,41,21158,45,yes,1024
91.30434783,91.30434783,469.4565217,469.4565217,black,legacy,legacy,legacy,0,Congruent,uniform,1,undefined,1,h,0,0,0,45,45,0,45,45,0,0,0,45,45,45,45,0,Fri Sep 16 11:45:03 2022,1500,The main experiment item,yes,FlankerTask.osexp,C:/Users/SW_AHarper/Documents,no,mono,no,18,no,white,no,yes,768,legacy,45,45,C:/Users/SW_AHarper/Documents/AH-subject-1.csv,legacy,Lentiform Loewenfeld,3.3.12,0,h,NA,s,NA,NA,h,437,NA,2158,NA,NA,437,2,legacy,1024,2,48000,-16,experiment,HHHHH,1,odd,4687,NA,NA,69934,NA,NA,81377,80309,2528,NA,NA,81480,81918,81373,81480,2524,Flanker Task,42,21595,46,yes,1024
89.36170213,89.36170213,468.1276596,468.1276596,black,legacy,legacy,legacy,0,Incongruent,uniform,0,undefined,0,h,0,0,0,46,46,0,46,46,0,0,0,46,46,46,46,0,Fri Sep 16 11:45:03 2022,1500,The main experiment item,yes,FlankerTask.osexp,C:/Users/SW_AHarper/Documents,no,mono,no,18,no,white,no,yes,768,legacy,46,46,C:/Users/SW_AHarper/Documents/AH-subject-1.csv,legacy,Lentiform Loewenfeld,3.3.12,0,s,NA,s,NA,NA,s,407,NA,2158,NA,NA,407,2,legacy,1024,2,48000,-16,experiment,SSHSS,1,odd,4687,NA,NA,69934,NA,NA,82991,81924,2528,NA,NA,83094,83502,82988,83094,2524,Flanker Task,42,22002,47,yes,1024
89.58333333,89.58333333,469.25,469.25,black,legacy,legacy,legacy,0,Incongruent,uniform,1,undefined,1,h,0,0,0,47,47,0,47,47,0,0,0,47,47,47,47,0,Fri Sep 16 11:45:03 2022,1500,The main experiment item,yes,FlankerTask.osexp,C:/Users/SW_AHarper/Documents,no,mono,no,18,no,white,no,yes,768,legacy,47,47,C:/Users/SW_AHarper/Documents/AH-subject-1.csv,legacy,Lentiform Loewenfeld,3.3.12,0,h,NA,s,NA,NA,h,522,NA,2158,NA,NA,522,2,legacy,1024,2,48000,-16,experiment,SSHSS,1,odd,4687,NA,NA,83518,NA,NA,85091,84022,2528,NA,NA,85195,85718,85088,85194,2524,Flanker Task,43,22524,48,yes,1024
89.79591837,89.79591837,467.6734694,467.6734694,black,legacy,legacy,legacy,0,Incongruent,uniform,1,undefined,1,s,0,0,0,48,48,0,48,48,0,0,0,48,48,48,48,0,Fri Sep 16 11:45:03 2022,1500,The main experiment item,yes,FlankerTask.osexp,C:/Users/SW_AHarper/Documents,no,mono,no,18,no,white,no,yes,768,legacy,48,48,C:/Users/SW_AHarper/Documents/AH-subject-1.csv,legacy,Lentiform Loewenfeld,3.3.12,0,s,NA,s,NA,NA,s,392,NA,2158,NA,NA,392,2,legacy,1024,2,48000,-16,experiment,HHSHH,1,odd,4687,NA,NA,83518,NA,NA,86798,85729,2528,NA,NA,86901,87294,86794,86901,2524,Flanker Task,44,22916,49,yes,1024
90,90,470.52,470.52,black,legacy,legacy,legacy,0,Congruent,uniform,1,undefined,1,s,0,0,0,49,49,0,49,49,0,0,0,49,49,49,49,0,Fri Sep 16 11:45:03 2022,1500,The main experiment item,yes,FlankerTask.osexp,C:/Users/SW_AHarper/Documents,no,mono,no,18,no,white,no,yes,768,legacy,49,49,C:/Users/SW_AHarper/Documents/AH-subject-1.csv,legacy,Lentiform Loewenfeld,3.3.12,0,s,NA,s,NA,NA,s,610,NA,2158,NA,NA,610,2,legacy,1024,2,48000,-16,experiment,SSSSS,1,odd,4687,NA,NA,83518,NA,NA,88380,87311,2528,NA,NA,88483,89094,88375,88483,2524,Flanker Task,45,23526,50,yes,1024
90.19607843,90.19607843,470.1764706,470.1764706,black,legacy,legacy,legacy,0,Congruent,uniform,1,undefined,1,h,0,0,0,50,50,0,50,50,0,0,0,50,50,50,50,0,Fri Sep 16 11:45:03 2022,1500,The main experiment item,yes,FlankerTask.osexp,C:/Users/SW_AHarper/Documents,no,mono,no,18,no,white,no,yes,768,legacy,50,50,C:/Users/SW_AHarper/Documents/AH-subject-1.csv,legacy,Lentiform Loewenfeld,3.3.12,0,h,NA,s,NA,NA,h,453,NA,2158,NA,NA,453,2,legacy,1024,2,48000,-16,experiment,HHHHH,1,odd,4687,NA,NA,83518,NA,NA,90178,89110,2528,NA,NA,90281,90735,90174,90281,2524,Flanker Task,46,23979,51,yes,1024
90.38461538,90.38461538,469.7692308,469.7692308,black,legacy,legacy,legacy,0,Congruent,uniform,1,undefined,1,h,0,0,0,51,51,0,51,51,0,0,0,51,51,51,51,0,Fri Sep 16 11:45:03 2022,1500,The main experiment item,yes,FlankerTask.osexp,C:/Users/SW_AHarper/Documents,no,mono,no,18,no,white,no,yes,768,legacy,51,51,C:/Users/SW_AHarper/Documents/AH-subject-1.csv,legacy,Lentiform Loewenfeld,3.3.12,0,h,NA,s,NA,NA,h,449,NA,2158,NA,NA,449,2,legacy,1024,2,48000,-16,experiment,HHHHH,1,odd,4687,NA,NA,83518,NA,NA,91822,90751,2528,NA,NA,91925,92374,91818,91925,2524,Flanker Task,47,24428,52,yes,1024
90.56603774,90.56603774,468.1886792,468.1886792,black,legacy,legacy,legacy,0,Congruent,uniform,1,undefined,1,s,0,0,0,52,52,0,52,52,0,0,0,52,52,52,52,0,Fri Sep 16 11:45:03 2022,1500,The main experiment item,yes,FlankerTask.osexp,C:/Users/SW_AHarper/Documents,no,mono,no,18,no,white,no,yes,768,legacy,52,52,C:/Users/SW_AHarper/Documents/AH-subject-1.csv,legacy,Lentiform Loewenfeld,3.3.12,0,s,NA,s,NA,NA,s,386,NA,2158,NA,NA,386,2,legacy,1024,2,48000,-16,experiment,SSSSS,1,odd,4687,NA,NA,83518,NA,NA,93460,92391,2528,NA,NA,93563,93950,93456,93563,2524,Flanker Task,48,24814,53,yes,1024
90.74074074,90.74074074,467.5,467.5,black,legacy,legacy,legacy,0,Congruent,uniform,1,undefined,1,h,0,0,0,53,53,0,53,53,0,0,0,53,53,53,53,0,Fri Sep 16 11:45:03 2022,1500,The main experiment item,yes,FlankerTask.osexp,C:/Users/SW_AHarper/Documents,no,mono,no,18,no,white,no,yes,768,legacy,53,53,C:/Users/SW_AHarper/Documents/AH-subject-1.csv,legacy,Lentiform Loewenfeld,3.3.12,0,h,NA,s,NA,NA,h,431,NA,2158,NA,NA,431,2,legacy,1024,2,48000,-16,experiment,HHHHH,1,odd,4687,NA,NA,83518,NA,NA,95023,93956,2528,NA,NA,95126,95558,95019,95126,2524,Flanker Task,49,25245,54,yes,1024
90.90909091,90.90909091,465.5818182,465.5818182,black,legacy,legacy,legacy,0,Congruent,uniform,1,undefined,1,s,0,0,0,54,54,0,54,54,0,0,0,54,54,54,54,0,Fri Sep 16 11:45:03 2022,1500,The main experiment item,yes,FlankerTask.osexp,C:/Users/SW_AHarper/Documents,no,mono,no,18,no,white,no,yes,768,legacy,54,54,C:/Users/SW_AHarper/Documents/AH-subject-1.csv,legacy,Lentiform Loewenfeld,3.3.12,0,s,NA,s,NA,NA,s,362,NA,2158,NA,NA,362,2,legacy,1024,2,48000,-16,experiment,SSSSS,1,odd,4687,NA,NA,83518,NA,NA,96645,95573,2528,NA,NA,96748,97111,96641,96748,2524,Flanker Task,50,25607,55,yes,1024
91.07142857,91.07142857,464.0535714,464.0535714,black,legacy,legacy,legacy,0,Congruent,uniform,1,undefined,1,h,0,0,0,55,55,0,55,55,0,0,0,55,55,55,55,0,Fri Sep 16 11:45:03 2022,1500,The main experiment item,yes,FlankerTask.osexp,C:/Users/SW_AHarper/Documents,no,mono,no,18,no,white,no,yes,768,legacy,55,55,C:/Users/SW_AHarper/Documents/AH-subject-1.csv,legacy,Lentiform Loewenfeld,3.3.12,0,h,NA,s,NA,NA,h,380,NA,2158,NA,NA,380,2,legacy,1024,2,48000,-16,experiment,HHHHH,1,odd,4687,NA,NA,83518,NA,NA,98195,97127,2528,NA,NA,98298,98678,98192,98298,2524,Flanker Task,51,25987,56,yes,1024
91.22807018,91.22807018,462.4385965,462.4385965,black,legacy,legacy,legacy,0,Congruent,uniform,1,undefined,1,s,0,0,0,56,56,0,56,56,0,0,0,56,56,56,56,0,Fri Sep 16 11:45:03 2022,1500,The main experiment item,yes,FlankerTask.osexp,C:/Users/SW_AHarper/Documents,no,mono,no,18,no,white,no,yes,768,legacy,56,56,C:/Users/SW_AHarper/Documents/AH-subject-1.csv,legacy,Lentiform Loewenfeld,3.3.12,0,s,NA,s,NA,NA,s,372,NA,2158,NA,NA,372,2,legacy,1024,2,48000,-16,experiment,SSSSS,1,odd,4687,NA,NA,83518,NA,NA,99763,98695,2528,NA,NA,99866,100239,99759,99866,2524,Flanker Task,52,26359,57,yes,1024
91.37931034,91.37931034,460.5689655,460.5689655,black,legacy,legacy,legacy,0,Congruent,uniform,1,undefined,1,s,0,0,0,57,57,0,57,57,0,0,0,57,57,57,57,0,Fri Sep 16 11:45:03 2022,1500,The main experiment item,yes,FlankerTask.osexp,C:/Users/SW_AHarper/Documents,no,mono,no,18,no,white,no,yes,768,legacy,57,57,C:/Users/SW_AHarper/Documents/AH-subject-1.csv,legacy,Lentiform Loewenfeld,3.3.12,0,s,NA,s,NA,NA,s,354,NA,2158,NA,NA,354,2,legacy,1024,2,48000,-16,experiment,SSSSS,1,odd,4687,NA,NA,83518,NA,NA,101324,100254,2528,NA,NA,101427,101782,101320,101427,2524,Flanker Task,53,26713,58,yes,1024
91.52542373,91.52542373,460.3898305,460.3898305,black,legacy,legacy,legacy,0,Incongruent,uniform,1,undefined,1,s,0,0,0,58,58,0,58,58,0,0,0,58,58,58,58,0,Fri Sep 16 11:45:03 2022,1500,The main experiment item,yes,FlankerTask.osexp,C:/Users/SW_AHarper/Documents,no,mono,no,18,no,white,no,yes,768,legacy,58,58,C:/Users/SW_AHarper/Documents/AH-subject-1.csv,legacy,Lentiform Loewenfeld,3.3.12,0,s,NA,s,NA,NA,s,450,NA,2158,NA,NA,450,2,legacy,1024,2,48000,-16,experiment,HHSHH,1,odd,4687,NA,NA,83518,NA,NA,102860,101788,2528,NA,NA,102963,103414,102856,102963,2524,Flanker Task,54,27163,59,yes,1024
91.66666667,91.66666667,460.8333333,460.8333333,black,legacy,legacy,legacy,0,Incongruent,uniform,1,undefined,1,s,0,0,0,59,59,0,59,59,0,0,0,59,59,59,59,0,Fri Sep 16 11:45:03 2022,1500,The main experiment item,yes,FlankerTask.osexp,C:/Users/SW_AHarper/Documents,no,mono,no,18,no,white,no,yes,768,legacy,59,59,C:/Users/SW_AHarper/Documents/AH-subject-1.csv,legacy,Lentiform Loewenfeld,3.3.12,0,s,NA,s,NA,NA,s,487,NA,2158,NA,NA,487,2,legacy,1024,2,48000,-16,experiment,HHSHH,1,odd,4687,NA,NA,83518,NA,NA,104488,103420,2528,NA,NA,104591,105079,104484,104591,2524,Flanker Task,55,27650,60,yes,1024
91.80327869,91.80327869,460.5245902,460.5245902,black,legacy,legacy,legacy,0,Incongruent,uniform,1,undefined,1,s,0,0,0,60,60,0,60,60,0,0,0,60,60,60,60,0,Fri Sep 16 11:45:03 2022,1500,The main experiment item,yes,FlankerTask.osexp,C:/Users/SW_AHarper/Documents,no,mono,no,18,no,white,no,yes,768,legacy,60,60,C:/Users/SW_AHarper/Documents/AH-subject-1.csv,legacy,Lentiform Loewenfeld,3.3.12,0,s,NA,s,NA,NA,s,442,NA,2158,NA,NA,442,2,legacy,1024,2,48000,-16,experiment,HHSHH,1,odd,4687,NA,NA,83518,NA,NA,106164,105095,2528,NA,NA,106267,106710,106159,106267,2524,Flanker Task,56,28092,61,yes,1024
91.93548387,91.93548387,462.1774194,462.1774194,black,legacy,legacy,legacy,0,Congruent,uniform,1,undefined,1,h,0,0,0,61,61,0,61,61,0,0,0,61,61,61,61,0,Fri Sep 16 11:45:03 2022,1500,The main experiment item,yes,FlankerTask.osexp,C:/Users/SW_AHarper/Documents,no,mono,no,18,no,white,no,yes,768,legacy,61,61,C:/Users/SW_AHarper/Documents/AH-subject-1.csv,legacy,Lentiform Loewenfeld,3.3.12,0,h,NA,s,NA,NA,h,563,NA,2158,NA,NA,563,2,legacy,1024,2,48000,-16,experiment,HHHHH,1,odd,4687,NA,NA,83518,NA,NA,107788,106717,2528,NA,NA,107891,108454,107784,107891,2524,Flanker Task,57,28655,62,yes,1024
92.06349206,92.06349206,464.5555556,464.5555556,black,legacy,legacy,legacy,0,Incongruent,uniform,1,undefined,1,h,0,0,0,62,62,0,62,62,0,0,0,62,62,62,62,0,Fri Sep 16 11:45:03 2022,1500,The main experiment item,yes,FlankerTask.osexp,C:/Users/SW_AHarper/Documents,no,mono,no,18,no,white,no,yes,768,legacy,62,62,C:/Users/SW_AHarper/Documents/AH-subject-1.csv,legacy,Lentiform Loewenfeld,3.3.12,0,h,NA,s,NA,NA,h,612,NA,2158,NA,NA,612,2,legacy,1024,2,48000,-16,experiment,SSHSS,1,odd,4687,NA,NA,83518,NA,NA,109538,108470,2528,NA,NA,109641,110255,109534,109641,2524,Flanker Task,58,29267,63,yes,1024
92.1875,92.1875,462.546875,462.546875,black,legacy,legacy,legacy,0,Congruent,uniform,1,undefined,1,s,0,0,0,63,63,0,63,63,0,0,0,63,63,63,63,0,Fri Sep 16 11:45:03 2022,1500,The main experiment item,yes,FlankerTask.osexp,C:/Users/SW_AHarper/Documents,no,mono,no,18,no,white,no,yes,768,legacy,63,63,C:/Users/SW_AHarper/Documents/AH-subject-1.csv,legacy,Lentiform Loewenfeld,3.3.12,0,s,NA,s,NA,NA,s,336,NA,2158,NA,NA,336,2,legacy,1024,2,48000,-16,experiment,SSSSS,1,odd,4687,NA,NA,83518,NA,NA,111327,110261,2528,NA,NA,111430,111767,111324,111430,2524,Flanker Task,59,29603,64,yes,1024
92.30769231,92.30769231,461.7692308,461.7692308,black,legacy,legacy,legacy,0,Congruent,uniform,1,undefined,1,h,0,0,0,64,64,0,64,64,0,0,0,64,64,64,64,0,Fri Sep 16 11:45:03 2022,1500,The main experiment item,yes,FlankerTask.osexp,C:/Users/SW_AHarper/Documents,no,mono,no,18,no,white,no,yes,768,legacy,64,64,C:/Users/SW_AHarper/Documents/AH-subject-1.csv,legacy,Lentiform Loewenfeld,3.3.12,0,h,NA,s,NA,NA,h,412,NA,2158,NA,NA,412,2,legacy,1024,2,48000,-16,experiment,HHHHH,1,odd,4687,NA,NA,83518,NA,NA,112843,111773,2528,NA,NA,112946,113359,112839,112946,2524,Flanker Task,60,30015,65,yes,1024
92.42424242,92.42424242,463.7878788,463.7878788,black,legacy,legacy,legacy,0,Incongruent,uniform,1,undefined,1,h,0,0,0,65,65,0,65,65,0,0,0,65,65,65,65,0,Fri Sep 16 11:45:03 2022,1500,The main experiment item,yes,FlankerTask.osexp,C:/Users/SW_AHarper/Documents,no,mono,no,18,no,white,no,yes,768,legacy,65,65,C:/Users/SW_AHarper/Documents/AH-subject-1.csv,legacy,Lentiform Loewenfeld,3.3.12,0,h,NA,s,NA,NA,h,595,NA,2158,NA,NA,595,2,legacy,1024,2,48000,-16,experiment,SSHSS,1,odd,4687,NA,NA,83518,NA,NA,114451,113375,2528,NA,NA,114554,115150,114448,114554,2524,Flanker Task,61,30610,66,yes,1024
92.53731343,92.53731343,462.761194,462.761194,black,legacy,legacy,legacy,0,Congruent,uniform,1,undefined,1,s,0,0,0,66,66,0,66,66,0,0,0,66,66,66,66,0,Fri Sep 16 11:45:03 2022,1500,The main experiment item,yes,FlankerTask.osexp,C:/Users/SW_AHarper/Documents,no,mono,no,18,no,white,no,yes,768,legacy,66,66,C:/Users/SW_AHarper/Documents/AH-subject-1.csv,legacy,Lentiform Loewenfeld,3.3.12,0,s,NA,s,NA,NA,s,395,NA,2158,NA,NA,395,2,legacy,1024,2,48000,-16,experiment,SSSSS,1,odd,4687,NA,NA,83518,NA,NA,116235,115167,2528,NA,NA,116338,116734,116232,116338,2524,Flanker Task,62,31005,67,yes,1024
92.64705882,92.64705882,463.1470588,463.1470588,black,legacy,legacy,legacy,0,Incongruent,uniform,1,undefined,1,s,0,0,0,67,67,0,67,67,0,0,0,67,67,67,67,0,Fri Sep 16 11:45:03 2022,1500,The main experiment item,yes,FlankerTask.osexp,C:/Users/SW_AHarper/Documents,no,mono,no,18,no,white,no,yes,768,legacy,67,67,C:/Users/SW_AHarper/Documents/AH-subject-1.csv,legacy,Lentiform Loewenfeld,3.3.12,0,s,NA,s,NA,NA,s,489,NA,2158,NA,NA,489,2,legacy,1024,2,48000,-16,experiment,HHSHH,1,odd,4687,NA,NA,83518,NA,NA,117812,116741,2528,NA,NA,117916,118406,117809,117916,2524,Flanker Task,63,31494,68,yes,1024
92.75362319,92.75362319,462.2028986,462.2028986,black,legacy,legacy,legacy,0,Congruent,uniform,1,undefined,1,s,0,0,0,68,68,0,68,68,0,0,0,68,68,68,68,0,Fri Sep 16 11:45:03 2022,1500,The main experiment item,yes,FlankerTask.osexp,C:/Users/SW_AHarper/Documents,no,mono,no,18,no,white,no,yes,768,legacy,68,68,C:/Users/SW_AHarper/Documents/AH-subject-1.csv,legacy,Lentiform Loewenfeld,3.3.12,0,s,NA,s,NA,NA,s,398,NA,2158,NA,NA,398,2,legacy,1024,2,48000,-16,experiment,SSSSS,1,odd,4687,NA,NA,83518,NA,NA,119480,118412,2528,NA,NA,119583,119982,119476,119583,2524,Flanker Task,64,31892,69,yes,1024
91.42857143,91.42857143,460.6857143,460.6857143,black,legacy,legacy,legacy,0,Incongruent,uniform,0,undefined,0,s,0,0,0,69,69,0,69,69,0,0,0,69,69,69,69,0,Fri Sep 16 11:45:03 2022,1500,The main experiment item,yes,FlankerTask.osexp,C:/Users/SW_AHarper/Documents,no,mono,no,18,no,white,no,yes,768,legacy,69,69,C:/Users/SW_AHarper/Documents/AH-subject-1.csv,legacy,Lentiform Loewenfeld,3.3.12,0,h,NA,s,NA,NA,h,356,NA,2158,NA,NA,356,2,legacy,1024,2,48000,-16,experiment,HHSHH,1,odd,4687,NA,NA,83518,NA,NA,121066,119998,2528,NA,NA,121169,121526,121062,121169,2524,Flanker Task,64,32248,70,yes,1024
91.54929577,91.54929577,462.0422535,462.0422535,black,legacy,legacy,legacy,0,Congruent,uniform,1,undefined,1,h,0,0,0,70,70,0,70,70,0,0,0,70,70,70,70,0,Fri Sep 16 11:45:03 2022,1500,The main experiment item,yes,FlankerTask.osexp,C:/Users/SW_AHarper/Documents,no,mono,no,18,no,white,no,yes,768,legacy,70,70,C:/Users/SW_AHarper/Documents/AH-subject-1.csv,legacy,Lentiform Loewenfeld,3.3.12,0,h,NA,s,NA,NA,h,557,NA,2158,NA,NA,557,2,legacy,1024,2,48000,-16,experiment,HHHHH,1,odd,4687,NA,NA,121543,NA,NA,123112,122046,2528,NA,NA,123216,123774,123109,123216,2524,Flanker Task,65,32805,71,yes,1024
91.66666667,91.66666667,461.1527778,461.1527778,black,legacy,legacy,legacy,0,Incongruent,uniform,1,undefined,1,s,0,0,0,71,71,0,71,71,0,0,0,71,71,71,71,0,Fri Sep 16 11:45:03 2022,1500,The main experiment item,yes,FlankerTask.osexp,C:/Users/SW_AHarper/Documents,no,mono,no,18,no,white,no,yes,768,legacy,71,71,C:/Users/SW_AHarper/Documents/AH-subject-1.csv,legacy,Lentiform Loewenfeld,3.3.12,0,s,NA,s,NA,NA,s,398,NA,2158,NA,NA,398,2,legacy,1024,2,48000,-16,experiment,HHSHH,1,odd,4687,NA,NA,121543,NA,NA,124848,123780,2528,NA,NA,124951,125350,124845,124951,2524,Flanker Task,66,33203,72,yes,1024
91.78082192,91.78082192,461.9178082,461.9178082,black,legacy,legacy,legacy,0,Congruent,uniform,1,undefined,1,h,0,0,0,72,72,0,72,72,0,0,0,72,72,72,72,0,Fri Sep 16 11:45:03 2022,1500,The main experiment item,yes,FlankerTask.osexp,C:/Users/SW_AHarper/Documents,no,mono,no,18,no,white,no,yes,768,legacy,72,72,C:/Users/SW_AHarper/Documents/AH-subject-1.csv,legacy,Lentiform Loewenfeld,3.3.12,0,h,NA,s,NA,NA,h,517,NA,2158,NA,NA,517,2,legacy,1024,2,48000,-16,experiment,HHHHH,1,odd,4687,NA,NA,121543,NA,NA,126434,125366,2528,NA,NA,126537,127055,126430,126537,2524,Flanker Task,67,33720,73,yes,1024
91.89189189,91.89189189,461.2432432,461.2432432,black,legacy,legacy,legacy,0,Incongruent,uniform,1,undefined,1,s,0,0,0,73,73,0,73,73,0,0,0,73,73,73,73,0,Fri Sep 16 11:45:03 2022,1500,The main experiment item,yes,FlankerTask.osexp,C:/Users/SW_AHarper/Documents,no,mono,no,18,no,white,no,yes,768,legacy,73,73,C:/Users/SW_AHarper/Documents/AH-subject-1.csv,legacy,Lentiform Loewenfeld,3.3.12,0,s,NA,s,NA,NA,s,412,NA,2158,NA,NA,412,2,legacy,1024,2,48000,-16,experiment,HHSHH,1,odd,4687,NA,NA,121543,NA,NA,128139,127071,2528,NA,NA,128242,128655,128135,128242,2524,Flanker Task,68,34132,74,yes,1024
92,92,461.1866667,461.1866667,black,legacy,legacy,legacy,0,Congruent,uniform,1,undefined,1,h,0,0,0,74,74,0,74,74,0,0,0,74,74,74,74,0,Fri Sep 16 11:45:03 2022,1500,The main experiment item,yes,FlankerTask.osexp,C:/Users/SW_AHarper/Documents,no,mono,no,18,no,white,no,yes,768,legacy,74,74,C:/Users/SW_AHarper/Documents/AH-subject-1.csv,legacy,Lentiform Loewenfeld,3.3.12,0,h,NA,s,NA,NA,h,457,NA,2158,NA,NA,457,2,legacy,1024,2,48000,-16,experiment,HHHHH,1,odd,4687,NA,NA,121543,NA,NA,129742,128672,2528,NA,NA,129845,130303,129738,129845,2524,Flanker Task,69,34589,75,yes,1024
90.78947368,90.78947368,459.8815789,459.8815789,black,legacy,legacy,legacy,0,Incongruent,uniform,0,undefined,0,h,0,0,0,75,75,0,75,75,0,0,0,75,75,75,75,0,Fri Sep 16 11:45:03 2022,1500,The main experiment item,yes,FlankerTask.osexp,C:/Users/SW_AHarper/Documents,no,mono,no,18,no,white,no,yes,768,legacy,75,75,C:/Users/SW_AHarper/Documents/AH-subject-1.csv,legacy,Lentiform Loewenfeld,3.3.12,0,s,NA,s,NA,NA,s,362,NA,2158,NA,NA,362,2,legacy,1024,2,48000,-16,experiment,SSHSS,1,odd,4687,NA,NA,121543,NA,NA,131389,130320,2528,NA,NA,131492,131854,131385,131492,2524,Flanker Task,69,34951,76,yes,1024
90.90909091,90.90909091,460.5454545,460.5454545,black,legacy,legacy,legacy,0,Incongruent,uniform,1,undefined,1,s,0,0,0,76,76,0,76,76,0,0,0,76,76,76,76,0,Fri Sep 16 11:45:03 2022,1500,The main experiment item,yes,FlankerTask.osexp,C:/Users/SW_AHarper/Documents,no,mono,no,18,no,white,no,yes,768,legacy,76,76,C:/Users/SW_AHarper/Documents/AH-subject-1.csv,legacy,Lentiform Loewenfeld,3.3.12,0,s,NA,s,NA,NA,s,511,NA,2158,NA,NA,511,2,legacy,1024,2,48000,-16,experiment,HHSHH,1,odd,4687,NA,NA,131861,NA,NA,133432,132364,2528,NA,NA,133535,134046,133428,133535,2524,Flanker Task,70,35462,77,yes,1024
91.02564103,91.02564103,461.4358974,461.4358974,black,legacy,legacy,legacy,0,Congruent,uniform,1,undefined,1,h,0,0,0,77,77,0,77,77,0,0,0,77,77,77,77,0,Fri Sep 16 11:45:03 2022,1500,The main experiment item,yes,FlankerTask.osexp,C:/Users/SW_AHarper/Documents,no,mono,no,18,no,white,no,yes,768,legacy,77,77,C:/Users/SW_AHarper/Documents/AH-subject-1.csv,legacy,Lentiform Loewenfeld,3.3.12,0,h,NA,s,NA,NA,h,530,NA,2158,NA,NA,530,2,legacy,1024,2,48000,-16,experiment,HHHHH,1,odd,4687,NA,NA,131861,NA,NA,135132,134062,2528,NA,NA,135235,135766,135128,135235,2524,Flanker Task,71,35992,78,yes,1024
91.13924051,91.13924051,461,461,black,legacy,legacy,legacy,0,Incongruent,uniform,1,undefined,1,s,0,0,0,78,78,0,78,78,0,0,0,78,78,78,78,0,Fri Sep 16 11:45:03 2022,1500,The main experiment item,yes,FlankerTask.osexp,C:/Users/SW_AHarper/Documents,no,mono,no,18,no,white,no,yes,768,legacy,78,78,C:/Users/SW_AHarper/Documents/AH-subject-1.csv,legacy,Lentiform Loewenfeld,3.3.12,0,s,NA,s,NA,NA,s,427,NA,2158,NA,NA,427,2,legacy,1024,2,48000,-16,experiment,HHSHH,1,odd,4687,NA,NA,131861,NA,NA,136851,135782,2528,NA,NA,136955,137382,136847,136955,2524,Flanker Task,72,36419,79,yes,1024
91.25,91.25,459.6125,459.6125,black,legacy,legacy,legacy,0,Congruent,uniform,1,undefined,1,s,0,0,0,79,79,0,79,79,0,0,0,79,79,79,79,0,Fri Sep 16 11:45:03 2022,1500,The main experiment item,yes,FlankerTask.osexp,C:/Users/SW_AHarper/Documents,no,mono,no,18,no,white,no,yes,768,legacy,79,79,C:/Users/SW_AHarper/Documents/AH-subject-1.csv,legacy,Lentiform Loewenfeld,3.3.12,0,s,NA,s,NA,NA,s,350,NA,2158,NA,NA,350,2,legacy,1024,2,48000,-16,experiment,SSSSS,1,odd,4687,NA,NA,131861,NA,NA,138456,137389,2528,NA,NA,138559,138910,138452,138559,2524,Flanker Task,73,36769,80,yes,1024
90.12345679,90.12345679,460.617284,460.617284,black,legacy,legacy,legacy,0,Incongruent,uniform,0,undefined,0,s,0,0,0,80,80,0,80,80,0,0,0,80,80,80,80,0,Fri Sep 16 11:45:03 2022,600,The main experiment item,yes,FlankerTask.osexp,C:/Users/SW_AHarper/Documents,no,mono,no,18,no,white,no,yes,768,legacy,0,79,C:/Users/SW_AHarper/Documents/AH-subject-1.csv,legacy,Lentiform Loewenfeld,3.3.12,0,h,NA,s,NA,s,h,541,NA,2158,NA,810714,541,2,legacy,1024,2,48000,-16,experiment,HHSHH,1,odd,4687,NA,950654,131861,NA,NA,950720,138916,2528,NA,139939,950824,951366,950717,950824,2524,Flanker Task,73,37310,81,yes,1024
90.24390244,90.24390244,460.8780488,460.8780488,black,legacy,legacy,legacy,0,Congruent,uniform,1,undefined,1,h,0,0,0,81,81,0,81,81,0,0,0,81,81,81,81,0,Fri Sep 16 11:45:03 2022,600,The main experiment item,yes,FlankerTask.osexp,C:/Users/SW_AHarper/Documents,no,mono,no,18,no,white,no,yes,768,legacy,1,79,C:/Users/SW_AHarper/Documents/AH-subject-1.csv,legacy,Lentiform Loewenfeld,3.3.12,0,h,NA,s,NA,s,h,482,NA,2158,NA,810714,482,2,legacy,1024,2,48000,-16,experiment,HHHHH,1,odd,4687,NA,950654,951373,NA,NA,952948,951876,2528,NA,139939,953051,953534,952944,953050,2524,Flanker Task,74,37792,82,yes,1024
89.15662651,89.15662651,459.6144578,459.6144578,black,legacy,legacy,legacy,0,Incongruent,uniform,0,undefined,0,h,0,0,0,82,82,0,82,82,0,0,0,82,82,82,82,0,Fri Sep 16 11:45:03 2022,600,The main experiment item,yes,FlankerTask.osexp,C:/Users/SW_AHarper/Documents,no,mono,no,18,no,white,no,yes,768,legacy,2,79,C:/Users/SW_AHarper/Documents/AH-subject-1.csv,legacy,Lentiform Loewenfeld,3.3.12,0,s,NA,s,NA,s,s,356,NA,2158,NA,810714,356,2,legacy,1024,2,48000,-16,experiment,SSHSS,1,odd,4687,NA,950654,951373,NA,NA,954618,953550,2528,NA,139939,954721,955078,954614,954721,2524,Flanker Task,74,38148,83,yes,1024
89.28571429,89.28571429,459.5119048,459.5119048,black,legacy,legacy,legacy,0,Congruent,uniform,1,undefined,1,h,0,0,0,83,83,0,83,83,0,0,0,83,83,83,83,0,Fri Sep 16 11:45:03 2022,600,The main experiment item,yes,FlankerTask.osexp,C:/Users/SW_AHarper/Documents,no,mono,no,18,no,white,no,yes,768,legacy,3,79,C:/Users/SW_AHarper/Documents/AH-subject-1.csv,legacy,Lentiform Loewenfeld,3.3.12,0,h,NA,s,NA,s,h,451,NA,2158,NA,810714,451,2,legacy,1024,2,48000,-16,experiment,HHHHH,1,odd,4687,NA,950654,955094,NA,NA,956667,955597,2528,NA,139939,956770,957221,956662,956770,2524,Flanker Task,75,38599,84,yes,1024
89.41176471,89.41176471,459.5529412,459.5529412,black,legacy,legacy,legacy,0,Incongruent,uniform,1,undefined,1,s,0,0,0,84,84,0,84,84,0,0,0,84,84,84,84,0,Fri Sep 16 11:45:03 2022,600,The main experiment item,yes,FlankerTask.osexp,C:/Users/SW_AHarper/Documents,no,mono,no,18,no,white,no,yes,768,legacy,4,79,C:/Users/SW_AHarper/Documents/AH-subject-1.csv,legacy,Lentiform Loewenfeld,3.3.12,0,s,NA,s,NA,s,s,463,NA,2158,NA,810714,463,2,legacy,1024,2,48000,-16,experiment,HHSHH,1,odd,4687,NA,950654,955094,NA,NA,958311,957238,2528,NA,139939,958414,958878,958307,958414,2524,Flanker Task,76,39062,85,yes,1024
89.53488372,89.53488372,458.3255814,458.3255814,black,legacy,legacy,legacy,0,Incongruent,uniform,1,undefined,1,s,0,0,0,85,85,0,85,85,0,0,0,85,85,85,85,0,Fri Sep 16 11:45:03 2022,600,The main experiment item,yes,FlankerTask.osexp,C:/Users/SW_AHarper/Documents,no,mono,no,18,no,white,no,yes,768,legacy,5,79,C:/Users/SW_AHarper/Documents/AH-subject-1.csv,legacy,Lentiform Loewenfeld,3.3.12,0,s,NA,s,NA,s,s,354,NA,2158,NA,810714,354,2,legacy,1024,2,48000,-16,experiment,HHSHH,1,odd,4687,NA,950654,955094,NA,NA,959964,958894,2528,NA,139939,960067,960422,959961,960067,2524,Flanker Task,77,39416,86,yes,1024
88.50574713,88.50574713,457.137931,457.137931,black,legacy,legacy,legacy,0,Incongruent,uniform,0,undefined,0,h,0,0,0,86,86,0,86,86,0,0,0,86,86,86,86,0,Fri Sep 16 11:45:03 2022,600,The main experiment item,yes,FlankerTask.osexp,C:/Users/SW_AHarper/Documents,no,mono,no,18,no,white,no,yes,768,legacy,6,79,C:/Users/SW_AHarper/Documents/AH-subject-1.csv,legacy,Lentiform Loewenfeld,3.3.12,0,s,NA,s,NA,s,s,355,NA,2158,NA,810714,355,2,legacy,1024,2,48000,-16,experiment,SSHSS,1,odd,4687,NA,950654,955094,NA,NA,961507,960440,2528,NA,139939,961610,961966,961504,961610,2524,Flanker Task,77,39771,87,yes,1024
88.63636364,88.63636364,456.8068182,456.8068182,black,legacy,legacy,legacy,0,Incongruent,uniform,1,undefined,1,h,0,0,0,87,87,0,87,87,0,0,0,87,87,87,87,0,Fri Sep 16 11:45:03 2022,600,The main experiment item,yes,FlankerTask.osexp,C:/Users/SW_AHarper/Documents,no,mono,no,18,no,white,no,yes,768,legacy,7,79,C:/Users/SW_AHarper/Documents/AH-subject-1.csv,legacy,Lentiform Loewenfeld,3.3.12,0,h,NA,s,NA,s,h,428,NA,2158,NA,810714,428,2,legacy,1024,2,48000,-16,experiment,SSHSS,1,odd,4687,NA,950654,961982,NA,NA,963554,962486,2528,NA,139939,963657,964086,963550,963657,2524,Flanker Task,78,40199,88,yes,1024
88.76404494,88.76404494,455.7640449,455.7640449,black,legacy,legacy,legacy,0,Congruent,uniform,1,undefined,1,s,0,0,0,88,88,0,88,88,0,0,0,88,88,88,88,0,Fri Sep 16 11:45:03 2022,600,The main experiment item,yes,FlankerTask.osexp,C:/Users/SW_AHarper/Documents,no,mono,no,18,no,white,no,yes,768,legacy,8,79,C:/Users/SW_AHarper/Documents/AH-subject-1.csv,legacy,Lentiform Loewenfeld,3.3.12,0,s,NA,s,NA,s,s,364,NA,2158,NA,810714,364,2,legacy,1024,2,48000,-16,experiment,SSSSS,1,odd,4687,NA,950654,961982,NA,NA,965170,964102,2528,NA,139939,965273,965638,965167,965273,2524,Flanker Task,79,40563,89,yes,1024
88.88888889,88.88888889,456.8777778,456.8777778,black,legacy,legacy,legacy,0,Incongruent,uniform,1,undefined,1,h,0,0,0,89,89,0,89,89,0,0,0,89,89,89,89,0,Fri Sep 16 11:45:03 2022,600,The main experiment item,yes,FlankerTask.osexp,C:/Users/SW_AHarper/Documents,no,mono,no,18,no,white,no,yes,768,legacy,9,79,C:/Users/SW_AHarper/Documents/AH-subject-1.csv,legacy,Lentiform Loewenfeld,3.3.12,0,h,NA,s,NA,s,h,556,NA,2158,NA,810714,556,2,legacy,1024,2,48000,-16,experiment,SSHSS,1,odd,4687,NA,950654,961982,NA,NA,966722,965655,2528,NA,139939,966825,967382,966719,966825,2524,Flanker Task,80,41119,90,yes,1024
89.01098901,89.01098901,456.7252747,456.7252747,black,legacy,legacy,legacy,0,Incongruent,uniform,1,undefined,1,s,0,0,0,90,90,0,90,90,0,0,0,90,90,90,90,0,Fri Sep 16 11:45:03 2022,600,The main experiment item,yes,FlankerTask.osexp,C:/Users/SW_AHarper/Documents,no,mono,no,18,no,white,no,yes,768,legacy,10,79,C:/Users/SW_AHarper/Documents/AH-subject-1.csv,legacy,Lentiform Loewenfeld,3.3.12,0,s,NA,s,NA,s,s,443,NA,2158,NA,810714,443,2,legacy,1024,2,48000,-16,experiment,HHSHH,1,odd,4687,NA,950654,961982,NA,NA,968467,967398,2528,NA,139939,968570,969014,968463,968570,2524,Flanker Task,81,41562,91,yes,1024
89.13043478,89.13043478,457.0326087,457.0326087,black,legacy,legacy,legacy,0,Incongruent,uniform,1,undefined,1,s,0,0,0,91,91,0,91,91,0,0,0,91,91,91,91,0,Fri Sep 16 11:45:03 2022,600,The main experiment item,yes,FlankerTask.osexp,C:/Users/SW_AHarper/Documents,no,mono,no,18,no,white,no,yes,768,legacy,11,79,C:/Users/SW_AHarper/Documents/AH-subject-1.csv,legacy,Lentiform Loewenfeld,3.3.12,0,s,NA,s,NA,s,s,485,NA,2158,NA,810714,485,2,legacy,1024,2,48000,-16,experiment,HHSHH,1,odd,4687,NA,950654,961982,NA,NA,970089,969020,2528,NA,139939,970192,970677,970086,970192,2524,Flanker Task,82,42047,92,yes,1024
89.24731183,89.24731183,456.4408602,456.4408602,black,legacy,legacy,legacy,0,Congruent,uniform,1,undefined,1,s,0,0,0,92,92,0,92,92,0,0,0,92,92,92,92,0,Fri Sep 16 11:45:03 2022,600,The main experiment item,yes,FlankerTask.osexp,C:/Users/SW_AHarper/Documents,no,mono,no,18,no,white,no,yes,768,legacy,12,79,C:/Users/SW_AHarper/Documents/AH-subject-1.csv,legacy,Lentiform Loewenfeld,3.3.12,0,s,NA,s,NA,s,s,402,NA,2158,NA,810714,402,2,legacy,1024,2,48000,-16,experiment,SSSSS,1,odd,4687,NA,950654,961982,NA,NA,971764,970694,2528,NA,139939,971867,972270,971760,971867,2524,Flanker Task,83,42449,93,yes,1024
89.36170213,89.36170213,456.0425532,456.0425532,black,legacy,legacy,legacy,0,Congruent,uniform,1,undefined,1,h,0,0,0,93,93,0,93,93,0,0,0,93,93,93,93,0,Fri Sep 16 11:45:03 2022,600,The main experiment item,yes,FlankerTask.osexp,C:/Users/SW_AHarper/Documents,no,mono,no,18,no,white,no,yes,768,legacy,13,79,C:/Users/SW_AHarper/Documents/AH-subject-1.csv,legacy,Lentiform Loewenfeld,3.3.12,0,h,NA,s,NA,s,h,419,NA,2158,NA,810714,419,2,legacy,1024,2,48000,-16,experiment,HHHHH,1,odd,4687,NA,950654,961982,NA,NA,973355,972286,2528,NA,139939,973458,973878,973351,973458,2524,Flanker Task,84,42868,94,yes,1024
89.47368421,89.47368421,456.0842105,456.0842105,black,legacy,legacy,legacy,0,Incongruent,uniform,1,undefined,1,s,0,0,0,94,94,0,94,94,0,0,0,94,94,94,94,0,Fri Sep 16 11:45:03 2022,600,The main experiment item,yes,FlankerTask.osexp,C:/Users/SW_AHarper/Documents,no,mono,no,18,no,white,no,yes,768,legacy,14,79,C:/Users/SW_AHarper/Documents/AH-subject-1.csv,legacy,Lentiform Loewenfeld,3.3.12,0,s,NA,s,NA,s,s,460,NA,2158,NA,810714,460,2,legacy,1024,2,48000,-16,experiment,HHSHH,1,odd,4687,NA,950654,961982,NA,NA,974962,973894,2528,NA,139939,975065,975527,974959,975065,2524,Flanker Task,85,43328,95,yes,1024
89.58333333,89.58333333,456,456,black,legacy,legacy,legacy,0,Congruent,uniform,1,undefined,1,h,0,0,0,95,95,0,95,95,0,0,0,95,95,95,95,0,Fri Sep 16 11:45:03 2022,600,The main experiment item,yes,FlankerTask.osexp,C:/Users/SW_AHarper/Documents,no,mono,no,18,no,white,no,yes,768,legacy,15,79,C:/Users/SW_AHarper/Documents/AH-subject-1.csv,legacy,Lentiform Loewenfeld,3.3.12,0,h,NA,s,NA,s,h,448,NA,2158,NA,810714,448,2,legacy,1024,2,48000,-16,experiment,HHHHH,1,odd,4687,NA,950654,961982,NA,NA,976614,975544,2528,NA,139939,976717,977166,976610,976717,2524,Flanker Task,86,43776,96,yes,1024
89.69072165,89.69072165,455.9587629,455.9587629,black,legacy,legacy,legacy,0,Incongruent,uniform,1,undefined,1,s,0,0,0,96,96,0,96,96,0,0,0,96,96,96,96,0,Fri Sep 16 11:45:03 2022,600,The main experiment item,yes,FlankerTask.osexp,C:/Users/SW_AHarper/Documents,no,mono,no,18,no,white,no,yes,768,legacy,16,79,C:/Users/SW_AHarper/Documents/AH-subject-1.csv,legacy,Lentiform Loewenfeld,3.3.12,0,s,NA,s,NA,s,s,452,NA,2158,NA,810714,452,2,legacy,1024,2,48000,-16,experiment,HHSHH,1,odd,4687,NA,950654,961982,NA,NA,978250,977182,2528,NA,139939,978353,978806,978247,978353,2524,Flanker Task,87,44228,97,yes,1024
89.79591837,89.79591837,455.6734694,455.6734694,black,legacy,legacy,legacy,0,Incongruent,uniform,1,undefined,1,s,0,0,0,97,97,0,97,97,0,0,0,97,97,97,97,0,Fri Sep 16 11:45:03 2022,600,The main experiment item,yes,FlankerTask.osexp,C:/Users/SW_AHarper/Documents,no,mono,no,18,no,white,no,yes,768,legacy,17,79,C:/Users/SW_AHarper/Documents/AH-subject-1.csv,legacy,Lentiform Loewenfeld,3.3.12,0,s,NA,s,NA,s,s,428,NA,2158,NA,810714,428,2,legacy,1024,2,48000,-16,experiment,HHSHH,1,odd,4687,NA,950654,961982,NA,NA,979890,978822,2528,NA,139939,979993,980421,979886,979993,2524,Flanker Task,88,44656,98,yes,1024
89.8989899,89.8989899,455.4747475,455.4747475,black,legacy,legacy,legacy,0,Incongruent,uniform,1,undefined,1,s,0,0,0,98,98,0,98,98,0,0,0,98,98,98,98,0,Fri Sep 16 11:45:03 2022,600,The main experiment item,yes,FlankerTask.osexp,C:/Users/SW_AHarper/Documents,no,mono,no,18,no,white,no,yes,768,legacy,18,79,C:/Users/SW_AHarper/Documents/AH-subject-1.csv,legacy,Lentiform Loewenfeld,3.3.12,0,s,NA,s,NA,s,s,436,NA,2158,NA,810714,436,2,legacy,1024,2,48000,-16,experiment,HHSHH,1,odd,4687,NA,950654,961982,NA,NA,981506,980437,2528,NA,139939,981609,982046,981503,981609,2524,Flanker Task,89,45092,99,yes,1024
90,90,455.68,455.68,black,legacy,legacy,legacy,0,Congruent,uniform,1,undefined,1,h,0,0,0,99,99,0,99,99,0,0,0,99,99,99,99,0,Fri Sep 16 11:45:03 2022,600,The main experiment item,yes,FlankerTask.osexp,C:/Users/SW_AHarper/Documents,no,mono,no,18,no,white,no,yes,768,legacy,19,79,C:/Users/SW_AHarper/Documents/AH-subject-1.csv,legacy,Lentiform Loewenfeld,3.3.12,0,h,NA,s,NA,s,h,476,NA,2158,NA,810714,476,2,legacy,1024,2,48000,-16,experiment,HHHHH,1,odd,4687,NA,950654,961982,NA,NA,983130,982063,2528,NA,139939,983233,983710,983126,983233,2524,Flanker Task,90,45568,100,yes,1024
90.0990099,90.0990099,455.8811881,455.8811881,black,legacy,legacy,legacy,0,Congruent,uniform,1,undefined,1,h,0,0,0,100,100,0,100,100,0,0,0,100,100,100,100,0,Fri Sep 16 11:45:03 2022,600,The main experiment item,yes,FlankerTask.osexp,C:/Users/SW_AHarper/Documents,no,mono,no,18,no,white,no,yes,768,legacy,20,79,C:/Users/SW_AHarper/Documents/AH-subject-1.csv,legacy,Lentiform Loewenfeld,3.3.12,0,h,NA,s,NA,s,h,476,NA,2158,NA,810714,476,2,legacy,1024,2,48000,-16,experiment,HHHHH,1,odd,4687,NA,950654,961982,NA,NA,984802,983727,2528,NA,139939,984905,985382,984799,984905,2524,Flanker Task,91,46044,101,yes,1024
90.19607843,90.19607843,457.1176471,457.1176471,black,legacy,legacy,legacy,0,Incongruent,uniform,1,undefined,1,h,0,0,0,101,101,0,101,101,0,0,0,101,101,101,101,0,Fri Sep 16 11:45:03 2022,600,The main experiment item,yes,FlankerTask.osexp,C:/Users/SW_AHarper/Documents,no,mono,no,18,no,white,no,yes,768,legacy,21,79,C:/Users/SW_AHarper/Documents/AH-subject-1.csv,legacy,Lentiform Loewenfeld,3.3.12,0,h,NA,s,NA,s,h,582,NA,2158,NA,810714,582,2,legacy,1024,2,48000,-16,experiment,SSHSS,1,odd,4687,NA,950654,961982,NA,NA,986463,985388,2528,NA,139939,986567,987150,986459,986567,2524,Flanker Task,92,46626,102,yes,1024
90.29126214,90.29126214,456.0582524,456.0582524,black,legacy,legacy,legacy,0,Congruent,uniform,1,undefined,1,s,0,0,0,102,102,0,102,102,0,0,0,102,102,102,102,0,Fri Sep 16 11:45:03 2022,600,The main experiment item,yes,FlankerTask.osexp,C:/Users/SW_AHarper/Documents,no,mono,no,18,no,white,no,yes,768,legacy,22,79,C:/Users/SW_AHarper/Documents/AH-subject-1.csv,legacy,Lentiform Loewenfeld,3.3.12,0,s,NA,s,NA,s,s,348,NA,2158,NA,810714,348,2,legacy,1024,2,48000,-16,experiment,SSSSS,1,odd,4687,NA,950654,961982,NA,NA,988234,987167,2528,NA,139939,988337,988686,988231,988337,2524,Flanker Task,93,46974,103,yes,1024
90.38461538,90.38461538,456.3846154,456.3846154,black,legacy,legacy,legacy,0,Congruent,uniform,1,undefined,1,h,0,0,0,103,103,0,103,103,0,0,0,103,103,103,103,0,Fri Sep 16 11:45:03 2022,600,The main experiment item,yes,FlankerTask.osexp,C:/Users/SW_AHarper/Documents,no,mono,no,18,no,white,no,yes,768,legacy,23,79,C:/Users/SW_AHarper/Documents/AH-subject-1.csv,legacy,Lentiform Loewenfeld,3.3.12,0,h,NA,s,NA,s,h,490,NA,2158,NA,810714,490,2,legacy,1024,2,48000,-16,experiment,HHHHH,1,odd,4687,NA,950654,961982,NA,NA,989771,988702,2528,NA,139939,989874,990365,989767,989874,2524,Flanker Task,94,47464,104,yes,1024
89.52380952,89.52380952,455.1047619,455.1047619,black,legacy,legacy,legacy,0,Incongruent,uniform,0,undefined,0,h,0,0,0,104,104,0,104,104,0,0,0,104,104,104,104,0,Fri Sep 16 11:45:03 2022,600,The main experiment item,yes,FlankerTask.osexp,C:/Users/SW_AHarper/Documents,no,mono,no,18,no,white,no,yes,768,legacy,24,79,C:/Users/SW_AHarper/Documents/AH-subject-1.csv,legacy,Lentiform Loewenfeld,3.3.12,0,s,NA,s,NA,s,s,322,NA,2158,NA,810714,322,2,legacy,1024,2,48000,-16,experiment,SSHSS,1,odd,4687,NA,950654,961982,NA,NA,991452,990382,2528,NA,139939,991555,991878,991448,991555,2524,Flanker Task,94,47786,105,yes,1024
89.62264151,89.62264151,455.0849057,455.0849057,black,legacy,legacy,legacy,0,Congruent,uniform,1,undefined,1,h,0,0,0,105,105,0,105,105,0,0,0,105,105,105,105,0,Fri Sep 16 11:45:03 2022,600,The main experiment item,yes,FlankerTask.osexp,C:/Users/SW_AHarper/Documents,no,mono,no,18,no,white,no,yes,768,legacy,25,79,C:/Users/SW_AHarper/Documents/AH-subject-1.csv,legacy,Lentiform Loewenfeld,3.3.12,0,h,NA,s,NA,s,h,453,NA,2158,NA,810714,453,2,legacy,1024,2,48000,-16,experiment,HHHHH,1,odd,4687,NA,950654,991894,NA,NA,993465,992397,2528,NA,139939,993568,994022,993462,993568,2524,Flanker Task,95,48239,106,yes,1024
89.71962617,89.71962617,454.7476636,454.7476636,black,legacy,legacy,legacy,0,Congruent,uniform,1,undefined,1,s,0,0,0,106,106,0,106,106,0,0,0,106,106,106,106,0,Fri Sep 16 11:45:03 2022,600,The main experiment item,yes,FlankerTask.osexp,C:/Users/SW_AHarper/Documents,no,mono,no,18,no,white,no,yes,768,legacy,26,79,C:/Users/SW_AHarper/Documents/AH-subject-1.csv,legacy,Lentiform Loewenfeld,3.3.12,0,s,NA,s,NA,s,s,419,NA,2158,NA,810714,419,2,legacy,1024,2,48000,-16,experiment,SSSSS,1,odd,4687,NA,950654,991894,NA,NA,995107,994038,2528,NA,139939,995210,995630,995103,995210,2524,Flanker Task,96,48658,107,yes,1024
89.81481481,89.81481481,454.2777778,454.2777778,black,legacy,legacy,legacy,0,Congruent,uniform,1,undefined,1,s,0,0,0,107,107,0,107,107,0,0,0,107,107,107,107,0,Fri Sep 16 11:45:03 2022,600,The main experiment item,yes,FlankerTask.osexp,C:/Users/SW_AHarper/Documents,no,mono,no,18,no,white,no,yes,768,legacy,27,79,C:/Users/SW_AHarper/Documents/AH-subject-1.csv,legacy,Lentiform Loewenfeld,3.3.12,0,s,NA,s,NA,s,s,404,NA,2158,NA,810714,404,2,legacy,1024,2,48000,-16,experiment,SSSSS,1,odd,4687,NA,950654,991894,NA,NA,996714,995646,2528,NA,139939,996817,997223,996711,996817,2524,Flanker Task,97,49062,108,yes,1024
89.90825688,89.90825688,453.8807339,453.8807339,black,legacy,legacy,legacy,0,Incongruent,uniform,1,undefined,1,h,0,0,0,108,108,0,108,108,0,0,0,108,108,108,108,0,Fri Sep 16 11:45:03 2022,600,The main experiment item,yes,FlankerTask.osexp,C:/Users/SW_AHarper/Documents,no,mono,no,18,no,white,no,yes,768,legacy,28,79,C:/Users/SW_AHarper/Documents/AH-subject-1.csv,legacy,Lentiform Loewenfeld,3.3.12,0,h,NA,s,NA,s,h,411,NA,2158,NA,810714,411,2,legacy,1024,2,48000,-16,experiment,SSHSS,1,odd,4687,NA,950654,991894,NA,NA,998298,997230,2528,NA,139939,998402,998814,998295,998402,2524,Flanker Task,98,49473,109,yes,1024
90,90,452.9181818,452.9181818,black,legacy,legacy,legacy,0,Congruent,uniform,1,undefined,1,s,0,0,0,109,109,0,109,109,0,0,0,109,109,109,109,0,Fri Sep 16 11:45:03 2022,600,The main experiment item,yes,FlankerTask.osexp,C:/Users/SW_AHarper/Documents,no,mono,no,18,no,white,no,yes,768,legacy,29,79,C:/Users/SW_AHarper/Documents/AH-subject-1.csv,legacy,Lentiform Loewenfeld,3.3.12,0,s,NA,s,NA,s,s,348,NA,2158,NA,810714,348,2,legacy,1024,2,48000,-16,experiment,SSSSS,1,odd,4687,NA,950654,991894,NA,NA,999898,998830,2528,NA,139939,1000001,1000350,999894,1000001,2524,Flanker Task,99,49821,110,yes,1024
90.09009009,90.09009009,452.1351351,452.1351351,black,legacy,legacy,legacy,0,Congruent,uniform,1,undefined,1,s,0,0,0,110,110,0,110,110,0,0,0,110,110,110,110,0,Fri Sep 16 11:45:03 2022,600,The main experiment item,yes,FlankerTask.osexp,C:/Users/SW_AHarper/Documents,no,mono,no,18,no,white,no,yes,768,legacy,30,79,C:/Users/SW_AHarper/Documents/AH-subject-1.csv,legacy,Lentiform Loewenfeld,3.3.12,0,s,NA,s,NA,s,s,366,NA,2158,NA,810714,366,2,legacy,1024,2,48000,-16,experiment,SSSSS,1,odd,4687,NA,950654,991894,NA,NA,1001423,1000355,2528,NA,139939,1001526,1001893,1001419,1001526,2524,Flanker Task,100,50187,111,yes,1024
90.17857143,90.17857143,451.4732143,451.4732143,black,legacy,legacy,legacy,0,Congruent,uniform,1,undefined,1,s,0,0,0,111,111,0,111,111,0,0,0,111,111,111,111,0,Fri Sep 16 11:45:03 2022,600,The main experiment item,yes,FlankerTask.osexp,C:/Users/SW_AHarper/Documents,no,mono,no,18,no,white,no,yes,768,legacy,31,79,C:/Users/SW_AHarper/Documents/AH-subject-1.csv,legacy,Lentiform Loewenfeld,3.3.12,0,s,NA,s,NA,s,s,378,NA,2158,NA,810714,378,2,legacy,1024,2,48000,-16,experiment,SSSSS,1,odd,4687,NA,950654,991894,NA,NA,1002980,1001910,2528,NA,139939,1003083,1003462,1002976,1003083,2524,Flanker Task,101,50565,112,yes,1024
90.26548673,90.26548673,450.3451327,450.3451327,black,legacy,legacy,legacy,0,Congruent,uniform,1,undefined,1,s,0,0,0,112,112,0,112,112,0,0,0,112,112,112,112,0,Fri Sep 16 11:45:03 2022,600,The main experiment item,yes,FlankerTask.osexp,C:/Users/SW_AHarper/Documents,no,mono,no,18,no,white,no,yes,768,legacy,32,79,C:/Users/SW_AHarper/Documents/AH-subject-1.csv,legacy,Lentiform Loewenfeld,3.3.12,0,s,NA,s,NA,s,s,324,NA,2158,NA,810714,324,2,legacy,1024,2,48000,-16,experiment,SSSSS,1,odd,4687,NA,950654,991894,NA,NA,1004546,1003477,2528,NA,139939,1004649,1004973,1004543,1004649,2524,Flanker Task,102,50889,113,yes,1024
90.35087719,90.35087719,450.9736842,450.9736842,black,legacy,legacy,legacy,0,Incongruent,uniform,1,undefined,1,s,0,0,0,113,113,0,113,113,0,0,0,113,113,113,113,0,Fri Sep 16 11:45:03 2022,600,The main experiment item,yes,FlankerTask.osexp,C:/Users/SW_AHarper/Documents,no,mono,no,18,no,white,no,yes,768,legacy,33,79,C:/Users/SW_AHarper/Documents/AH-subject-1.csv,legacy,Lentiform Loewenfeld,3.3.12,0,s,NA,s,NA,s,s,522,NA,2158,NA,810714,522,2,legacy,1024,2,48000,-16,experiment,HHSHH,1,odd,4687,NA,950654,991894,NA,NA,1006060,1004990,2528,NA,139939,1006163,1006686,1006056,1006163,2524,Flanker Task,103,51411,114,yes,1024
90.43478261,90.43478261,450.9652174,450.9652174,black,legacy,legacy,legacy,0,Congruent,uniform,1,undefined,1,h,0,0,0,114,114,0,114,114,0,0,0,114,114,114,114,0,Fri Sep 16 11:45:03 2022,600,The main experiment item,yes,FlankerTask.osexp,C:/Users/SW_AHarper/Documents,no,mono,no,18,no,white,no,yes,768,legacy,34,79,C:/Users/SW_AHarper/Documents/AH-subject-1.csv,legacy,Lentiform Loewenfeld,3.3.12,0,h,NA,s,NA,s,h,450,NA,2158,NA,810714,450,2,legacy,1024,2,48000,-16,experiment,HHHHH,1,odd,4687,NA,950654,991894,NA,NA,1007772,1006702,2528,NA,139939,1007875,1008326,1007768,1007875,2524,Flanker Task,104,51861,115,yes,1024
90.51724138,90.51724138,450.8189655,450.8189655,black,legacy,legacy,legacy,0,Incongruent,uniform,1,undefined,1,s,0,0,0,115,115,0,115,115,0,0,0,115,115,115,115,0,Fri Sep 16 11:45:03 2022,600,The main experiment item,yes,FlankerTask.osexp,C:/Users/SW_AHarper/Documents,no,mono,no,18,no,white,no,yes,768,legacy,35,79,C:/Users/SW_AHarper/Documents/AH-subject-1.csv,legacy,Lentiform Loewenfeld,3.3.12,0,s,NA,s,NA,s,s,434,NA,2158,NA,810714,434,2,legacy,1024,2,48000,-16,experiment,HHSHH,1,odd,4687,NA,950654,991894,NA,NA,1009412,1008343,2528,NA,139939,1009515,1009950,1009409,1009515,2524,Flanker Task,105,52295,116,yes,1024
89.74358974,89.74358974,450.2222222,450.2222222,black,legacy,legacy,legacy,0,Incongruent,uniform,0,undefined,0,h,0,0,0,116,116,0,116,116,0,0,0,116,116,116,116,0,Fri Sep 16 11:45:03 2022,600,The main experiment item,yes,FlankerTask.osexp,C:/Users/SW_AHarper/Documents,no,mono,no,18,no,white,no,yes,768,legacy,36,79,C:/Users/SW_AHarper/Documents/AH-subject-1.csv,legacy,Lentiform Loewenfeld,3.3.12,0,s,NA,s,NA,s,s,381,NA,2158,NA,810714,381,2,legacy,1024,2,48000,-16,experiment,SSHSS,1,odd,4687,NA,950654,991894,NA,NA,1011025,1009956,2528,NA,139939,1011128,1011509,1011021,1011128,2524,Flanker Task,105,52676,117,yes,1024
89.83050847,89.83050847,449.8983051,449.8983051,black,legacy,legacy,legacy,0,Congruent,uniform,1,undefined,1,s,0,0,0,117,117,0,117,117,0,0,0,117,117,117,117,0,Fri Sep 16 11:45:03 2022,600,The main experiment item,yes,FlankerTask.osexp,C:/Users/SW_AHarper/Documents,no,mono,no,18,no,white,no,yes,768,legacy,37,79,C:/Users/SW_AHarper/Documents/AH-subject-1.csv,legacy,Lentiform Loewenfeld,3.3.12,0,s,NA,s,NA,s,s,412,NA,2158,NA,810714,412,2,legacy,1024,2,48000,-16,experiment,SSSSS,1,odd,4687,NA,950654,1011526,NA,NA,1013098,1012029,2528,NA,139939,1013201,1013613,1013095,1013201,2524,Flanker Task,106,53088,118,yes,1024
89.07563025,89.07563025,449.394958,449.394958,black,legacy,legacy,legacy,0,Incongruent,uniform,0,undefined,0,h,0,0,0,118,118,0,118,118,0,0,0,118,118,118,118,0,Fri Sep 16 11:45:03 2022,600,The main experiment item,yes,FlankerTask.osexp,C:/Users/SW_AHarper/Documents,no,mono,no,18,no,white,no,yes,768,legacy,38,79,C:/Users/SW_AHarper/Documents/AH-subject-1.csv,legacy,Lentiform Loewenfeld,3.3.12,0,s,NA,s,NA,s,s,390,NA,2158,NA,810714,390,2,legacy,1024,2,48000,-16,experiment,SSHSS,1,odd,4687,NA,950654,1011526,NA,NA,1014696,1013629,2528,NA,139939,1014799,1015190,1014693,1014799,2524,Flanker Task,106,53478,119,yes,1024
89.16666667,89.16666667,448.9,448.9,black,legacy,legacy,legacy,0,Incongruent,uniform,1,undefined,1,s,0,0,0,119,119,0,119,119,0,0,0,119,119,119,119,0,Fri Sep 16 11:45:03 2022,600,The main experiment item,yes,FlankerTask.osexp,C:/Users/SW_AHarper/Documents,no,mono,no,18,no,white,no,yes,768,legacy,39,79,C:/Users/SW_AHarper/Documents/AH-subject-1.csv,legacy,Lentiform Loewenfeld,3.3.12,0,s,NA,s,NA,s,s,390,NA,2158,NA,810714,390,2,legacy,1024,2,48000,-16,experiment,HHSHH,1,odd,4687,NA,950654,1015206,NA,NA,1016784,1015710,2528,NA,139939,1016887,1017278,1016779,1016887,2524,Flanker Task,107,53868,120,yes,1024
89.25619835,89.25619835,447.9338843,447.9338843,black,legacy,legacy,legacy,0,Congruent,uniform,1,undefined,1,s,0,0,0,120,120,0,120,120,0,0,0,120,120,120,120,0,Fri Sep 16 11:45:03 2022,600,The main experiment item,yes,FlankerTask.osexp,C:/Users/SW_AHarper/Documents,no,mono,no,18,no,white,no,yes,768,legacy,40,79,C:/Users/SW_AHarper/Documents/AH-subject-1.csv,legacy,Lentiform Loewenfeld,3.3.12,0,s,NA,s,NA,s,s,332,NA,2158,NA,810714,332,2,legacy,1024,2,48000,-16,experiment,SSSSS,1,odd,4687,NA,950654,1015206,NA,NA,1018354,1017287,2528,NA,139939,1018457,1018789,1018351,1018457,2524,Flanker Task,108,54200,121,yes,1024
89.3442623,89.3442623,447.4836066,447.4836066,black,legacy,legacy,legacy,0,Congruent,uniform,1,undefined,1,h,0,0,0,121,121,0,121,121,0,0,0,121,121,121,121,0,Fri Sep 16 11:45:03 2022,600,The main experiment item,yes,FlankerTask.osexp,C:/Users/SW_AHarper/Documents,no,mono,no,18,no,white,no,yes,768,legacy,41,79,C:/Users/SW_AHarper/Documents/AH-subject-1.csv,legacy,Lentiform Loewenfeld,3.3.12,0,h,NA,s,NA,s,h,393,NA,2158,NA,810714,393,2,legacy,1024,2,48000,-16,experiment,HHHHH,1,odd,4687,NA,950654,1015206,NA,NA,1019877,1018806,2528,NA,139939,1019980,1020375,1019873,1019980,2524,Flanker Task,109,54593,122,yes,1024
89.43089431,89.43089431,447.5772358,447.5772358,black,legacy,legacy,legacy,0,Congruent,uniform,1,undefined,1,h,0,0,0,122,122,0,122,122,0,0,0,122,122,122,122,0,Fri Sep 16 11:45:03 2022,600,The main experiment item,yes,FlankerTask.osexp,C:/Users/SW_AHarper/Documents,no,mono,no,18,no,white,no,yes,768,legacy,42,79,C:/Users/SW_AHarper/Documents/AH-subject-1.csv,legacy,Lentiform Loewenfeld,3.3.12,0,h,NA,s,NA,s,h,459,NA,2158,NA,810714,459,2,legacy,1024,2,48000,-16,experiment,HHHHH,1,odd,4687,NA,950654,1015206,NA,NA,1021451,1020381,2528,NA,139939,1021554,1022014,1021447,1021554,2524,Flanker Task,110,55052,123,yes,1024
89.51612903,89.51612903,448.9596774,448.9596774,black,legacy,legacy,legacy,0,Incongruent,uniform,1,undefined,1,h,0,0,0,123,123,0,123,123,0,0,0,123,123,123,123,0,Fri Sep 16 11:45:03 2022,600,The main experiment item,yes,FlankerTask.osexp,C:/Users/SW_AHarper/Documents,no,mono,no,18,no,white,no,yes,768,legacy,43,79,C:/Users/SW_AHarper/Documents/AH-subject-1.csv,legacy,Lentiform Loewenfeld,3.3.12,0,h,NA,s,NA,s,h,619,NA,2158,NA,810714,619,2,legacy,1024,2,48000,-16,experiment,SSHSS,1,odd,4687,NA,950654,1015206,NA,NA,1023098,1022030,2528,NA,139939,1023202,1023823,1023094,1023202,2524,Flanker Task,111,55671,124,yes,1024
89.6,89.6,449.496,449.496,black,legacy,legacy,legacy,0,Incongruent,uniform,1,undefined,1,s,0,0,0,124,124,0,124,124,0,0,0,124,124,124,124,0,Fri Sep 16 11:45:03 2022,600,The main experiment item,yes,FlankerTask.osexp,C:/Users/SW_AHarper/Documents,no,mono,no,18,no,white,no,yes,768,legacy,44,79,C:/Users/SW_AHarper/Documents/AH-subject-1.csv,legacy,Lentiform Loewenfeld,3.3.12,0,s,NA,s,NA,s,s,516,NA,2158,NA,810714,516,2,legacy,1024,2,48000,-16,experiment,HHSHH,1,odd,4687,NA,950654,1015206,1023839,NA,1025410,1024342,2528,NA,139939,1025513,1026030,1025407,1025513,2524,Flanker Task,112,56187,125,yes,1024
88.88888889,88.88888889,448.8730159,448.8730159,black,legacy,legacy,legacy,0,Incongruent,uniform,0,undefined,0,h,0,0,0,125,125,0,125,125,0,0,0,125,125,125,125,0,Fri Sep 16 11:45:03 2022,600,The main experiment item,yes,FlankerTask.osexp,C:/Users/SW_AHarper/Documents,no,mono,no,18,no,white,no,yes,768,legacy,45,79,C:/Users/SW_AHarper/Documents/AH-subject-1.csv,legacy,Lentiform Loewenfeld,3.3.12,0,s,NA,s,NA,s,s,371,NA,2158,NA,810714,371,2,legacy,1024,2,48000,-16,experiment,SSHSS,1,odd,4687,NA,950654,1015206,1023839,NA,1027115,1026046,2528,NA,139939,1027218,1027590,1027111,1027218,2524,Flanker Task,112,56558,126,yes,1024
88.18897638,88.18897638,457.1496063,457.1496063,black,legacy,legacy,legacy,0,Congruent,uniform,0,undefined,0,h,0,0,0,126,126,0,126,126,0,0,0,126,126,126,126,0,Fri Sep 16 11:45:03 2022,600,The main experiment item,yes,FlankerTask.osexp,C:/Users/SW_AHarper/Documents,no,mono,no,18,no,white,no,yes,768,legacy,46,79,C:/Users/SW_AHarper/Documents/AH-subject-1.csv,legacy,Lentiform Loewenfeld,3.3.12,0,None,NA,s,NA,s,None,1500,NA,2158,NA,810714,1500,2,legacy,1024,2,48000,-16,experiment,HHHHH,1,odd,4687,NA,950654,1027599,1023839,NA,1029170,1028101,2528,NA,139939,1029273,1030773,1029166,1029273,2524,Flanker Task,112,58058,127,yes,1024
88.28125,88.28125,457.5625,457.5625,black,legacy,legacy,legacy,0,Incongruent,uniform,1,undefined,1,h,0,0,0,127,127,0,127,127,0,0,0,127,127,127,127,0,Fri Sep 16 11:45:03 2022,600,The main experiment item,yes,FlankerTask.osexp,C:/Users/SW_AHarper/Documents,no,mono,no,18,no,white,no,yes,768,legacy,47,79,C:/Users/SW_AHarper/Documents/AH-subject-1.csv,legacy,Lentiform Loewenfeld,3.3.12,0,h,NA,s,NA,s,h,510,NA,2158,NA,810714,510,2,legacy,1024,2,48000,-16,experiment,SSHSS,1,odd,4687,NA,950654,1030790,1031293,NA,1032872,1031796,2528,NA,139939,1032975,1033485,1032868,1032975,2524,Flanker Task,113,58568,128,yes,1024
87.59689922,87.59689922,456.8217054,456.8217054,black,legacy,legacy,legacy,0,Incongruent,uniform,0,undefined,0,h,0,0,0,128,128,0,128,128,0,0,0,128,128,128,128,0,Fri Sep 16 11:45:03 2022,600,The main experiment item,yes,FlankerTask.osexp,C:/Users/SW_AHarper/Documents,no,mono,no,18,no,white,no,yes,768,legacy,48,79,C:/Users/SW_AHarper/Documents/AH-subject-1.csv,legacy,Lentiform Loewenfeld,3.3.12,0,s,NA,s,NA,s,s,362,NA,2158,NA,810714,362,2,legacy,1024,2,48000,-16,experiment,SSHSS,1,odd,4687,NA,950654,1030790,1031293,NA,1034571,1033502,2528,NA,139939,1034674,1035037,1034568,1034674,2524,Flanker Task,113,58930,129,yes,1024
87.69230769,87.69230769,456.7692308,456.7692308,black,legacy,legacy,legacy,0,Congruent,uniform,1,undefined,1,h,0,0,0,129,129,0,129,129,0,0,0,129,129,129,129,0,Fri Sep 16 11:45:03 2022,600,The main experiment item,yes,FlankerTask.osexp,C:/Users/SW_AHarper/Documents,no,mono,no,18,no,white,no,yes,768,legacy,49,79,C:/Users/SW_AHarper/Documents/AH-subject-1.csv,legacy,Lentiform Loewenfeld,3.3.12,0,h,NA,s,NA,s,h,450,NA,2158,NA,810714,450,2,legacy,1024,2,48000,-16,experiment,HHHHH,1,odd,4687,NA,950654,1035055,1031293,NA,1036635,1035558,2528,NA,139939,1036739,1037190,1036631,1036739,2524,Flanker Task,114,59380,130,yes,1024
87.02290076,87.02290076,455.8778626,455.8778626,black,legacy,legacy,legacy,0,Incongruent,uniform,0,undefined,0,h,0,0,0,130,130,0,130,130,0,0,0,130,130,130,130,0,Fri Sep 16 11:45:03 2022,600,The main experiment item,yes,FlankerTask.osexp,C:/Users/SW_AHarper/Documents,no,mono,no,18,no,white,no,yes,768,legacy,50,79,C:/Users/SW_AHarper/Documents/AH-subject-1.csv,legacy,Lentiform Loewenfeld,3.3.12,0,s,NA,s,NA,s,s,340,NA,2158,NA,810714,340,2,legacy,1024,2,48000,-16,experiment,SSHSS,1,odd,4687,NA,950654,1035055,1031293,NA,1038266,1037198,2528,NA,139939,1038369,1038710,1038263,1038369,2524,Flanker Task,114,59720,131,yes,1024
87.12121212,87.12121212,456.6287879,456.6287879,black,legacy,legacy,legacy,0,Incongruent,uniform,1,undefined,1,s,0,0,0,131,131,0,131,131,0,0,0,131,131,131,131,0,Fri Sep 16 11:45:03 2022,600,The main experiment item,yes,FlankerTask.osexp,C:/Users/SW_AHarper/Documents,no,mono,no,18,no,white,no,yes,768,legacy,51,79,C:/Users/SW_AHarper/Documents/AH-subject-1.csv,legacy,Lentiform Loewenfeld,3.3.12,0,s,NA,s,NA,s,s,555,NA,2158,NA,810714,555,2,legacy,1024,2,48000,-16,experiment,HHSHH,1,odd,4687,NA,950654,1038726,1031293,NA,1040299,1039229,2528,NA,139939,1040402,1040958,1040295,1040402,2524,Flanker Task,115,60275,132,yes,1024
87.21804511,87.21804511,455.9774436,455.9774436,black,legacy,legacy,legacy,0,Congruent,uniform,1,undefined,1,h,0,0,0,132,132,0,132,132,0,0,0,132,132,132,132,0,Fri Sep 16 11:45:03 2022,600,The main experiment item,yes,FlankerTask.osexp,C:/Users/SW_AHarper/Documents,no,mono,no,18,no,white,no,yes,768,legacy,52,79,C:/Users/SW_AHarper/Documents/AH-subject-1.csv,legacy,Lentiform Loewenfeld,3.3.12,0,h,NA,s,NA,s,h,370,NA,2158,NA,810714,370,2,legacy,1024,2,48000,-16,experiment,HHHHH,1,odd,4687,NA,950654,1038726,1031293,NA,1042043,1040975,2528,NA,139939,1042147,1042518,1042040,1042147,2524,Flanker Task,116,60645,133,yes,1024
86.56716418,86.56716418,455.4179104,455.4179104,black,legacy,legacy,legacy,0,Incongruent,uniform,0,undefined,0,h,0,0,0,133,133,0,133,133,0,0,0,133,133,133,133,0,Fri Sep 16 11:45:03 2022,600,The main experiment item,yes,FlankerTask.osexp,C:/Users/SW_AHarper/Documents,no,mono,no,18,no,white,no,yes,768,legacy,53,79,C:/Users/SW_AHarper/Documents/AH-subject-1.csv,legacy,Lentiform Loewenfeld,3.3.12,0,s,NA,s,NA,s,s,381,NA,2158,NA,810714,381,2,legacy,1024,2,48000,-16,experiment,SSHSS,1,odd,4687,NA,950654,1038726,1031293,NA,1043593,1042525,2528,NA,139939,1043696,1044079,1043590,1043696,2524,Flanker Task,116,61026,134,yes,1024
86.66666667,86.66666667,455.162963,455.162963,black,legacy,legacy,legacy,0,Congruent,uniform,1,undefined,1,h,0,0,0,134,134,0,134,134,0,0,0,134,134,134,134,0,Fri Sep 16 11:45:03 2022,600,The main experiment item,yes,FlankerTask.osexp,C:/Users/SW_AHarper/Documents,no,mono,no,18,no,white,no,yes,768,legacy,54,79,C:/Users/SW_AHarper/Documents/AH-subject-1.csv,legacy,Lentiform Loewenfeld,3.3.12,0,h,NA,s,NA,s,h,421,NA,2158,NA,810714,421,2,legacy,1024,2,48000,-16,experiment,HHHHH,1,odd,4687,NA,950654,1044102,1031293,NA,1045673,1044605,2528,NA,139939,1045776,1046198,1045669,1045776,2524,Flanker Task,117,61447,135,yes,1024
86.02941176,86.02941176,455.0661765,455.0661765,black,legacy,legacy,legacy,0,Incongruent,uniform,0,undefined,0,s,0,0,0,135,135,0,135,135,0,0,0,135,135,135,135,0,Fri Sep 16 11:45:03 2022,600,The main experiment item,yes,FlankerTask.osexp,C:/Users/SW_AHarper/Documents,no,mono,no,18,no,white,no,yes,768,legacy,55,79,C:/Users/SW_AHarper/Documents/AH-subject-1.csv,legacy,Lentiform Loewenfeld,3.3.12,0,h,NA,s,NA,s,h,442,NA,2158,NA,810714,442,2,legacy,1024,2,48000,-16,experiment,HHSHH,1,odd,4687,NA,950654,1044102,1031293,NA,1047300,1046214,2528,NA,139939,1047403,1047846,1047295,1047403,2524,Flanker Task,117,61889,136,yes,1024
86.13138686,86.13138686,454.9270073,454.9270073,black,legacy,legacy,legacy,0,Congruent,uniform,1,undefined,1,s,0,0,0,136,136,0,136,136,0,0,0,136,136,136,136,0,Fri Sep 16 11:45:03 2022,600,The main experiment item,yes,FlankerTask.osexp,C:/Users/SW_AHarper/Documents,no,mono,no,18,no,white,no,yes,768,legacy,56,79,C:/Users/SW_AHarper/Documents/AH-subject-1.csv,legacy,Lentiform Loewenfeld,3.3.12,0,s,NA,s,NA,s,s,436,NA,2158,NA,810714,436,2,legacy,1024,2,48000,-16,experiment,SSSSS,1,odd,4687,NA,950654,1047863,1031293,NA,1049434,1048366,2528,NA,139939,1049537,1049974,1049430,1049537,2524,Flanker Task,118,62325,137,yes,1024
86.23188406,86.23188406,454.0362319,454.0362319,black,legacy,legacy,legacy,0,Congruent,uniform,1,undefined,1,s,0,0,0,137,137,0,137,137,0,0,0,137,137,137,137,0,Fri Sep 16 11:45:03 2022,600,The main experiment item,yes,FlankerTask.osexp,C:/Users/SW_AHarper/Documents,no,mono,no,18,no,white,no,yes,768,legacy,57,79,C:/Users/SW_AHarper/Documents/AH-subject-1.csv,legacy,Lentiform Loewenfeld,3.3.12,0,s,NA,s,NA,s,s,332,NA,2158,NA,810714,332,2,legacy,1024,2,48000,-16,experiment,SSSSS,1,odd,4687,NA,950654,1047863,1031293,NA,1051058,1049990,2528,NA,139939,1051161,1051494,1051053,1051161,2524,Flanker Task,119,62657,138,yes,1024
85.61151079,85.61151079,454,454,black,legacy,legacy,legacy,0,Incongruent,uniform,0,undefined,0,s,0,0,0,138,138,0,138,138,0,0,0,138,138,138,138,0,Fri Sep 16 11:45:03 2022,600,The main experiment item,yes,FlankerTask.osexp,C:/Users/SW_AHarper/Documents,no,mono,no,18,no,white,no,yes,768,legacy,58,79,C:/Users/SW_AHarper/Documents/AH-subject-1.csv,legacy,Lentiform Loewenfeld,3.3.12,0,h,NA,s,NA,s,h,449,NA,2158,NA,810714,449,2,legacy,1024,2,48000,-16,experiment,HHSHH,1,odd,4687,NA,950654,1047863,1031293,NA,1052580,1051511,2528,NA,139939,1052683,1053133,1052576,1052683,2524,Flanker Task,119,63106,139,yes,1024
85.71428571,85.71428571,454.5571429,454.5571429,black,legacy,legacy,legacy,0,Congruent,uniform,1,undefined,1,h,0,0,0,139,139,0,139,139,0,0,0,139,139,139,139,0,Fri Sep 16 11:45:03 2022,600,The main experiment item,yes,FlankerTask.osexp,C:/Users/SW_AHarper/Documents,no,mono,no,18,no,white,no,yes,768,legacy,59,79,C:/Users/SW_AHarper/Documents/AH-subject-1.csv,legacy,Lentiform Loewenfeld,3.3.12,0,h,NA,s,NA,s,h,532,NA,2158,NA,810714,532,2,legacy,1024,2,48000,-16,experiment,HHHHH,1,odd,4687,NA,950654,1053149,1031293,NA,1054722,1053653,2528,NA,139939,1054825,1055358,1054718,1054825,2524,Flanker Task,120,63638,140,yes,1024
85.10638298,85.10638298,454.070922,454.070922,black,legacy,legacy,legacy,0,Incongruent,uniform,0,undefined,0,h,0,0,0,140,140,0,140,140,0,0,0,140,140,140,140,0,Fri Sep 16 11:45:03 2022,600,The main experiment item,yes,FlankerTask.osexp,C:/Users/SW_AHarper/Documents,no,mono,no,18,no,white,no,yes,768,legacy,60,79,C:/Users/SW_AHarper/Documents/AH-subject-1.csv,legacy,Lentiform Loewenfeld,3.3.12,0,s,NA,s,NA,s,s,386,NA,2158,NA,810714,386,2,legacy,1024,2,48000,-16,experiment,SSHSS,1,odd,4687,NA,950654,1053149,1031293,NA,1056444,1055374,2528,NA,139939,1056547,1056934,1056440,1056547,2524,Flanker Task,120,64024,141,yes,1024
85.21126761,85.21126761,454.2183099,454.2183099,black,legacy,legacy,legacy,0,Incongruent,uniform,1,undefined,1,s,0,0,0,141,141,0,141,141,0,0,0,141,141,141,141,0,Fri Sep 16 11:45:03 2022,600,The main experiment item,yes,FlankerTask.osexp,C:/Users/SW_AHarper/Documents,no,mono,no,18,no,white,no,yes,768,legacy,61,79,C:/Users/SW_AHarper/Documents/AH-subject-1.csv,legacy,Lentiform Loewenfeld,3.3.12,0,s,NA,s,NA,s,s,475,NA,2158,NA,810714,475,2,legacy,1024,2,48000,-16,experiment,HHSHH,1,odd,4687,NA,950654,1056951,1031293,NA,1058523,1057454,2528,NA,139939,1058626,1059103,1058519,1058626,2524,Flanker Task,121,64499,142,yes,1024
85.31468531,85.31468531,454.3636364,454.3636364,black,legacy,legacy,legacy,0,Congruent,uniform,1,undefined,1,h,0,0,0,142,142,0,142,142,0,0,0,142,142,142,142,0,Fri Sep 16 11:45:03 2022,600,The main experiment item,yes,FlankerTask.osexp,C:/Users/SW_AHarper/Documents,no,mono,no,18,no,white,no,yes,768,legacy,62,79,C:/Users/SW_AHarper/Documents/AH-subject-1.csv,legacy,Lentiform Loewenfeld,3.3.12,0,h,NA,s,NA,s,h,475,NA,2158,NA,810714,475,2,legacy,1024,2,48000,-16,experiment,HHHHH,1,odd,4687,NA,950654,1056951,1031293,NA,1060187,1059119,2528,NA,139939,1060290,1060766,1060183,1060290,2524,Flanker Task,122,64974,143,yes,1024
85.41666667,85.41666667,454.3541667,454.3541667,black,legacy,legacy,legacy,0,Congruent,uniform,1,undefined,1,h,0,0,0,143,143,0,143,143,0,0,0,143,143,143,143,0,Fri Sep 16 11:45:03 2022,600,The main experiment item,yes,FlankerTask.osexp,C:/Users/SW_AHarper/Documents,no,mono,no,18,no,white,no,yes,768,legacy,63,79,C:/Users/SW_AHarper/Documents/AH-subject-1.csv,legacy,Lentiform Loewenfeld,3.3.12,0,h,NA,s,NA,s,h,453,NA,2158,NA,810714,453,2,legacy,1024,2,48000,-16,experiment,HHHHH,1,odd,4687,NA,950654,1056951,1031293,NA,1061841,1060772,2528,NA,139939,1061944,1062398,1061838,1061944,2524,Flanker Task,123,65427,144,yes,1024
85.51724138,85.51724138,454.0068966,454.0068966,black,legacy,legacy,legacy,0,Congruent,uniform,1,undefined,1,s,0,0,0,144,144,0,144,144,0,0,0,144,144,144,144,0,Fri Sep 16 11:45:03 2022,600,The main experiment item,yes,FlankerTask.osexp,C:/Users/SW_AHarper/Documents,no,mono,no,18,no,white,no,yes,768,legacy,64,79,C:/Users/SW_AHarper/Documents/AH-subject-1.csv,legacy,Lentiform Loewenfeld,3.3.12,0,s,NA,s,NA,s,s,404,NA,2158,NA,810714,404,2,legacy,1024,2,48000,-16,experiment,SSSSS,1,odd,4687,NA,950654,1056951,1031293,NA,1063473,1062404,2528,NA,139939,1063577,1063982,1063469,1063577,2524,Flanker Task,124,65831,145,yes,1024
85.61643836,85.61643836,453.9794521,453.9794521,black,legacy,legacy,legacy,0,Congruent,uniform,1,undefined,1,h,0,0,0,145,145,0,145,145,0,0,0,145,145,145,145,0,Fri Sep 16 11:45:03 2022,600,The main experiment item,yes,FlankerTask.osexp,C:/Users/SW_AHarper/Documents,no,mono,no,18,no,white,no,yes,768,legacy,65,79,C:/Users/SW_AHarper/Documents/AH-subject-1.csv,legacy,Lentiform Loewenfeld,3.3.12,0,h,NA,s,NA,s,h,450,NA,2158,NA,810714,450,2,legacy,1024,2,48000,-16,experiment,HHHHH,1,odd,4687,NA,950654,1056951,1031293,NA,1065068,1063998,2528,NA,139939,1065171,1065622,1065063,1065171,2524,Flanker Task,125,66281,146,yes,1024
85.71428571,85.71428571,453.3673469,453.3673469,black,legacy,legacy,legacy,0,Congruent,uniform,1,undefined,1,s,0,0,0,146,146,0,146,146,0,0,0,146,146,146,146,0,Fri Sep 16 11:45:03 2022,600,The main experiment item,yes,FlankerTask.osexp,C:/Users/SW_AHarper/Documents,no,mono,no,18,no,white,no,yes,768,legacy,66,79,C:/Users/SW_AHarper/Documents/AH-subject-1.csv,legacy,Lentiform Loewenfeld,3.3.12,0,s,NA,s,NA,s,s,364,NA,2158,NA,810714,364,2,legacy,1024,2,48000,-16,experiment,SSSSS,1,odd,4687,NA,950654,1056951,1031293,NA,1066706,1065639,2528,NA,139939,1066809,1067174,1066703,1066809,2524,Flanker Task,126,66645,147,yes,1024
85.81081081,85.81081081,453.1959459,453.1959459,black,legacy,legacy,legacy,0,Congruent,uniform,1,undefined,1,h,0,0,0,147,147,0,147,147,0,0,0,147,147,147,147,0,Fri Sep 16 11:45:03 2022,600,The main experiment item,yes,FlankerTask.osexp,C:/Users/SW_AHarper/Documents,no,mono,no,18,no,white,no,yes,768,legacy,67,79,C:/Users/SW_AHarper/Documents/AH-subject-1.csv,legacy,Lentiform Loewenfeld,3.3.12,0,h,NA,s,NA,s,h,428,NA,2158,NA,810714,428,2,legacy,1024,2,48000,-16,experiment,HHHHH,1,odd,4687,NA,950654,1056951,1031293,NA,1068250,1067180,2528,NA,139939,1068353,1068782,1068246,1068353,2524,Flanker Task,127,67073,148,yes,1024
85.90604027,85.90604027,452.4765101,452.4765101,black,legacy,legacy,legacy,0,Congruent,uniform,1,undefined,1,s,0,0,0,148,148,0,148,148,0,0,0,148,148,148,148,0,Fri Sep 16 11:45:03 2022,600,The main experiment item,yes,FlankerTask.osexp,C:/Users/SW_AHarper/Documents,no,mono,no,18,no,white,no,yes,768,legacy,68,79,C:/Users/SW_AHarper/Documents/AH-subject-1.csv,legacy,Lentiform Loewenfeld,3.3.12,0,s,NA,s,NA,s,s,346,NA,2158,NA,810714,346,2,legacy,1024,2,48000,-16,experiment,SSSSS,1,odd,4687,NA,950654,1056951,1031293,NA,1069868,1068798,2528,NA,139939,1069971,1070318,1069864,1069971,2524,Flanker Task,128,67419,149,yes,1024
86,86,451.9933333,451.9933333,black,legacy,legacy,legacy,0,Congruent,uniform,1,undefined,1,s,0,0,0,149,149,0,149,149,0,0,0,149,149,149,149,0,Fri Sep 16 11:45:03 2022,600,The main experiment item,yes,FlankerTask.osexp,C:/Users/SW_AHarper/Documents,no,mono,no,18,no,white,no,yes,768,legacy,69,79,C:/Users/SW_AHarper/Documents/AH-subject-1.csv,legacy,Lentiform Loewenfeld,3.3.12,0,s,NA,s,NA,s,s,380,NA,2158,NA,810714,380,2,legacy,1024,2,48000,-16,experiment,SSSSS,1,odd,4687,NA,950654,1056951,1031293,NA,1071402,1070334,2528,NA,139939,1071505,1071886,1071398,1071505,2524,Flanker Task,129,67799,150,yes,1024
86.09271523,86.09271523,451.4039735,451.4039735,black,legacy,legacy,legacy,0,Congruent,uniform,1,undefined,1,s,0,0,0,150,150,0,150,150,0,0,0,150,150,150,150,0,Fri Sep 16 11:45:03 2022,600,The main experiment item,yes,FlankerTask.osexp,C:/Users/SW_AHarper/Documents,no,mono,no,18,no,white,no,yes,768,legacy,70,79,C:/Users/SW_AHarper/Documents/AH-subject-1.csv,legacy,Lentiform Loewenfeld,3.3.12,0,s,NA,s,NA,s,s,363,NA,2158,NA,810714,363,2,legacy,1024,2,48000,-16,experiment,SSSSS,1,odd,4687,NA,950654,1056951,1031293,NA,1072971,1071902,2528,NA,139939,1073074,1073438,1072967,1073074,2524,Flanker Task,130,68162,151,yes,1024
85.52631579,85.52631579,450.7039474,450.7039474,black,legacy,legacy,legacy,0,Incongruent,uniform,0,undefined,0,h,0,0,0,151,151,0,151,151,0,0,0,151,151,151,151,0,Fri Sep 16 11:45:03 2022,600,The main experiment item,yes,FlankerTask.osexp,C:/Users/SW_AHarper/Documents,no,mono,no,18,no,white,no,yes,768,legacy,71,79,C:/Users/SW_AHarper/Documents/AH-subject-1.csv,legacy,Lentiform Loewenfeld,3.3.12,0,s,NA,s,NA,s,s,345,NA,2158,NA,810714,345,2,legacy,1024,2,48000,-16,experiment,SSHSS,1,odd,4687,NA,950654,1056951,1031293,NA,1074533,1073453,2528,NA,139939,1074636,1074982,1074529,1074636,2524,Flanker Task,130,68507,152,yes,1024
85.62091503,85.62091503,450.3333333,450.3333333,black,legacy,legacy,legacy,0,Incongruent,uniform,1,undefined,1,s,0,0,0,152,152,0,152,152,0,0,0,152,152,152,152,0,Fri Sep 16 11:45:03 2022,600,The main experiment item,yes,FlankerTask.osexp,C:/Users/SW_AHarper/Documents,no,mono,no,18,no,white,no,yes,768,legacy,72,79,C:/Users/SW_AHarper/Documents/AH-subject-1.csv,legacy,Lentiform Loewenfeld,3.3.12,0,s,NA,s,NA,s,s,394,NA,2158,NA,810714,394,2,legacy,1024,2,48000,-16,experiment,HHSHH,1,odd,4687,NA,950654,1074998,1031293,NA,1076572,1075501,2528,NA,139939,1076675,1077070,1076567,1076675,2524,Flanker Task,131,68901,153,yes,1024
85.71428571,85.71428571,451.012987,451.012987,black,legacy,legacy,legacy,0,Incongruent,uniform,1,undefined,1,h,0,0,0,153,153,0,153,153,0,0,0,153,153,153,153,0,Fri Sep 16 11:45:03 2022,600,The main experiment item,yes,FlankerTask.osexp,C:/Users/SW_AHarper/Documents,no,mono,no,18,no,white,no,yes,768,legacy,73,79,C:/Users/SW_AHarper/Documents/AH-subject-1.csv,legacy,Lentiform Loewenfeld,3.3.12,0,h,NA,s,NA,s,h,555,NA,2158,NA,810714,555,2,legacy,1024,2,48000,-16,experiment,SSHSS,1,odd,4687,NA,950654,1074998,1031293,NA,1078155,1077086,2528,NA,139939,1078258,1078815,1078152,1078258,2524,Flanker Task,132,69456,154,yes,1024
85.80645161,85.80645161,450.2258065,450.2258065,black,legacy,legacy,legacy,0,Congruent,uniform,1,undefined,1,s,0,0,0,154,154,0,154,154,0,0,0,154,154,154,154,0,Fri Sep 16 11:45:03 2022,600,The main experiment item,yes,FlankerTask.osexp,C:/Users/SW_AHarper/Documents,no,mono,no,18,no,white,no,yes,768,legacy,74,79,C:/Users/SW_AHarper/Documents/AH-subject-1.csv,legacy,Lentiform Loewenfeld,3.3.12,0,s,NA,s,NA,s,s,329,NA,2158,NA,810714,329,2,legacy,1024,2,48000,-16,experiment,SSSSS,1,odd,4687,NA,950654,1074998,1031293,NA,1079901,1078832,2528,NA,139939,1080004,1080334,1079897,1080004,2524,Flanker Task,133,69785,155,yes,1024
85.8974359,85.8974359,449.6602564,449.6602564,black,legacy,legacy,legacy,0,Incongruent,uniform,1,undefined,1,s,0,0,0,155,155,0,155,155,0,0,0,155,155,155,155,0,Fri Sep 16 11:45:03 2022,600,The main experiment item,yes,FlankerTask.osexp,C:/Users/SW_AHarper/Documents,no,mono,no,18,no,white,no,yes,768,legacy,75,79,C:/Users/SW_AHarper/Documents/AH-subject-1.csv,legacy,Lentiform Loewenfeld,3.3.12,0,s,NA,s,NA,s,s,362,NA,2158,NA,810714,362,2,legacy,1024,2,48000,-16,experiment,HHSHH,1,odd,4687,NA,950654,1074998,1031293,NA,1081420,1080350,2528,NA,139939,1081523,1081886,1081416,1081523,2524,Flanker Task,134,70147,156,yes,1024
85.98726115,85.98726115,450.5286624,450.5286624,black,legacy,legacy,legacy,0,Incongruent,uniform,1,undefined,1,h,0,0,0,156,156,0,156,156,0,0,0,156,156,156,156,0,Fri Sep 16 11:45:03 2022,600,The main experiment item,yes,FlankerTask.osexp,C:/Users/SW_AHarper/Documents,no,mono,no,18,no,white,no,yes,768,legacy,76,79,C:/Users/SW_AHarper/Documents/AH-subject-1.csv,legacy,Lentiform Loewenfeld,3.3.12,0,h,NA,s,NA,s,h,586,NA,2158,NA,810714,586,2,legacy,1024,2,48000,-16,experiment,SSHSS,1,odd,4687,NA,950654,1074998,1031293,NA,1082972,1081902,2528,NA,139939,1083075,1083662,1082968,1083075,2524,Flanker Task,135,70733,157,yes,1024
85.44303797,85.44303797,449.6202532,449.6202532,black,legacy,legacy,legacy,0,Incongruent,uniform,0,undefined,0,h,0,0,0,157,157,0,157,157,0,0,0,157,157,157,157,0,Fri Sep 16 11:45:03 2022,600,The main experiment item,yes,FlankerTask.osexp,C:/Users/SW_AHarper/Documents,no,mono,no,18,no,white,no,yes,768,legacy,77,79,C:/Users/SW_AHarper/Documents/AH-subject-1.csv,legacy,Lentiform Loewenfeld,3.3.12,0,s,NA,s,NA,s,s,307,NA,2158,NA,810714,307,2,legacy,1024,2,48000,-16,experiment,SSHSS,1,odd,4687,NA,950654,1074998,1031293,NA,1084747,1083678,2528,NA,139939,1084850,1085158,1084743,1084850,2524,Flanker Task,135,71040,158,yes,1024
85.53459119,85.53459119,448.7798742,448.7798742,black,legacy,legacy,legacy,0,Incongruent,uniform,1,undefined,1,s,0,0,0,158,158,0,158,158,0,0,0,158,158,158,158,0,Fri Sep 16 11:45:03 2022,600,The main experiment item,yes,FlankerTask.osexp,C:/Users/SW_AHarper/Documents,no,mono,no,18,no,white,no,yes,768,legacy,78,79,C:/Users/SW_AHarper/Documents/AH-subject-1.csv,legacy,Lentiform Loewenfeld,3.3.12,0,s,NA,s,NA,s,s,316,NA,2158,NA,810714,316,2,legacy,1024,2,48000,-16,experiment,HHSHH,1,odd,4687,NA,950654,1085173,1031293,NA,1086745,1085676,2528,NA,139939,1086848,1087166,1086741,1086848,2524,Flanker Task,136,71356,159,yes,1024
85.625,85.625,448.7,448.7,black,legacy,legacy,legacy,0,Congruent,uniform,1,undefined,1,s,0,0,0,159,159,0,159,159,0,0,0,159,159,159,159,0,Fri Sep 16 11:45:03 2022,600,The main experiment item,yes,FlankerTask.osexp,C:/Users/SW_AHarper/Documents,no,mono,no,18,no,white,no,yes,768,legacy,79,79,C:/Users/SW_AHarper/Documents/AH-subject-1.csv,legacy,Lentiform Loewenfeld,3.3.12,0,s,NA,s,NA,s,s,436,NA,2158,NA,810714,436,2,legacy,1024,2,48000,-16,experiment,SSSSS,1,odd,4687,NA,950654,1085173,1031293,NA,1088250,1087182,2528,NA,139939,1088353,1088790,1088246,1088353,2524,Flanker Task,137,71792,160,yes,1024
85.0931677,85.0931677,448.9254658,448.9254658,black,legacy,legacy,legacy,0,Incongruent,uniform,0,undefined,0,s,0,0,0,160,160,0,160,160,0,0,0,160,160,160,160,0,Fri Sep 16 11:45:03 2022,300,The main experiment item,yes,FlankerTask.osexp,C:/Users/SW_AHarper/Documents,no,mono,no,18,no,white,no,yes,768,legacy,0,79,C:/Users/SW_AHarper/Documents/AH-subject-1.csv,legacy,Lentiform Loewenfeld,3.3.12,0,h,NA,s,s,s,h,485,NA,2158,595294,810714,485,2,legacy,1024,2,48000,-16,experiment,HHSHH,1,odd,4687,1685118,950654,1085173,1031293,NA,1685199,1088797,2528,1089823,139939,1685303,1685789,1685196,1685303,2524,Flanker Task,137,72277,161,yes,1024
85.18518519,85.18518519,448.7469136,448.7469136,black,legacy,legacy,legacy,0,Incongruent,uniform,1,undefined,1,s,0,0,0,161,161,0,161,161,0,0,0,161,161,161,161,0,Fri Sep 16 11:45:03 2022,300,The main experiment item,yes,FlankerTask.osexp,C:/Users/SW_AHarper/Documents,no,mono,no,18,no,white,no,yes,768,legacy,1,79,C:/Users/SW_AHarper/Documents/AH-subject-1.csv,legacy,Lentiform Loewenfeld,3.3.12,0,s,NA,s,s,s,s,420,NA,2158,595294,810714,420,2,legacy,1024,2,48000,-16,experiment,HHSHH,1,odd,4687,1685118,950654,1685796,1686300,NA,1687873,1686803,2528,1089823,139939,1687976,1688397,1687869,1687976,2524,Flanker Task,138,72697,162,yes,1024
85.27607362,85.27607362,448.208589,448.208589,black,legacy,legacy,legacy,0,Congruent,uniform,1,undefined,1,h,0,0,0,162,162,0,162,162,0,0,0,162,162,162,162,0,Fri Sep 16 11:45:03 2022,300,The main experiment item,yes,FlankerTask.osexp,C:/Users/SW_AHarper/Documents,no,mono,no,18,no,white,no,yes,768,legacy,2,79,C:/Users/SW_AHarper/Documents/AH-subject-1.csv,legacy,Lentiform Loewenfeld,3.3.12,0,h,NA,s,s,s,h,361,NA,2158,595294,810714,361,2,legacy,1024,2,48000,-16,experiment,HHHHH,1,odd,4687,1685118,950654,1685796,1688413,NA,1689988,1688916,2528,1089823,139939,1690091,1690453,1689984,1690091,2524,Flanker Task,139,73058,163,yes,1024
85.36585366,85.36585366,447.3902439,447.3902439,black,legacy,legacy,legacy,0,Congruent,uniform,1,undefined,1,s,0,0,0,163,163,0,163,163,0,0,0,163,163,163,163,0,Fri Sep 16 11:45:03 2022,300,The main experiment item,yes,FlankerTask.osexp,C:/Users/SW_AHarper/Documents,no,mono,no,18,no,white,no,yes,768,legacy,3,79,C:/Users/SW_AHarper/Documents/AH-subject-1.csv,legacy,Lentiform Loewenfeld,3.3.12,0,s,NA,s,s,s,s,314,NA,2158,595294,810714,314,2,legacy,1024,2,48000,-16,experiment,SSSSS,1,odd,4687,1685118,950654,1685796,1690471,NA,1692043,1690974,2528,1089823,139939,1692146,1692461,1692039,1692146,2524,Flanker Task,140,73372,164,yes,1024
