"acc","accuracy","average_response_time","avg_rt","background","canvas_backend","clock_backend","color_backend","compensation","condition","coordinates","correct","correct_instructions1","correct_keyboard_response","correct_response","count_Block1","count_Block2","count_Block3","count_ISI","count_errorfeedback","count_experiment","count_faster","count_finish","count_fixation","count_instructions1","count_instructions2","count_instructions3","count_keyboard_response","count_logger","count_sequence","count_stimulus","datetime","deadline","description","disable_garbage_collection","experiment_file","experiment_path","font_bold","font_family","font_italic","font_size","font_underline","foreground","form_clicks","fullscreen","height","keyboard_backend","live_row","live_row_Block1","logfile","mouse_backend","opensesame_codename","opensesame_version","repeat_cycle","response","response_finish","response_instructions1","response_instructions2","response_instructions3","response_keyboard_response","response_time","response_time_finish","response_time_instructions1","response_time_instructions2","response_time_instructions3","response_time_keyboard_response","round_decimals","sampler_backend","sound_buf_size","sound_channels","sound_freq","sound_sample_size","start","stimulus","subject_nr","subject_parity","time_Block1","time_Block2","time_Block3","time_ISI","time_errorfeedback","time_experiment","time_faster","time_finish","time_fixation","time_instructions1","time_instructions2","time_instructions3","time_keyboard_response","time_logger","time_sequence","time_stimulus","title","total_correct","total_response_time","total_responses","uniform_coordinates","width"
"100","100","607","607","black","legacy","legacy","legacy","0","congruent","uniform","1","undefined","1","h","0","0","0","0","0","0","0","0","0","0","0","0","0","0","0","0","Mon Sep 19 12:56:51 2022","1500","The main experiment item","yes","FlankerTask.osexp","C:/Users/lil_p/OneDrive/Documents/School/Advanced Quantitative Analysis/Lab 2.1","no","mono","no","18","no","white","no","yes","768","legacy","0","0","C:/Users/lil_p/OneDrive/Documents/School/Advanced Quantitative Analysis/Lab 2.1/dm-subject-1.csv","legacy","Lentiform Loewenfeld","3.3.12","0","h","NA","h","NA","NA","h","607","NA","201048","NA","NA","607","2","legacy","1024","2","48000","-16","experiment","HHHHH","1","odd","208151","NA","NA","NA","NA","7087","NA","NA","208315","7101","NA","NA","208419","209027","208312","208419","Flanker Task","1","607","1","yes","1024"
"100","100","597.5","597.5","black","legacy","legacy","legacy","0","incongruent","uniform","1","undefined","1","h","0","0","0","1","1","0","1","0","1","0","0","0","1","1","1","1","Mon Sep 19 12:56:51 2022","1500","The main experiment item","yes","FlankerTask.osexp","C:/Users/lil_p/OneDrive/Documents/School/Advanced Quantitative Analysis/Lab 2.1","no","mono","no","18","no","white","no","yes","768","legacy","1","1","C:/Users/lil_p/OneDrive/Documents/School/Advanced Quantitative Analysis/Lab 2.1/dm-subject-1.csv","legacy","Lentiform Loewenfeld","3.3.12","0","h","NA","h","NA","NA","h","588","NA","201048","NA","NA","588","2","legacy","1024","2","48000","-16","experiment","SSHSS","1","odd","208151","NA","NA","209040","NA","7087","NA","NA","210219","7101","NA","NA","210322","210911","210216","210322","Flanker Task","2","1195","2","yes","1024"
"100","100","546","546","black","legacy","legacy","legacy","0","congruent","uniform","1","undefined","1","s","0","0","0","2","2","0","2","0","2","0","0","0","2","2","2","2","Mon Sep 19 12:56:51 2022","1500","The main experiment item","yes","FlankerTask.osexp","C:/Users/lil_p/OneDrive/Documents/School/Advanced Quantitative Analysis/Lab 2.1","no","mono","no","18","no","white","no","yes","768","legacy","2","2","C:/Users/lil_p/OneDrive/Documents/School/Advanced Quantitative Analysis/Lab 2.1/dm-subject-1.csv","legacy","Lentiform Loewenfeld","3.3.12","0","s","NA","h","NA","NA","s","443","NA","201048","NA","NA","443","2","legacy","1024","2","48000","-16","experiment","SSSSS","1","odd","208151","NA","NA","210916","NA","7087","NA","NA","212079","7101","NA","NA","212182","212626","212076","212182","Flanker Task","3","1638","3","yes","1024"
"100","100","523","523","black","legacy","legacy","legacy","0","congruent","uniform","1","undefined","1","s","0","0","0","3","3","0","3","0","3","0","0","0","3","3","3","3","Mon Sep 19 12:56:51 2022","1500","The main experiment item","yes","FlankerTask.osexp","C:/Users/lil_p/OneDrive/Documents/School/Advanced Quantitative Analysis/Lab 2.1","no","mono","no","18","no","white","no","yes","768","legacy","3","3","C:/Users/lil_p/OneDrive/Documents/School/Advanced Quantitative Analysis/Lab 2.1/dm-subject-1.csv","legacy","Lentiform Loewenfeld","3.3.12","0","s","NA","h","NA","NA","s","454","NA","201048","NA","NA","454","2","legacy","1024","2","48000","-16","experiment","SSSSS","1","odd","208151","NA","NA","212633","NA","7087","NA","NA","213811","7101","NA","NA","213913","214368","213807","213913","Flanker Task","4","2092","4","yes","1024"
"100","100","621.8","621.8","black","legacy","legacy","legacy","0","incongruent","uniform","1","undefined","1","h","0","0","0","4","4","0","4","0","4","0","0","0","4","4","4","4","Mon Sep 19 12:56:51 2022","1500","The main experiment item","yes","FlankerTask.osexp","C:/Users/lil_p/OneDrive/Documents/School/Advanced Quantitative Analysis/Lab 2.1","no","mono","no","18","no","white","no","yes","768","legacy","4","4","C:/Users/lil_p/OneDrive/Documents/School/Advanced Quantitative Analysis/Lab 2.1/dm-subject-1.csv","legacy","Lentiform Loewenfeld","3.3.12","0","h","NA","h","NA","NA","h","1017","NA","201048","NA","NA","1017","2","legacy","1024","2","48000","-16","experiment","SSHSS","1","odd","208151","NA","NA","214374","NA","7087","NA","NA","215544","7101","NA","NA","215647","216665","215541","215646","Flanker Task","5","3109","5","yes","1024"
"100","100","632.1666666666666","632.1666666666666","black","legacy","legacy","legacy","0","congruent","uniform","1","undefined","1","s","0","0","0","5","5","0","5","0","5","0","0","0","5","5","5","5","Mon Sep 19 12:56:51 2022","1500","The main experiment item","yes","FlankerTask.osexp","C:/Users/lil_p/OneDrive/Documents/School/Advanced Quantitative Analysis/Lab 2.1","no","mono","no","18","no","white","no","yes","768","legacy","5","5","C:/Users/lil_p/OneDrive/Documents/School/Advanced Quantitative Analysis/Lab 2.1/dm-subject-1.csv","legacy","Lentiform Loewenfeld","3.3.12","0","s","NA","h","NA","NA","s","684","NA","201048","NA","NA","684","2","legacy","1024","2","48000","-16","experiment","SSSSS","1","odd","208151","NA","NA","216671","NA","7087","NA","NA","217839","7101","NA","NA","217941","218626","217835","217941","Flanker Task","6","3793","6","yes","1024"
"100","100","614.8571428571429","614.8571428571429","black","legacy","legacy","legacy","0","congruent","uniform","1","undefined","1","h","0","0","0","6","6","0","6","0","6","0","0","0","6","6","6","6","Mon Sep 19 12:56:51 2022","1500","The main experiment item","yes","FlankerTask.osexp","C:/Users/lil_p/OneDrive/Documents/School/Advanced Quantitative Analysis/Lab 2.1","no","mono","no","18","no","white","no","yes","768","legacy","6","6","C:/Users/lil_p/OneDrive/Documents/School/Advanced Quantitative Analysis/Lab 2.1/dm-subject-1.csv","legacy","Lentiform Loewenfeld","3.3.12","0","h","NA","h","NA","NA","h","511","NA","201048","NA","NA","511","2","legacy","1024","2","48000","-16","experiment","HHHHH","1","odd","208151","NA","NA","218633","NA","7087","NA","NA","219815","7101","NA","NA","219917","220429","219812","219917","Flanker Task","7","4304","7","yes","1024"
"100","100","601.875","601.875","black","legacy","legacy","legacy","0","congruent","uniform","1","undefined","1","s","0","0","0","7","7","0","7","0","7","0","0","0","7","7","7","7","Mon Sep 19 12:56:51 2022","1500","The main experiment item","yes","FlankerTask.osexp","C:/Users/lil_p/OneDrive/Documents/School/Advanced Quantitative Analysis/Lab 2.1","no","mono","no","18","no","white","no","yes","768","legacy","7","7","C:/Users/lil_p/OneDrive/Documents/School/Advanced Quantitative Analysis/Lab 2.1/dm-subject-1.csv","legacy","Lentiform Loewenfeld","3.3.12","0","s","NA","h","NA","NA","s","511","NA","201048","NA","NA","511","2","legacy","1024","2","48000","-16","experiment","SSSSS","1","odd","208151","NA","NA","220438","NA","7087","NA","NA","221610","7101","NA","NA","221713","222225","221606","221713","Flanker Task","8","4815","8","yes","1024"
"100","100","584.4444444444445","584.4444444444445","black","legacy","legacy","legacy","0","congruent","uniform","1","undefined","1","s","0","0","0","8","8","0","8","0","8","0","0","0","8","8","8","8","Mon Sep 19 12:56:51 2022","1500","The main experiment item","yes","FlankerTask.osexp","C:/Users/lil_p/OneDrive/Documents/School/Advanced Quantitative Analysis/Lab 2.1","no","mono","no","18","no","white","no","yes","768","legacy","8","8","C:/Users/lil_p/OneDrive/Documents/School/Advanced Quantitative Analysis/Lab 2.1/dm-subject-1.csv","legacy","Lentiform Loewenfeld","3.3.12","0","s","NA","h","NA","NA","s","445","NA","201048","NA","NA","445","2","legacy","1024","2","48000","-16","experiment","SSSSS","1","odd","208151","NA","NA","222234","NA","7087","NA","NA","223415","7101","NA","NA","223518","223963","223411","223518","Flanker Task","9","5260","9","yes","1024"
"100","100","580.5","580.5","black","legacy","legacy","legacy","0","incongruent","uniform","1","undefined","1","h","0","0","0","9","9","0","9","0","9","0","0","0","9","9","9","9","Mon Sep 19 12:56:51 2022","1500","The main experiment item","yes","FlankerTask.osexp","C:/Users/lil_p/OneDrive/Documents/School/Advanced Quantitative Analysis/Lab 2.1","no","mono","no","18","no","white","no","yes","768","legacy","9","9","C:/Users/lil_p/OneDrive/Documents/School/Advanced Quantitative Analysis/Lab 2.1/dm-subject-1.csv","legacy","Lentiform Loewenfeld","3.3.12","0","h","NA","h","NA","NA","h","545","NA","201048","NA","NA","545","2","legacy","1024","2","48000","-16","experiment","SSHSS","1","odd","208151","NA","NA","223995","NA","7087","NA","NA","225159","7101","NA","NA","225262","225808","225154","225262","Flanker Task","10","5805","10","yes","1024"
"100","100","569.4545454545455","569.4545454545455","black","legacy","legacy","legacy","0","congruent","uniform","1","undefined","1","h","0","0","0","10","10","0","10","0","10","0","0","0","10","10","10","10","Mon Sep 19 12:56:51 2022","1500","The main experiment item","yes","FlankerTask.osexp","C:/Users/lil_p/OneDrive/Documents/School/Advanced Quantitative Analysis/Lab 2.1","no","mono","no","18","no","white","no","yes","768","legacy","10","10","C:/Users/lil_p/OneDrive/Documents/School/Advanced Quantitative Analysis/Lab 2.1/dm-subject-1.csv","legacy","Lentiform Loewenfeld","3.3.12","0","h","NA","h","NA","NA","h","459","NA","201048","NA","NA","459","2","legacy","1024","2","48000","-16","experiment","HHHHH","1","odd","208151","NA","NA","225820","NA","7087","NA","NA","226991","7101","NA","NA","227094","227556","226987","227093","Flanker Task","11","6264","11","yes","1024"
"100","100","567.4166666666666","567.4166666666666","black","legacy","legacy","legacy","0","inconguent","uniform","1","undefined","1","s","0","0","0","11","11","0","11","0","11","0","0","0","11","11","11","11","Mon Sep 19 12:56:51 2022","1500","The main experiment item","yes","FlankerTask.osexp","C:/Users/lil_p/OneDrive/Documents/School/Advanced Quantitative Analysis/Lab 2.1","no","mono","no","18","no","white","no","yes","768","legacy","11","11","C:/Users/lil_p/OneDrive/Documents/School/Advanced Quantitative Analysis/Lab 2.1/dm-subject-1.csv","legacy","Lentiform Loewenfeld","3.3.12","0","s","NA","h","NA","NA","s","545","NA","201048","NA","NA","545","2","legacy","1024","2","48000","-16","experiment","HHSHH","1","odd","208151","NA","NA","227568","NA","7087","NA","NA","228746","7101","NA","NA","228848","229394","228742","228848","Flanker Task","12","6809","12","yes","1024"
"92.3076923076923","92.3076923076923","564.9230769230769","564.9230769230769","black","legacy","legacy","legacy","0","congruent","uniform","0","undefined","0","h","0","0","0","12","12","0","12","0","12","0","0","0","12","12","12","12","Mon Sep 19 12:56:51 2022","1500","The main experiment item","yes","FlankerTask.osexp","C:/Users/lil_p/OneDrive/Documents/School/Advanced Quantitative Analysis/Lab 2.1","no","mono","no","18","no","white","no","yes","768","legacy","12","12","C:/Users/lil_p/OneDrive/Documents/School/Advanced Quantitative Analysis/Lab 2.1/dm-subject-1.csv","legacy","Lentiform Loewenfeld","3.3.12","0","s","NA","h","NA","NA","s","535","NA","201048","NA","NA","535","2","legacy","1024","2","48000","-16","experiment","HHHHH","1","odd","208151","NA","NA","229408","231210","7087","NA","NA","230569","7101","NA","NA","230671","231712","230565","230671","Flanker Task","12","7344","13","yes","1024"
"92.85714285714286","92.85714285714286","557.2142857142857","557.2142857142857","black","legacy","legacy","legacy","0","congruent","uniform","1","undefined","1","h","0","0","0","13","13","0","13","0","13","0","0","0","13","13","13","13","Mon Sep 19 12:56:51 2022","1500","The main experiment item","yes","FlankerTask.osexp","C:/Users/lil_p/OneDrive/Documents/School/Advanced Quantitative Analysis/Lab 2.1","no","mono","no","18","no","white","no","yes","768","legacy","13","13","C:/Users/lil_p/OneDrive/Documents/School/Advanced Quantitative Analysis/Lab 2.1/dm-subject-1.csv","legacy","Lentiform Loewenfeld","3.3.12","0","h","NA","h","NA","NA","h","457","NA","201048","NA","NA","457","2","legacy","1024","2","48000","-16","experiment","HHHHH","1","odd","208151","NA","NA","231733","231210","7087","NA","NA","233012","7101","NA","NA","233116","233578","233009","233116","Flanker Task","13","7801","14","yes","1024"
"93.33333333333333","93.33333333333333","561.2666666666667","561.2666666666667","black","legacy","legacy","legacy","0","incongruent","uniform","1","undefined","1","h","0","0","0","14","14","0","14","0","14","0","0","0","14","14","14","14","Mon Sep 19 12:56:51 2022","1500","The main experiment item","yes","FlankerTask.osexp","C:/Users/lil_p/OneDrive/Documents/School/Advanced Quantitative Analysis/Lab 2.1","no","mono","no","18","no","white","no","yes","768","legacy","14","14","C:/Users/lil_p/OneDrive/Documents/School/Advanced Quantitative Analysis/Lab 2.1/dm-subject-1.csv","legacy","Lentiform Loewenfeld","3.3.12","0","h","NA","h","NA","NA","h","618","NA","201048","NA","NA","618","2","legacy","1024","2","48000","-16","experiment","SSHSS","1","odd","208151","NA","NA","233593","231210","7087","NA","NA","234769","7101","NA","NA","234871","235494","234765","234871","Flanker Task","14","8419","15","yes","1024"
"93.75","93.75","556.125","556.125","black","legacy","legacy","legacy","0","incongruent","uniform","1","undefined","1","h","0","0","0","15","15","0","15","0","15","0","0","0","15","15","15","15","Mon Sep 19 12:56:51 2022","1500","The main experiment item","yes","FlankerTask.osexp","C:/Users/lil_p/OneDrive/Documents/School/Advanced Quantitative Analysis/Lab 2.1","no","mono","no","18","no","white","no","yes","768","legacy","15","15","C:/Users/lil_p/OneDrive/Documents/School/Advanced Quantitative Analysis/Lab 2.1/dm-subject-1.csv","legacy","Lentiform Loewenfeld","3.3.12","0","h","NA","h","NA","NA","h","479","NA","201048","NA","NA","479","2","legacy","1024","2","48000","-16","experiment","SSHSS","1","odd","208151","NA","NA","235523","231210","7087","NA","NA","236706","7101","NA","NA","236808","237287","236703","236808","Flanker Task","15","8898","16","yes","1024"
"94.11764705882354","94.11764705882354","548.1764705882352","548.1764705882352","black","legacy","legacy","legacy","0","congruent","uniform","1","undefined","1","h","0","0","0","16","16","0","16","0","16","0","0","0","16","16","16","16","Mon Sep 19 12:56:51 2022","1500","The main experiment item","yes","FlankerTask.osexp","C:/Users/lil_p/OneDrive/Documents/School/Advanced Quantitative Analysis/Lab 2.1","no","mono","no","18","no","white","no","yes","768","legacy","16","16","C:/Users/lil_p/OneDrive/Documents/School/Advanced Quantitative Analysis/Lab 2.1/dm-subject-1.csv","legacy","Lentiform Loewenfeld","3.3.12","0","h","NA","h","NA","NA","h","421","NA","201048","NA","NA","421","2","legacy","1024","2","48000","-16","experiment","HHHHH","1","odd","208151","NA","NA","237310","231210","7087","NA","NA","238487","7101","NA","NA","238590","239012","238483","238589","Flanker Task","16","9319","17","yes","1024"
"94.44444444444444","94.44444444444444","541.5555555555555","541.5555555555555","black","legacy","legacy","legacy","0","congruent","uniform","1","undefined","1","s","0","0","0","17","17","0","17","0","17","0","0","0","17","17","17","17","Mon Sep 19 12:56:51 2022","1500","The main experiment item","yes","FlankerTask.osexp","C:/Users/lil_p/OneDrive/Documents/School/Advanced Quantitative Analysis/Lab 2.1","no","mono","no","18","no","white","no","yes","768","legacy","17","17","C:/Users/lil_p/OneDrive/Documents/School/Advanced Quantitative Analysis/Lab 2.1/dm-subject-1.csv","legacy","Lentiform Loewenfeld","3.3.12","0","s","NA","h","NA","NA","s","429","NA","201048","NA","NA","429","2","legacy","1024","2","48000","-16","experiment","SSSSS","1","odd","208151","NA","NA","239026","231210","7087","NA","NA","240197","7101","NA","NA","240299","240730","240193","240299","Flanker Task","17","9748","18","yes","1024"
"94.73684210526316","94.73684210526316","534.4736842105264","534.4736842105264","black","legacy","legacy","legacy","0","congruent","uniform","1","undefined","1","h","0","0","0","18","18","0","18","0","18","0","0","0","18","18","18","18","Mon Sep 19 12:56:51 2022","1500","The main experiment item","yes","FlankerTask.osexp","C:/Users/lil_p/OneDrive/Documents/School/Advanced Quantitative Analysis/Lab 2.1","no","mono","no","18","no","white","no","yes","768","legacy","18","18","C:/Users/lil_p/OneDrive/Documents/School/Advanced Quantitative Analysis/Lab 2.1/dm-subject-1.csv","legacy","Lentiform Loewenfeld","3.3.12","0","h","NA","h","NA","NA","h","407","NA","201048","NA","NA","407","2","legacy","1024","2","48000","-16","experiment","HHHHH","1","odd","208151","NA","NA","240737","231210","7087","NA","NA","241896","7101","NA","NA","241998","242408","241892","241998","Flanker Task","18","10155","19","yes","1024"
"95","95","530.9","530.9","black","legacy","legacy","legacy","0","congruent","uniform","1","undefined","1","s","0","0","0","19","19","0","19","0","19","0","0","0","19","19","19","19","Mon Sep 19 12:56:51 2022","1500","The main experiment item","yes","FlankerTask.osexp","C:/Users/lil_p/OneDrive/Documents/School/Advanced Quantitative Analysis/Lab 2.1","no","mono","no","18","no","white","no","yes","768","legacy","19","19","C:/Users/lil_p/OneDrive/Documents/School/Advanced Quantitative Analysis/Lab 2.1/dm-subject-1.csv","legacy","Lentiform Loewenfeld","3.3.12","0","s","NA","h","NA","NA","s","463","NA","201048","NA","NA","463","2","legacy","1024","2","48000","-16","experiment","SSSSS","1","odd","208151","NA","NA","242424","231210","7087","NA","NA","243602","7101","NA","NA","243704","244169","243598","243704","Flanker Task","19","10618","20","yes","1024"
"90.47619047619048","90.47619047619048","524.0952380952381","524.0952380952381","black","legacy","legacy","legacy","0","inconguent","uniform","0","undefined","0","s","0","0","0","20","20","0","20","0","20","0","0","0","20","20","20","20","Mon Sep 19 12:56:51 2022","1500","The main experiment item","yes","FlankerTask.osexp","C:/Users/lil_p/OneDrive/Documents/School/Advanced Quantitative Analysis/Lab 2.1","no","mono","no","18","no","white","no","yes","768","legacy","20","20","C:/Users/lil_p/OneDrive/Documents/School/Advanced Quantitative Analysis/Lab 2.1/dm-subject-1.csv","legacy","Lentiform Loewenfeld","3.3.12","0","h","NA","h","NA","NA","h","388","NA","201048","NA","NA","388","2","legacy","1024","2","48000","-16","experiment","HHSHH","1","odd","208151","NA","NA","244177","245857","7087","NA","NA","245361","7101","NA","NA","245465","246357","245357","245465","Flanker Task","19","11006","21","yes","1024"
"90.9090909090909","90.9090909090909","519.7272727272727","519.7272727272727","black","legacy","legacy","legacy","0","congruent","uniform","1","undefined","1","h","0","0","0","21","21","0","21","0","21","0","0","0","21","21","21","21","Mon Sep 19 12:56:51 2022","1500","The main experiment item","yes","FlankerTask.osexp","C:/Users/lil_p/OneDrive/Documents/School/Advanced Quantitative Analysis/Lab 2.1","no","mono","no","18","no","white","no","yes","768","legacy","21","21","C:/Users/lil_p/OneDrive/Documents/School/Advanced Quantitative Analysis/Lab 2.1/dm-subject-1.csv","legacy","Lentiform Loewenfeld","3.3.12","0","h","NA","h","NA","NA","h","428","NA","201048","NA","NA","428","2","legacy","1024","2","48000","-16","experiment","HHHHH","1","odd","208151","NA","NA","246364","245857","7087","NA","NA","247543","7101","NA","NA","247646","248075","247540","247646","Flanker Task","20","11434","22","yes","1024"
"91.30434782608695","91.30434782608695","516.0869565217391","516.0869565217391","black","legacy","legacy","legacy","0","congruent","uniform","1","undefined","1","s","0","0","0","22","22","0","22","0","22","0","0","0","22","22","22","22","Mon Sep 19 12:56:51 2022","1500","The main experiment item","yes","FlankerTask.osexp","C:/Users/lil_p/OneDrive/Documents/School/Advanced Quantitative Analysis/Lab 2.1","no","mono","no","18","no","white","no","yes","768","legacy","22","22","C:/Users/lil_p/OneDrive/Documents/School/Advanced Quantitative Analysis/Lab 2.1/dm-subject-1.csv","legacy","Lentiform Loewenfeld","3.3.12","0","s","NA","h","NA","NA","s","436","NA","201048","NA","NA","436","2","legacy","1024","2","48000","-16","experiment","SSSSS","1","odd","208151","NA","NA","248083","245857","7087","NA","NA","249235","7101","NA","NA","249337","249774","249231","249337","Flanker Task","21","11870","23","yes","1024"
"91.66666666666667","91.66666666666667","514.5833333333334","514.5833333333334","black","legacy","legacy","legacy","0","incongruent","uniform","1","undefined","1","h","0","0","0","23","23","0","23","0","23","0","0","0","23","23","23","23","Mon Sep 19 12:56:51 2022","1500","The main experiment item","yes","FlankerTask.osexp","C:/Users/lil_p/OneDrive/Documents/School/Advanced Quantitative Analysis/Lab 2.1","no","mono","no","18","no","white","no","yes","768","legacy","23","23","C:/Users/lil_p/OneDrive/Documents/School/Advanced Quantitative Analysis/Lab 2.1/dm-subject-1.csv","legacy","Lentiform Loewenfeld","3.3.12","0","h","NA","h","NA","NA","h","480","NA","201048","NA","NA","480","2","legacy","1024","2","48000","-16","experiment","SSHSS","1","odd","208151","NA","NA","249781","245857","7087","NA","NA","250946","7101","NA","NA","251049","251530","250942","251049","Flanker Task","22","12350","24","yes","1024"
"92","92","514.16","514.16","black","legacy","legacy","legacy","0","inconguent","uniform","1","undefined","1","s","0","0","0","24","24","0","24","0","24","0","0","0","24","24","24","24","Mon Sep 19 12:56:51 2022","1500","The main experiment item","yes","FlankerTask.osexp","C:/Users/lil_p/OneDrive/Documents/School/Advanced Quantitative Analysis/Lab 2.1","no","mono","no","18","no","white","no","yes","768","legacy","24","24","C:/Users/lil_p/OneDrive/Documents/School/Advanced Quantitative Analysis/Lab 2.1/dm-subject-1.csv","legacy","Lentiform Loewenfeld","3.3.12","0","s","NA","h","NA","NA","s","504","NA","201048","NA","NA","504","2","legacy","1024","2","48000","-16","experiment","HHSHH","1","odd","208151","NA","NA","251539","245857","7087","NA","NA","252696","7101","NA","NA","252799","253305","252692","252799","Flanker Task","23","12854","25","yes","1024"
"92.3076923076923","92.3076923076923","509.7307692307692","509.7307692307692","black","legacy","legacy","legacy","0","congruent","uniform","1","undefined","1","s","0","0","0","25","25","0","25","0","25","0","0","0","25","25","25","25","Mon Sep 19 12:56:51 2022","1500","The main experiment item","yes","FlankerTask.osexp","C:/Users/lil_p/OneDrive/Documents/School/Advanced Quantitative Analysis/Lab 2.1","no","mono","no","18","no","white","no","yes","768","legacy","25","25","C:/Users/lil_p/OneDrive/Documents/School/Advanced Quantitative Analysis/Lab 2.1/dm-subject-1.csv","legacy","Lentiform Loewenfeld","3.3.12","0","s","NA","h","NA","NA","s","399","NA","201048","NA","NA","399","2","legacy","1024","2","48000","-16","experiment","SSSSS","1","odd","208151","NA","NA","253312","245857","7087","NA","NA","254479","7101","NA","NA","254582","254983","254475","254581","Flanker Task","24","13253","26","yes","1024"
"92.5925925925926","92.5925925925926","505.9259259259259","505.9259259259259","black","legacy","legacy","legacy","0","incongruent","uniform","1","undefined","1","h","0","0","0","26","26","0","26","0","26","0","0","0","26","26","26","26","Mon Sep 19 12:56:51 2022","1500","The main experiment item","yes","FlankerTask.osexp","C:/Users/lil_p/OneDrive/Documents/School/Advanced Quantitative Analysis/Lab 2.1","no","mono","no","18","no","white","no","yes","768","legacy","26","26","C:/Users/lil_p/OneDrive/Documents/School/Advanced Quantitative Analysis/Lab 2.1/dm-subject-1.csv","legacy","Lentiform Loewenfeld","3.3.12","0","h","NA","h","NA","NA","h","407","NA","201048","NA","NA","407","2","legacy","1024","2","48000","-16","experiment","SSHSS","1","odd","208151","NA","NA","254989","245857","7087","NA","NA","256161","7101","NA","NA","256264","256672","256157","256264","Flanker Task","25","13660","27","yes","1024"
"92.85714285714286","92.85714285714286","504.2857142857143","504.2857142857143","black","legacy","legacy","legacy","0","incongruent","uniform","1","undefined","1","h","0","0","0","27","27","0","27","0","27","0","0","0","27","27","27","27","Mon Sep 19 12:56:51 2022","1500","The main experiment item","yes","FlankerTask.osexp","C:/Users/lil_p/OneDrive/Documents/School/Advanced Quantitative Analysis/Lab 2.1","no","mono","no","18","no","white","no","yes","768","legacy","27","27","C:/Users/lil_p/OneDrive/Documents/School/Advanced Quantitative Analysis/Lab 2.1/dm-subject-1.csv","legacy","Lentiform Loewenfeld","3.3.12","0","h","NA","h","NA","NA","h","460","NA","201048","NA","NA","460","2","legacy","1024","2","48000","-16","experiment","SSHSS","1","odd","208151","NA","NA","256682","245857","7087","NA","NA","257853","7101","NA","NA","257955","258416","257849","257955","Flanker Task","26","14120","28","yes","1024"
"89.65517241379311","89.65517241379311","501.6896551724138","501.6896551724138","black","legacy","legacy","legacy","0","inconguent","uniform","0","undefined","0","s","0","0","0","28","28","0","28","0","28","0","0","0","28","28","28","28","Mon Sep 19 12:56:51 2022","1500","The main experiment item","yes","FlankerTask.osexp","C:/Users/lil_p/OneDrive/Documents/School/Advanced Quantitative Analysis/Lab 2.1","no","mono","no","18","no","white","no","yes","768","legacy","28","28","C:/Users/lil_p/OneDrive/Documents/School/Advanced Quantitative Analysis/Lab 2.1/dm-subject-1.csv","legacy","Lentiform Loewenfeld","3.3.12","0","h","NA","h","NA","NA","h","429","NA","201048","NA","NA","429","2","legacy","1024","2","48000","-16","experiment","HHSHH","1","odd","208151","NA","NA","258424","260118","7087","NA","NA","259582","7101","NA","NA","259686","260618","259578","259686","Flanker Task","26","14549","29","yes","1024"
"90","90","500.9","500.9","black","legacy","legacy","legacy","0","congruent","uniform","1","undefined","1","s","0","0","0","29","29","0","29","0","29","0","0","0","29","29","29","29","Mon Sep 19 12:56:51 2022","1500","The main experiment item","yes","FlankerTask.osexp","C:/Users/lil_p/OneDrive/Documents/School/Advanced Quantitative Analysis/Lab 2.1","no","mono","no","18","no","white","no","yes","768","legacy","29","29","C:/Users/lil_p/OneDrive/Documents/School/Advanced Quantitative Analysis/Lab 2.1/dm-subject-1.csv","legacy","Lentiform Loewenfeld","3.3.12","0","s","NA","h","NA","NA","s","478","NA","201048","NA","NA","478","2","legacy","1024","2","48000","-16","experiment","SSSSS","1","odd","208151","NA","NA","260626","260118","7087","NA","NA","261784","7101","NA","NA","261887","262367","261780","261887","Flanker Task","27","15027","30","yes","1024"
"90.3225806451613","90.3225806451613","499.80645161290323","499.80645161290323","black","legacy","legacy","legacy","0","inconguent","uniform","1","undefined","1","s","0","0","0","30","30","0","30","0","30","0","0","0","30","30","30","30","Mon Sep 19 12:56:51 2022","1500","The main experiment item","yes","FlankerTask.osexp","C:/Users/lil_p/OneDrive/Documents/School/Advanced Quantitative Analysis/Lab 2.1","no","mono","no","18","no","white","no","yes","768","legacy","30","30","C:/Users/lil_p/OneDrive/Documents/School/Advanced Quantitative Analysis/Lab 2.1/dm-subject-1.csv","legacy","Lentiform Loewenfeld","3.3.12","0","s","NA","h","NA","NA","s","467","NA","201048","NA","NA","467","2","legacy","1024","2","48000","-16","experiment","HHSHH","1","odd","208151","NA","NA","262376","260118","7087","NA","NA","263537","7101","NA","NA","263639","264107","263533","263639","Flanker Task","28","15494","31","yes","1024"
"90.625","90.625","502.65625","502.65625","black","legacy","legacy","legacy","0","inconguent","uniform","1","undefined","1","s","0","0","0","31","31","0","31","0","31","0","0","0","31","31","31","31","Mon Sep 19 12:56:51 2022","1500","The main experiment item","yes","FlankerTask.osexp","C:/Users/lil_p/OneDrive/Documents/School/Advanced Quantitative Analysis/Lab 2.1","no","mono","no","18","no","white","no","yes","768","legacy","31","31","C:/Users/lil_p/OneDrive/Documents/School/Advanced Quantitative Analysis/Lab 2.1/dm-subject-1.csv","legacy","Lentiform Loewenfeld","3.3.12","0","s","NA","h","NA","NA","s","591","NA","201048","NA","NA","591","2","legacy","1024","2","48000","-16","experiment","HHSHH","1","odd","208151","NA","NA","264115","260118","7087","NA","NA","265268","7101","NA","NA","265372","265965","265265","265372","Flanker Task","29","16085","32","yes","1024"
"90.9090909090909","90.9090909090909","500.24242424242425","500.24242424242425","black","legacy","legacy","legacy","0","congruent","uniform","1","undefined","1","h","0","0","0","32","32","0","32","0","32","0","0","0","32","32","32","32","Mon Sep 19 12:56:51 2022","1500","The main experiment item","yes","FlankerTask.osexp","C:/Users/lil_p/OneDrive/Documents/School/Advanced Quantitative Analysis/Lab 2.1","no","mono","no","18","no","white","no","yes","768","legacy","32","32","C:/Users/lil_p/OneDrive/Documents/School/Advanced Quantitative Analysis/Lab 2.1/dm-subject-1.csv","legacy","Lentiform Loewenfeld","3.3.12","0","h","NA","h","NA","NA","h","423","NA","201048","NA","NA","423","2","legacy","1024","2","48000","-16","experiment","HHHHH","1","odd","208151","NA","NA","265973","260118","7087","NA","NA","267169","7101","NA","NA","267273","267697","267164","267273","Flanker Task","30","16508","33","yes","1024"
"91.17647058823529","91.17647058823529","499.38235294117646","499.38235294117646","black","legacy","legacy","legacy","0","congruent","uniform","1","undefined","1","h","0","0","0","33","33","0","33","0","33","0","0","0","33","33","33","33","Mon Sep 19 12:56:51 2022","1500","The main experiment item","yes","FlankerTask.osexp","C:/Users/lil_p/OneDrive/Documents/School/Advanced Quantitative Analysis/Lab 2.1","no","mono","no","18","no","white","no","yes","768","legacy","33","33","C:/Users/lil_p/OneDrive/Documents/School/Advanced Quantitative Analysis/Lab 2.1/dm-subject-1.csv","legacy","Lentiform Loewenfeld","3.3.12","0","h","NA","h","NA","NA","h","471","NA","201048","NA","NA","471","2","legacy","1024","2","48000","-16","experiment","HHHHH","1","odd","208151","NA","NA","267704","260118","7087","NA","NA","268875","7101","NA","NA","268978","269450","268872","268978","Flanker Task","31","16979","34","yes","1024"
"91.42857142857143","91.42857142857143","501.14285714285717","501.14285714285717","black","legacy","legacy","legacy","0","incongruent","uniform","1","undefined","1","h","0","0","0","34","34","0","34","0","34","0","0","0","34","34","34","34","Mon Sep 19 12:56:51 2022","1500","The main experiment item","yes","FlankerTask.osexp","C:/Users/lil_p/OneDrive/Documents/School/Advanced Quantitative Analysis/Lab 2.1","no","mono","no","18","no","white","no","yes","768","legacy","34","34","C:/Users/lil_p/OneDrive/Documents/School/Advanced Quantitative Analysis/Lab 2.1/dm-subject-1.csv","legacy","Lentiform Loewenfeld","3.3.12","0","h","NA","h","NA","NA","h","561","NA","201048","NA","NA","561","2","legacy","1024","2","48000","-16","experiment","SSHSS","1","odd","208151","NA","NA","269456","260118","7087","NA","NA","270672","7101","NA","NA","270774","271337","270668","270774","Flanker Task","32","17540","35","yes","1024"
"91.66666666666667","91.66666666666667","500.97222222222223","500.97222222222223","black","legacy","legacy","legacy","0","inconguent","uniform","1","undefined","1","s","0","0","0","35","35","0","35","0","35","0","0","0","35","35","35","35","Mon Sep 19 12:56:51 2022","1500","The main experiment item","yes","FlankerTask.osexp","C:/Users/lil_p/OneDrive/Documents/School/Advanced Quantitative Analysis/Lab 2.1","no","mono","no","18","no","white","no","yes","768","legacy","35","35","C:/Users/lil_p/OneDrive/Documents/School/Advanced Quantitative Analysis/Lab 2.1/dm-subject-1.csv","legacy","Lentiform Loewenfeld","3.3.12","0","s","NA","h","NA","NA","s","495","NA","201048","NA","NA","495","2","legacy","1024","2","48000","-16","experiment","HHSHH","1","odd","208151","NA","NA","271343","260118","7087","NA","NA","272525","7101","NA","NA","272628","273124","272522","272628","Flanker Task","33","18035","36","yes","1024"
"91.89189189189189","91.89189189189189","499.8918918918919","499.8918918918919","black","legacy","legacy","legacy","0","incongruent","uniform","1","undefined","1","h","0","0","0","36","36","0","36","0","36","0","0","0","36","36","36","36","Mon Sep 19 12:56:51 2022","1500","The main experiment item","yes","FlankerTask.osexp","C:/Users/lil_p/OneDrive/Documents/School/Advanced Quantitative Analysis/Lab 2.1","no","mono","no","18","no","white","no","yes","768","legacy","36","36","C:/Users/lil_p/OneDrive/Documents/School/Advanced Quantitative Analysis/Lab 2.1/dm-subject-1.csv","legacy","Lentiform Loewenfeld","3.3.12","0","h","NA","h","NA","NA","h","461","NA","201048","NA","NA","461","2","legacy","1024","2","48000","-16","experiment","SSHSS","1","odd","208151","NA","NA","273131","260118","7087","NA","NA","274311","7101","NA","NA","274413","274875","274307","274413","Flanker Task","34","18496","37","yes","1024"
"92.10526315789474","92.10526315789474","499.2631578947368","499.2631578947368","black","legacy","legacy","legacy","0","inconguent","uniform","1","undefined","1","s","0","0","0","37","37","0","37","0","37","0","0","0","37","37","37","37","Mon Sep 19 12:56:51 2022","1500","The main experiment item","yes","FlankerTask.osexp","C:/Users/lil_p/OneDrive/Documents/School/Advanced Quantitative Analysis/Lab 2.1","no","mono","no","18","no","white","no","yes","768","legacy","37","37","C:/Users/lil_p/OneDrive/Documents/School/Advanced Quantitative Analysis/Lab 2.1/dm-subject-1.csv","legacy","Lentiform Loewenfeld","3.3.12","0","s","NA","h","NA","NA","s","476","NA","201048","NA","NA","476","2","legacy","1024","2","48000","-16","experiment","HHSHH","1","odd","208151","NA","NA","274882","260118","7087","NA","NA","276058","7101","NA","NA","276161","276639","276054","276161","Flanker Task","35","18972","38","yes","1024"
"92.3076923076923","92.3076923076923","497.4871794871795","497.4871794871795","black","legacy","legacy","legacy","0","congruent","uniform","1","undefined","1","s","0","0","0","38","38","0","38","0","38","0","0","0","38","38","38","38","Mon Sep 19 12:56:51 2022","1500","The main experiment item","yes","FlankerTask.osexp","C:/Users/lil_p/OneDrive/Documents/School/Advanced Quantitative Analysis/Lab 2.1","no","mono","no","18","no","white","no","yes","768","legacy","38","38","C:/Users/lil_p/OneDrive/Documents/School/Advanced Quantitative Analysis/Lab 2.1/dm-subject-1.csv","legacy","Lentiform Loewenfeld","3.3.12","0","s","NA","h","NA","NA","s","430","NA","201048","NA","NA","430","2","legacy","1024","2","48000","-16","experiment","SSSSS","1","odd","208151","NA","NA","276645","260118","7087","NA","NA","277820","7101","NA","NA","277922","278354","277816","277922","Flanker Task","36","19402","39","yes","1024"
"92.5","92.5","495.425","495.425","black","legacy","legacy","legacy","0","congruent","uniform","1","undefined","1","h","0","0","0","39","39","0","39","0","39","0","0","0","39","39","39","39","Mon Sep 19 12:56:51 2022","1500","The main experiment item","yes","FlankerTask.osexp","C:/Users/lil_p/OneDrive/Documents/School/Advanced Quantitative Analysis/Lab 2.1","no","mono","no","18","no","white","no","yes","768","legacy","39","39","C:/Users/lil_p/OneDrive/Documents/School/Advanced Quantitative Analysis/Lab 2.1/dm-subject-1.csv","legacy","Lentiform Loewenfeld","3.3.12","0","h","NA","h","NA","NA","h","415","NA","201048","NA","NA","415","2","legacy","1024","2","48000","-16","experiment","HHHHH","1","odd","208151","NA","NA","278361","260118","7087","NA","NA","279529","7101","NA","NA","279631","280047","279525","279631","Flanker Task","37","19817","40","yes","1024"
"92.6829268292683","92.6829268292683","494.0487804878049","494.0487804878049","black","legacy","legacy","legacy","0","congruent","uniform","1","undefined","1","s","0","0","0","40","40","0","40","0","40","0","0","0","40","40","40","40","Mon Sep 19 12:56:51 2022","1500","The main experiment item","yes","FlankerTask.osexp","C:/Users/lil_p/OneDrive/Documents/School/Advanced Quantitative Analysis/Lab 2.1","no","mono","no","18","no","white","no","yes","768","legacy","40","40","C:/Users/lil_p/OneDrive/Documents/School/Advanced Quantitative Analysis/Lab 2.1/dm-subject-1.csv","legacy","Lentiform Loewenfeld","3.3.12","0","s","NA","h","NA","NA","s","439","NA","201048","NA","NA","439","2","legacy","1024","2","48000","-16","experiment","SSSSS","1","odd","208151","NA","NA","280053","260118","7087","NA","NA","281227","7101","NA","NA","281330","281771","281222","281330","Flanker Task","38","20256","41","yes","1024"
"92.85714285714286","92.85714285714286","494.0238095238095","494.0238095238095","black","legacy","legacy","legacy","0","incongruent","uniform","1","undefined","1","h","0","0","0","41","41","0","41","0","41","0","0","0","41","41","41","41","Mon Sep 19 12:56:51 2022","1500","The main experiment item","yes","FlankerTask.osexp","C:/Users/lil_p/OneDrive/Documents/School/Advanced Quantitative Analysis/Lab 2.1","no","mono","no","18","no","white","no","yes","768","legacy","41","41","C:/Users/lil_p/OneDrive/Documents/School/Advanced Quantitative Analysis/Lab 2.1/dm-subject-1.csv","legacy","Lentiform Loewenfeld","3.3.12","0","h","NA","h","NA","NA","h","493","NA","201048","NA","NA","493","2","legacy","1024","2","48000","-16","experiment","SSHSS","1","odd","208151","NA","NA","281778","260118","7087","NA","NA","282956","7101","NA","NA","283058","283553","282952","283058","Flanker Task","39","20749","42","yes","1024"
"90.69767441860465","90.69767441860465","495.90697674418607","495.90697674418607","black","legacy","legacy","legacy","0","inconguent","uniform","0","undefined","0","s","0","0","0","42","42","0","42","0","42","0","0","0","42","42","42","42","Mon Sep 19 12:56:51 2022","1500","The main experiment item","yes","FlankerTask.osexp","C:/Users/lil_p/OneDrive/Documents/School/Advanced Quantitative Analysis/Lab 2.1","no","mono","no","18","no","white","no","yes","768","legacy","42","42","C:/Users/lil_p/OneDrive/Documents/School/Advanced Quantitative Analysis/Lab 2.1/dm-subject-1.csv","legacy","Lentiform Loewenfeld","3.3.12","0","h","NA","h","NA","NA","h","575","NA","201048","NA","NA","575","2","legacy","1024","2","48000","-16","experiment","HHSHH","1","odd","208151","NA","NA","283560","285417","7087","NA","NA","284736","7101","NA","NA","284838","285917","284732","284838","Flanker Task","39","21324","43","yes","1024"
"90.9090909090909","90.9090909090909","493.97727272727275","493.97727272727275","black","legacy","legacy","legacy","0","congruent","uniform","1","undefined","1","h","0","0","0","43","43","0","43","0","43","0","0","0","43","43","43","43","Mon Sep 19 12:56:51 2022","1500","The main experiment item","yes","FlankerTask.osexp","C:/Users/lil_p/OneDrive/Documents/School/Advanced Quantitative Analysis/Lab 2.1","no","mono","no","18","no","white","no","yes","768","legacy","43","43","C:/Users/lil_p/OneDrive/Documents/School/Advanced Quantitative Analysis/Lab 2.1/dm-subject-1.csv","legacy","Lentiform Loewenfeld","3.3.12","0","h","NA","h","NA","NA","h","411","NA","201048","NA","NA","411","2","legacy","1024","2","48000","-16","experiment","HHHHH","1","odd","208151","NA","NA","285924","285417","7087","NA","NA","287089","7101","NA","NA","287192","287605","287085","287192","Flanker Task","40","21735","44","yes","1024"
"91.11111111111111","91.11111111111111","492.1333333333333","492.1333333333333","black","legacy","legacy","legacy","0","inconguent","uniform","1","undefined","1","s","0","0","0","44","44","0","44","0","44","0","0","0","44","44","44","44","Mon Sep 19 12:56:51 2022","1500","The main experiment item","yes","FlankerTask.osexp","C:/Users/lil_p/OneDrive/Documents/School/Advanced Quantitative Analysis/Lab 2.1","no","mono","no","18","no","white","no","yes","768","legacy","44","44","C:/Users/lil_p/OneDrive/Documents/School/Advanced Quantitative Analysis/Lab 2.1/dm-subject-1.csv","legacy","Lentiform Loewenfeld","3.3.12","0","s","NA","h","NA","NA","s","411","NA","201048","NA","NA","411","2","legacy","1024","2","48000","-16","experiment","HHSHH","1","odd","208151","NA","NA","287610","285417","7087","NA","NA","288777","7101","NA","NA","288880","289292","288773","288880","Flanker Task","41","22146","45","yes","1024"
"91.30434782608695","91.30434782608695","493.1521739130435","493.1521739130435","black","legacy","legacy","legacy","0","congruent","uniform","1","undefined","1","s","0","0","0","45","45","0","45","0","45","0","0","0","45","45","45","45","Mon Sep 19 12:56:51 2022","1500","The main experiment item","yes","FlankerTask.osexp","C:/Users/lil_p/OneDrive/Documents/School/Advanced Quantitative Analysis/Lab 2.1","no","mono","no","18","no","white","no","yes","768","legacy","45","45","C:/Users/lil_p/OneDrive/Documents/School/Advanced Quantitative Analysis/Lab 2.1/dm-subject-1.csv","legacy","Lentiform Loewenfeld","3.3.12","0","s","NA","h","NA","NA","s","539","NA","201048","NA","NA","539","2","legacy","1024","2","48000","-16","experiment","SSSSS","1","odd","208151","NA","NA","289300","285417","7087","NA","NA","290484","7101","NA","NA","290588","291128","290481","290588","Flanker Task","42","22685","46","yes","1024"
"91.48936170212765","91.48936170212765","491.97872340425533","491.97872340425533","black","legacy","legacy","legacy","0","congruent","uniform","1","undefined","1","h","0","0","0","46","46","0","46","0","46","0","0","0","46","46","46","46","Mon Sep 19 12:56:51 2022","1500","The main experiment item","yes","FlankerTask.osexp","C:/Users/lil_p/OneDrive/Documents/School/Advanced Quantitative Analysis/Lab 2.1","no","mono","no","18","no","white","no","yes","768","legacy","46","46","C:/Users/lil_p/OneDrive/Documents/School/Advanced Quantitative Analysis/Lab 2.1/dm-subject-1.csv","legacy","Lentiform Loewenfeld","3.3.12","0","h","NA","h","NA","NA","h","438","NA","201048","NA","NA","438","2","legacy","1024","2","48000","-16","experiment","HHHHH","1","odd","208151","NA","NA","291136","285417","7087","NA","NA","292299","7101","NA","NA","292402","292841","292295","292402","Flanker Task","43","23123","47","yes","1024"
"91.66666666666667","91.66666666666667","491.8333333333333","491.8333333333333","black","legacy","legacy","legacy","0","inconguent","uniform","1","undefined","1","s","0","0","0","47","47","0","47","0","47","0","0","0","47","47","47","47","Mon Sep 19 12:56:51 2022","1500","The main experiment item","yes","FlankerTask.osexp","C:/Users/lil_p/OneDrive/Documents/School/Advanced Quantitative Analysis/Lab 2.1","no","mono","no","18","no","white","no","yes","768","legacy","47","47","C:/Users/lil_p/OneDrive/Documents/School/Advanced Quantitative Analysis/Lab 2.1/dm-subject-1.csv","legacy","Lentiform Loewenfeld","3.3.12","0","s","NA","h","NA","NA","s","485","NA","201048","NA","NA","485","2","legacy","1024","2","48000","-16","experiment","HHSHH","1","odd","208151","NA","NA","292847","285417","7087","NA","NA","294021","7101","NA","NA","294124","294611","294016","294124","Flanker Task","44","23608","48","yes","1024"
"91.83673469387755","91.83673469387755","495.7959183673469","495.7959183673469","black","legacy","legacy","legacy","0","congruent","uniform","1","undefined","1","h","0","0","0","48","48","0","48","0","48","0","0","0","48","48","48","48","Mon Sep 19 12:56:51 2022","1500","The main experiment item","yes","FlankerTask.osexp","C:/Users/lil_p/OneDrive/Documents/School/Advanced Quantitative Analysis/Lab 2.1","no","mono","no","18","no","white","no","yes","768","legacy","48","48","C:/Users/lil_p/OneDrive/Documents/School/Advanced Quantitative Analysis/Lab 2.1/dm-subject-1.csv","legacy","Lentiform Loewenfeld","3.3.12","0","h","NA","h","NA","NA","h","686","NA","201048","NA","NA","686","2","legacy","1024","2","48000","-16","experiment","HHHHH","1","odd","208151","NA","NA","294618","285417","7087","NA","NA","295788","7101","NA","NA","295890","296577","295785","295890","Flanker Task","45","24294","49","yes","1024"
"92","92","509.62","509.62","black","legacy","legacy","legacy","0","congruent","uniform","1","undefined","1","h","0","0","0","49","49","0","49","0","49","0","0","0","49","49","49","49","Mon Sep 19 12:56:51 2022","1500","The main experiment item","yes","FlankerTask.osexp","C:/Users/lil_p/OneDrive/Documents/School/Advanced Quantitative Analysis/Lab 2.1","no","mono","no","18","no","white","no","yes","768","legacy","49","49","C:/Users/lil_p/OneDrive/Documents/School/Advanced Quantitative Analysis/Lab 2.1/dm-subject-1.csv","legacy","Lentiform Loewenfeld","3.3.12","0","h","NA","h","NA","NA","h","1187","NA","201048","NA","NA","1187","2","legacy","1024","2","48000","-16","experiment","HHHHH","1","odd","208151","NA","NA","296583","285417","7087","NA","NA","297755","7101","NA","NA","297858","299046","297751","297857","Flanker Task","46","25481","50","yes","1024"
"92.15686274509804","92.15686274509804","508.7647058823529","508.7647058823529","black","legacy","legacy","legacy","0","incongruent","uniform","1","undefined","1","h","0","0","0","50","50","0","50","0","50","0","0","0","50","50","50","50","Mon Sep 19 12:56:51 2022","1500","The main experiment item","yes","FlankerTask.osexp","C:/Users/lil_p/OneDrive/Documents/School/Advanced Quantitative Analysis/Lab 2.1","no","mono","no","18","no","white","no","yes","768","legacy","50","50","C:/Users/lil_p/OneDrive/Documents/School/Advanced Quantitative Analysis/Lab 2.1/dm-subject-1.csv","legacy","Lentiform Loewenfeld","3.3.12","0","h","NA","h","NA","NA","h","466","NA","201048","NA","NA","466","2","legacy","1024","2","48000","-16","experiment","SSHSS","1","odd","208151","NA","NA","299052","285417","7087","NA","NA","300222","7101","NA","NA","300325","300792","300218","300325","Flanker Task","47","25947","51","yes","1024"
"92.3076923076923","92.3076923076923","511.5","511.5","black","legacy","legacy","legacy","0","inconguent","uniform","1","undefined","1","s","0","0","0","51","51","0","51","0","51","0","0","0","51","51","51","51","Mon Sep 19 12:56:51 2022","1500","The main experiment item","yes","FlankerTask.osexp","C:/Users/lil_p/OneDrive/Documents/School/Advanced Quantitative Analysis/Lab 2.1","no","mono","no","18","no","white","no","yes","768","legacy","51","51","C:/Users/lil_p/OneDrive/Documents/School/Advanced Quantitative Analysis/Lab 2.1/dm-subject-1.csv","legacy","Lentiform Loewenfeld","3.3.12","0","s","NA","h","NA","NA","s","651","NA","201048","NA","NA","651","2","legacy","1024","2","48000","-16","experiment","HHSHH","1","odd","208151","NA","NA","300800","285417","7087","NA","NA","301973","7101","NA","NA","302075","302727","301969","302075","Flanker Task","48","26598","52","yes","1024"
"92.45283018867924","92.45283018867924","512.6603773584906","512.6603773584906","black","legacy","legacy","legacy","0","inconguent","uniform","1","undefined","1","s","0","0","0","52","52","0","52","0","52","0","0","0","52","52","52","52","Mon Sep 19 12:56:51 2022","1500","The main experiment item","yes","FlankerTask.osexp","C:/Users/lil_p/OneDrive/Documents/School/Advanced Quantitative Analysis/Lab 2.1","no","mono","no","18","no","white","no","yes","768","legacy","52","52","C:/Users/lil_p/OneDrive/Documents/School/Advanced Quantitative Analysis/Lab 2.1/dm-subject-1.csv","legacy","Lentiform Loewenfeld","3.3.12","0","s","NA","h","NA","NA","s","573","NA","201048","NA","NA","573","2","legacy","1024","2","48000","-16","experiment","HHSHH","1","odd","208151","NA","NA","302734","285417","7087","NA","NA","303898","7101","NA","NA","304000","304575","303894","304000","Flanker Task","49","27171","53","yes","1024"
"92.5925925925926","92.5925925925926","511.537037037037","511.537037037037","black","legacy","legacy","legacy","0","congruent","uniform","1","undefined","1","s","0","0","0","53","53","0","53","0","53","0","0","0","53","53","53","53","Mon Sep 19 12:56:51 2022","1500","The main experiment item","yes","FlankerTask.osexp","C:/Users/lil_p/OneDrive/Documents/School/Advanced Quantitative Analysis/Lab 2.1","no","mono","no","18","no","white","no","yes","768","legacy","53","53","C:/Users/lil_p/OneDrive/Documents/School/Advanced Quantitative Analysis/Lab 2.1/dm-subject-1.csv","legacy","Lentiform Loewenfeld","3.3.12","0","s","NA","h","NA","NA","s","452","NA","201048","NA","NA","452","2","legacy","1024","2","48000","-16","experiment","SSSSS","1","odd","208151","NA","NA","304580","285417","7087","NA","NA","305754","7101","NA","NA","305857","306310","305750","305857","Flanker Task","50","27623","54","yes","1024"
"92.72727272727273","92.72727272727273","509.92727272727274","509.92727272727274","black","legacy","legacy","legacy","0","incongruent","uniform","1","undefined","1","h","0","0","0","54","54","0","54","0","54","0","0","0","54","54","54","54","Mon Sep 19 12:56:51 2022","1500","The main experiment item","yes","FlankerTask.osexp","C:/Users/lil_p/OneDrive/Documents/School/Advanced Quantitative Analysis/Lab 2.1","no","mono","no","18","no","white","no","yes","768","legacy","54","54","C:/Users/lil_p/OneDrive/Documents/School/Advanced Quantitative Analysis/Lab 2.1/dm-subject-1.csv","legacy","Lentiform Loewenfeld","3.3.12","0","h","NA","h","NA","NA","h","423","NA","201048","NA","NA","423","2","legacy","1024","2","48000","-16","experiment","SSHSS","1","odd","208151","NA","NA","306319","285417","7087","NA","NA","307494","7101","NA","NA","307597","308022","307489","307597","Flanker Task","51","28046","55","yes","1024"
"92.85714285714286","92.85714285714286","515.9285714285714","515.9285714285714","black","legacy","legacy","legacy","0","incongruent","uniform","1","undefined","1","h","0","0","0","55","55","0","55","0","55","0","0","0","55","55","55","55","Mon Sep 19 12:56:51 2022","1500","The main experiment item","yes","FlankerTask.osexp","C:/Users/lil_p/OneDrive/Documents/School/Advanced Quantitative Analysis/Lab 2.1","no","mono","no","18","no","white","no","yes","768","legacy","55","55","C:/Users/lil_p/OneDrive/Documents/School/Advanced Quantitative Analysis/Lab 2.1/dm-subject-1.csv","legacy","Lentiform Loewenfeld","3.3.12","0","h","NA","h","NA","NA","h","846","NA","201048","NA","NA","846","2","legacy","1024","2","48000","-16","experiment","SSHSS","1","odd","208151","NA","NA","308029","285417","7087","NA","NA","309192","7101","NA","NA","309295","310142","309188","309295","Flanker Task","52","28892","56","yes","1024"
"92.98245614035088","92.98245614035088","514.1754385964912","514.1754385964912","black","legacy","legacy","legacy","0","congruent","uniform","1","undefined","1","s","0","0","0","56","56","0","56","0","56","0","0","0","56","56","56","56","Mon Sep 19 12:56:51 2022","1500","The main experiment item","yes","FlankerTask.osexp","C:/Users/lil_p/OneDrive/Documents/School/Advanced Quantitative Analysis/Lab 2.1","no","mono","no","18","no","white","no","yes","768","legacy","56","56","C:/Users/lil_p/OneDrive/Documents/School/Advanced Quantitative Analysis/Lab 2.1/dm-subject-1.csv","legacy","Lentiform Loewenfeld","3.3.12","0","s","NA","h","NA","NA","s","416","NA","201048","NA","NA","416","2","legacy","1024","2","48000","-16","experiment","SSSSS","1","odd","208151","NA","NA","310151","285417","7087","NA","NA","311304","7101","NA","NA","311407","311824","311300","311407","Flanker Task","53","29308","57","yes","1024"
"93.10344827586206","93.10344827586206","512.9310344827586","512.9310344827586","black","legacy","legacy","legacy","0","inconguent","uniform","1","undefined","1","s","0","0","0","57","57","0","57","0","57","0","0","0","57","57","57","57","Mon Sep 19 12:56:51 2022","1500","The main experiment item","yes","FlankerTask.osexp","C:/Users/lil_p/OneDrive/Documents/School/Advanced Quantitative Analysis/Lab 2.1","no","mono","no","18","no","white","no","yes","768","legacy","57","57","C:/Users/lil_p/OneDrive/Documents/School/Advanced Quantitative Analysis/Lab 2.1/dm-subject-1.csv","legacy","Lentiform Loewenfeld","3.3.12","0","s","NA","h","NA","NA","s","442","NA","201048","NA","NA","442","2","legacy","1024","2","48000","-16","experiment","HHSHH","1","odd","208151","NA","NA","311832","285417","7087","NA","NA","313001","7101","NA","NA","313104","313548","312997","313104","Flanker Task","54","29750","58","yes","1024"
"93.22033898305085","93.22033898305085","515.8474576271186","515.8474576271186","black","legacy","legacy","legacy","0","congruent","uniform","1","undefined","1","h","0","0","0","58","58","0","58","0","58","0","0","0","58","58","58","58","Mon Sep 19 12:56:51 2022","1500","The main experiment item","yes","FlankerTask.osexp","C:/Users/lil_p/OneDrive/Documents/School/Advanced Quantitative Analysis/Lab 2.1","no","mono","no","18","no","white","no","yes","768","legacy","58","58","C:/Users/lil_p/OneDrive/Documents/School/Advanced Quantitative Analysis/Lab 2.1/dm-subject-1.csv","legacy","Lentiform Loewenfeld","3.3.12","0","h","NA","h","NA","NA","h","685","NA","201048","NA","NA","685","2","legacy","1024","2","48000","-16","experiment","HHHHH","1","odd","208151","NA","NA","313554","285417","7087","NA","NA","314714","7101","NA","NA","314816","315502","314710","314816","Flanker Task","55","30435","59","yes","1024"
"93.33333333333333","93.33333333333333","514.45","514.45","black","legacy","legacy","legacy","0","congruent","uniform","1","undefined","1","s","0","0","0","59","59","0","59","0","59","0","0","0","59","59","59","59","Mon Sep 19 12:56:51 2022","1500","The main experiment item","yes","FlankerTask.osexp","C:/Users/lil_p/OneDrive/Documents/School/Advanced Quantitative Analysis/Lab 2.1","no","mono","no","18","no","white","no","yes","768","legacy","59","59","C:/Users/lil_p/OneDrive/Documents/School/Advanced Quantitative Analysis/Lab 2.1/dm-subject-1.csv","legacy","Lentiform Loewenfeld","3.3.12","0","s","NA","h","NA","NA","s","432","NA","201048","NA","NA","432","2","legacy","1024","2","48000","-16","experiment","SSSSS","1","odd","208151","NA","NA","315510","285417","7087","NA","NA","316679","7101","NA","NA","316782","317216","316676","316782","Flanker Task","56","30867","60","yes","1024"
"93.44262295081967","93.44262295081967","514.3934426229508","514.3934426229508","black","legacy","legacy","legacy","0","inconguent","uniform","1","undefined","1","s","0","0","0","60","60","0","60","0","60","0","0","0","60","60","60","60","Mon Sep 19 12:56:51 2022","1500","The main experiment item","yes","FlankerTask.osexp","C:/Users/lil_p/OneDrive/Documents/School/Advanced Quantitative Analysis/Lab 2.1","no","mono","no","18","no","white","no","yes","768","legacy","60","60","C:/Users/lil_p/OneDrive/Documents/School/Advanced Quantitative Analysis/Lab 2.1/dm-subject-1.csv","legacy","Lentiform Loewenfeld","3.3.12","0","s","NA","h","NA","NA","s","511","NA","201048","NA","NA","511","2","legacy","1024","2","48000","-16","experiment","HHSHH","1","odd","208151","NA","NA","317224","285417","7087","NA","NA","318386","7101","NA","NA","318489","319001","318382","318489","Flanker Task","57","31378","61","yes","1024"
"93.54838709677419","93.54838709677419","512.7741935483871","512.7741935483871","black","legacy","legacy","legacy","0","congruent","uniform","1","undefined","1","s","0","0","0","61","61","0","61","0","61","0","0","0","61","61","61","61","Mon Sep 19 12:56:51 2022","1500","The main experiment item","yes","FlankerTask.osexp","C:/Users/lil_p/OneDrive/Documents/School/Advanced Quantitative Analysis/Lab 2.1","no","mono","no","18","no","white","no","yes","768","legacy","61","61","C:/Users/lil_p/OneDrive/Documents/School/Advanced Quantitative Analysis/Lab 2.1/dm-subject-1.csv","legacy","Lentiform Loewenfeld","3.3.12","0","s","NA","h","NA","NA","s","414","NA","201048","NA","NA","414","2","legacy","1024","2","48000","-16","experiment","SSSSS","1","odd","208151","NA","NA","319009","285417","7087","NA","NA","320182","7101","NA","NA","320286","320702","320179","320286","Flanker Task","58","31792","62","yes","1024"
"93.65079365079364","93.65079365079364","511.06349206349205","511.06349206349205","black","legacy","legacy","legacy","0","incongruent","uniform","1","undefined","1","h","0","0","0","62","62","0","62","0","62","0","0","0","62","62","62","62","Mon Sep 19 12:56:51 2022","1500","The main experiment item","yes","FlankerTask.osexp","C:/Users/lil_p/OneDrive/Documents/School/Advanced Quantitative Analysis/Lab 2.1","no","mono","no","18","no","white","no","yes","768","legacy","62","62","C:/Users/lil_p/OneDrive/Documents/School/Advanced Quantitative Analysis/Lab 2.1/dm-subject-1.csv","legacy","Lentiform Loewenfeld","3.3.12","0","h","NA","h","NA","NA","h","405","NA","201048","NA","NA","405","2","legacy","1024","2","48000","-16","experiment","SSHSS","1","odd","208151","NA","NA","320710","285417","7087","NA","NA","321879","7101","NA","NA","321982","322389","321875","321982","Flanker Task","59","32197","63","yes","1024"
"93.75","93.75","511.703125","511.703125","black","legacy","legacy","legacy","0","incongruent","uniform","1","undefined","1","h","0","0","0","63","63","0","63","0","63","0","0","0","63","63","63","63","Mon Sep 19 12:56:51 2022","1500","The main experiment item","yes","FlankerTask.osexp","C:/Users/lil_p/OneDrive/Documents/School/Advanced Quantitative Analysis/Lab 2.1","no","mono","no","18","no","white","no","yes","768","legacy","63","63","C:/Users/lil_p/OneDrive/Documents/School/Advanced Quantitative Analysis/Lab 2.1/dm-subject-1.csv","legacy","Lentiform Loewenfeld","3.3.12","0","h","NA","h","NA","NA","h","552","NA","201048","NA","NA","552","2","legacy","1024","2","48000","-16","experiment","SSHSS","1","odd","208151","NA","NA","322397","285417","7087","NA","NA","323569","7101","NA","NA","323671","324225","323566","323671","Flanker Task","60","32749","64","yes","1024"
"93.84615384615384","93.84615384615384","512.2461538461539","512.2461538461539","black","legacy","legacy","legacy","0","incongruent","uniform","1","undefined","1","h","0","0","0","64","64","0","64","0","64","0","0","0","64","64","64","64","Mon Sep 19 12:56:51 2022","1500","The main experiment item","yes","FlankerTask.osexp","C:/Users/lil_p/OneDrive/Documents/School/Advanced Quantitative Analysis/Lab 2.1","no","mono","no","18","no","white","no","yes","768","legacy","64","64","C:/Users/lil_p/OneDrive/Documents/School/Advanced Quantitative Analysis/Lab 2.1/dm-subject-1.csv","legacy","Lentiform Loewenfeld","3.3.12","0","h","NA","h","NA","NA","h","547","NA","201048","NA","NA","547","2","legacy","1024","2","48000","-16","experiment","SSHSS","1","odd","208151","NA","NA","324234","285417","7087","NA","NA","325403","7101","NA","NA","325507","326056","325400","325507","Flanker Task","61","33296","65","yes","1024"
"93.93939393939394","93.93939393939394","512.1363636363636","512.1363636363636","black","legacy","legacy","legacy","0","congruent","uniform","1","undefined","1","s","0","0","0","65","65","0","65","0","65","0","0","0","65","65","65","65","Mon Sep 19 12:56:51 2022","1500","The main experiment item","yes","FlankerTask.osexp","C:/Users/lil_p/OneDrive/Documents/School/Advanced Quantitative Analysis/Lab 2.1","no","mono","no","18","no","white","no","yes","768","legacy","65","65","C:/Users/lil_p/OneDrive/Documents/School/Advanced Quantitative Analysis/Lab 2.1/dm-subject-1.csv","legacy","Lentiform Loewenfeld","3.3.12","0","s","NA","h","NA","NA","s","505","NA","201048","NA","NA","505","2","legacy","1024","2","48000","-16","experiment","SSSSS","1","odd","208151","NA","NA","326063","285417","7087","NA","NA","327236","7101","NA","NA","327339","327845","327233","327339","Flanker Task","62","33801","66","yes","1024"
"94.02985074626865","94.02985074626865","512.2537313432836","512.2537313432836","black","legacy","legacy","legacy","0","congruent","uniform","1","undefined","1","h","0","0","0","66","66","0","66","0","66","0","0","0","66","66","66","66","Mon Sep 19 12:56:51 2022","1500","The main experiment item","yes","FlankerTask.osexp","C:/Users/lil_p/OneDrive/Documents/School/Advanced Quantitative Analysis/Lab 2.1","no","mono","no","18","no","white","no","yes","768","legacy","66","66","C:/Users/lil_p/OneDrive/Documents/School/Advanced Quantitative Analysis/Lab 2.1/dm-subject-1.csv","legacy","Lentiform Loewenfeld","3.3.12","0","h","NA","h","NA","NA","h","520","NA","201048","NA","NA","520","2","legacy","1024","2","48000","-16","experiment","HHHHH","1","odd","208151","NA","NA","327853","285417","7087","NA","NA","329033","7101","NA","NA","329136","329658","329029","329136","Flanker Task","63","34321","67","yes","1024"
"94.11764705882354","94.11764705882354","512.0882352941177","512.0882352941177","black","legacy","legacy","legacy","0","congruent","uniform","1","undefined","1","h","0","0","0","67","67","0","67","0","67","0","0","0","67","67","67","67","Mon Sep 19 12:56:51 2022","1500","The main experiment item","yes","FlankerTask.osexp","C:/Users/lil_p/OneDrive/Documents/School/Advanced Quantitative Analysis/Lab 2.1","no","mono","no","18","no","white","no","yes","768","legacy","67","67","C:/Users/lil_p/OneDrive/Documents/School/Advanced Quantitative Analysis/Lab 2.1/dm-subject-1.csv","legacy","Lentiform Loewenfeld","3.3.12","0","h","NA","h","NA","NA","h","501","NA","201048","NA","NA","501","2","legacy","1024","2","48000","-16","experiment","HHHHH","1","odd","208151","NA","NA","329666","285417","7087","NA","NA","330828","7101","NA","NA","330930","331433","330825","330930","Flanker Task","64","34822","68","yes","1024"
"94.20289855072464","94.20289855072464","512.231884057971","512.231884057971","black","legacy","legacy","legacy","0","inconguent","uniform","1","undefined","1","s","0","0","0","68","68","0","68","0","68","0","0","0","68","68","68","68","Mon Sep 19 12:56:51 2022","1500","The main experiment item","yes","FlankerTask.osexp","C:/Users/lil_p/OneDrive/Documents/School/Advanced Quantitative Analysis/Lab 2.1","no","mono","no","18","no","white","no","yes","768","legacy","68","68","C:/Users/lil_p/OneDrive/Documents/School/Advanced Quantitative Analysis/Lab 2.1/dm-subject-1.csv","legacy","Lentiform Loewenfeld","3.3.12","0","s","NA","h","NA","NA","s","522","NA","201048","NA","NA","522","2","legacy","1024","2","48000","-16","experiment","HHSHH","1","odd","208151","NA","NA","331442","285417","7087","NA","NA","332604","7101","NA","NA","332708","333232","332600","332707","Flanker Task","65","35344","69","yes","1024"
"94.28571428571429","94.28571428571429","512.2","512.2","black","legacy","legacy","legacy","0","congruent","uniform","1","undefined","1","h","0","0","0","69","69","0","69","0","69","0","0","0","69","69","69","69","Mon Sep 19 12:56:51 2022","1500","The main experiment item","yes","FlankerTask.osexp","C:/Users/lil_p/OneDrive/Documents/School/Advanced Quantitative Analysis/Lab 2.1","no","mono","no","18","no","white","no","yes","768","legacy","69","69","C:/Users/lil_p/OneDrive/Documents/School/Advanced Quantitative Analysis/Lab 2.1/dm-subject-1.csv","legacy","Lentiform Loewenfeld","3.3.12","0","h","NA","h","NA","NA","h","510","NA","201048","NA","NA","510","2","legacy","1024","2","48000","-16","experiment","HHHHH","1","odd","208151","NA","NA","333240","285417","7087","NA","NA","334403","7101","NA","NA","334506","335018","334399","334506","Flanker Task","66","35854","70","yes","1024"
"94.36619718309859","94.36619718309859","511.9577464788732","511.9577464788732","black","legacy","legacy","legacy","0","inconguent","uniform","1","undefined","1","s","0","0","0","70","70","0","70","0","70","0","0","0","70","70","70","70","Mon Sep 19 12:56:51 2022","1500","The main experiment item","yes","FlankerTask.osexp","C:/Users/lil_p/OneDrive/Documents/School/Advanced Quantitative Analysis/Lab 2.1","no","mono","no","18","no","white","no","yes","768","legacy","70","70","C:/Users/lil_p/OneDrive/Documents/School/Advanced Quantitative Analysis/Lab 2.1/dm-subject-1.csv","legacy","Lentiform Loewenfeld","3.3.12","0","s","NA","h","NA","NA","s","495","NA","201048","NA","NA","495","2","legacy","1024","2","48000","-16","experiment","HHSHH","1","odd","208151","NA","NA","335025","285417","7087","NA","NA","336195","7101","NA","NA","336298","336795","336191","336298","Flanker Task","67","36349","71","yes","1024"
"94.44444444444444","94.44444444444444","516.9861111111111","516.9861111111111","black","legacy","legacy","legacy","0","incongruent","uniform","1","undefined","1","h","0","0","0","71","71","0","71","0","71","0","0","0","71","71","71","71","Mon Sep 19 12:56:51 2022","1500","The main experiment item","yes","FlankerTask.osexp","C:/Users/lil_p/OneDrive/Documents/School/Advanced Quantitative Analysis/Lab 2.1","no","mono","no","18","no","white","no","yes","768","legacy","71","71","C:/Users/lil_p/OneDrive/Documents/School/Advanced Quantitative Analysis/Lab 2.1/dm-subject-1.csv","legacy","Lentiform Loewenfeld","3.3.12","0","h","NA","h","NA","NA","h","874","NA","201048","NA","NA","874","2","legacy","1024","2","48000","-16","experiment","SSHSS","1","odd","208151","NA","NA","336801","285417","7087","NA","NA","337972","7101","NA","NA","338074","338950","337968","338074","Flanker Task","68","37223","72","yes","1024"
"94.52054794520548","94.52054794520548","516.986301369863","516.986301369863","black","legacy","legacy","legacy","0","congruent","uniform","1","undefined","1","s","0","0","0","72","72","0","72","0","72","0","0","0","72","72","72","72","Mon Sep 19 12:56:51 2022","1500","The main experiment item","yes","FlankerTask.osexp","C:/Users/lil_p/OneDrive/Documents/School/Advanced Quantitative Analysis/Lab 2.1","no","mono","no","18","no","white","no","yes","768","legacy","72","72","C:/Users/lil_p/OneDrive/Documents/School/Advanced Quantitative Analysis/Lab 2.1/dm-subject-1.csv","legacy","Lentiform Loewenfeld","3.3.12","0","s","NA","h","NA","NA","s","517","NA","201048","NA","NA","517","2","legacy","1024","2","48000","-16","experiment","SSSSS","1","odd","208151","NA","NA","338957","285417","7087","NA","NA","340137","7101","NA","NA","340239","340758","340134","340239","Flanker Task","69","37740","73","yes","1024"
"94.5945945945946","94.5945945945946","517.3918918918919","517.3918918918919","black","legacy","legacy","legacy","0","inconguent","uniform","1","undefined","1","s","0","0","0","73","73","0","73","0","73","0","0","0","73","73","73","73","Mon Sep 19 12:56:51 2022","1500","The main experiment item","yes","FlankerTask.osexp","C:/Users/lil_p/OneDrive/Documents/School/Advanced Quantitative Analysis/Lab 2.1","no","mono","no","18","no","white","no","yes","768","legacy","73","73","C:/Users/lil_p/OneDrive/Documents/School/Advanced Quantitative Analysis/Lab 2.1/dm-subject-1.csv","legacy","Lentiform Loewenfeld","3.3.12","0","s","NA","h","NA","NA","s","547","NA","201048","NA","NA","547","2","legacy","1024","2","48000","-16","experiment","HHSHH","1","odd","208151","NA","NA","340764","285417","7087","NA","NA","341932","7101","NA","NA","342035","342583","341928","342035","Flanker Task","70","38287","74","yes","1024"
"94.66666666666667","94.66666666666667","517.76","517.76","black","legacy","legacy","legacy","0","incongruent","uniform","1","undefined","1","h","0","0","0","74","74","0","74","0","74","0","0","0","74","74","74","74","Mon Sep 19 12:56:51 2022","1500","The main experiment item","yes","FlankerTask.osexp","C:/Users/lil_p/OneDrive/Documents/School/Advanced Quantitative Analysis/Lab 2.1","no","mono","no","18","no","white","no","yes","768","legacy","74","74","C:/Users/lil_p/OneDrive/Documents/School/Advanced Quantitative Analysis/Lab 2.1/dm-subject-1.csv","legacy","Lentiform Loewenfeld","3.3.12","0","h","NA","h","NA","NA","h","545","NA","201048","NA","NA","545","2","legacy","1024","2","48000","-16","experiment","SSHSS","1","odd","208151","NA","NA","342592","285417","7087","NA","NA","343755","7101","NA","NA","343859","344406","343750","343859","Flanker Task","71","38832","75","yes","1024"
"94.73684210526316","94.73684210526316","518.5263157894736","518.5263157894736","black","legacy","legacy","legacy","0","inconguent","uniform","1","undefined","1","s","0","0","0","75","75","0","75","0","75","0","0","0","75","75","75","75","Mon Sep 19 12:56:51 2022","1500","The main experiment item","yes","FlankerTask.osexp","C:/Users/lil_p/OneDrive/Documents/School/Advanced Quantitative Analysis/Lab 2.1","no","mono","no","18","no","white","no","yes","768","legacy","75","75","C:/Users/lil_p/OneDrive/Documents/School/Advanced Quantitative Analysis/Lab 2.1/dm-subject-1.csv","legacy","Lentiform Loewenfeld","3.3.12","0","s","NA","h","NA","NA","s","576","NA","201048","NA","NA","576","2","legacy","1024","2","48000","-16","experiment","HHSHH","1","odd","208151","NA","NA","344414","285417","7087","NA","NA","345581","7101","NA","NA","345683","346261","345577","345683","Flanker Task","72","39408","76","yes","1024"
"94.8051948051948","94.8051948051948","518","518","black","legacy","legacy","legacy","0","incongruent","uniform","1","undefined","1","h","0","0","0","76","76","0","76","0","76","0","0","0","76","76","76","76","Mon Sep 19 12:56:51 2022","1500","The main experiment item","yes","FlankerTask.osexp","C:/Users/lil_p/OneDrive/Documents/School/Advanced Quantitative Analysis/Lab 2.1","no","mono","no","18","no","white","no","yes","768","legacy","76","76","C:/Users/lil_p/OneDrive/Documents/School/Advanced Quantitative Analysis/Lab 2.1/dm-subject-1.csv","legacy","Lentiform Loewenfeld","3.3.12","0","h","NA","h","NA","NA","h","478","NA","201048","NA","NA","478","2","legacy","1024","2","48000","-16","experiment","SSHSS","1","odd","208151","NA","NA","346267","285417","7087","NA","NA","347426","7101","NA","NA","347529","348009","347423","347529","Flanker Task","73","39886","77","yes","1024"
"94.87179487179488","94.87179487179488","517.7948717948718","517.7948717948718","black","legacy","legacy","legacy","0","congruent","uniform","1","undefined","1","h","0","0","0","77","77","0","77","0","77","0","0","0","77","77","77","77","Mon Sep 19 12:56:51 2022","1500","The main experiment item","yes","FlankerTask.osexp","C:/Users/lil_p/OneDrive/Documents/School/Advanced Quantitative Analysis/Lab 2.1","no","mono","no","18","no","white","no","yes","768","legacy","77","77","C:/Users/lil_p/OneDrive/Documents/School/Advanced Quantitative Analysis/Lab 2.1/dm-subject-1.csv","legacy","Lentiform Loewenfeld","3.3.12","0","h","NA","h","NA","NA","h","502","NA","201048","NA","NA","502","2","legacy","1024","2","48000","-16","experiment","HHHHH","1","odd","208151","NA","NA","348017","285417","7087","NA","NA","349168","7101","NA","NA","349272","349776","349164","349272","Flanker Task","74","40388","78","yes","1024"
"94.9367088607595","94.9367088607595","516.7848101265823","516.7848101265823","black","legacy","legacy","legacy","0","inconguent","uniform","1","undefined","1","s","0","0","0","78","78","0","78","0","78","0","0","0","78","78","78","78","Mon Sep 19 12:56:51 2022","1500","The main experiment item","yes","FlankerTask.osexp","C:/Users/lil_p/OneDrive/Documents/School/Advanced Quantitative Analysis/Lab 2.1","no","mono","no","18","no","white","no","yes","768","legacy","78","78","C:/Users/lil_p/OneDrive/Documents/School/Advanced Quantitative Analysis/Lab 2.1/dm-subject-1.csv","legacy","Lentiform Loewenfeld","3.3.12","0","s","NA","h","NA","NA","s","438","NA","201048","NA","NA","438","2","legacy","1024","2","48000","-16","experiment","HHSHH","1","odd","208151","NA","NA","349785","285417","7087","NA","NA","350962","7101","NA","NA","351066","351506","350958","351066","Flanker Task","75","40826","79","yes","1024"
"95","95","514.9125","514.9125","black","legacy","legacy","legacy","0","congruent","uniform","1","undefined","1","s","0","0","0","79","79","0","79","0","79","0","0","0","79","79","79","79","Mon Sep 19 12:56:51 2022","1500","The main experiment item","yes","FlankerTask.osexp","C:/Users/lil_p/OneDrive/Documents/School/Advanced Quantitative Analysis/Lab 2.1","no","mono","no","18","no","white","no","yes","768","legacy","79","79","C:/Users/lil_p/OneDrive/Documents/School/Advanced Quantitative Analysis/Lab 2.1/dm-subject-1.csv","legacy","Lentiform Loewenfeld","3.3.12","0","s","NA","h","NA","NA","s","367","NA","201048","NA","NA","367","2","legacy","1024","2","48000","-16","experiment","SSSSS","1","odd","208151","NA","NA","351512","285417","7087","NA","NA","352684","7101","NA","NA","352786","353155","352680","352786","Flanker Task","76","41193","80","yes","1024"
"95.06172839506173","95.06172839506173","517.9876543209876","517.9876543209876","black","legacy","legacy","legacy","0","inconguent","uniform","1","undefined","1","s","0","0","0","80","80","0","80","0","80","0","0","0","80","80","80","80","Mon Sep 19 12:56:51 2022","600","The main experiment item","yes","FlankerTask.osexp","C:/Users/lil_p/OneDrive/Documents/School/Advanced Quantitative Analysis/Lab 2.1","no","mono","no","18","no","white","no","yes","768","legacy","0","79","C:/Users/lil_p/OneDrive/Documents/School/Advanced Quantitative Analysis/Lab 2.1/dm-subject-1.csv","legacy","Lentiform Loewenfeld","3.3.12","0","s","NA","h","h","NA","s","764","NA","201048","13350","NA","764","2","legacy","1024","2","48000","-16","experiment","HHSHH","1","odd","208151","367574","NA","353162","285417","7087","NA","NA","367684","7101","354222","NA","367787","368554","367682","367787","Flanker Task","77","41957","81","yes","1024"
"95.1219512195122","95.1219512195122","517.170731707317","517.170731707317","black","legacy","legacy","legacy","0","congruent","uniform","1","undefined","1","s","0","0","0","81","81","0","81","0","81","0","0","0","81","81","81","81","Mon Sep 19 12:56:51 2022","600","The main experiment item","yes","FlankerTask.osexp","C:/Users/lil_p/OneDrive/Documents/School/Advanced Quantitative Analysis/Lab 2.1","no","mono","no","18","no","white","no","yes","768","legacy","1","79","C:/Users/lil_p/OneDrive/Documents/School/Advanced Quantitative Analysis/Lab 2.1/dm-subject-1.csv","legacy","Lentiform Loewenfeld","3.3.12","0","s","NA","h","h","NA","s","451","NA","201048","13350","NA","451","2","legacy","1024","2","48000","-16","experiment","SSSSS","1","odd","208151","367574","NA","368561","285417","7087","NA","NA","369723","7101","354222","NA","369826","370278","369719","369826","Flanker Task","78","42408","82","yes","1024"
"93.97590361445783","93.97590361445783","515.1204819277109","515.1204819277109","black","legacy","legacy","legacy","0","inconguent","uniform","0","undefined","0","s","0","0","0","82","82","0","82","0","82","0","0","0","82","82","82","82","Mon Sep 19 12:56:51 2022","600","The main experiment item","yes","FlankerTask.osexp","C:/Users/lil_p/OneDrive/Documents/School/Advanced Quantitative Analysis/Lab 2.1","no","mono","no","18","no","white","no","yes","768","legacy","2","79","C:/Users/lil_p/OneDrive/Documents/School/Advanced Quantitative Analysis/Lab 2.1/dm-subject-1.csv","legacy","Lentiform Loewenfeld","3.3.12","0","h","NA","h","h","NA","h","347","NA","201048","13350","NA","347","2","legacy","1024","2","48000","-16","experiment","HHSHH","1","odd","208151","367574","NA","370286","371900","7087","NA","NA","371446","7101","354222","NA","371549","372401","371443","371549","Flanker Task","78","42755","83","yes","1024"
"94.04761904761905","94.04761904761905","513.8452380952381","513.8452380952381","black","legacy","legacy","legacy","0","incongruent","uniform","1","undefined","1","h","0","0","0","83","83","0","83","0","83","0","0","0","83","83","83","83","Mon Sep 19 12:56:51 2022","600","The main experiment item","yes","FlankerTask.osexp","C:/Users/lil_p/OneDrive/Documents/School/Advanced Quantitative Analysis/Lab 2.1","no","mono","no","18","no","white","no","yes","768","legacy","3","79","C:/Users/lil_p/OneDrive/Documents/School/Advanced Quantitative Analysis/Lab 2.1/dm-subject-1.csv","legacy","Lentiform Loewenfeld","3.3.12","0","h","NA","h","h","NA","h","408","NA","201048","13350","NA","408","2","legacy","1024","2","48000","-16","experiment","SSHSS","1","odd","208151","367574","NA","372411","371900","7087","NA","NA","373569","7101","354222","NA","373672","374082","373565","373672","Flanker Task","79","43163","84","yes","1024"
"94.11764705882354","94.11764705882354","513","513","black","legacy","legacy","legacy","0","congruent","uniform","1","undefined","1","s","0","0","0","84","84","0","84","0","84","0","0","0","84","84","84","84","Mon Sep 19 12:56:51 2022","600","The main experiment item","yes","FlankerTask.osexp","C:/Users/lil_p/OneDrive/Documents/School/Advanced Quantitative Analysis/Lab 2.1","no","mono","no","18","no","white","no","yes","768","legacy","4","79","C:/Users/lil_p/OneDrive/Documents/School/Advanced Quantitative Analysis/Lab 2.1/dm-subject-1.csv","legacy","Lentiform Loewenfeld","3.3.12","0","s","NA","h","h","NA","s","442","NA","201048","13350","NA","442","2","legacy","1024","2","48000","-16","experiment","SSSSS","1","odd","208151","367574","NA","374089","371900","7087","NA","NA","375260","7101","354222","NA","375362","375806","375256","375362","Flanker Task","80","43605","85","yes","1024"
"94.18604651162791","94.18604651162791","511.63953488372096","511.63953488372096","black","legacy","legacy","legacy","0","congruent","uniform","1","undefined","1","s","0","0","0","85","85","0","85","0","85","0","0","0","85","85","85","85","Mon Sep 19 12:56:51 2022","600","The main experiment item","yes","FlankerTask.osexp","C:/Users/lil_p/OneDrive/Documents/School/Advanced Quantitative Analysis/Lab 2.1","no","mono","no","18","no","white","no","yes","768","legacy","5","79","C:/Users/lil_p/OneDrive/Documents/School/Advanced Quantitative Analysis/Lab 2.1/dm-subject-1.csv","legacy","Lentiform Loewenfeld","3.3.12","0","s","NA","h","h","NA","s","396","NA","201048","13350","NA","396","2","legacy","1024","2","48000","-16","experiment","SSSSS","1","odd","208151","367574","NA","375813","371900","7087","NA","NA","376994","7101","354222","NA","377097","377495","376991","377097","Flanker Task","81","44001","86","yes","1024"
"94.25287356321839","94.25287356321839","510.6551724137931","510.6551724137931","black","legacy","legacy","legacy","0","congruent","uniform","1","undefined","1","s","0","0","0","86","86","0","86","0","86","0","0","0","86","86","86","86","Mon Sep 19 12:56:51 2022","600","The main experiment item","yes","FlankerTask.osexp","C:/Users/lil_p/OneDrive/Documents/School/Advanced Quantitative Analysis/Lab 2.1","no","mono","no","18","no","white","no","yes","768","legacy","6","79","C:/Users/lil_p/OneDrive/Documents/School/Advanced Quantitative Analysis/Lab 2.1/dm-subject-1.csv","legacy","Lentiform Loewenfeld","3.3.12","0","s","NA","h","h","NA","s","426","NA","201048","13350","NA","426","2","legacy","1024","2","48000","-16","experiment","SSSSS","1","odd","208151","367574","NA","377503","371900","7087","NA","NA","378695","7101","354222","NA","378798","379227","378691","378798","Flanker Task","82","44427","87","yes","1024"
"93.18181818181819","93.18181818181819","510.4886363636364","510.4886363636364","black","legacy","legacy","legacy","0","inconguent","uniform","0","undefined","0","s","0","0","0","87","87","0","87","0","87","0","0","0","87","87","87","87","Mon Sep 19 12:56:51 2022","600","The main experiment item","yes","FlankerTask.osexp","C:/Users/lil_p/OneDrive/Documents/School/Advanced Quantitative Analysis/Lab 2.1","no","mono","no","18","no","white","no","yes","768","legacy","7","79","C:/Users/lil_p/OneDrive/Documents/School/Advanced Quantitative Analysis/Lab 2.1/dm-subject-1.csv","legacy","Lentiform Loewenfeld","3.3.12","0","h","NA","h","h","NA","h","496","NA","201048","13350","NA","496","2","legacy","1024","2","48000","-16","experiment","HHSHH","1","odd","208151","367574","NA","379235","381010","7087","NA","NA","380405","7101","354222","NA","380508","381510","380401","380508","Flanker Task","82","44923","88","yes","1024"
"93.25842696629213","93.25842696629213","509.2134831460674","509.2134831460674","black","legacy","legacy","legacy","0","incongruent","uniform","1","undefined","1","h","0","0","0","88","88","0","88","0","88","0","0","0","88","88","88","88","Mon Sep 19 12:56:51 2022","600","The main experiment item","yes","FlankerTask.osexp","C:/Users/lil_p/OneDrive/Documents/School/Advanced Quantitative Analysis/Lab 2.1","no","mono","no","18","no","white","no","yes","768","legacy","8","79","C:/Users/lil_p/OneDrive/Documents/School/Advanced Quantitative Analysis/Lab 2.1/dm-subject-1.csv","legacy","Lentiform Loewenfeld","3.3.12","0","h","NA","h","h","NA","h","397","NA","201048","13350","NA","397","2","legacy","1024","2","48000","-16","experiment","SSHSS","1","odd","208151","367574","NA","381517","381010","7087","NA","NA","382676","7101","354222","NA","382778","383177","382673","382778","Flanker Task","83","45320","89","yes","1024"
"93.33333333333333","93.33333333333333","509.5888888888889","509.5888888888889","black","legacy","legacy","legacy","0","inconguent","uniform","1","undefined","1","s","0","0","0","89","89","0","89","0","89","0","0","0","89","89","89","89","Mon Sep 19 12:56:51 2022","600","The main experiment item","yes","FlankerTask.osexp","C:/Users/lil_p/OneDrive/Documents/School/Advanced Quantitative Analysis/Lab 2.1","no","mono","no","18","no","white","no","yes","768","legacy","9","79","C:/Users/lil_p/OneDrive/Documents/School/Advanced Quantitative Analysis/Lab 2.1/dm-subject-1.csv","legacy","Lentiform Loewenfeld","3.3.12","0","s","NA","h","h","NA","s","543","NA","201048","13350","NA","543","2","legacy","1024","2","48000","-16","experiment","HHSHH","1","odd","208151","367574","NA","383185","381010","7087","NA","NA","384348","7101","354222","NA","384451","384997","384345","384451","Flanker Task","84","45863","90","yes","1024"
"93.4065934065934","93.4065934065934","508.7802197802198","508.7802197802198","black","legacy","legacy","legacy","0","incongruent","uniform","1","undefined","1","h","0","0","0","90","90","0","90","0","90","0","0","0","90","90","90","90","Mon Sep 19 12:56:51 2022","600","The main experiment item","yes","FlankerTask.osexp","C:/Users/lil_p/OneDrive/Documents/School/Advanced Quantitative Analysis/Lab 2.1","no","mono","no","18","no","white","no","yes","768","legacy","10","79","C:/Users/lil_p/OneDrive/Documents/School/Advanced Quantitative Analysis/Lab 2.1/dm-subject-1.csv","legacy","Lentiform Loewenfeld","3.3.12","0","h","NA","h","h","NA","h","436","NA","201048","13350","NA","436","2","legacy","1024","2","48000","-16","experiment","SSHSS","1","odd","208151","367574","NA","385006","381010","7087","NA","NA","386163","7101","354222","NA","386266","386705","386159","386266","Flanker Task","85","46299","91","yes","1024"
"93.47826086956522","93.47826086956522","507.9021739130435","507.9021739130435","black","legacy","legacy","legacy","0","inconguent","uniform","1","undefined","1","s","0","0","0","91","91","0","91","0","91","0","0","0","91","91","91","91","Mon Sep 19 12:56:51 2022","600","The main experiment item","yes","FlankerTask.osexp","C:/Users/lil_p/OneDrive/Documents/School/Advanced Quantitative Analysis/Lab 2.1","no","mono","no","18","no","white","no","yes","768","legacy","11","79","C:/Users/lil_p/OneDrive/Documents/School/Advanced Quantitative Analysis/Lab 2.1/dm-subject-1.csv","legacy","Lentiform Loewenfeld","3.3.12","0","s","NA","h","h","NA","s","428","NA","201048","13350","NA","428","2","legacy","1024","2","48000","-16","experiment","HHSHH","1","odd","208151","367574","NA","386713","381010","7087","NA","NA","387866","7101","354222","NA","387969","388399","387862","387969","Flanker Task","86","46727","92","yes","1024"
"93.54838709677419","93.54838709677419","507.44086021505376","507.44086021505376","black","legacy","legacy","legacy","0","incongruent","uniform","1","undefined","1","h","0","0","0","92","92","0","92","0","92","0","0","0","92","92","92","92","Mon Sep 19 12:56:51 2022","600","The main experiment item","yes","FlankerTask.osexp","C:/Users/lil_p/OneDrive/Documents/School/Advanced Quantitative Analysis/Lab 2.1","no","mono","no","18","no","white","no","yes","768","legacy","12","79","C:/Users/lil_p/OneDrive/Documents/School/Advanced Quantitative Analysis/Lab 2.1/dm-subject-1.csv","legacy","Lentiform Loewenfeld","3.3.12","0","h","NA","h","h","NA","h","465","NA","201048","13350","NA","465","2","legacy","1024","2","48000","-16","experiment","SSHSS","1","odd","208151","367574","NA","388406","381010","7087","NA","NA","389565","7101","354222","NA","389668","390136","389561","389668","Flanker Task","87","47192","93","yes","1024"
"93.61702127659575","93.61702127659575","506.75531914893617","506.75531914893617","black","legacy","legacy","legacy","0","congruent","uniform","1","undefined","1","s","0","0","0","93","93","0","93","0","93","0","0","0","93","93","93","93","Mon Sep 19 12:56:51 2022","600","The main experiment item","yes","FlankerTask.osexp","C:/Users/lil_p/OneDrive/Documents/School/Advanced Quantitative Analysis/Lab 2.1","no","mono","no","18","no","white","no","yes","768","legacy","13","79","C:/Users/lil_p/OneDrive/Documents/School/Advanced Quantitative Analysis/Lab 2.1/dm-subject-1.csv","legacy","Lentiform Loewenfeld","3.3.12","0","s","NA","h","h","NA","s","443","NA","201048","13350","NA","443","2","legacy","1024","2","48000","-16","experiment","SSSSS","1","odd","208151","367574","NA","390144","381010","7087","NA","NA","391302","7101","354222","NA","391406","391851","391298","391406","Flanker Task","88","47635","94","yes","1024"
"93.6842105263158","93.6842105263158","506.30526315789473","506.30526315789473","black","legacy","legacy","legacy","0","congruent","uniform","1","undefined","1","h","0","0","0","94","94","0","94","0","94","0","0","0","94","94","94","94","Mon Sep 19 12:56:51 2022","600","The main experiment item","yes","FlankerTask.osexp","C:/Users/lil_p/OneDrive/Documents/School/Advanced Quantitative Analysis/Lab 2.1","no","mono","no","18","no","white","no","yes","768","legacy","14","79","C:/Users/lil_p/OneDrive/Documents/School/Advanced Quantitative Analysis/Lab 2.1/dm-subject-1.csv","legacy","Lentiform Loewenfeld","3.3.12","0","h","NA","h","h","NA","h","464","NA","201048","13350","NA","464","2","legacy","1024","2","48000","-16","experiment","HHHHH","1","odd","208151","367574","NA","391859","381010","7087","NA","NA","393020","7101","354222","NA","393123","393590","393016","393123","Flanker Task","89","48099","95","yes","1024"
"93.75","93.75","505.9791666666667","505.9791666666667","black","legacy","legacy","legacy","0","congruent","uniform","1","undefined","1","h","0","0","0","95","95","0","95","0","95","0","0","0","95","95","95","95","Mon Sep 19 12:56:51 2022","600","The main experiment item","yes","FlankerTask.osexp","C:/Users/lil_p/OneDrive/Documents/School/Advanced Quantitative Analysis/Lab 2.1","no","mono","no","18","no","white","no","yes","768","legacy","15","79","C:/Users/lil_p/OneDrive/Documents/School/Advanced Quantitative Analysis/Lab 2.1/dm-subject-1.csv","legacy","Lentiform Loewenfeld","3.3.12","0","h","NA","h","h","NA","h","475","NA","201048","13350","NA","475","2","legacy","1024","2","48000","-16","experiment","HHHHH","1","odd","208151","367574","NA","393597","381010","7087","NA","NA","394766","7101","354222","NA","394869","395346","394761","394869","Flanker Task","90","48574","96","yes","1024"
"93.81443298969072","93.81443298969072","505.22680412371136","505.22680412371136","black","legacy","legacy","legacy","0","incongruent","uniform","1","undefined","1","h","0","0","0","96","96","0","96","0","96","0","0","0","96","96","96","96","Mon Sep 19 12:56:51 2022","600","The main experiment item","yes","FlankerTask.osexp","C:/Users/lil_p/OneDrive/Documents/School/Advanced Quantitative Analysis/Lab 2.1","no","mono","no","18","no","white","no","yes","768","legacy","16","79","C:/Users/lil_p/OneDrive/Documents/School/Advanced Quantitative Analysis/Lab 2.1/dm-subject-1.csv","legacy","Lentiform Loewenfeld","3.3.12","0","h","NA","h","h","NA","h","433","NA","201048","13350","NA","433","2","legacy","1024","2","48000","-16","experiment","SSHSS","1","odd","208151","367574","NA","395354","381010","7087","NA","NA","396520","7101","354222","NA","396623","397058","396516","396623","Flanker Task","91","49007","97","yes","1024"
"93.87755102040816","93.87755102040816","504.96938775510205","504.96938775510205","black","legacy","legacy","legacy","0","inconguent","uniform","1","undefined","1","s","0","0","0","97","97","0","97","0","97","0","0","0","97","97","97","97","Mon Sep 19 12:56:51 2022","600","The main experiment item","yes","FlankerTask.osexp","C:/Users/lil_p/OneDrive/Documents/School/Advanced Quantitative Analysis/Lab 2.1","no","mono","no","18","no","white","no","yes","768","legacy","17","79","C:/Users/lil_p/OneDrive/Documents/School/Advanced Quantitative Analysis/Lab 2.1/dm-subject-1.csv","legacy","Lentiform Loewenfeld","3.3.12","0","s","NA","h","h","NA","s","480","NA","201048","13350","NA","480","2","legacy","1024","2","48000","-16","experiment","HHSHH","1","odd","208151","367574","NA","397066","381010","7087","NA","NA","398230","7101","354222","NA","398333","398816","398225","398333","Flanker Task","92","49487","98","yes","1024"
"93.93939393939394","93.93939393939394","506.979797979798","506.979797979798","black","legacy","legacy","legacy","0","incongruent","uniform","1","undefined","1","h","0","0","0","98","98","0","98","0","98","0","0","0","98","98","98","98","Mon Sep 19 12:56:51 2022","600","The main experiment item","yes","FlankerTask.osexp","C:/Users/lil_p/OneDrive/Documents/School/Advanced Quantitative Analysis/Lab 2.1","no","mono","no","18","no","white","no","yes","768","legacy","18","79","C:/Users/lil_p/OneDrive/Documents/School/Advanced Quantitative Analysis/Lab 2.1/dm-subject-1.csv","legacy","Lentiform Loewenfeld","3.3.12","0","h","NA","h","h","NA","h","704","NA","201048","13350","NA","704","2","legacy","1024","2","48000","-16","experiment","SSHSS","1","odd","208151","367574","NA","398825","381010","7087","NA","NA","400005","7101","354222","NA","400108","400814","400000","400108","Flanker Task","93","50191","99","yes","1024"
"94","94","506.64","506.64","black","legacy","legacy","legacy","0","congruent","uniform","1","undefined","1","s","0","0","0","99","99","0","99","0","99","0","0","0","99","99","99","99","Mon Sep 19 12:56:51 2022","600","The main experiment item","yes","FlankerTask.osexp","C:/Users/lil_p/OneDrive/Documents/School/Advanced Quantitative Analysis/Lab 2.1","no","mono","no","18","no","white","no","yes","768","legacy","19","79","C:/Users/lil_p/OneDrive/Documents/School/Advanced Quantitative Analysis/Lab 2.1/dm-subject-1.csv","legacy","Lentiform Loewenfeld","3.3.12","0","s","NA","h","h","NA","s","473","NA","201048","13350","NA","473","2","legacy","1024","2","48000","-16","experiment","SSSSS","1","odd","208151","367574","NA","400822","381010","7087","NA","NA","401978","7101","354222","NA","402081","402557","401974","402081","Flanker Task","94","50664","100","yes","1024"
"94.05940594059406","94.05940594059406","506.28712871287127","506.28712871287127","black","legacy","legacy","legacy","0","congruent","uniform","1","undefined","1","s","0","0","0","100","100","0","100","0","100","0","0","0","100","100","100","100","Mon Sep 19 12:56:51 2022","600","The main experiment item","yes","FlankerTask.osexp","C:/Users/lil_p/OneDrive/Documents/School/Advanced Quantitative Analysis/Lab 2.1","no","mono","no","18","no","white","no","yes","768","legacy","20","79","C:/Users/lil_p/OneDrive/Documents/School/Advanced Quantitative Analysis/Lab 2.1/dm-subject-1.csv","legacy","Lentiform Loewenfeld","3.3.12","0","s","NA","h","h","NA","s","471","NA","201048","13350","NA","471","2","legacy","1024","2","48000","-16","experiment","SSSSS","1","odd","208151","367574","NA","402567","381010","7087","NA","NA","403731","7101","354222","NA","403834","404307","403727","403834","Flanker Task","95","51135","101","yes","1024"
"94.11764705882354","94.11764705882354","505.9901960784314","505.9901960784314","black","legacy","legacy","legacy","0","congruent","uniform","1","undefined","1","h","0","0","0","101","101","0","101","0","101","0","0","0","101","101","101","101","Mon Sep 19 12:56:51 2022","600","The main experiment item","yes","FlankerTask.osexp","C:/Users/lil_p/OneDrive/Documents/School/Advanced Quantitative Analysis/Lab 2.1","no","mono","no","18","no","white","no","yes","768","legacy","21","79","C:/Users/lil_p/OneDrive/Documents/School/Advanced Quantitative Analysis/Lab 2.1/dm-subject-1.csv","legacy","Lentiform Loewenfeld","3.3.12","0","h","NA","h","h","NA","h","476","NA","201048","13350","NA","476","2","legacy","1024","2","48000","-16","experiment","HHHHH","1","odd","208151","367574","NA","404314","381010","7087","NA","NA","405468","7101","354222","NA","405572","406051","405465","405572","Flanker Task","96","51611","102","yes","1024"
"94.1747572815534","94.1747572815534","505.3980582524272","505.3980582524272","black","legacy","legacy","legacy","0","congruent","uniform","1","undefined","1","h","0","0","0","102","102","0","102","0","102","0","0","0","102","102","102","102","Mon Sep 19 12:56:51 2022","600","The main experiment item","yes","FlankerTask.osexp","C:/Users/lil_p/OneDrive/Documents/School/Advanced Quantitative Analysis/Lab 2.1","no","mono","no","18","no","white","no","yes","768","legacy","22","79","C:/Users/lil_p/OneDrive/Documents/School/Advanced Quantitative Analysis/Lab 2.1/dm-subject-1.csv","legacy","Lentiform Loewenfeld","3.3.12","0","h","NA","h","h","NA","h","445","NA","201048","13350","NA","445","2","legacy","1024","2","48000","-16","experiment","HHHHH","1","odd","208151","367574","NA","406058","381010","7087","NA","NA","407213","7101","354222","NA","407316","407763","407210","407316","Flanker Task","97","52056","103","yes","1024"
"94.23076923076923","94.23076923076923","504.4326923076923","504.4326923076923","black","legacy","legacy","legacy","0","congruent","uniform","1","undefined","1","s","0","0","0","103","103","0","103","0","103","0","0","0","103","103","103","103","Mon Sep 19 12:56:51 2022","600","The main experiment item","yes","FlankerTask.osexp","C:/Users/lil_p/OneDrive/Documents/School/Advanced Quantitative Analysis/Lab 2.1","no","mono","no","18","no","white","no","yes","768","legacy","23","79","C:/Users/lil_p/OneDrive/Documents/School/Advanced Quantitative Analysis/Lab 2.1/dm-subject-1.csv","legacy","Lentiform Loewenfeld","3.3.12","0","s","NA","h","h","NA","s","405","NA","201048","13350","NA","405","2","legacy","1024","2","48000","-16","experiment","SSSSS","1","odd","208151","367574","NA","407771","381010","7087","NA","NA","408945","7101","354222","NA","409047","409455","408940","409047","Flanker Task","98","52461","104","yes","1024"
"94.28571428571429","94.28571428571429","504.14285714285717","504.14285714285717","black","legacy","legacy","legacy","0","inconguent","uniform","1","undefined","1","s","0","0","0","104","104","0","104","0","104","0","0","0","104","104","104","104","Mon Sep 19 12:56:51 2022","600","The main experiment item","yes","FlankerTask.osexp","C:/Users/lil_p/OneDrive/Documents/School/Advanced Quantitative Analysis/Lab 2.1","no","mono","no","18","no","white","no","yes","768","legacy","24","79","C:/Users/lil_p/OneDrive/Documents/School/Advanced Quantitative Analysis/Lab 2.1/dm-subject-1.csv","legacy","Lentiform Loewenfeld","3.3.12","0","s","NA","h","h","NA","s","474","NA","201048","13350","NA","474","2","legacy","1024","2","48000","-16","experiment","HHSHH","1","odd","208151","367574","NA","409464","381010","7087","NA","NA","410632","7101","354222","NA","410736","411213","410628","410736","Flanker Task","99","52935","105","yes","1024"
"94.33962264150944","94.33962264150944","503.0188679245283","503.0188679245283","black","legacy","legacy","legacy","0","inconguent","uniform","1","undefined","1","s","0","0","0","105","105","0","105","0","105","0","0","0","105","105","105","105","Mon Sep 19 12:56:51 2022","600","The main experiment item","yes","FlankerTask.osexp","C:/Users/lil_p/OneDrive/Documents/School/Advanced Quantitative Analysis/Lab 2.1","no","mono","no","18","no","white","no","yes","768","legacy","25","79","C:/Users/lil_p/OneDrive/Documents/School/Advanced Quantitative Analysis/Lab 2.1/dm-subject-1.csv","legacy","Lentiform Loewenfeld","3.3.12","0","s","NA","h","h","NA","s","385","NA","201048","13350","NA","385","2","legacy","1024","2","48000","-16","experiment","HHSHH","1","odd","208151","367574","NA","411222","381010","7087","NA","NA","412402","7101","354222","NA","412505","412892","412397","412505","Flanker Task","100","53320","106","yes","1024"
"94.39252336448598","94.39252336448598","502.5327102803738","502.5327102803738","black","legacy","legacy","legacy","0","congruent","uniform","1","undefined","1","h","0","0","0","106","106","0","106","0","106","0","0","0","106","106","106","106","Mon Sep 19 12:56:51 2022","600","The main experiment item","yes","FlankerTask.osexp","C:/Users/lil_p/OneDrive/Documents/School/Advanced Quantitative Analysis/Lab 2.1","no","mono","no","18","no","white","no","yes","768","legacy","26","79","C:/Users/lil_p/OneDrive/Documents/School/Advanced Quantitative Analysis/Lab 2.1/dm-subject-1.csv","legacy","Lentiform Loewenfeld","3.3.12","0","h","NA","h","h","NA","h","451","NA","201048","13350","NA","451","2","legacy","1024","2","48000","-16","experiment","HHHHH","1","odd","208151","367574","NA","412898","381010","7087","NA","NA","414049","7101","354222","NA","414152","414606","414045","414152","Flanker Task","101","53771","107","yes","1024"
"94.44444444444444","94.44444444444444","502.31481481481484","502.31481481481484","black","legacy","legacy","legacy","0","inconguent","uniform","1","undefined","1","s","0","0","0","107","107","0","107","0","107","0","0","0","107","107","107","107","Mon Sep 19 12:56:51 2022","600","The main experiment item","yes","FlankerTask.osexp","C:/Users/lil_p/OneDrive/Documents/School/Advanced Quantitative Analysis/Lab 2.1","no","mono","no","18","no","white","no","yes","768","legacy","27","79","C:/Users/lil_p/OneDrive/Documents/School/Advanced Quantitative Analysis/Lab 2.1/dm-subject-1.csv","legacy","Lentiform Loewenfeld","3.3.12","0","s","NA","h","h","NA","s","479","NA","201048","13350","NA","479","2","legacy","1024","2","48000","-16","experiment","HHSHH","1","odd","208151","367574","NA","414614","381010","7087","NA","NA","415774","7101","354222","NA","415877","416359","415769","415877","Flanker Task","102","54250","108","yes","1024"
