"acc","accuracy","average_response_time","avg_rt","background","canvas_backend","clock_backend","color_backend","compensation","condition","coordinates","correct","correct_Instructions1","correct_keyboard_response","correct_response","count_Block1","count_Block2","count_Block3","count_ISI","count_Instructions1","count_Instructions2","count_Instructions3","count_Sequence","count_errorFeedback","count_experiment","count_faster","count_finish","count_fixation","count_getting_started","count_keyboard_response","count_logger","count_new_loop","count_new_sketchpad","count_stimulus","count_welcome","datetime","deadline","description","disable_garbage_collection","empty_column","experiment_file","experiment_path","font_bold","font_family","font_italic","font_size","font_underline","foreground","form_clicks","fullscreen","height","keyboard_backend","live_row","live_row_Block1","logfile","mouse_backend","opensesame_codename","opensesame_version","repeat_cycle","response","response_Instructions1","response_Instructions2","response_Instructions3","response_finish","response_keyboard_response","response_new_sketchpad","response_time","response_time_Instructions1","response_time_Instructions2","response_time_Instructions3","response_time_finish","response_time_keyboard_response","response_time_new_sketchpad","response_time_welcome","response_welcome","round_decimals","sampler_backend","sound_buf_size","sound_channels","sound_freq","sound_sample_size","start","stimulus","subject_nr","subject_parity","time_Block1","time_Block2","time_Block3","time_ISI","time_Instructions1","time_Instructions2","time_Instructions3","time_Sequence","time_errorFeedback","time_experiment","time_faster","time_finish","time_fixation","time_getting_started","time_keyboard_response","time_logger","time_new_loop","time_new_sketchpad","time_stimulus","time_welcome","title","total_correct","total_response_time","total_responses","uniform_coordinates","width"
"100","100","1467","1467","black","legacy","legacy","legacy","0","congruent","uniform","1","undefined","1","h","0","0","0","0","0","0","0","0","0","0","0","0","0","0","0","0","NA","NA","0","0","Fri Sep 23 21:50:02 2022","1500","The main experiment item","yes","NA","KH-Subject-1.osexp","/Users/keelihatcher/Desktop/Tarleton M.D./Advanced Quantitative Methods & Experimental Design","no","mono","no","18","no","white","no","no","768","legacy","0","0","/Users/keelihatcher/Desktop/Tarleton M.D./Advanced Quantitative Methods & Experimental Design/HL-subject-2.csv","legacy","Lentiform Loewenfeld","3.3.12","0","h","s","NA","NA","NA","h","NA","1467","93591","NA","NA","NA","1467","NA","NA","NA","2","legacy","1024","2","48000","-16","experiment","HHHHH","2","even","95342","NA","NA","NA","1732","NA","NA","95388","NA","1603","NA","NA","95392","NA","95497","96965","NA","NA","95497","NA","Flanker Task","1","1467","1","yes","1024"
"100","100","978.5","978.5","black","legacy","legacy","legacy","0","incongruent","uniform","1","undefined","1","s","0","0","0","1","0","0","0","1","1","0","1","0","1","0","1","1","NA","NA","1","0","Fri Sep 23 21:50:02 2022","1500","The main experiment item","yes","NA","KH-Subject-1.osexp","/Users/keelihatcher/Desktop/Tarleton M.D./Advanced Quantitative Methods & Experimental Design","no","mono","no","18","no","white","no","no","768","legacy","1","1","/Users/keelihatcher/Desktop/Tarleton M.D./Advanced Quantitative Methods & Experimental Design/HL-subject-2.csv","legacy","Lentiform Loewenfeld","3.3.12","0","s","s","NA","NA","NA","s","NA","490","93591","NA","NA","NA","490","NA","NA","NA","2","legacy","1024","2","48000","-16","experiment","HHSHH","2","even","95342","NA","NA","96970","1732","NA","NA","98054","NA","1603","NA","NA","98060","NA","98165","98656","NA","NA","98165","NA","Flanker Task","2","1957","2","yes","1024"
"100","100","806","806","black","legacy","legacy","legacy","0","incongruent","uniform","1","undefined","1","s","0","0","0","2","0","0","0","2","2","0","2","0","2","0","2","2","NA","NA","2","0","Fri Sep 23 21:50:02 2022","1500","The main experiment item","yes","NA","KH-Subject-1.osexp","/Users/keelihatcher/Desktop/Tarleton M.D./Advanced Quantitative Methods & Experimental Design","no","mono","no","18","no","white","no","no","768","legacy","2","2","/Users/keelihatcher/Desktop/Tarleton M.D./Advanced Quantitative Methods & Experimental Design/HL-subject-2.csv","legacy","Lentiform Loewenfeld","3.3.12","0","s","s","NA","NA","NA","s","NA","461","93591","NA","NA","NA","461","NA","NA","NA","2","legacy","1024","2","48000","-16","experiment","HHSHH","2","even","95342","NA","NA","98660","1732","NA","NA","99743","NA","1603","NA","NA","99747","NA","99852","100319","NA","NA","99852","NA","Flanker Task","3","2418","3","yes","1024"
"100","100","699","699","black","legacy","legacy","legacy","0","congruent","uniform","1","undefined","1","s","0","0","0","3","0","0","0","3","3","0","3","0","3","0","3","3","NA","NA","3","0","Fri Sep 23 21:50:02 2022","1500","The main experiment item","yes","NA","KH-Subject-1.osexp","/Users/keelihatcher/Desktop/Tarleton M.D./Advanced Quantitative Methods & Experimental Design","no","mono","no","18","no","white","no","no","768","legacy","3","3","/Users/keelihatcher/Desktop/Tarleton M.D./Advanced Quantitative Methods & Experimental Design/HL-subject-2.csv","legacy","Lentiform Loewenfeld","3.3.12","0","s","s","NA","NA","NA","s","NA","378","93591","NA","NA","NA","378","NA","NA","NA","2","legacy","1024","2","48000","-16","experiment","SSSSS","2","even","95342","NA","NA","100323","1732","NA","NA","101405","NA","1603","NA","NA","101409","NA","101514","101893","NA","NA","101514","NA","Flanker Task","4","2796","4","yes","1024"
"100","100","665","665","black","legacy","legacy","legacy","0","incongruent","uniform","1","undefined","1","s","0","0","0","4","0","0","0","4","4","0","4","0","4","0","4","4","NA","NA","4","0","Fri Sep 23 21:50:02 2022","1500","The main experiment item","yes","NA","KH-Subject-1.osexp","/Users/keelihatcher/Desktop/Tarleton M.D./Advanced Quantitative Methods & Experimental Design","no","mono","no","18","no","white","no","no","768","legacy","4","4","/Users/keelihatcher/Desktop/Tarleton M.D./Advanced Quantitative Methods & Experimental Design/HL-subject-2.csv","legacy","Lentiform Loewenfeld","3.3.12","0","s","s","NA","NA","NA","s","NA","529","93591","NA","NA","NA","529","NA","NA","NA","2","legacy","1024","2","48000","-16","experiment","HHSHH","2","even","95342","NA","NA","101897","1732","NA","NA","102976","NA","1603","NA","NA","102980","NA","103085","103615","NA","NA","103085","NA","Flanker Task","5","3325","5","yes","1024"
"83.33333333333333","83.33333333333333","623.1666666666666","623.1666666666666","black","legacy","legacy","legacy","0","incongruent","uniform","0","undefined","0","s","0","0","0","5","0","0","0","5","5","0","5","0","5","0","5","5","NA","NA","5","0","Fri Sep 23 21:50:02 2022","1500","The main experiment item","yes","NA","KH-Subject-1.osexp","/Users/keelihatcher/Desktop/Tarleton M.D./Advanced Quantitative Methods & Experimental Design","no","mono","no","18","no","white","no","no","768","legacy","5","5","/Users/keelihatcher/Desktop/Tarleton M.D./Advanced Quantitative Methods & Experimental Design/HL-subject-2.csv","legacy","Lentiform Loewenfeld","3.3.12","0","h","s","NA","NA","NA","h","NA","414","93591","NA","NA","NA","414","NA","NA","NA","2","legacy","1024","2","48000","-16","experiment","HHSHH","2","even","95342","NA","NA","103619","1732","NA","NA","104687","NA","1603","NA","NA","104691","NA","104796","105210","NA","NA","104796","NA","Flanker Task","5","3739","6","yes","1024"
"71.42857142857143","71.42857142857143","593","593","black","legacy","legacy","legacy","0","incongruent","uniform","0","undefined","0","h","0","0","0","6","0","0","0","6","6","0","6","0","6","0","6","6","NA","NA","6","0","Fri Sep 23 21:50:02 2022","1500","The main experiment item","yes","NA","KH-Subject-1.osexp","/Users/keelihatcher/Desktop/Tarleton M.D./Advanced Quantitative Methods & Experimental Design","no","mono","no","18","no","white","no","no","768","legacy","6","6","/Users/keelihatcher/Desktop/Tarleton M.D./Advanced Quantitative Methods & Experimental Design/HL-subject-2.csv","legacy","Lentiform Loewenfeld","3.3.12","0","s","s","NA","NA","NA","s","NA","412","93591","NA","NA","NA","412","NA","NA","NA","2","legacy","1024","2","48000","-16","experiment","SSHSS","2","even","95342","NA","NA","105723","1732","NA","NA","106791","105215","1603","NA","NA","106795","NA","106900","107312","NA","NA","106900","NA","Flanker Task","5","4151","7","yes","1024"
"75","75","586.5","586.5","black","legacy","legacy","legacy","0","congruent","uniform","1","undefined","1","h","0","0","0","7","0","0","0","7","7","0","7","0","7","0","7","7","NA","NA","7","0","Fri Sep 23 21:50:02 2022","1500","The main experiment item","yes","NA","KH-Subject-1.osexp","/Users/keelihatcher/Desktop/Tarleton M.D./Advanced Quantitative Methods & Experimental Design","no","mono","no","18","no","white","no","no","768","legacy","7","7","/Users/keelihatcher/Desktop/Tarleton M.D./Advanced Quantitative Methods & Experimental Design/HL-subject-2.csv","legacy","Lentiform Loewenfeld","3.3.12","0","h","s","NA","NA","NA","h","NA","541","93591","NA","NA","NA","541","NA","NA","NA","2","legacy","1024","2","48000","-16","experiment","HHHHH","2","even","95342","NA","NA","107826","1732","NA","NA","108902","107317","1603","NA","NA","108905","NA","109010","109552","NA","NA","109010","NA","Flanker Task","6","4692","8","yes","1024"
"77.77777777777777","77.77777777777777","570.2222222222222","570.2222222222222","black","legacy","legacy","legacy","0","congruent","uniform","1","undefined","1","h","0","0","0","8","0","0","0","8","8","0","8","0","8","0","8","8","NA","NA","8","0","Fri Sep 23 21:50:02 2022","1500","The main experiment item","yes","NA","KH-Subject-1.osexp","/Users/keelihatcher/Desktop/Tarleton M.D./Advanced Quantitative Methods & Experimental Design","no","mono","no","18","no","white","no","no","768","legacy","8","8","/Users/keelihatcher/Desktop/Tarleton M.D./Advanced Quantitative Methods & Experimental Design/HL-subject-2.csv","legacy","Lentiform Loewenfeld","3.3.12","0","h","s","NA","NA","NA","h","NA","440","93591","NA","NA","NA","440","NA","NA","NA","2","legacy","1024","2","48000","-16","experiment","HHHHH","2","even","95342","NA","NA","109556","1732","NA","NA","110638","107317","1603","NA","NA","110642","NA","110753","111194","NA","NA","110753","NA","Flanker Task","7","5132","9","yes","1024"
"80","80","557.7","557.7","black","legacy","legacy","legacy","0","incongruent","uniform","1","undefined","1","s","0","0","0","9","0","0","0","9","9","0","9","0","9","0","9","9","NA","NA","9","0","Fri Sep 23 21:50:02 2022","1500","The main experiment item","yes","NA","KH-Subject-1.osexp","/Users/keelihatcher/Desktop/Tarleton M.D./Advanced Quantitative Methods & Experimental Design","no","mono","no","18","no","white","no","no","768","legacy","9","9","/Users/keelihatcher/Desktop/Tarleton M.D./Advanced Quantitative Methods & Experimental Design/HL-subject-2.csv","legacy","Lentiform Loewenfeld","3.3.12","0","s","s","NA","NA","NA","s","NA","445","93591","NA","NA","NA","445","NA","NA","NA","2","legacy","1024","2","48000","-16","experiment","HHSHH","2","even","95342","NA","NA","111198","1732","NA","NA","112273","107317","1603","NA","NA","112278","NA","112383","112829","NA","NA","112383","NA","Flanker Task","8","5577","10","yes","1024"
"81.81818181818181","81.81818181818181","543.4545454545455","543.4545454545455","black","legacy","legacy","legacy","0","congruent","uniform","1","undefined","1","s","0","0","0","10","0","0","0","10","10","0","10","0","10","0","10","10","NA","NA","10","0","Fri Sep 23 21:50:02 2022","1500","The main experiment item","yes","NA","KH-Subject-1.osexp","/Users/keelihatcher/Desktop/Tarleton M.D./Advanced Quantitative Methods & Experimental Design","no","mono","no","18","no","white","no","no","768","legacy","10","10","/Users/keelihatcher/Desktop/Tarleton M.D./Advanced Quantitative Methods & Experimental Design/HL-subject-2.csv","legacy","Lentiform Loewenfeld","3.3.12","0","s","s","NA","NA","NA","s","NA","401","93591","NA","NA","NA","401","NA","NA","NA","2","legacy","1024","2","48000","-16","experiment","SSSSS","2","even","95342","NA","NA","112832","1732","NA","NA","113897","107317","1603","NA","NA","113901","NA","114006","114408","NA","NA","114006","NA","Flanker Task","9","5978","11","yes","1024"
"83.33333333333333","83.33333333333333","533","533","black","legacy","legacy","legacy","0","congruent","uniform","1","undefined","1","h","0","0","0","11","0","0","0","11","11","0","11","0","11","0","11","11","NA","NA","11","0","Fri Sep 23 21:50:02 2022","1500","The main experiment item","yes","NA","KH-Subject-1.osexp","/Users/keelihatcher/Desktop/Tarleton M.D./Advanced Quantitative Methods & Experimental Design","no","mono","no","18","no","white","no","no","768","legacy","11","11","/Users/keelihatcher/Desktop/Tarleton M.D./Advanced Quantitative Methods & Experimental Design/HL-subject-2.csv","legacy","Lentiform Loewenfeld","3.3.12","0","h","s","NA","NA","NA","h","NA","418","93591","NA","NA","NA","418","NA","NA","NA","2","legacy","1024","2","48000","-16","experiment","HHHHH","2","even","95342","NA","NA","114412","1732","NA","NA","115491","107317","1603","NA","NA","115495","NA","115600","116018","NA","NA","115600","NA","Flanker Task","10","6396","12","yes","1024"
"84.61538461538461","84.61538461538461","528","528","black","legacy","legacy","legacy","0","incongruent","uniform","1","undefined","1","h","0","0","0","12","0","0","0","12","12","0","12","0","12","0","12","12","NA","NA","12","0","Fri Sep 23 21:50:02 2022","1500","The main experiment item","yes","NA","KH-Subject-1.osexp","/Users/keelihatcher/Desktop/Tarleton M.D./Advanced Quantitative Methods & Experimental Design","no","mono","no","18","no","white","no","no","768","legacy","12","12","/Users/keelihatcher/Desktop/Tarleton M.D./Advanced Quantitative Methods & Experimental Design/HL-subject-2.csv","legacy","Lentiform Loewenfeld","3.3.12","0","h","s","NA","NA","NA","h","NA","468","93591","NA","NA","NA","468","NA","NA","NA","2","legacy","1024","2","48000","-16","experiment","SSHSS","2","even","95342","NA","NA","116022","1732","NA","NA","117100","107317","1603","NA","NA","117105","NA","117211","117679","NA","NA","117211","NA","Flanker Task","11","6864","13","yes","1024"
"85.71428571428571","85.71428571428571","517.8571428571429","517.8571428571429","black","legacy","legacy","legacy","0","congruent","uniform","1","undefined","1","h","0","0","0","13","0","0","0","13","13","0","13","0","13","0","13","13","NA","NA","13","0","Fri Sep 23 21:50:02 2022","1500","The main experiment item","yes","NA","KH-Subject-1.osexp","/Users/keelihatcher/Desktop/Tarleton M.D./Advanced Quantitative Methods & Experimental Design","no","mono","no","18","no","white","no","no","768","legacy","13","13","/Users/keelihatcher/Desktop/Tarleton M.D./Advanced Quantitative Methods & Experimental Design/HL-subject-2.csv","legacy","Lentiform Loewenfeld","3.3.12","0","h","s","NA","NA","NA","h","NA","386","93591","NA","NA","NA","386","NA","NA","NA","2","legacy","1024","2","48000","-16","experiment","HHHHH","2","even","95342","NA","NA","117684","1732","NA","NA","118763","107317","1603","NA","NA","118767","NA","118873","119260","NA","NA","118873","NA","Flanker Task","12","7250","14","yes","1024"
"86.66666666666667","86.66666666666667","508.73333333333335","508.73333333333335","black","legacy","legacy","legacy","0","incongruent","uniform","1","undefined","1","s","0","0","0","14","0","0","0","14","14","0","14","0","14","0","14","14","NA","NA","14","0","Fri Sep 23 21:50:02 2022","1500","The main experiment item","yes","NA","KH-Subject-1.osexp","/Users/keelihatcher/Desktop/Tarleton M.D./Advanced Quantitative Methods & Experimental Design","no","mono","no","18","no","white","no","no","768","legacy","14","14","/Users/keelihatcher/Desktop/Tarleton M.D./Advanced Quantitative Methods & Experimental Design/HL-subject-2.csv","legacy","Lentiform Loewenfeld","3.3.12","0","s","s","NA","NA","NA","s","NA","381","93591","NA","NA","NA","381","NA","NA","NA","2","legacy","1024","2","48000","-16","experiment","HHSHH","2","even","95342","NA","NA","119263","1732","NA","NA","120339","107317","1603","NA","NA","120343","NA","120448","120829","NA","NA","120448","NA","Flanker Task","13","7631","15","yes","1024"
"87.5","87.5","500.375","500.375","black","legacy","legacy","legacy","0","congruent","uniform","1","undefined","1","h","0","0","0","15","0","0","0","15","15","0","15","0","15","0","15","15","NA","NA","15","0","Fri Sep 23 21:50:02 2022","1500","The main experiment item","yes","NA","KH-Subject-1.osexp","/Users/keelihatcher/Desktop/Tarleton M.D./Advanced Quantitative Methods & Experimental Design","no","mono","no","18","no","white","no","no","768","legacy","15","15","/Users/keelihatcher/Desktop/Tarleton M.D./Advanced Quantitative Methods & Experimental Design/HL-subject-2.csv","legacy","Lentiform Loewenfeld","3.3.12","0","h","s","NA","NA","NA","h","NA","375","93591","NA","NA","NA","375","NA","NA","NA","2","legacy","1024","2","48000","-16","experiment","HHHHH","2","even","95342","NA","NA","120834","1732","NA","NA","121912","107317","1603","NA","NA","121916","NA","122020","122395","NA","NA","122020","NA","Flanker Task","14","8006","16","yes","1024"
"88.23529411764706","88.23529411764706","492.8235294117647","492.8235294117647","black","legacy","legacy","legacy","0","congruent","uniform","1","undefined","1","s","0","0","0","16","0","0","0","16","16","0","16","0","16","0","16","16","NA","NA","16","0","Fri Sep 23 21:50:02 2022","1500","The main experiment item","yes","NA","KH-Subject-1.osexp","/Users/keelihatcher/Desktop/Tarleton M.D./Advanced Quantitative Methods & Experimental Design","no","mono","no","18","no","white","no","no","768","legacy","16","16","/Users/keelihatcher/Desktop/Tarleton M.D./Advanced Quantitative Methods & Experimental Design/HL-subject-2.csv","legacy","Lentiform Loewenfeld","3.3.12","0","s","s","NA","NA","NA","s","NA","372","93591","NA","NA","NA","372","NA","NA","NA","2","legacy","1024","2","48000","-16","experiment","SSSSS","2","even","95342","NA","NA","122400","1732","NA","NA","123476","107317","1603","NA","NA","123480","NA","123585","123958","NA","NA","123585","NA","Flanker Task","15","8378","17","yes","1024"
"88.88888888888889","88.88888888888889","486.3333333333333","486.3333333333333","black","legacy","legacy","legacy","0","incongruent","uniform","1","undefined","1","s","0","0","0","17","0","0","0","17","17","0","17","0","17","0","17","17","NA","NA","17","0","Fri Sep 23 21:50:02 2022","1500","The main experiment item","yes","NA","KH-Subject-1.osexp","/Users/keelihatcher/Desktop/Tarleton M.D./Advanced Quantitative Methods & Experimental Design","no","mono","no","18","no","white","no","no","768","legacy","17","17","/Users/keelihatcher/Desktop/Tarleton M.D./Advanced Quantitative Methods & Experimental Design/HL-subject-2.csv","legacy","Lentiform Loewenfeld","3.3.12","0","s","s","NA","NA","NA","s","NA","376","93591","NA","NA","NA","376","NA","NA","NA","2","legacy","1024","2","48000","-16","experiment","HHSHH","2","even","95342","NA","NA","123962","1732","NA","NA","125042","107317","1603","NA","NA","125052","NA","125157","125534","NA","NA","125157","NA","Flanker Task","16","8754","18","yes","1024"
"89.47368421052632","89.47368421052632","484.3157894736842","484.3157894736842","black","legacy","legacy","legacy","0","incongruent","uniform","1","undefined","1","s","0","0","0","18","0","0","0","18","18","0","18","0","18","0","18","18","NA","NA","18","0","Fri Sep 23 21:50:02 2022","1500","The main experiment item","yes","NA","KH-Subject-1.osexp","/Users/keelihatcher/Desktop/Tarleton M.D./Advanced Quantitative Methods & Experimental Design","no","mono","no","18","no","white","no","no","768","legacy","18","18","/Users/keelihatcher/Desktop/Tarleton M.D./Advanced Quantitative Methods & Experimental Design/HL-subject-2.csv","legacy","Lentiform Loewenfeld","3.3.12","0","s","s","NA","NA","NA","s","NA","448","93591","NA","NA","NA","448","NA","NA","NA","2","legacy","1024","2","48000","-16","experiment","HHSHH","2","even","95342","NA","NA","125538","1732","NA","NA","126620","107317","1603","NA","NA","126624","NA","126730","127178","NA","NA","126730","NA","Flanker Task","17","9202","19","yes","1024"
"90","90","483.75","483.75","black","legacy","legacy","legacy","0","congruent","uniform","1","undefined","1","h","0","0","0","19","0","0","0","19","19","0","19","0","19","0","19","19","NA","NA","19","0","Fri Sep 23 21:50:02 2022","1500","The main experiment item","yes","NA","KH-Subject-1.osexp","/Users/keelihatcher/Desktop/Tarleton M.D./Advanced Quantitative Methods & Experimental Design","no","mono","no","18","no","white","no","no","768","legacy","19","19","/Users/keelihatcher/Desktop/Tarleton M.D./Advanced Quantitative Methods & Experimental Design/HL-subject-2.csv","legacy","Lentiform Loewenfeld","3.3.12","0","h","s","NA","NA","NA","h","NA","473","93591","NA","NA","NA","473","NA","NA","NA","2","legacy","1024","2","48000","-16","experiment","HHHHH","2","even","95342","NA","NA","127182","1732","NA","NA","128251","107317","1603","NA","NA","128254","NA","128360","128834","NA","NA","128360","NA","Flanker Task","18","9675","20","yes","1024"
"85.71428571428571","85.71428571428571","474.6190476190476","474.6190476190476","black","legacy","legacy","legacy","0","incongruent","uniform","0","undefined","0","h","0","0","0","20","0","0","0","20","20","0","20","0","20","0","20","20","NA","NA","20","0","Fri Sep 23 21:50:02 2022","1500","The main experiment item","yes","NA","KH-Subject-1.osexp","/Users/keelihatcher/Desktop/Tarleton M.D./Advanced Quantitative Methods & Experimental Design","no","mono","no","18","no","white","no","no","768","legacy","20","20","/Users/keelihatcher/Desktop/Tarleton M.D./Advanced Quantitative Methods & Experimental Design/HL-subject-2.csv","legacy","Lentiform Loewenfeld","3.3.12","0","s","s","NA","NA","NA","s","NA","292","93591","NA","NA","NA","292","NA","NA","NA","2","legacy","1024","2","48000","-16","experiment","SSHSS","2","even","95342","NA","NA","128838","1732","NA","NA","129914","107317","1603","NA","NA","129918","NA","130024","130317","NA","NA","130024","NA","Flanker Task","18","9967","21","yes","1024"
"86.36363636363636","86.36363636363636","469.72727272727275","469.72727272727275","black","legacy","legacy","legacy","0","congruent","uniform","1","undefined","1","s","0","0","0","21","0","0","0","21","21","0","21","0","21","0","21","21","NA","NA","21","0","Fri Sep 23 21:50:02 2022","1500","The main experiment item","yes","NA","KH-Subject-1.osexp","/Users/keelihatcher/Desktop/Tarleton M.D./Advanced Quantitative Methods & Experimental Design","no","mono","no","18","no","white","no","no","768","legacy","21","21","/Users/keelihatcher/Desktop/Tarleton M.D./Advanced Quantitative Methods & Experimental Design/HL-subject-2.csv","legacy","Lentiform Loewenfeld","3.3.12","0","s","s","NA","NA","NA","s","NA","367","93591","NA","NA","NA","367","NA","NA","NA","2","legacy","1024","2","48000","-16","experiment","SSSSS","2","even","95342","NA","NA","130829","1732","NA","NA","131906","130321","1603","NA","NA","131910","NA","132015","132382","NA","NA","132015","NA","Flanker Task","19","10334","22","yes","1024"
"86.95652173913044","86.95652173913044","466.7391304347826","466.7391304347826","black","legacy","legacy","legacy","0","incongruent","uniform","1","undefined","1","s","0","0","0","22","0","0","0","22","22","0","22","0","22","0","22","22","NA","NA","22","0","Fri Sep 23 21:50:02 2022","1500","The main experiment item","yes","NA","KH-Subject-1.osexp","/Users/keelihatcher/Desktop/Tarleton M.D./Advanced Quantitative Methods & Experimental Design","no","mono","no","18","no","white","no","no","768","legacy","22","22","/Users/keelihatcher/Desktop/Tarleton M.D./Advanced Quantitative Methods & Experimental Design/HL-subject-2.csv","legacy","Lentiform Loewenfeld","3.3.12","0","s","s","NA","NA","NA","s","NA","401","93591","NA","NA","NA","401","NA","NA","NA","2","legacy","1024","2","48000","-16","experiment","HHSHH","2","even","95342","NA","NA","132386","1732","NA","NA","133466","130321","1603","NA","NA","133469","NA","133572","133974","NA","NA","133572","NA","Flanker Task","20","10735","23","yes","1024"
"87.5","87.5","463.5833333333333","463.5833333333333","black","legacy","legacy","legacy","0","congruent","uniform","1","undefined","1","h","0","0","0","23","0","0","0","23","23","0","23","0","23","0","23","23","NA","NA","23","0","Fri Sep 23 21:50:02 2022","1500","The main experiment item","yes","NA","KH-Subject-1.osexp","/Users/keelihatcher/Desktop/Tarleton M.D./Advanced Quantitative Methods & Experimental Design","no","mono","no","18","no","white","no","no","768","legacy","23","23","/Users/keelihatcher/Desktop/Tarleton M.D./Advanced Quantitative Methods & Experimental Design/HL-subject-2.csv","legacy","Lentiform Loewenfeld","3.3.12","0","h","s","NA","NA","NA","h","NA","391","93591","NA","NA","NA","391","NA","NA","NA","2","legacy","1024","2","48000","-16","experiment","HHHHH","2","even","95342","NA","NA","133978","1732","NA","NA","135057","130321","1603","NA","NA","135060","NA","135165","135557","NA","NA","135165","NA","Flanker Task","21","11126","24","yes","1024"
"88","88","458.96","458.96","black","legacy","legacy","legacy","0","congruent","uniform","1","undefined","1","s","0","0","0","24","0","0","0","24","24","0","24","0","24","0","24","24","NA","NA","24","0","Fri Sep 23 21:50:02 2022","1500","The main experiment item","yes","NA","KH-Subject-1.osexp","/Users/keelihatcher/Desktop/Tarleton M.D./Advanced Quantitative Methods & Experimental Design","no","mono","no","18","no","white","no","no","768","legacy","24","24","/Users/keelihatcher/Desktop/Tarleton M.D./Advanced Quantitative Methods & Experimental Design/HL-subject-2.csv","legacy","Lentiform Loewenfeld","3.3.12","0","s","s","NA","NA","NA","s","NA","348","93591","NA","NA","NA","348","NA","NA","NA","2","legacy","1024","2","48000","-16","experiment","SSSSS","2","even","95342","NA","NA","135561","1732","NA","NA","136637","130321","1603","NA","NA","136641","NA","136746","137094","NA","NA","136746","NA","Flanker Task","22","11474","25","yes","1024"
"88.46153846153847","88.46153846153847","456.11538461538464","456.11538461538464","black","legacy","legacy","legacy","0","congruent","uniform","1","undefined","1","s","0","0","0","25","0","0","0","25","25","0","25","0","25","0","25","25","NA","NA","25","0","Fri Sep 23 21:50:02 2022","1500","The main experiment item","yes","NA","KH-Subject-1.osexp","/Users/keelihatcher/Desktop/Tarleton M.D./Advanced Quantitative Methods & Experimental Design","no","mono","no","18","no","white","no","no","768","legacy","25","25","/Users/keelihatcher/Desktop/Tarleton M.D./Advanced Quantitative Methods & Experimental Design/HL-subject-2.csv","legacy","Lentiform Loewenfeld","3.3.12","0","s","s","NA","NA","NA","s","NA","385","93591","NA","NA","NA","385","NA","NA","NA","2","legacy","1024","2","48000","-16","experiment","SSSSS","2","even","95342","NA","NA","137099","1732","NA","NA","138173","130321","1603","NA","NA","138177","NA","138283","138669","NA","NA","138282","NA","Flanker Task","23","11859","26","yes","1024"
"85.18518518518519","85.18518518518519","453","453","black","legacy","legacy","legacy","0","incongruent","uniform","0","undefined","0","h","0","0","0","26","0","0","0","26","26","0","26","0","26","0","26","26","NA","NA","26","0","Fri Sep 23 21:50:02 2022","1500","The main experiment item","yes","NA","KH-Subject-1.osexp","/Users/keelihatcher/Desktop/Tarleton M.D./Advanced Quantitative Methods & Experimental Design","no","mono","no","18","no","white","no","no","768","legacy","26","26","/Users/keelihatcher/Desktop/Tarleton M.D./Advanced Quantitative Methods & Experimental Design/HL-subject-2.csv","legacy","Lentiform Loewenfeld","3.3.12","0","s","s","NA","NA","NA","s","NA","372","93591","NA","NA","NA","372","NA","NA","NA","2","legacy","1024","2","48000","-16","experiment","SSHSS","2","even","95342","NA","NA","138673","1732","NA","NA","139755","130321","1603","NA","NA","139759","NA","139864","140236","NA","NA","139864","NA","Flanker Task","23","12231","27","yes","1024"
"82.14285714285714","82.14285714285714","450.5357142857143","450.5357142857143","black","legacy","legacy","legacy","0","incongruent","uniform","0","undefined","0","h","0","0","0","27","0","0","0","27","27","0","27","0","27","0","27","27","NA","NA","27","0","Fri Sep 23 21:50:02 2022","1500","The main experiment item","yes","NA","KH-Subject-1.osexp","/Users/keelihatcher/Desktop/Tarleton M.D./Advanced Quantitative Methods & Experimental Design","no","mono","no","18","no","white","no","no","768","legacy","27","27","/Users/keelihatcher/Desktop/Tarleton M.D./Advanced Quantitative Methods & Experimental Design/HL-subject-2.csv","legacy","Lentiform Loewenfeld","3.3.12","0","s","s","NA","NA","NA","s","NA","384","93591","NA","NA","NA","384","NA","NA","NA","2","legacy","1024","2","48000","-16","experiment","SSHSS","2","even","95342","NA","NA","140749","1732","NA","NA","141827","140241","1603","NA","NA","141831","NA","141936","142321","NA","NA","141936","NA","Flanker Task","23","12615","28","yes","1024"
"82.75862068965517","82.75862068965517","448.48275862068965","448.48275862068965","black","legacy","legacy","legacy","0","congruent","uniform","1","undefined","1","s","0","0","0","28","0","0","0","28","28","0","28","0","28","0","28","28","NA","NA","28","0","Fri Sep 23 21:50:02 2022","1500","The main experiment item","yes","NA","KH-Subject-1.osexp","/Users/keelihatcher/Desktop/Tarleton M.D./Advanced Quantitative Methods & Experimental Design","no","mono","no","18","no","white","no","no","768","legacy","28","28","/Users/keelihatcher/Desktop/Tarleton M.D./Advanced Quantitative Methods & Experimental Design/HL-subject-2.csv","legacy","Lentiform Loewenfeld","3.3.12","0","s","s","NA","NA","NA","s","NA","391","93591","NA","NA","NA","391","NA","NA","NA","2","legacy","1024","2","48000","-16","experiment","SSSSS","2","even","95342","NA","NA","142834","1732","NA","NA","143904","142325","1603","NA","NA","143908","NA","144013","144404","NA","NA","144013","NA","Flanker Task","24","13006","29","yes","1024"
"83.33333333333333","83.33333333333333","447.06666666666666","447.06666666666666","black","legacy","legacy","legacy","0","congruent","uniform","1","undefined","1","s","0","0","0","29","0","0","0","29","29","0","29","0","29","0","29","29","NA","NA","29","0","Fri Sep 23 21:50:02 2022","1500","The main experiment item","yes","NA","KH-Subject-1.osexp","/Users/keelihatcher/Desktop/Tarleton M.D./Advanced Quantitative Methods & Experimental Design","no","mono","no","18","no","white","no","no","768","legacy","29","29","/Users/keelihatcher/Desktop/Tarleton M.D./Advanced Quantitative Methods & Experimental Design/HL-subject-2.csv","legacy","Lentiform Loewenfeld","3.3.12","0","s","s","NA","NA","NA","s","NA","406","93591","NA","NA","NA","406","NA","NA","NA","2","legacy","1024","2","48000","-16","experiment","SSSSS","2","even","95342","NA","NA","144409","1732","NA","NA","145493","142325","1603","NA","NA","145497","NA","145602","146009","NA","NA","145602","NA","Flanker Task","25","13412","30","yes","1024"
"83.87096774193549","83.87096774193549","444.64516129032256","444.64516129032256","black","legacy","legacy","legacy","0","congruent","uniform","1","undefined","1","h","0","0","0","30","0","0","0","30","30","0","30","0","30","0","30","30","NA","NA","30","0","Fri Sep 23 21:50:02 2022","1500","The main experiment item","yes","NA","KH-Subject-1.osexp","/Users/keelihatcher/Desktop/Tarleton M.D./Advanced Quantitative Methods & Experimental Design","no","mono","no","18","no","white","no","no","768","legacy","30","30","/Users/keelihatcher/Desktop/Tarleton M.D./Advanced Quantitative Methods & Experimental Design/HL-subject-2.csv","legacy","Lentiform Loewenfeld","3.3.12","0","h","s","NA","NA","NA","h","NA","372","93591","NA","NA","NA","372","NA","NA","NA","2","legacy","1024","2","48000","-16","experiment","HHHHH","2","even","95342","NA","NA","146013","1732","NA","NA","147091","142325","1603","NA","NA","147095","NA","147200","147572","NA","NA","147200","NA","Flanker Task","26","13784","31","yes","1024"
"84.375","84.375","444.46875","444.46875","black","legacy","legacy","legacy","0","incongruent","uniform","1","undefined","1","h","0","0","0","31","0","0","0","31","31","0","31","0","31","0","31","31","NA","NA","31","0","Fri Sep 23 21:50:02 2022","1500","The main experiment item","yes","NA","KH-Subject-1.osexp","/Users/keelihatcher/Desktop/Tarleton M.D./Advanced Quantitative Methods & Experimental Design","no","mono","no","18","no","white","no","no","768","legacy","31","31","/Users/keelihatcher/Desktop/Tarleton M.D./Advanced Quantitative Methods & Experimental Design/HL-subject-2.csv","legacy","Lentiform Loewenfeld","3.3.12","0","h","s","NA","NA","NA","h","NA","439","93591","NA","NA","NA","439","NA","NA","NA","2","legacy","1024","2","48000","-16","experiment","SSHSS","2","even","95342","NA","NA","147576","1732","NA","NA","148640","142325","1603","NA","NA","148644","NA","148749","149189","NA","NA","148749","NA","Flanker Task","27","14223","32","yes","1024"
"84.84848484848484","84.84848484848484","442.6666666666667","442.6666666666667","black","legacy","legacy","legacy","0","incongruent","uniform","1","undefined","1","h","0","0","0","32","0","0","0","32","32","0","32","0","32","0","32","32","NA","NA","32","0","Fri Sep 23 21:50:02 2022","1500","The main experiment item","yes","NA","KH-Subject-1.osexp","/Users/keelihatcher/Desktop/Tarleton M.D./Advanced Quantitative Methods & Experimental Design","no","mono","no","18","no","white","no","no","768","legacy","32","32","/Users/keelihatcher/Desktop/Tarleton M.D./Advanced Quantitative Methods & Experimental Design/HL-subject-2.csv","legacy","Lentiform Loewenfeld","3.3.12","0","h","s","NA","NA","NA","h","NA","385","93591","NA","NA","NA","385","NA","NA","NA","2","legacy","1024","2","48000","-16","experiment","SSHSS","2","even","95342","NA","NA","149194","1732","NA","NA","150270","142325","1603","NA","NA","150274","NA","150379","150764","NA","NA","150379","NA","Flanker Task","28","14608","33","yes","1024"
"85.29411764705883","85.29411764705883","443.1764705882353","443.1764705882353","black","legacy","legacy","legacy","0","congruent","uniform","1","undefined","1","s","0","0","0","33","0","0","0","33","33","0","33","0","33","0","33","33","NA","NA","33","0","Fri Sep 23 21:50:02 2022","1500","The main experiment item","yes","NA","KH-Subject-1.osexp","/Users/keelihatcher/Desktop/Tarleton M.D./Advanced Quantitative Methods & Experimental Design","no","mono","no","18","no","white","no","no","768","legacy","33","33","/Users/keelihatcher/Desktop/Tarleton M.D./Advanced Quantitative Methods & Experimental Design/HL-subject-2.csv","legacy","Lentiform Loewenfeld","3.3.12","0","s","s","NA","NA","NA","s","NA","460","93591","NA","NA","NA","460","NA","NA","NA","2","legacy","1024","2","48000","-16","experiment","SSSSS","2","even","95342","NA","NA","150768","1732","NA","NA","151838","142325","1603","NA","NA","151842","NA","151947","152408","NA","NA","151947","NA","Flanker Task","29","15068","34","yes","1024"
"85.71428571428571","85.71428571428571","445.8857142857143","445.8857142857143","black","legacy","legacy","legacy","0","incongruent","uniform","1","undefined","1","s","0","0","0","34","0","0","0","34","34","0","34","0","34","0","34","34","NA","NA","34","0","Fri Sep 23 21:50:02 2022","1500","The main experiment item","yes","NA","KH-Subject-1.osexp","/Users/keelihatcher/Desktop/Tarleton M.D./Advanced Quantitative Methods & Experimental Design","no","mono","no","18","no","white","no","no","768","legacy","34","34","/Users/keelihatcher/Desktop/Tarleton M.D./Advanced Quantitative Methods & Experimental Design/HL-subject-2.csv","legacy","Lentiform Loewenfeld","3.3.12","0","s","s","NA","NA","NA","s","NA","538","93591","NA","NA","NA","538","NA","NA","NA","2","legacy","1024","2","48000","-16","experiment","HHSHH","2","even","95342","NA","NA","152412","1732","NA","NA","153480","142325","1603","NA","NA","153484","NA","153590","154129","NA","NA","153589","NA","Flanker Task","30","15606","35","yes","1024"
"86.11111111111111","86.11111111111111","444.72222222222223","444.72222222222223","black","legacy","legacy","legacy","0","congruent","uniform","1","undefined","1","s","0","0","0","35","0","0","0","35","35","0","35","0","35","0","35","35","NA","NA","35","0","Fri Sep 23 21:50:02 2022","1500","The main experiment item","yes","NA","KH-Subject-1.osexp","/Users/keelihatcher/Desktop/Tarleton M.D./Advanced Quantitative Methods & Experimental Design","no","mono","no","18","no","white","no","no","768","legacy","35","35","/Users/keelihatcher/Desktop/Tarleton M.D./Advanced Quantitative Methods & Experimental Design/HL-subject-2.csv","legacy","Lentiform Loewenfeld","3.3.12","0","s","s","NA","NA","NA","s","NA","404","93591","NA","NA","NA","404","NA","NA","NA","2","legacy","1024","2","48000","-16","experiment","SSSSS","2","even","95342","NA","NA","154133","1732","NA","NA","155209","142325","1603","NA","NA","155213","NA","155318","155723","NA","NA","155318","NA","Flanker Task","31","16010","36","yes","1024"
"86.48648648648648","86.48648648648648","443.43243243243245","443.43243243243245","black","legacy","legacy","legacy","0","congruent","uniform","1","undefined","1","h","0","0","0","36","0","0","0","36","36","0","36","0","36","0","36","36","NA","NA","36","0","Fri Sep 23 21:50:02 2022","1500","The main experiment item","yes","NA","KH-Subject-1.osexp","/Users/keelihatcher/Desktop/Tarleton M.D./Advanced Quantitative Methods & Experimental Design","no","mono","no","18","no","white","no","no","768","legacy","36","36","/Users/keelihatcher/Desktop/Tarleton M.D./Advanced Quantitative Methods & Experimental Design/HL-subject-2.csv","legacy","Lentiform Loewenfeld","3.3.12","0","h","s","NA","NA","NA","h","NA","397","93591","NA","NA","NA","397","NA","NA","NA","2","legacy","1024","2","48000","-16","experiment","HHHHH","2","even","95342","NA","NA","155727","1732","NA","NA","156793","142325","1603","NA","NA","156797","NA","156902","157300","NA","NA","156902","NA","Flanker Task","32","16407","37","yes","1024"
"86.84210526315789","86.84210526315789","443","443","black","legacy","legacy","legacy","0","incongruent","uniform","1","undefined","1","h","0","0","0","37","0","0","0","37","37","0","37","0","37","0","37","37","NA","NA","37","0","Fri Sep 23 21:50:02 2022","1500","The main experiment item","yes","NA","KH-Subject-1.osexp","/Users/keelihatcher/Desktop/Tarleton M.D./Advanced Quantitative Methods & Experimental Design","no","mono","no","18","no","white","no","no","768","legacy","37","37","/Users/keelihatcher/Desktop/Tarleton M.D./Advanced Quantitative Methods & Experimental Design/HL-subject-2.csv","legacy","Lentiform Loewenfeld","3.3.12","0","h","s","NA","NA","NA","h","NA","427","93591","NA","NA","NA","427","NA","NA","NA","2","legacy","1024","2","48000","-16","experiment","SSHSS","2","even","95342","NA","NA","157305","1732","NA","NA","158382","142325","1603","NA","NA","158386","NA","158492","158919","NA","NA","158492","NA","Flanker Task","33","16834","38","yes","1024"
"87.17948717948718","87.17948717948718","441.3333333333333","441.3333333333333","black","legacy","legacy","legacy","0","congruent","uniform","1","undefined","1","h","0","0","0","38","0","0","0","38","38","0","38","0","38","0","38","38","NA","NA","38","0","Fri Sep 23 21:50:02 2022","1500","The main experiment item","yes","NA","KH-Subject-1.osexp","/Users/keelihatcher/Desktop/Tarleton M.D./Advanced Quantitative Methods & Experimental Design","no","mono","no","18","no","white","no","no","768","legacy","38","38","/Users/keelihatcher/Desktop/Tarleton M.D./Advanced Quantitative Methods & Experimental Design/HL-subject-2.csv","legacy","Lentiform Loewenfeld","3.3.12","0","h","s","NA","NA","NA","h","NA","378","93591","NA","NA","NA","378","NA","NA","NA","2","legacy","1024","2","48000","-16","experiment","HHHHH","2","even","95342","NA","NA","158923","1732","NA","NA","159999","142325","1603","NA","NA","160002","NA","160107","160486","NA","NA","160107","NA","Flanker Task","34","17212","39","yes","1024"
"87.5","87.5","439.95","439.95","black","legacy","legacy","legacy","0","incongruent","uniform","1","undefined","1","s","0","0","0","39","0","0","0","39","39","0","39","0","39","0","39","39","NA","NA","39","0","Fri Sep 23 21:50:02 2022","1500","The main experiment item","yes","NA","KH-Subject-1.osexp","/Users/keelihatcher/Desktop/Tarleton M.D./Advanced Quantitative Methods & Experimental Design","no","mono","no","18","no","white","no","no","768","legacy","39","39","/Users/keelihatcher/Desktop/Tarleton M.D./Advanced Quantitative Methods & Experimental Design/HL-subject-2.csv","legacy","Lentiform Loewenfeld","3.3.12","0","s","s","NA","NA","NA","s","NA","386","93591","NA","NA","NA","386","NA","NA","NA","2","legacy","1024","2","48000","-16","experiment","HHSHH","2","even","95342","NA","NA","160490","1732","NA","NA","161569","142325","1603","NA","NA","161573","NA","161678","162065","NA","NA","161678","NA","Flanker Task","35","17598","40","yes","1024"
"87.8048780487805","87.8048780487805","438.1707317073171","438.1707317073171","black","legacy","legacy","legacy","0","congruent","uniform","1","undefined","1","s","0","0","0","40","0","0","0","40","40","0","40","0","40","0","40","40","NA","NA","40","0","Fri Sep 23 21:50:02 2022","1500","The main experiment item","yes","NA","KH-Subject-1.osexp","/Users/keelihatcher/Desktop/Tarleton M.D./Advanced Quantitative Methods & Experimental Design","no","mono","no","18","no","white","no","no","768","legacy","40","40","/Users/keelihatcher/Desktop/Tarleton M.D./Advanced Quantitative Methods & Experimental Design/HL-subject-2.csv","legacy","Lentiform Loewenfeld","3.3.12","0","s","s","NA","NA","NA","s","NA","367","93591","NA","NA","NA","367","NA","NA","NA","2","legacy","1024","2","48000","-16","experiment","SSSSS","2","even","95342","NA","NA","162068","1732","NA","NA","163143","142325","1603","NA","NA","163147","NA","163252","163619","NA","NA","163252","NA","Flanker Task","36","17965","41","yes","1024"
"88.0952380952381","88.0952380952381","440.7142857142857","440.7142857142857","black","legacy","legacy","legacy","0","congruent","uniform","1","undefined","1","h","0","0","0","41","0","0","0","41","41","0","41","0","41","0","41","41","NA","NA","41","0","Fri Sep 23 21:50:02 2022","1500","The main experiment item","yes","NA","KH-Subject-1.osexp","/Users/keelihatcher/Desktop/Tarleton M.D./Advanced Quantitative Methods & Experimental Design","no","mono","no","18","no","white","no","no","768","legacy","41","41","/Users/keelihatcher/Desktop/Tarleton M.D./Advanced Quantitative Methods & Experimental Design/HL-subject-2.csv","legacy","Lentiform Loewenfeld","3.3.12","0","h","s","NA","NA","NA","h","NA","545","93591","NA","NA","NA","545","NA","NA","NA","2","legacy","1024","2","48000","-16","experiment","HHHHH","2","even","95342","NA","NA","163624","1732","NA","NA","164704","142325","1603","NA","NA","164710","NA","164816","165361","NA","NA","164816","NA","Flanker Task","37","18510","42","yes","1024"
"88.37209302325581","88.37209302325581","439.6511627906977","439.6511627906977","black","legacy","legacy","legacy","0","congruent","uniform","1","undefined","1","h","0","0","0","42","0","0","0","42","42","0","42","0","42","0","42","42","NA","NA","42","0","Fri Sep 23 21:50:02 2022","1500","The main experiment item","yes","NA","KH-Subject-1.osexp","/Users/keelihatcher/Desktop/Tarleton M.D./Advanced Quantitative Methods & Experimental Design","no","mono","no","18","no","white","no","no","768","legacy","42","42","/Users/keelihatcher/Desktop/Tarleton M.D./Advanced Quantitative Methods & Experimental Design/HL-subject-2.csv","legacy","Lentiform Loewenfeld","3.3.12","0","h","s","NA","NA","NA","h","NA","395","93591","NA","NA","NA","395","NA","NA","NA","2","legacy","1024","2","48000","-16","experiment","HHHHH","2","even","95342","NA","NA","165366","1732","NA","NA","166445","142325","1603","NA","NA","166449","NA","166554","166950","NA","NA","166554","NA","Flanker Task","38","18905","43","yes","1024"
"86.36363636363636","86.36363636363636","439.1363636363636","439.1363636363636","black","legacy","legacy","legacy","0","incongruent","uniform","0","undefined","0","h","0","0","0","43","0","0","0","43","43","0","43","0","43","0","43","43","NA","NA","43","0","Fri Sep 23 21:50:02 2022","1500","The main experiment item","yes","NA","KH-Subject-1.osexp","/Users/keelihatcher/Desktop/Tarleton M.D./Advanced Quantitative Methods & Experimental Design","no","mono","no","18","no","white","no","no","768","legacy","43","43","/Users/keelihatcher/Desktop/Tarleton M.D./Advanced Quantitative Methods & Experimental Design/HL-subject-2.csv","legacy","Lentiform Loewenfeld","3.3.12","0","s","s","NA","NA","NA","s","NA","417","93591","NA","NA","NA","417","NA","NA","NA","2","legacy","1024","2","48000","-16","experiment","SSHSS","2","even","95342","NA","NA","166956","1732","NA","NA","168042","142325","1603","NA","NA","168046","NA","168151","168568","NA","NA","168151","NA","Flanker Task","38","19322","44","yes","1024"
"86.66666666666667","86.66666666666667","438.0888888888889","438.0888888888889","black","legacy","legacy","legacy","0","congruent","uniform","1","undefined","1","h","0","0","0","44","0","0","0","44","44","0","44","0","44","0","44","44","NA","NA","44","0","Fri Sep 23 21:50:02 2022","1500","The main experiment item","yes","NA","KH-Subject-1.osexp","/Users/keelihatcher/Desktop/Tarleton M.D./Advanced Quantitative Methods & Experimental Design","no","mono","no","18","no","white","no","no","768","legacy","44","44","/Users/keelihatcher/Desktop/Tarleton M.D./Advanced Quantitative Methods & Experimental Design/HL-subject-2.csv","legacy","Lentiform Loewenfeld","3.3.12","0","h","s","NA","NA","NA","h","NA","392","93591","NA","NA","NA","392","NA","NA","NA","2","legacy","1024","2","48000","-16","experiment","HHHHH","2","even","95342","NA","NA","169080","1732","NA","NA","170141","168572","1603","NA","NA","170144","NA","170249","170641","NA","NA","170249","NA","Flanker Task","39","19714","45","yes","1024"
"86.95652173913044","86.95652173913044","445.32608695652175","445.32608695652175","black","legacy","legacy","legacy","0","congruent","uniform","1","undefined","1","s","0","0","0","45","0","0","0","45","45","0","45","0","45","0","45","45","NA","NA","45","0","Fri Sep 23 21:50:02 2022","1500","The main experiment item","yes","NA","KH-Subject-1.osexp","/Users/keelihatcher/Desktop/Tarleton M.D./Advanced Quantitative Methods & Experimental Design","no","mono","no","18","no","white","no","no","768","legacy","45","45","/Users/keelihatcher/Desktop/Tarleton M.D./Advanced Quantitative Methods & Experimental Design/HL-subject-2.csv","legacy","Lentiform Loewenfeld","3.3.12","0","s","s","NA","NA","NA","s","NA","771","93591","NA","NA","NA","771","NA","NA","NA","2","legacy","1024","2","48000","-16","experiment","SSSSS","2","even","95342","NA","NA","170646","1732","NA","NA","171721","168572","1603","NA","NA","171725","NA","171830","172602","NA","NA","171830","NA","Flanker Task","40","20485","46","yes","1024"
"87.23404255319149","87.23404255319149","445.21276595744683","445.21276595744683","black","legacy","legacy","legacy","0","congruent","uniform","1","undefined","1","h","0","0","0","46","0","0","0","46","46","0","46","0","46","0","46","46","NA","NA","46","0","Fri Sep 23 21:50:02 2022","1500","The main experiment item","yes","NA","KH-Subject-1.osexp","/Users/keelihatcher/Desktop/Tarleton M.D./Advanced Quantitative Methods & Experimental Design","no","mono","no","18","no","white","no","no","768","legacy","46","46","/Users/keelihatcher/Desktop/Tarleton M.D./Advanced Quantitative Methods & Experimental Design/HL-subject-2.csv","legacy","Lentiform Loewenfeld","3.3.12","0","h","s","NA","NA","NA","h","NA","440","93591","NA","NA","NA","440","NA","NA","NA","2","legacy","1024","2","48000","-16","experiment","HHHHH","2","even","95342","NA","NA","172606","1732","NA","NA","173686","168572","1603","NA","NA","173690","NA","173795","174236","NA","NA","173795","NA","Flanker Task","41","20925","47","yes","1024"
"87.5","87.5","446.8333333333333","446.8333333333333","black","legacy","legacy","legacy","0","congruent","uniform","1","undefined","1","s","0","0","0","47","0","0","0","47","47","0","47","0","47","0","47","47","NA","NA","47","0","Fri Sep 23 21:50:02 2022","1500","The main experiment item","yes","NA","KH-Subject-1.osexp","/Users/keelihatcher/Desktop/Tarleton M.D./Advanced Quantitative Methods & Experimental Design","no","mono","no","18","no","white","no","no","768","legacy","47","47","/Users/keelihatcher/Desktop/Tarleton M.D./Advanced Quantitative Methods & Experimental Design/HL-subject-2.csv","legacy","Lentiform Loewenfeld","3.3.12","0","s","s","NA","NA","NA","s","NA","523","93591","NA","NA","NA","523","NA","NA","NA","2","legacy","1024","2","48000","-16","experiment","SSSSS","2","even","95342","NA","NA","174240","1732","NA","NA","175305","168572","1603","NA","NA","175309","NA","175414","175938","NA","NA","175414","NA","Flanker Task","42","21448","48","yes","1024"
"87.75510204081633","87.75510204081633","447.44897959183675","447.44897959183675","black","legacy","legacy","legacy","0","incongruent","uniform","1","undefined","1","h","0","0","0","48","0","0","0","48","48","0","48","0","48","0","48","48","NA","NA","48","0","Fri Sep 23 21:50:02 2022","1500","The main experiment item","yes","NA","KH-Subject-1.osexp","/Users/keelihatcher/Desktop/Tarleton M.D./Advanced Quantitative Methods & Experimental Design","no","mono","no","18","no","white","no","no","768","legacy","48","48","/Users/keelihatcher/Desktop/Tarleton M.D./Advanced Quantitative Methods & Experimental Design/HL-subject-2.csv","legacy","Lentiform Loewenfeld","3.3.12","0","h","s","NA","NA","NA","h","NA","477","93591","NA","NA","NA","477","NA","NA","NA","2","legacy","1024","2","48000","-16","experiment","SSHSS","2","even","95342","NA","NA","175942","1732","NA","NA","177020","168572","1603","NA","NA","177024","NA","177130","177607","NA","NA","177129","NA","Flanker Task","43","21925","49","yes","1024"
"88","88","446.94","446.94","black","legacy","legacy","legacy","0","congruent","uniform","1","undefined","1","s","0","0","0","49","0","0","0","49","49","0","49","0","49","0","49","49","NA","NA","49","0","Fri Sep 23 21:50:02 2022","1500","The main experiment item","yes","NA","KH-Subject-1.osexp","/Users/keelihatcher/Desktop/Tarleton M.D./Advanced Quantitative Methods & Experimental Design","no","mono","no","18","no","white","no","no","768","legacy","49","49","/Users/keelihatcher/Desktop/Tarleton M.D./Advanced Quantitative Methods & Experimental Design/HL-subject-2.csv","legacy","Lentiform Loewenfeld","3.3.12","0","s","s","NA","NA","NA","s","NA","422","93591","NA","NA","NA","422","NA","NA","NA","2","legacy","1024","2","48000","-16","experiment","SSSSS","2","even","95342","NA","NA","177612","1732","NA","NA","178685","168572","1603","NA","NA","178689","NA","178794","179216","NA","NA","178794","NA","Flanker Task","44","22347","50","yes","1024"
"88.23529411764706","88.23529411764706","448.1764705882353","448.1764705882353","black","legacy","legacy","legacy","0","incongruent","uniform","1","undefined","1","s","0","0","0","50","0","0","0","50","50","0","50","0","50","0","50","50","NA","NA","50","0","Fri Sep 23 21:50:02 2022","1500","The main experiment item","yes","NA","KH-Subject-1.osexp","/Users/keelihatcher/Desktop/Tarleton M.D./Advanced Quantitative Methods & Experimental Design","no","mono","no","18","no","white","no","no","768","legacy","50","50","/Users/keelihatcher/Desktop/Tarleton M.D./Advanced Quantitative Methods & Experimental Design/HL-subject-2.csv","legacy","Lentiform Loewenfeld","3.3.12","0","s","s","NA","NA","NA","s","NA","510","93591","NA","NA","NA","510","NA","NA","NA","2","legacy","1024","2","48000","-16","experiment","HHSHH","2","even","95342","NA","NA","179221","1732","NA","NA","180306","168572","1603","NA","NA","180310","NA","180415","180926","NA","NA","180415","NA","Flanker Task","45","22857","51","yes","1024"
"88.46153846153847","88.46153846153847","449.46153846153845","449.46153846153845","black","legacy","legacy","legacy","0","incongruent","uniform","1","undefined","1","s","0","0","0","51","0","0","0","51","51","0","51","0","51","0","51","51","NA","NA","51","0","Fri Sep 23 21:50:02 2022","1500","The main experiment item","yes","NA","KH-Subject-1.osexp","/Users/keelihatcher/Desktop/Tarleton M.D./Advanced Quantitative Methods & Experimental Design","no","mono","no","18","no","white","no","no","768","legacy","51","51","/Users/keelihatcher/Desktop/Tarleton M.D./Advanced Quantitative Methods & Experimental Design/HL-subject-2.csv","legacy","Lentiform Loewenfeld","3.3.12","0","s","s","NA","NA","NA","s","NA","515","93591","NA","NA","NA","515","NA","NA","NA","2","legacy","1024","2","48000","-16","experiment","HHSHH","2","even","95342","NA","NA","180930","1732","NA","NA","182005","168572","1603","NA","NA","182009","NA","182114","182629","NA","NA","182114","NA","Flanker Task","46","23372","52","yes","1024"
"88.67924528301887","88.67924528301887","450.45283018867923","450.45283018867923","black","legacy","legacy","legacy","0","incongruent","uniform","1","undefined","1","s","0","0","0","52","0","0","0","52","52","0","52","0","52","0","52","52","NA","NA","52","0","Fri Sep 23 21:50:02 2022","1500","The main experiment item","yes","NA","KH-Subject-1.osexp","/Users/keelihatcher/Desktop/Tarleton M.D./Advanced Quantitative Methods & Experimental Design","no","mono","no","18","no","white","no","no","768","legacy","52","52","/Users/keelihatcher/Desktop/Tarleton M.D./Advanced Quantitative Methods & Experimental Design/HL-subject-2.csv","legacy","Lentiform Loewenfeld","3.3.12","0","s","s","NA","NA","NA","s","NA","502","93591","NA","NA","NA","502","NA","NA","NA","2","legacy","1024","2","48000","-16","experiment","HHSHH","2","even","95342","NA","NA","182633","1732","NA","NA","183712","168572","1603","NA","NA","183716","NA","183821","184324","NA","NA","183821","NA","Flanker Task","47","23874","53","yes","1024"
"88.88888888888889","88.88888888888889","450.8333333333333","450.8333333333333","black","legacy","legacy","legacy","0","incongruent","uniform","1","undefined","1","h","0","0","0","53","0","0","0","53","53","0","53","0","53","0","53","53","NA","NA","53","0","Fri Sep 23 21:50:02 2022","1500","The main experiment item","yes","NA","KH-Subject-1.osexp","/Users/keelihatcher/Desktop/Tarleton M.D./Advanced Quantitative Methods & Experimental Design","no","mono","no","18","no","white","no","no","768","legacy","53","53","/Users/keelihatcher/Desktop/Tarleton M.D./Advanced Quantitative Methods & Experimental Design/HL-subject-2.csv","legacy","Lentiform Loewenfeld","3.3.12","0","h","s","NA","NA","NA","h","NA","471","93591","NA","NA","NA","471","NA","NA","NA","2","legacy","1024","2","48000","-16","experiment","SSHSS","2","even","95342","NA","NA","184328","1732","NA","NA","185419","168572","1603","NA","NA","185422","NA","185527","185999","NA","NA","185527","NA","Flanker Task","48","24345","54","yes","1024"
"89.0909090909091","89.0909090909091","451.25454545454545","451.25454545454545","black","legacy","legacy","legacy","0","incongruent","uniform","1","undefined","1","h","0","0","0","54","0","0","0","54","54","0","54","0","54","0","54","54","NA","NA","54","0","Fri Sep 23 21:50:02 2022","1500","The main experiment item","yes","NA","KH-Subject-1.osexp","/Users/keelihatcher/Desktop/Tarleton M.D./Advanced Quantitative Methods & Experimental Design","no","mono","no","18","no","white","no","no","768","legacy","54","54","/Users/keelihatcher/Desktop/Tarleton M.D./Advanced Quantitative Methods & Experimental Design/HL-subject-2.csv","legacy","Lentiform Loewenfeld","3.3.12","0","h","s","NA","NA","NA","h","NA","474","93591","NA","NA","NA","474","NA","NA","NA","2","legacy","1024","2","48000","-16","experiment","SSHSS","2","even","95342","NA","NA","186003","1732","NA","NA","187084","168572","1603","NA","NA","187088","NA","187193","187668","NA","NA","187193","NA","Flanker Task","49","24819","55","yes","1024"
"89.28571428571429","89.28571428571429","454.85714285714283","454.85714285714283","black","legacy","legacy","legacy","0","incongruent","uniform","1","undefined","1","s","0","0","0","55","0","0","0","55","55","0","55","0","55","0","55","55","NA","NA","55","0","Fri Sep 23 21:50:02 2022","1500","The main experiment item","yes","NA","KH-Subject-1.osexp","/Users/keelihatcher/Desktop/Tarleton M.D./Advanced Quantitative Methods & Experimental Design","no","mono","no","18","no","white","no","no","768","legacy","55","55","/Users/keelihatcher/Desktop/Tarleton M.D./Advanced Quantitative Methods & Experimental Design/HL-subject-2.csv","legacy","Lentiform Loewenfeld","3.3.12","0","s","s","NA","NA","NA","s","NA","653","93591","NA","NA","NA","653","NA","NA","NA","2","legacy","1024","2","48000","-16","experiment","HHSHH","2","even","95342","NA","NA","187673","1732","NA","NA","188752","168572","1603","NA","NA","188755","NA","188860","189513","NA","NA","188860","NA","Flanker Task","50","25472","56","yes","1024"
"89.47368421052632","89.47368421052632","456.6140350877193","456.6140350877193","black","legacy","legacy","legacy","0","congruent","uniform","1","undefined","1","s","0","0","0","56","0","0","0","56","56","0","56","0","56","0","56","56","NA","NA","56","0","Fri Sep 23 21:50:02 2022","1500","The main experiment item","yes","NA","KH-Subject-1.osexp","/Users/keelihatcher/Desktop/Tarleton M.D./Advanced Quantitative Methods & Experimental Design","no","mono","no","18","no","white","no","no","768","legacy","56","56","/Users/keelihatcher/Desktop/Tarleton M.D./Advanced Quantitative Methods & Experimental Design/HL-subject-2.csv","legacy","Lentiform Loewenfeld","3.3.12","0","s","s","NA","NA","NA","s","NA","555","93591","NA","NA","NA","555","NA","NA","NA","2","legacy","1024","2","48000","-16","experiment","SSSSS","2","even","95342","NA","NA","189517","1732","NA","NA","190578","168572","1603","NA","NA","190581","NA","190687","191243","NA","NA","190687","NA","Flanker Task","51","26027","57","yes","1024"
"89.65517241379311","89.65517241379311","459.2413793103448","459.2413793103448","black","legacy","legacy","legacy","0","incongruent","uniform","1","undefined","1","s","0","0","0","57","0","0","0","57","57","0","57","0","57","0","57","57","NA","NA","57","0","Fri Sep 23 21:50:02 2022","1500","The main experiment item","yes","NA","KH-Subject-1.osexp","/Users/keelihatcher/Desktop/Tarleton M.D./Advanced Quantitative Methods & Experimental Design","no","mono","no","18","no","white","no","no","768","legacy","57","57","/Users/keelihatcher/Desktop/Tarleton M.D./Advanced Quantitative Methods & Experimental Design/HL-subject-2.csv","legacy","Lentiform Loewenfeld","3.3.12","0","s","s","NA","NA","NA","s","NA","609","93591","NA","NA","NA","609","NA","NA","NA","2","legacy","1024","2","48000","-16","experiment","HHSHH","2","even","95342","NA","NA","191247","1732","NA","NA","192331","168572","1603","NA","NA","192335","NA","192440","193050","NA","NA","192440","NA","Flanker Task","52","26636","58","yes","1024"
"89.83050847457628","89.83050847457628","458.03389830508473","458.03389830508473","black","legacy","legacy","legacy","0","congruent","uniform","1","undefined","1","h","0","0","0","58","0","0","0","58","58","0","58","0","58","0","58","58","NA","NA","58","0","Fri Sep 23 21:50:02 2022","1500","The main experiment item","yes","NA","KH-Subject-1.osexp","/Users/keelihatcher/Desktop/Tarleton M.D./Advanced Quantitative Methods & Experimental Design","no","mono","no","18","no","white","no","no","768","legacy","58","58","/Users/keelihatcher/Desktop/Tarleton M.D./Advanced Quantitative Methods & Experimental Design/HL-subject-2.csv","legacy","Lentiform Loewenfeld","3.3.12","0","h","s","NA","NA","NA","h","NA","388","93591","NA","NA","NA","388","NA","NA","NA","2","legacy","1024","2","48000","-16","experiment","HHHHH","2","even","95342","NA","NA","193054","1732","NA","NA","194129","168572","1603","NA","NA","194133","NA","194239","194628","NA","NA","194239","NA","Flanker Task","53","27024","59","yes","1024"
"90","90","457","457","black","legacy","legacy","legacy","0","congruent","uniform","1","undefined","1","s","0","0","0","59","0","0","0","59","59","0","59","0","59","0","59","59","NA","NA","59","0","Fri Sep 23 21:50:02 2022","1500","The main experiment item","yes","NA","KH-Subject-1.osexp","/Users/keelihatcher/Desktop/Tarleton M.D./Advanced Quantitative Methods & Experimental Design","no","mono","no","18","no","white","no","no","768","legacy","59","59","/Users/keelihatcher/Desktop/Tarleton M.D./Advanced Quantitative Methods & Experimental Design/HL-subject-2.csv","legacy","Lentiform Loewenfeld","3.3.12","0","s","s","NA","NA","NA","s","NA","396","93591","NA","NA","NA","396","NA","NA","NA","2","legacy","1024","2","48000","-16","experiment","SSSSS","2","even","95342","NA","NA","194632","1732","NA","NA","195690","168572","1603","NA","NA","195693","NA","195798","196195","NA","NA","195798","NA","Flanker Task","54","27420","60","yes","1024"
"90.1639344262295","90.1639344262295","457.59016393442624","457.59016393442624","black","legacy","legacy","legacy","0","incongruent","uniform","1","undefined","1","s","0","0","0","60","0","0","0","60","60","0","60","0","60","0","60","60","NA","NA","60","0","Fri Sep 23 21:50:02 2022","1500","The main experiment item","yes","NA","KH-Subject-1.osexp","/Users/keelihatcher/Desktop/Tarleton M.D./Advanced Quantitative Methods & Experimental Design","no","mono","no","18","no","white","no","no","768","legacy","60","60","/Users/keelihatcher/Desktop/Tarleton M.D./Advanced Quantitative Methods & Experimental Design/HL-subject-2.csv","legacy","Lentiform Loewenfeld","3.3.12","0","s","s","NA","NA","NA","s","NA","493","93591","NA","NA","NA","493","NA","NA","NA","2","legacy","1024","2","48000","-16","experiment","HHSHH","2","even","95342","NA","NA","196200","1732","NA","NA","197277","168572","1603","NA","NA","197281","NA","197386","197880","NA","NA","197386","NA","Flanker Task","55","27913","61","yes","1024"
"90.3225806451613","90.3225806451613","457.88709677419354","457.88709677419354","black","legacy","legacy","legacy","0","incongruent","uniform","1","undefined","1","h","0","0","0","61","0","0","0","61","61","0","61","0","61","0","61","61","NA","NA","61","0","Fri Sep 23 21:50:02 2022","1500","The main experiment item","yes","NA","KH-Subject-1.osexp","/Users/keelihatcher/Desktop/Tarleton M.D./Advanced Quantitative Methods & Experimental Design","no","mono","no","18","no","white","no","no","768","legacy","61","61","/Users/keelihatcher/Desktop/Tarleton M.D./Advanced Quantitative Methods & Experimental Design/HL-subject-2.csv","legacy","Lentiform Loewenfeld","3.3.12","0","h","s","NA","NA","NA","h","NA","476","93591","NA","NA","NA","476","NA","NA","NA","2","legacy","1024","2","48000","-16","experiment","SSHSS","2","even","95342","NA","NA","197884","1732","NA","NA","198967","168572","1603","NA","NA","198971","NA","199076","199553","NA","NA","199076","NA","Flanker Task","56","28389","62","yes","1024"
"90.47619047619048","90.47619047619048","459.5079365079365","459.5079365079365","black","legacy","legacy","legacy","0","congruent","uniform","1","undefined","1","h","0","0","0","62","0","0","0","62","62","0","62","0","62","0","62","62","NA","NA","62","0","Fri Sep 23 21:50:02 2022","1500","The main experiment item","yes","NA","KH-Subject-1.osexp","/Users/keelihatcher/Desktop/Tarleton M.D./Advanced Quantitative Methods & Experimental Design","no","mono","no","18","no","white","no","no","768","legacy","62","62","/Users/keelihatcher/Desktop/Tarleton M.D./Advanced Quantitative Methods & Experimental Design/HL-subject-2.csv","legacy","Lentiform Loewenfeld","3.3.12","0","h","s","NA","NA","NA","h","NA","560","93591","NA","NA","NA","560","NA","NA","NA","2","legacy","1024","2","48000","-16","experiment","HHHHH","2","even","95342","NA","NA","199557","1732","NA","NA","200637","168572","1603","NA","NA","200641","NA","200745","201306","NA","NA","200745","NA","Flanker Task","57","28949","63","yes","1024"
"90.625","90.625","460.875","460.875","black","legacy","legacy","legacy","0","incongruent","uniform","1","undefined","1","h","0","0","0","63","0","0","0","63","63","0","63","0","63","0","63","63","NA","NA","63","0","Fri Sep 23 21:50:02 2022","1500","The main experiment item","yes","NA","KH-Subject-1.osexp","/Users/keelihatcher/Desktop/Tarleton M.D./Advanced Quantitative Methods & Experimental Design","no","mono","no","18","no","white","no","no","768","legacy","63","63","/Users/keelihatcher/Desktop/Tarleton M.D./Advanced Quantitative Methods & Experimental Design/HL-subject-2.csv","legacy","Lentiform Loewenfeld","3.3.12","0","h","s","NA","NA","NA","h","NA","547","93591","NA","NA","NA","547","NA","NA","NA","2","legacy","1024","2","48000","-16","experiment","SSHSS","2","even","95342","NA","NA","201310","1732","NA","NA","202391","168572","1603","NA","NA","202395","NA","202500","203048","NA","NA","202500","NA","Flanker Task","58","29496","64","yes","1024"
"90.76923076923077","90.76923076923077","460.33846153846156","460.33846153846156","black","legacy","legacy","legacy","0","incongruent","uniform","1","undefined","1","h","0","0","0","64","0","0","0","64","64","0","64","0","64","0","64","64","NA","NA","64","0","Fri Sep 23 21:50:02 2022","1500","The main experiment item","yes","NA","KH-Subject-1.osexp","/Users/keelihatcher/Desktop/Tarleton M.D./Advanced Quantitative Methods & Experimental Design","no","mono","no","18","no","white","no","no","768","legacy","64","64","/Users/keelihatcher/Desktop/Tarleton M.D./Advanced Quantitative Methods & Experimental Design/HL-subject-2.csv","legacy","Lentiform Loewenfeld","3.3.12","0","h","s","NA","NA","NA","h","NA","426","93591","NA","NA","NA","426","NA","NA","NA","2","legacy","1024","2","48000","-16","experiment","SSHSS","2","even","95342","NA","NA","203052","1732","NA","NA","204130","168572","1603","NA","NA","204134","NA","204240","204667","NA","NA","204239","NA","Flanker Task","59","29922","65","yes","1024"
"90.9090909090909","90.9090909090909","460.6363636363636","460.6363636363636","black","legacy","legacy","legacy","0","incongruent","uniform","1","undefined","1","h","0","0","0","65","0","0","0","65","65","0","65","0","65","0","65","65","NA","NA","65","0","Fri Sep 23 21:50:02 2022","1500","The main experiment item","yes","NA","KH-Subject-1.osexp","/Users/keelihatcher/Desktop/Tarleton M.D./Advanced Quantitative Methods & Experimental Design","no","mono","no","18","no","white","no","no","768","legacy","65","65","/Users/keelihatcher/Desktop/Tarleton M.D./Advanced Quantitative Methods & Experimental Design/HL-subject-2.csv","legacy","Lentiform Loewenfeld","3.3.12","0","h","s","NA","NA","NA","h","NA","480","93591","NA","NA","NA","480","NA","NA","NA","2","legacy","1024","2","48000","-16","experiment","SSHSS","2","even","95342","NA","NA","204671","1732","NA","NA","205746","168572","1603","NA","NA","205750","NA","205854","206335","NA","NA","205854","NA","Flanker Task","60","30402","66","yes","1024"
"91.04477611940298","91.04477611940298","460.35820895522386","460.35820895522386","black","legacy","legacy","legacy","0","incongruent","uniform","1","undefined","1","h","0","0","0","66","0","0","0","66","66","0","66","0","66","0","66","66","NA","NA","66","0","Fri Sep 23 21:50:02 2022","1500","The main experiment item","yes","NA","KH-Subject-1.osexp","/Users/keelihatcher/Desktop/Tarleton M.D./Advanced Quantitative Methods & Experimental Design","no","mono","no","18","no","white","no","no","768","legacy","66","66","/Users/keelihatcher/Desktop/Tarleton M.D./Advanced Quantitative Methods & Experimental Design/HL-subject-2.csv","legacy","Lentiform Loewenfeld","3.3.12","0","h","s","NA","NA","NA","h","NA","442","93591","NA","NA","NA","442","NA","NA","NA","2","legacy","1024","2","48000","-16","experiment","SSHSS","2","even","95342","NA","NA","206339","1732","NA","NA","207417","168572","1603","NA","NA","207421","NA","207526","207968","NA","NA","207526","NA","Flanker Task","61","30844","67","yes","1024"
"91.17647058823529","91.17647058823529","460.6617647058824","460.6617647058824","black","legacy","legacy","legacy","0","congruent","uniform","1","undefined","1","h","0","0","0","67","0","0","0","67","67","0","67","0","67","0","67","67","NA","NA","67","0","Fri Sep 23 21:50:02 2022","1500","The main experiment item","yes","NA","KH-Subject-1.osexp","/Users/keelihatcher/Desktop/Tarleton M.D./Advanced Quantitative Methods & Experimental Design","no","mono","no","18","no","white","no","no","768","legacy","67","67","/Users/keelihatcher/Desktop/Tarleton M.D./Advanced Quantitative Methods & Experimental Design/HL-subject-2.csv","legacy","Lentiform Loewenfeld","3.3.12","0","h","s","NA","NA","NA","h","NA","481","93591","NA","NA","NA","481","NA","NA","NA","2","legacy","1024","2","48000","-16","experiment","HHHHH","2","even","95342","NA","NA","207972","1732","NA","NA","209047","168572","1603","NA","NA","209051","NA","209156","209638","NA","NA","209156","NA","Flanker Task","62","31325","68","yes","1024"
"91.30434782608695","91.30434782608695","460.71014492753625","460.71014492753625","black","legacy","legacy","legacy","0","incongruent","uniform","1","undefined","1","h","0","0","0","68","0","0","0","68","68","0","68","0","68","0","68","68","NA","NA","68","0","Fri Sep 23 21:50:02 2022","1500","The main experiment item","yes","NA","KH-Subject-1.osexp","/Users/keelihatcher/Desktop/Tarleton M.D./Advanced Quantitative Methods & Experimental Design","no","mono","no","18","no","white","no","no","768","legacy","68","68","/Users/keelihatcher/Desktop/Tarleton M.D./Advanced Quantitative Methods & Experimental Design/HL-subject-2.csv","legacy","Lentiform Loewenfeld","3.3.12","0","h","s","NA","NA","NA","h","NA","464","93591","NA","NA","NA","464","NA","NA","NA","2","legacy","1024","2","48000","-16","experiment","SSHSS","2","even","95342","NA","NA","209642","1732","NA","NA","210719","168572","1603","NA","NA","210724","NA","210829","211294","NA","NA","210829","NA","Flanker Task","63","31789","69","yes","1024"
"91.42857142857143","91.42857142857143","459.42857142857144","459.42857142857144","black","legacy","legacy","legacy","0","congruent","uniform","1","undefined","1","s","0","0","0","69","0","0","0","69","69","0","69","0","69","0","69","69","NA","NA","69","0","Fri Sep 23 21:50:02 2022","1500","The main experiment item","yes","NA","KH-Subject-1.osexp","/Users/keelihatcher/Desktop/Tarleton M.D./Advanced Quantitative Methods & Experimental Design","no","mono","no","18","no","white","no","no","768","legacy","69","69","/Users/keelihatcher/Desktop/Tarleton M.D./Advanced Quantitative Methods & Experimental Design/HL-subject-2.csv","legacy","Lentiform Loewenfeld","3.3.12","0","s","s","NA","NA","NA","s","NA","371","93591","NA","NA","NA","371","NA","NA","NA","2","legacy","1024","2","48000","-16","experiment","SSSSS","2","even","95342","NA","NA","211298","1732","NA","NA","212375","168572","1603","NA","NA","212379","NA","212485","212857","NA","NA","212485","NA","Flanker Task","64","32160","70","yes","1024"
"91.54929577464789","91.54929577464789","461.5211267605634","461.5211267605634","black","legacy","legacy","legacy","0","congruent","uniform","1","undefined","1","s","0","0","0","70","0","0","0","70","70","0","70","0","70","0","70","70","NA","NA","70","0","Fri Sep 23 21:50:02 2022","1500","The main experiment item","yes","NA","KH-Subject-1.osexp","/Users/keelihatcher/Desktop/Tarleton M.D./Advanced Quantitative Methods & Experimental Design","no","mono","no","18","no","white","no","no","768","legacy","70","70","/Users/keelihatcher/Desktop/Tarleton M.D./Advanced Quantitative Methods & Experimental Design/HL-subject-2.csv","legacy","Lentiform Loewenfeld","3.3.12","0","s","s","NA","NA","NA","s","NA","608","93591","NA","NA","NA","608","NA","NA","NA","2","legacy","1024","2","48000","-16","experiment","SSSSS","2","even","95342","NA","NA","212861","1732","NA","NA","213937","168572","1603","NA","NA","213941","NA","214046","214655","NA","NA","214046","NA","Flanker Task","65","32768","71","yes","1024"
"91.66666666666667","91.66666666666667","462.4166666666667","462.4166666666667","black","legacy","legacy","legacy","0","congruent","uniform","1","undefined","1","h","0","0","0","71","0","0","0","71","71","0","71","0","71","0","71","71","NA","NA","71","0","Fri Sep 23 21:50:02 2022","1500","The main experiment item","yes","NA","KH-Subject-1.osexp","/Users/keelihatcher/Desktop/Tarleton M.D./Advanced Quantitative Methods & Experimental Design","no","mono","no","18","no","white","no","no","768","legacy","71","71","/Users/keelihatcher/Desktop/Tarleton M.D./Advanced Quantitative Methods & Experimental Design/HL-subject-2.csv","legacy","Lentiform Loewenfeld","3.3.12","0","h","s","NA","NA","NA","h","NA","526","93591","NA","NA","NA","526","NA","NA","NA","2","legacy","1024","2","48000","-16","experiment","HHHHH","2","even","95342","NA","NA","214659","1732","NA","NA","215737","168572","1603","NA","NA","215741","NA","215847","216374","NA","NA","215847","NA","Flanker Task","66","33294","72","yes","1024"
"91.78082191780823","91.78082191780823","463.3424657534247","463.3424657534247","black","legacy","legacy","legacy","0","congruent","uniform","1","undefined","1","h","0","0","0","72","0","0","0","72","72","0","72","0","72","0","72","72","NA","NA","72","0","Fri Sep 23 21:50:02 2022","1500","The main experiment item","yes","NA","KH-Subject-1.osexp","/Users/keelihatcher/Desktop/Tarleton M.D./Advanced Quantitative Methods & Experimental Design","no","mono","no","18","no","white","no","no","768","legacy","72","72","/Users/keelihatcher/Desktop/Tarleton M.D./Advanced Quantitative Methods & Experimental Design/HL-subject-2.csv","legacy","Lentiform Loewenfeld","3.3.12","0","h","s","NA","NA","NA","h","NA","530","93591","NA","NA","NA","530","NA","NA","NA","2","legacy","1024","2","48000","-16","experiment","HHHHH","2","even","95342","NA","NA","216377","1732","NA","NA","217456","168572","1603","NA","NA","217460","NA","217565","218096","NA","NA","217565","NA","Flanker Task","67","33824","73","yes","1024"
"91.89189189189189","91.89189189189189","464.31081081081084","464.31081081081084","black","legacy","legacy","legacy","0","congruent","uniform","1","undefined","1","s","0","0","0","73","0","0","0","73","73","0","73","0","73","0","73","73","NA","NA","73","0","Fri Sep 23 21:50:02 2022","1500","The main experiment item","yes","NA","KH-Subject-1.osexp","/Users/keelihatcher/Desktop/Tarleton M.D./Advanced Quantitative Methods & Experimental Design","no","mono","no","18","no","white","no","no","768","legacy","73","73","/Users/keelihatcher/Desktop/Tarleton M.D./Advanced Quantitative Methods & Experimental Design/HL-subject-2.csv","legacy","Lentiform Loewenfeld","3.3.12","0","s","s","NA","NA","NA","s","NA","535","93591","NA","NA","NA","535","NA","NA","NA","2","legacy","1024","2","48000","-16","experiment","SSSSS","2","even","95342","NA","NA","218100","1732","NA","NA","219159","168572","1603","NA","NA","219163","NA","219268","219804","NA","NA","219268","NA","Flanker Task","68","34359","74","yes","1024"
"92","92","464.28","464.28","black","legacy","legacy","legacy","0","incongruent","uniform","1","undefined","1","h","0","0","0","74","0","0","0","74","74","0","74","0","74","0","74","74","NA","NA","74","0","Fri Sep 23 21:50:02 2022","1500","The main experiment item","yes","NA","KH-Subject-1.osexp","/Users/keelihatcher/Desktop/Tarleton M.D./Advanced Quantitative Methods & Experimental Design","no","mono","no","18","no","white","no","no","768","legacy","74","74","/Users/keelihatcher/Desktop/Tarleton M.D./Advanced Quantitative Methods & Experimental Design/HL-subject-2.csv","legacy","Lentiform Loewenfeld","3.3.12","0","h","s","NA","NA","NA","h","NA","462","93591","NA","NA","NA","462","NA","NA","NA","2","legacy","1024","2","48000","-16","experiment","SSHSS","2","even","95342","NA","NA","219808","1732","NA","NA","220885","168572","1603","NA","NA","220889","NA","220994","221457","NA","NA","220994","NA","Flanker Task","69","34821","75","yes","1024"
"92.10526315789474","92.10526315789474","464.2105263157895","464.2105263157895","black","legacy","legacy","legacy","0","congruent","uniform","1","undefined","1","s","0","0","0","75","0","0","0","75","75","0","75","0","75","0","75","75","NA","NA","75","0","Fri Sep 23 21:50:02 2022","1500","The main experiment item","yes","NA","KH-Subject-1.osexp","/Users/keelihatcher/Desktop/Tarleton M.D./Advanced Quantitative Methods & Experimental Design","no","mono","no","18","no","white","no","no","768","legacy","75","75","/Users/keelihatcher/Desktop/Tarleton M.D./Advanced Quantitative Methods & Experimental Design/HL-subject-2.csv","legacy","Lentiform Loewenfeld","3.3.12","0","s","s","NA","NA","NA","s","NA","459","93591","NA","NA","NA","459","NA","NA","NA","2","legacy","1024","2","48000","-16","experiment","SSSSS","2","even","95342","NA","NA","221462","1732","NA","NA","222536","168572","1603","NA","NA","222539","NA","222645","223105","NA","NA","222645","NA","Flanker Task","70","35280","76","yes","1024"
"92.20779220779221","92.20779220779221","464.53246753246754","464.53246753246754","black","legacy","legacy","legacy","0","incongruent","uniform","1","undefined","1","s","0","0","0","76","0","0","0","76","76","0","76","0","76","0","76","76","NA","NA","76","0","Fri Sep 23 21:50:02 2022","1500","The main experiment item","yes","NA","KH-Subject-1.osexp","/Users/keelihatcher/Desktop/Tarleton M.D./Advanced Quantitative Methods & Experimental Design","no","mono","no","18","no","white","no","no","768","legacy","76","76","/Users/keelihatcher/Desktop/Tarleton M.D./Advanced Quantitative Methods & Experimental Design/HL-subject-2.csv","legacy","Lentiform Loewenfeld","3.3.12","0","s","s","NA","NA","NA","s","NA","489","93591","NA","NA","NA","489","NA","NA","NA","2","legacy","1024","2","48000","-16","experiment","HHSHH","2","even","95342","NA","NA","223109","1732","NA","NA","224203","168572","1603","NA","NA","224207","NA","224312","224802","NA","NA","224312","NA","Flanker Task","71","35769","77","yes","1024"
"92.3076923076923","92.3076923076923","464.1794871794872","464.1794871794872","black","legacy","legacy","legacy","0","incongruent","uniform","1","undefined","1","h","0","0","0","77","0","0","0","77","77","0","77","0","77","0","77","77","NA","NA","77","0","Fri Sep 23 21:50:02 2022","1500","The main experiment item","yes","NA","KH-Subject-1.osexp","/Users/keelihatcher/Desktop/Tarleton M.D./Advanced Quantitative Methods & Experimental Design","no","mono","no","18","no","white","no","no","768","legacy","77","77","/Users/keelihatcher/Desktop/Tarleton M.D./Advanced Quantitative Methods & Experimental Design/HL-subject-2.csv","legacy","Lentiform Loewenfeld","3.3.12","0","h","s","NA","NA","NA","h","NA","437","93591","NA","NA","NA","437","NA","NA","NA","2","legacy","1024","2","48000","-16","experiment","SSHSS","2","even","95342","NA","NA","224806","1732","NA","NA","225881","168572","1603","NA","NA","225884","NA","225990","226428","NA","NA","225989","NA","Flanker Task","72","36206","78","yes","1024"
"92.40506329113924","92.40506329113924","464.59493670886076","464.59493670886076","black","legacy","legacy","legacy","0","incongruent","uniform","1","undefined","1","s","0","0","0","78","0","0","0","78","78","0","78","0","78","0","78","78","NA","NA","78","0","Fri Sep 23 21:50:02 2022","1500","The main experiment item","yes","NA","KH-Subject-1.osexp","/Users/keelihatcher/Desktop/Tarleton M.D./Advanced Quantitative Methods & Experimental Design","no","mono","no","18","no","white","no","no","768","legacy","78","78","/Users/keelihatcher/Desktop/Tarleton M.D./Advanced Quantitative Methods & Experimental Design/HL-subject-2.csv","legacy","Lentiform Loewenfeld","3.3.12","0","s","s","NA","NA","NA","s","NA","497","93591","NA","NA","NA","497","NA","NA","NA","2","legacy","1024","2","48000","-16","experiment","HHSHH","2","even","95342","NA","NA","226432","1732","NA","NA","227511","168572","1603","NA","NA","227515","NA","227620","228118","NA","NA","227620","NA","Flanker Task","73","36703","79","yes","1024"
"92.5","92.5","464.45","464.45","black","legacy","legacy","legacy","0","incongruent","uniform","1","undefined","1","s","0","0","0","79","0","0","0","79","79","0","79","0","79","0","79","79","NA","NA","79","0","Fri Sep 23 21:50:02 2022","1500","The main experiment item","yes","NA","KH-Subject-1.osexp","/Users/keelihatcher/Desktop/Tarleton M.D./Advanced Quantitative Methods & Experimental Design","no","mono","no","18","no","white","no","no","768","legacy","79","79","/Users/keelihatcher/Desktop/Tarleton M.D./Advanced Quantitative Methods & Experimental Design/HL-subject-2.csv","legacy","Lentiform Loewenfeld","3.3.12","0","s","s","NA","NA","NA","s","NA","453","93591","NA","NA","NA","453","NA","NA","NA","2","legacy","1024","2","48000","-16","experiment","HHSHH","2","even","95342","NA","NA","228122","1732","NA","NA","229197","168572","1603","NA","NA","229201","NA","229305","229759","NA","NA","229305","NA","Flanker Task","74","37156","80","yes","1024"
"92.5925925925926","92.5925925925926","465.2716049382716","465.2716049382716","black","legacy","legacy","legacy","0","incongruent","uniform","1","undefined","1","s","0","0","0","80","0","0","0","80","80","0","80","0","80","0","80","80","NA","NA","80","0","Fri Sep 23 21:50:02 2022","600","The main experiment item","yes","NA","KH-Subject-1.osexp","/Users/keelihatcher/Desktop/Tarleton M.D./Advanced Quantitative Methods & Experimental Design","no","mono","no","18","no","white","no","no","768","legacy","0","79","/Users/keelihatcher/Desktop/Tarleton M.D./Advanced Quantitative Methods & Experimental Design/HL-subject-2.csv","legacy","Lentiform Loewenfeld","3.3.12","0","s","s","s","NA","NA","s","NA","531","93591","17350","NA","NA","531","NA","NA","NA","2","legacy","1024","2","48000","-16","experiment","HHSHH","2","even","95342","248150","NA","229763","1732","230799","NA","248186","168572","1603","NA","NA","248189","NA","248294","248826","NA","NA","248294","NA","Flanker Task","75","37687","81","yes","1024"
"92.6829268292683","92.6829268292683","465.3780487804878","465.3780487804878","black","legacy","legacy","legacy","0","incongruent","uniform","1","undefined","1","h","0","0","0","81","0","0","0","81","81","0","81","0","81","0","81","81","NA","NA","81","0","Fri Sep 23 21:50:02 2022","600","The main experiment item","yes","NA","KH-Subject-1.osexp","/Users/keelihatcher/Desktop/Tarleton M.D./Advanced Quantitative Methods & Experimental Design","no","mono","no","18","no","white","no","no","768","legacy","1","79","/Users/keelihatcher/Desktop/Tarleton M.D./Advanced Quantitative Methods & Experimental Design/HL-subject-2.csv","legacy","Lentiform Loewenfeld","3.3.12","0","h","s","s","NA","NA","h","NA","474","93591","17350","NA","NA","474","NA","NA","NA","2","legacy","1024","2","48000","-16","experiment","SSHSS","2","even","95342","248150","NA","248830","1732","230799","NA","249904","168572","1603","NA","NA","249908","NA","250014","250489","NA","NA","250014","NA","Flanker Task","76","38161","82","yes","1024"
"92.7710843373494","92.7710843373494","464.9277108433735","464.9277108433735","black","legacy","legacy","legacy","0","incongruent","uniform","1","undefined","1","s","0","0","0","82","0","0","0","82","82","0","82","0","82","0","82","82","NA","NA","82","0","Fri Sep 23 21:50:02 2022","600","The main experiment item","yes","NA","KH-Subject-1.osexp","/Users/keelihatcher/Desktop/Tarleton M.D./Advanced Quantitative Methods & Experimental Design","no","mono","no","18","no","white","no","no","768","legacy","2","79","/Users/keelihatcher/Desktop/Tarleton M.D./Advanced Quantitative Methods & Experimental Design/HL-subject-2.csv","legacy","Lentiform Loewenfeld","3.3.12","0","s","s","s","NA","NA","s","NA","428","93591","17350","NA","NA","428","NA","NA","NA","2","legacy","1024","2","48000","-16","experiment","HHSHH","2","even","95342","248150","NA","250494","1732","230799","NA","251566","168572","1603","NA","NA","251570","NA","251675","252104","NA","NA","251675","NA","Flanker Task","77","38589","83","yes","1024"
"92.85714285714286","92.85714285714286","463.7738095238095","463.7738095238095","black","legacy","legacy","legacy","0","incongruent","uniform","1","undefined","1","s","0","0","0","83","0","0","0","83","83","0","83","0","83","0","83","83","NA","NA","83","0","Fri Sep 23 21:50:02 2022","600","The main experiment item","yes","NA","KH-Subject-1.osexp","/Users/keelihatcher/Desktop/Tarleton M.D./Advanced Quantitative Methods & Experimental Design","no","mono","no","18","no","white","no","no","768","legacy","3","79","/Users/keelihatcher/Desktop/Tarleton M.D./Advanced Quantitative Methods & Experimental Design/HL-subject-2.csv","legacy","Lentiform Loewenfeld","3.3.12","0","s","s","s","NA","NA","s","NA","368","93591","17350","NA","NA","368","NA","NA","NA","2","legacy","1024","2","48000","-16","experiment","HHSHH","2","even","95342","248150","NA","252108","1732","230799","NA","253182","168572","1603","NA","NA","253186","NA","253291","253660","NA","NA","253291","NA","Flanker Task","78","38957","84","yes","1024"
"92.94117647058823","92.94117647058823","462.9294117647059","462.9294117647059","black","legacy","legacy","legacy","0","congruent","uniform","1","undefined","1","s","0","0","0","84","0","0","0","84","84","0","84","0","84","0","84","84","NA","NA","84","0","Fri Sep 23 21:50:02 2022","600","The main experiment item","yes","NA","KH-Subject-1.osexp","/Users/keelihatcher/Desktop/Tarleton M.D./Advanced Quantitative Methods & Experimental Design","no","mono","no","18","no","white","no","no","768","legacy","4","79","/Users/keelihatcher/Desktop/Tarleton M.D./Advanced Quantitative Methods & Experimental Design/HL-subject-2.csv","legacy","Lentiform Loewenfeld","3.3.12","0","s","s","s","NA","NA","s","NA","392","93591","17350","NA","NA","392","NA","NA","NA","2","legacy","1024","2","48000","-16","experiment","SSSSS","2","even","95342","248150","NA","253664","1732","230799","NA","254744","168572","1603","NA","NA","254748","NA","254853","255246","NA","NA","254853","NA","Flanker Task","79","39349","85","yes","1024"
"93.02325581395348","93.02325581395348","462.06976744186045","462.06976744186045","black","legacy","legacy","legacy","0","congruent","uniform","1","undefined","1","h","0","0","0","85","0","0","0","85","85","0","85","0","85","0","85","85","NA","NA","85","0","Fri Sep 23 21:50:02 2022","600","The main experiment item","yes","NA","KH-Subject-1.osexp","/Users/keelihatcher/Desktop/Tarleton M.D./Advanced Quantitative Methods & Experimental Design","no","mono","no","18","no","white","no","no","768","legacy","5","79","/Users/keelihatcher/Desktop/Tarleton M.D./Advanced Quantitative Methods & Experimental Design/HL-subject-2.csv","legacy","Lentiform Loewenfeld","3.3.12","0","h","s","s","NA","NA","h","NA","389","93591","17350","NA","NA","389","NA","NA","NA","2","legacy","1024","2","48000","-16","experiment","HHHHH","2","even","95342","248150","NA","255250","1732","230799","NA","256328","168572","1603","NA","NA","256332","NA","256437","256827","NA","NA","256437","NA","Flanker Task","80","39738","86","yes","1024"
"93.10344827586206","93.10344827586206","461.18390804597703","461.18390804597703","black","legacy","legacy","legacy","0","congruent","uniform","1","undefined","1","s","0","0","0","86","0","0","0","86","86","0","86","0","86","0","86","86","NA","NA","86","0","Fri Sep 23 21:50:02 2022","600","The main experiment item","yes","NA","KH-Subject-1.osexp","/Users/keelihatcher/Desktop/Tarleton M.D./Advanced Quantitative Methods & Experimental Design","no","mono","no","18","no","white","no","no","768","legacy","6","79","/Users/keelihatcher/Desktop/Tarleton M.D./Advanced Quantitative Methods & Experimental Design/HL-subject-2.csv","legacy","Lentiform Loewenfeld","3.3.12","0","s","s","s","NA","NA","s","NA","385","93591","17350","NA","NA","385","NA","NA","NA","2","legacy","1024","2","48000","-16","experiment","SSSSS","2","even","95342","248150","NA","256831","1732","230799","NA","257893","168572","1603","NA","NA","257896","NA","258001","258387","NA","NA","258001","NA","Flanker Task","81","40123","87","yes","1024"
"93.18181818181819","93.18181818181819","460.4318181818182","460.4318181818182","black","legacy","legacy","legacy","0","congruent","uniform","1","undefined","1","h","0","0","0","87","0","0","0","87","87","0","87","0","87","0","87","87","NA","NA","87","0","Fri Sep 23 21:50:02 2022","600","The main experiment item","yes","NA","KH-Subject-1.osexp","/Users/keelihatcher/Desktop/Tarleton M.D./Advanced Quantitative Methods & Experimental Design","no","mono","no","18","no","white","no","no","768","legacy","7","79","/Users/keelihatcher/Desktop/Tarleton M.D./Advanced Quantitative Methods & Experimental Design/HL-subject-2.csv","legacy","Lentiform Loewenfeld","3.3.12","0","h","s","s","NA","NA","h","NA","395","93591","17350","NA","NA","395","NA","NA","NA","2","legacy","1024","2","48000","-16","experiment","HHHHH","2","even","95342","248150","NA","258391","1732","230799","NA","259470","168572","1603","NA","NA","259474","NA","259579","259975","NA","NA","259579","NA","Flanker Task","82","40518","88","yes","1024"
"93.25842696629213","93.25842696629213","459.03370786516854","459.03370786516854","black","legacy","legacy","legacy","0","incongruent","uniform","1","undefined","1","s","0","0","0","88","0","0","0","88","88","0","88","0","88","0","88","88","NA","NA","88","0","Fri Sep 23 21:50:02 2022","600","The main experiment item","yes","NA","KH-Subject-1.osexp","/Users/keelihatcher/Desktop/Tarleton M.D./Advanced Quantitative Methods & Experimental Design","no","mono","no","18","no","white","no","no","768","legacy","8","79","/Users/keelihatcher/Desktop/Tarleton M.D./Advanced Quantitative Methods & Experimental Design/HL-subject-2.csv","legacy","Lentiform Loewenfeld","3.3.12","0","s","s","s","NA","NA","s","NA","336","93591","17350","NA","NA","336","NA","NA","NA","2","legacy","1024","2","48000","-16","experiment","HHSHH","2","even","95342","248150","NA","259979","1732","230799","NA","261047","168572","1603","NA","NA","261051","NA","261156","261493","NA","NA","261156","NA","Flanker Task","83","40854","89","yes","1024"
"93.33333333333333","93.33333333333333","458.6222222222222","458.6222222222222","black","legacy","legacy","legacy","0","incongruent","uniform","1","undefined","1","h","0","0","0","89","0","0","0","89","89","0","89","0","89","0","89","89","NA","NA","89","0","Fri Sep 23 21:50:02 2022","600","The main experiment item","yes","NA","KH-Subject-1.osexp","/Users/keelihatcher/Desktop/Tarleton M.D./Advanced Quantitative Methods & Experimental Design","no","mono","no","18","no","white","no","no","768","legacy","9","79","/Users/keelihatcher/Desktop/Tarleton M.D./Advanced Quantitative Methods & Experimental Design/HL-subject-2.csv","legacy","Lentiform Loewenfeld","3.3.12","0","h","s","s","NA","NA","h","NA","422","93591","17350","NA","NA","422","NA","NA","NA","2","legacy","1024","2","48000","-16","experiment","SSHSS","2","even","95342","248150","NA","261497","1732","230799","NA","262571","168572","1603","NA","NA","262575","NA","262680","263103","NA","NA","262680","NA","Flanker Task","84","41276","90","yes","1024"
"93.4065934065934","93.4065934065934","457.8131868131868","457.8131868131868","black","legacy","legacy","legacy","0","congruent","uniform","1","undefined","1","h","0","0","0","90","0","0","0","90","90","0","90","0","90","0","90","90","NA","NA","90","0","Fri Sep 23 21:50:02 2022","600","The main experiment item","yes","NA","KH-Subject-1.osexp","/Users/keelihatcher/Desktop/Tarleton M.D./Advanced Quantitative Methods & Experimental Design","no","mono","no","18","no","white","no","no","768","legacy","10","79","/Users/keelihatcher/Desktop/Tarleton M.D./Advanced Quantitative Methods & Experimental Design/HL-subject-2.csv","legacy","Lentiform Loewenfeld","3.3.12","0","h","s","s","NA","NA","h","NA","385","93591","17350","NA","NA","385","NA","NA","NA","2","legacy","1024","2","48000","-16","experiment","HHHHH","2","even","95342","248150","NA","263107","1732","230799","NA","264184","168572","1603","NA","NA","264188","NA","264294","264680","NA","NA","264293","NA","Flanker Task","85","41661","91","yes","1024"
"93.47826086956522","93.47826086956522","456.45652173913044","456.45652173913044","black","legacy","legacy","legacy","0","incongruent","uniform","1","undefined","1","s","0","0","0","91","0","0","0","91","91","0","91","0","91","0","91","91","NA","NA","91","0","Fri Sep 23 21:50:02 2022","600","The main experiment item","yes","NA","KH-Subject-1.osexp","/Users/keelihatcher/Desktop/Tarleton M.D./Advanced Quantitative Methods & Experimental Design","no","mono","no","18","no","white","no","no","768","legacy","11","79","/Users/keelihatcher/Desktop/Tarleton M.D./Advanced Quantitative Methods & Experimental Design/HL-subject-2.csv","legacy","Lentiform Loewenfeld","3.3.12","0","s","s","s","NA","NA","s","NA","333","93591","17350","NA","NA","333","NA","NA","NA","2","legacy","1024","2","48000","-16","experiment","HHSHH","2","even","95342","248150","NA","264684","1732","230799","NA","265763","168572","1603","NA","NA","265767","NA","265872","266206","NA","NA","265872","NA","Flanker Task","86","41994","92","yes","1024"
"93.54838709677419","93.54838709677419","455.9462365591398","455.9462365591398","black","legacy","legacy","legacy","0","congruent","uniform","1","undefined","1","s","0","0","0","92","0","0","0","92","92","0","92","0","92","0","92","92","NA","NA","92","0","Fri Sep 23 21:50:02 2022","600","The main experiment item","yes","NA","KH-Subject-1.osexp","/Users/keelihatcher/Desktop/Tarleton M.D./Advanced Quantitative Methods & Experimental Design","no","mono","no","18","no","white","no","no","768","legacy","12","79","/Users/keelihatcher/Desktop/Tarleton M.D./Advanced Quantitative Methods & Experimental Design/HL-subject-2.csv","legacy","Lentiform Loewenfeld","3.3.12","0","s","s","s","NA","NA","s","NA","409","93591","17350","NA","NA","409","NA","NA","NA","2","legacy","1024","2","48000","-16","experiment","SSSSS","2","even","95342","248150","NA","266210","1732","230799","NA","267284","168572","1603","NA","NA","267287","NA","267393","267803","NA","NA","267393","NA","Flanker Task","87","42403","93","yes","1024"
"93.61702127659575","93.61702127659575","455.51063829787233","455.51063829787233","black","legacy","legacy","legacy","0","congruent","uniform","1","undefined","1","s","0","0","0","93","0","0","0","93","93","0","93","0","93","0","93","93","NA","NA","93","0","Fri Sep 23 21:50:02 2022","600","The main experiment item","yes","NA","KH-Subject-1.osexp","/Users/keelihatcher/Desktop/Tarleton M.D./Advanced Quantitative Methods & Experimental Design","no","mono","no","18","no","white","no","no","768","legacy","13","79","/Users/keelihatcher/Desktop/Tarleton M.D./Advanced Quantitative Methods & Experimental Design/HL-subject-2.csv","legacy","Lentiform Loewenfeld","3.3.12","0","s","s","s","NA","NA","s","NA","415","93591","17350","NA","NA","415","NA","NA","NA","2","legacy","1024","2","48000","-16","experiment","SSSSS","2","even","95342","248150","NA","267807","1732","230799","NA","268881","168572","1603","NA","NA","268885","NA","268990","269406","NA","NA","268990","NA","Flanker Task","88","42818","94","yes","1024"
"93.6842105263158","93.6842105263158","455.66315789473686","455.66315789473686","black","legacy","legacy","legacy","0","incongruent","uniform","1","undefined","1","s","0","0","0","94","0","0","0","94","94","0","94","0","94","0","94","94","NA","NA","94","0","Fri Sep 23 21:50:02 2022","600","The main experiment item","yes","NA","KH-Subject-1.osexp","/Users/keelihatcher/Desktop/Tarleton M.D./Advanced Quantitative Methods & Experimental Design","no","mono","no","18","no","white","no","no","768","legacy","14","79","/Users/keelihatcher/Desktop/Tarleton M.D./Advanced Quantitative Methods & Experimental Design/HL-subject-2.csv","legacy","Lentiform Loewenfeld","3.3.12","0","s","s","s","NA","NA","s","NA","470","93591","17350","NA","NA","470","NA","NA","NA","2","legacy","1024","2","48000","-16","experiment","HHSHH","2","even","95342","248150","NA","269410","1732","230799","NA","270482","168572","1603","NA","NA","270486","NA","270591","271062","NA","NA","270591","NA","Flanker Task","89","43288","95","yes","1024"
"93.75","93.75","457.0416666666667","457.0416666666667","black","legacy","legacy","legacy","0","incongruent","uniform","1","undefined","1","h","0","0","0","95","0","0","0","95","95","0","95","0","95","0","95","95","NA","NA","95","0","Fri Sep 23 21:50:02 2022","600","The main experiment item","yes","NA","KH-Subject-1.osexp","/Users/keelihatcher/Desktop/Tarleton M.D./Advanced Quantitative Methods & Experimental Design","no","mono","no","18","no","white","no","no","768","legacy","15","79","/Users/keelihatcher/Desktop/Tarleton M.D./Advanced Quantitative Methods & Experimental Design/HL-subject-2.csv","legacy","Lentiform Loewenfeld","3.3.12","0","h","s","s","NA","NA","h","NA","588","93591","17350","NA","NA","588","NA","NA","NA","2","legacy","1024","2","48000","-16","experiment","SSHSS","2","even","95342","248150","NA","271066","1732","230799","NA","272149","168572","1603","NA","NA","272159","NA","272264","272853","NA","NA","272264","NA","Flanker Task","90","43876","96","yes","1024"
"93.81443298969072","93.81443298969072","456.88659793814435","456.88659793814435","black","legacy","legacy","legacy","0","incongruent","uniform","1","undefined","1","h","0","0","0","96","0","0","0","96","96","0","96","0","96","0","96","96","NA","NA","96","0","Fri Sep 23 21:50:02 2022","600","The main experiment item","yes","NA","KH-Subject-1.osexp","/Users/keelihatcher/Desktop/Tarleton M.D./Advanced Quantitative Methods & Experimental Design","no","mono","no","18","no","white","no","no","768","legacy","16","79","/Users/keelihatcher/Desktop/Tarleton M.D./Advanced Quantitative Methods & Experimental Design/HL-subject-2.csv","legacy","Lentiform Loewenfeld","3.3.12","0","h","s","s","NA","NA","h","NA","442","93591","17350","NA","NA","442","NA","NA","NA","2","legacy","1024","2","48000","-16","experiment","SSHSS","2","even","95342","248150","NA","272857","1732","230799","NA","273931","168572","1603","NA","NA","273935","NA","274040","274483","NA","NA","274040","NA","Flanker Task","91","44318","97","yes","1024"
"93.87755102040816","93.87755102040816","455.51020408163265","455.51020408163265","black","legacy","legacy","legacy","0","congruent","uniform","1","undefined","1","s","0","0","0","97","0","0","0","97","97","0","97","0","97","0","97","97","NA","NA","97","0","Fri Sep 23 21:50:02 2022","600","The main experiment item","yes","NA","KH-Subject-1.osexp","/Users/keelihatcher/Desktop/Tarleton M.D./Advanced Quantitative Methods & Experimental Design","no","mono","no","18","no","white","no","no","768","legacy","17","79","/Users/keelihatcher/Desktop/Tarleton M.D./Advanced Quantitative Methods & Experimental Design/HL-subject-2.csv","legacy","Lentiform Loewenfeld","3.3.12","0","s","s","s","NA","NA","s","NA","322","93591","17350","NA","NA","322","NA","NA","NA","2","legacy","1024","2","48000","-16","experiment","SSSSS","2","even","95342","248150","NA","274488","1732","230799","NA","275564","168572","1603","NA","NA","275568","NA","275673","275996","NA","NA","275673","NA","Flanker Task","92","44640","98","yes","1024"
