"acc","accuracy","average_response_time","avg_rt","background","canvas_backend","clock_backend","color_backend","compensation","condition","coordinates","correct","correct_Intructions1","correct_KeyboardResponse","correct_response","count_Block1","count_Block2","count_Block3","count_ErrorFeedback","count_Faster","count_Finish","count_Fixation","count_ISI","count_Instruction3","count_Instructions2","count_Intructions1","count_KeyboardResponse","count_Logger","count_Sequence","count_Stimulus","count_experiment","datetime","deadline","description","disable_garbage_collection","experiment_file","experiment_path","font_bold","font_family","font_italic","font_size","font_underline","foreground","form_clicks","fullscreen","height","keyboard_backend","live_row","live_row_Block1","logfile","mouse_backend","opensesame_codename","opensesame_version","repeat_cycle","response","response_Finish","response_Instruction3","response_Instructions2","response_Intructions1","response_KeyboardResponse","response_time","response_time_Finish","response_time_Instruction3","response_time_Instructions2","response_time_Intructions1","response_time_KeyboardResponse","round_decimals","sampler_backend","sound_buf_size","sound_channels","sound_freq","sound_sample_size","start","stimulus","subject_nr","subject_parity","time_Block1","time_Block2","time_Block3","time_ErrorFeedback","time_Faster","time_Finish","time_Fixation","time_ISI","time_Instruction3","time_Instructions2","time_Intructions1","time_KeyboardResponse","time_Logger","time_Sequence","time_Stimulus","time_experiment","title","total_correct","total_response_time","total_responses","uniform_coordinates","width"
"100","100","974","974","black","legacy","legacy","legacy","0","Congruent","uniform","1","undefined","1","s","0","0","0","0","0","0","0","0","0","0","0","0","0","0","0","0","Sun Sep 25 15:55:40 2022","1500","The main experiment item","yes","Lab21FlankerTask.osexp","/Users/alexisparrish/Desktop","no","mono","no","18","no","white","no","yes","768","legacy","0","0","/Users/alexisparrish/Desktop/DP-subject-3.csv","legacy","Lentiform Loewenfeld","3.3.12","0","s","NA","NA","NA","h","s","974","NA","NA","NA","59375","974","2","legacy","1024","2","48000","-16","experiment","SSSSS","3","odd","63354","NA","NA","NA","NA","NA","63415","NA","NA","NA","3973","63520","64495","63410","63520","3959","Lab 2.1: Flanker Task","1","974","1","yes","1024"
"100","100","836","836","black","legacy","legacy","legacy","0","Incongruent","uniform","1","undefined","1","h","0","0","0","1","1","0","1","1","0","0","0","1","1","1","1","0","Sun Sep 25 15:55:40 2022","1500","The main experiment item","yes","Lab21FlankerTask.osexp","/Users/alexisparrish/Desktop","no","mono","no","18","no","white","no","yes","768","legacy","1","1","/Users/alexisparrish/Desktop/DP-subject-3.csv","legacy","Lentiform Loewenfeld","3.3.12","0","h","NA","NA","NA","h","h","698","NA","NA","NA","59375","698","2","legacy","1024","2","48000","-16","experiment","SSHSS","3","odd","63354","NA","NA","NA","NA","NA","65578","64509","NA","NA","3973","65682","66381","65573","65682","3959","Lab 2.1: Flanker Task","2","1672","2","yes","1024"
"100","100","819.6666666666666","819.6666666666666","black","legacy","legacy","legacy","0","Incongruent","uniform","1","undefined","1","s","0","0","0","2","2","0","2","2","0","0","0","2","2","2","2","0","Sun Sep 25 15:55:40 2022","1500","The main experiment item","yes","Lab21FlankerTask.osexp","/Users/alexisparrish/Desktop","no","mono","no","18","no","white","no","yes","768","legacy","2","2","/Users/alexisparrish/Desktop/DP-subject-3.csv","legacy","Lentiform Loewenfeld","3.3.12","0","s","NA","NA","NA","h","s","787","NA","NA","NA","59375","787","2","legacy","1024","2","48000","-16","experiment","HHSHH","3","odd","63354","NA","NA","NA","NA","NA","67455","66392","NA","NA","3973","67559","68347","67449","67559","3959","Lab 2.1: Flanker Task","3","2459","3","yes","1024"
"100","100","738.75","738.75","black","legacy","legacy","legacy","0","Congruent","uniform","1","undefined","1","h","0","0","0","3","3","0","3","3","0","0","0","3","3","3","3","0","Sun Sep 25 15:55:40 2022","1500","The main experiment item","yes","Lab21FlankerTask.osexp","/Users/alexisparrish/Desktop","no","mono","no","18","no","white","no","yes","768","legacy","3","3","/Users/alexisparrish/Desktop/DP-subject-3.csv","legacy","Lentiform Loewenfeld","3.3.12","0","h","NA","NA","NA","h","h","496","NA","NA","NA","59375","496","2","legacy","1024","2","48000","-16","experiment","HHHHH","3","odd","63354","NA","NA","NA","NA","NA","69415","68357","NA","NA","3973","69519","70016","69411","69519","3959","Lab 2.1: Flanker Task","4","2955","4","yes","1024"
"100","100","679","679","black","legacy","legacy","legacy","0","Congruent","uniform","1","undefined","1","s","0","0","0","4","4","0","4","4","0","0","0","4","4","4","4","0","Sun Sep 25 15:55:40 2022","1500","The main experiment item","yes","Lab21FlankerTask.osexp","/Users/alexisparrish/Desktop","no","mono","no","18","no","white","no","yes","768","legacy","4","4","/Users/alexisparrish/Desktop/DP-subject-3.csv","legacy","Lentiform Loewenfeld","3.3.12","0","s","NA","NA","NA","h","s","440","NA","NA","NA","59375","440","2","legacy","1024","2","48000","-16","experiment","SSSSS","3","odd","63354","NA","NA","NA","NA","NA","71094","70027","NA","NA","3973","71198","71639","71085","71198","3959","Lab 2.1: Flanker Task","5","3395","5","yes","1024"
"100","100","667.6666666666666","667.6666666666666","black","legacy","legacy","legacy","0","Incongruent","uniform","1","undefined","1","h","0","0","0","5","5","0","5","5","0","0","0","5","5","5","5","0","Sun Sep 25 15:55:40 2022","1500","The main experiment item","yes","Lab21FlankerTask.osexp","/Users/alexisparrish/Desktop","no","mono","no","18","no","white","no","yes","768","legacy","5","5","/Users/alexisparrish/Desktop/DP-subject-3.csv","legacy","Lentiform Loewenfeld","3.3.12","0","h","NA","NA","NA","h","h","611","NA","NA","NA","59375","611","2","legacy","1024","2","48000","-16","experiment","SSHSS","3","odd","63354","NA","NA","NA","NA","NA","72711","71650","NA","NA","3973","72815","73427","72704","72815","3959","Lab 2.1: Flanker Task","6","4006","6","yes","1024"
"100","100","642","642","black","legacy","legacy","legacy","0","Congruent","uniform","1","undefined","1","h","0","0","0","6","6","0","6","6","0","0","0","6","6","6","6","0","Sun Sep 25 15:55:40 2022","1500","The main experiment item","yes","Lab21FlankerTask.osexp","/Users/alexisparrish/Desktop","no","mono","no","18","no","white","no","yes","768","legacy","6","6","/Users/alexisparrish/Desktop/DP-subject-3.csv","legacy","Lentiform Loewenfeld","3.3.12","0","h","NA","NA","NA","h","h","488","NA","NA","NA","59375","488","2","legacy","1024","2","48000","-16","experiment","HHHHH","3","odd","63354","NA","NA","NA","NA","NA","74499","73439","NA","NA","3973","74604","75096","74493","74604","3959","Lab 2.1: Flanker Task","7","4494","7","yes","1024"
"100","100","633.375","633.375","black","legacy","legacy","legacy","0","Incongruent","uniform","1","undefined","1","h","0","0","0","7","7","0","7","7","0","0","0","7","7","7","7","0","Sun Sep 25 15:55:40 2022","1500","The main experiment item","yes","Lab21FlankerTask.osexp","/Users/alexisparrish/Desktop","no","mono","no","18","no","white","no","yes","768","legacy","7","7","/Users/alexisparrish/Desktop/DP-subject-3.csv","legacy","Lentiform Loewenfeld","3.3.12","0","h","NA","NA","NA","h","h","573","NA","NA","NA","59375","573","2","legacy","1024","2","48000","-16","experiment","SSHSS","3","odd","63354","NA","NA","NA","NA","NA","76171","75107","NA","NA","3973","76276","76850","76165","76276","3959","Lab 2.1: Flanker Task","8","5067","8","yes","1024"
"100","100","639.6666666666666","639.6666666666666","black","legacy","legacy","legacy","0","Congruent","uniform","1","undefined","1","h","0","0","0","8","8","0","8","8","0","0","0","8","8","8","8","0","Sun Sep 25 15:55:40 2022","1500","The main experiment item","yes","Lab21FlankerTask.osexp","/Users/alexisparrish/Desktop","no","mono","no","18","no","white","no","yes","768","legacy","8","8","/Users/alexisparrish/Desktop/DP-subject-3.csv","legacy","Lentiform Loewenfeld","3.3.12","0","h","NA","NA","NA","h","h","690","NA","NA","NA","59375","690","2","legacy","1024","2","48000","-16","experiment","HHHHH","3","odd","63354","NA","NA","NA","NA","NA","77916","76855","NA","NA","3973","78021","78712","77911","78020","3959","Lab 2.1: Flanker Task","9","5757","9","yes","1024"
"100","100","656.3","656.3","black","legacy","legacy","legacy","0","Congruent","uniform","1","undefined","1","h","0","0","0","9","9","0","9","9","0","0","0","9","9","9","9","0","Sun Sep 25 15:55:40 2022","1500","The main experiment item","yes","Lab21FlankerTask.osexp","/Users/alexisparrish/Desktop","no","mono","no","18","no","white","no","yes","768","legacy","9","9","/Users/alexisparrish/Desktop/DP-subject-3.csv","legacy","Lentiform Loewenfeld","3.3.12","0","h","NA","NA","NA","h","h","806","NA","NA","NA","59375","806","2","legacy","1024","2","48000","-16","experiment","HHHHH","3","odd","63354","NA","NA","NA","NA","NA","79784","78722","NA","NA","3973","79889","80696","79778","79888","3959","Lab 2.1: Flanker Task","10","6563","10","yes","1024"
"100","100","662.5454545454545","662.5454545454545","black","legacy","legacy","legacy","0","Incongruent","uniform","1","undefined","1","h","0","0","0","10","10","0","10","10","0","0","0","10","10","10","10","0","Sun Sep 25 15:55:40 2022","1500","The main experiment item","yes","Lab21FlankerTask.osexp","/Users/alexisparrish/Desktop","no","mono","no","18","no","white","no","yes","768","legacy","10","10","/Users/alexisparrish/Desktop/DP-subject-3.csv","legacy","Lentiform Loewenfeld","3.3.12","0","h","NA","NA","NA","h","h","725","NA","NA","NA","59375","725","2","legacy","1024","2","48000","-16","experiment","SSHSS","3","odd","63354","NA","NA","NA","NA","NA","81768","80706","NA","NA","3973","81872","82598","81761","81872","3959","Lab 2.1: Flanker Task","11","7288","11","yes","1024"
"100","100","646.3333333333334","646.3333333333334","black","legacy","legacy","legacy","0","Incongruent","uniform","1","undefined","1","h","0","0","0","11","11","0","11","11","0","0","0","11","11","11","11","0","Sun Sep 25 15:55:40 2022","1500","The main experiment item","yes","Lab21FlankerTask.osexp","/Users/alexisparrish/Desktop","no","mono","no","18","no","white","no","yes","768","legacy","11","11","/Users/alexisparrish/Desktop/DP-subject-3.csv","legacy","Lentiform Loewenfeld","3.3.12","0","h","NA","NA","NA","h","h","468","NA","NA","NA","59375","468","2","legacy","1024","2","48000","-16","experiment","SSHSS","3","odd","63354","NA","NA","NA","NA","NA","83668","82608","NA","NA","3973","83773","84242","83662","83773","3959","Lab 2.1: Flanker Task","12","7756","12","yes","1024"
"100","100","652.6153846153846","652.6153846153846","black","legacy","legacy","legacy","0","Incongruent","uniform","1","undefined","1","s","0","0","0","12","12","0","12","12","0","0","0","12","12","12","12","0","Sun Sep 25 15:55:40 2022","1500","The main experiment item","yes","Lab21FlankerTask.osexp","/Users/alexisparrish/Desktop","no","mono","no","18","no","white","no","yes","768","legacy","12","12","/Users/alexisparrish/Desktop/DP-subject-3.csv","legacy","Lentiform Loewenfeld","3.3.12","0","s","NA","NA","NA","h","s","728","NA","NA","NA","59375","728","2","legacy","1024","2","48000","-16","experiment","HHSHH","3","odd","63354","NA","NA","NA","NA","NA","85316","84253","NA","NA","3973","85421","86150","85310","85421","3959","Lab 2.1: Flanker Task","13","8484","13","yes","1024"
"100","100","636.7142857142857","636.7142857142857","black","legacy","legacy","legacy","0","Congruent","uniform","1","undefined","1","s","0","0","0","13","13","0","13","13","0","0","0","13","13","13","13","0","Sun Sep 25 15:55:40 2022","1500","The main experiment item","yes","Lab21FlankerTask.osexp","/Users/alexisparrish/Desktop","no","mono","no","18","no","white","no","yes","768","legacy","13","13","/Users/alexisparrish/Desktop/DP-subject-3.csv","legacy","Lentiform Loewenfeld","3.3.12","0","s","NA","NA","NA","h","s","430","NA","NA","NA","59375","430","2","legacy","1024","2","48000","-16","experiment","SSSSS","3","odd","63354","NA","NA","NA","NA","NA","87221","86161","NA","NA","3973","87325","87755","87215","87325","3959","Lab 2.1: Flanker Task","14","8914","14","yes","1024"
"100","100","625.6666666666666","625.6666666666666","black","legacy","legacy","legacy","0","Congruent","uniform","1","undefined","1","h","0","0","0","14","14","0","14","14","0","0","0","14","14","14","14","0","Sun Sep 25 15:55:40 2022","1500","The main experiment item","yes","Lab21FlankerTask.osexp","/Users/alexisparrish/Desktop","no","mono","no","18","no","white","no","yes","768","legacy","14","14","/Users/alexisparrish/Desktop/DP-subject-3.csv","legacy","Lentiform Loewenfeld","3.3.12","0","h","NA","NA","NA","h","h","471","NA","NA","NA","59375","471","2","legacy","1024","2","48000","-16","experiment","HHHHH","3","odd","63354","NA","NA","NA","NA","NA","88828","87766","NA","NA","3973","88932","89403","88823","88932","3959","Lab 2.1: Flanker Task","15","9385","15","yes","1024"
"100","100","613.25","613.25","black","legacy","legacy","legacy","0","Congruent","uniform","1","undefined","1","h","0","0","0","15","15","0","15","15","0","0","0","15","15","15","15","0","Sun Sep 25 15:55:40 2022","1500","The main experiment item","yes","Lab21FlankerTask.osexp","/Users/alexisparrish/Desktop","no","mono","no","18","no","white","no","yes","768","legacy","15","15","/Users/alexisparrish/Desktop/DP-subject-3.csv","legacy","Lentiform Loewenfeld","3.3.12","0","h","NA","NA","NA","h","h","427","NA","NA","NA","59375","427","2","legacy","1024","2","48000","-16","experiment","HHHHH","3","odd","63354","NA","NA","NA","NA","NA","90477","89415","NA","NA","3973","90581","91008","90471","90581","3959","Lab 2.1: Flanker Task","16","9812","16","yes","1024"
"100","100","601.3529411764706","601.3529411764706","black","legacy","legacy","legacy","0","Congruent","uniform","1","undefined","1","h","0","0","0","16","16","0","16","16","0","0","0","16","16","16","16","0","Sun Sep 25 15:55:40 2022","1500","The main experiment item","yes","Lab21FlankerTask.osexp","/Users/alexisparrish/Desktop","no","mono","no","18","no","white","no","yes","768","legacy","16","16","/Users/alexisparrish/Desktop/DP-subject-3.csv","legacy","Lentiform Loewenfeld","3.3.12","0","h","NA","NA","NA","h","h","411","NA","NA","NA","59375","411","2","legacy","1024","2","48000","-16","experiment","HHHHH","3","odd","63354","NA","NA","NA","NA","NA","92083","91020","NA","NA","3973","92187","92598","92077","92187","3959","Lab 2.1: Flanker Task","17","10223","17","yes","1024"
"100","100","596.5555555555555","596.5555555555555","black","legacy","legacy","legacy","0","Incongruent","uniform","1","undefined","1","s","0","0","0","17","17","0","17","17","0","0","0","17","17","17","17","0","Sun Sep 25 15:55:40 2022","1500","The main experiment item","yes","Lab21FlankerTask.osexp","/Users/alexisparrish/Desktop","no","mono","no","18","no","white","no","yes","768","legacy","17","17","/Users/alexisparrish/Desktop/DP-subject-3.csv","legacy","Lentiform Loewenfeld","3.3.12","0","s","NA","NA","NA","h","s","515","NA","NA","NA","59375","515","2","legacy","1024","2","48000","-16","experiment","HHSHH","3","odd","63354","NA","NA","NA","NA","NA","93672","92609","NA","NA","3973","93776","94291","93666","93776","3959","Lab 2.1: Flanker Task","18","10738","18","yes","1024"
"100","100","595.7894736842105","595.7894736842105","black","legacy","legacy","legacy","0","Incongruent","uniform","1","undefined","1","h","0","0","0","18","18","0","18","18","0","0","0","18","18","18","18","0","Sun Sep 25 15:55:40 2022","1500","The main experiment item","yes","Lab21FlankerTask.osexp","/Users/alexisparrish/Desktop","no","mono","no","18","no","white","no","yes","768","legacy","18","18","/Users/alexisparrish/Desktop/DP-subject-3.csv","legacy","Lentiform Loewenfeld","3.3.12","0","h","NA","NA","NA","h","h","582","NA","NA","NA","59375","582","2","legacy","1024","2","48000","-16","experiment","SSHSS","3","odd","63354","NA","NA","NA","NA","NA","95365","94303","NA","NA","3973","95470","96052","95360","95469","3959","Lab 2.1: Flanker Task","19","11320","19","yes","1024"
"100","100","586","586","black","legacy","legacy","legacy","0","Incongruent","uniform","1","undefined","1","h","0","0","0","19","19","0","19","19","0","0","0","19","19","19","19","0","Sun Sep 25 15:55:40 2022","1500","The main experiment item","yes","Lab21FlankerTask.osexp","/Users/alexisparrish/Desktop","no","mono","no","18","no","white","no","yes","768","legacy","19","19","/Users/alexisparrish/Desktop/DP-subject-3.csv","legacy","Lentiform Loewenfeld","3.3.12","0","h","NA","NA","NA","h","h","400","NA","NA","NA","59375","400","2","legacy","1024","2","48000","-16","experiment","SSHSS","3","odd","63354","NA","NA","NA","NA","NA","97125","96064","NA","NA","3973","97229","97629","97120","97229","3959","Lab 2.1: Flanker Task","20","11720","20","yes","1024"
"100","100","579.8571428571429","579.8571428571429","black","legacy","legacy","legacy","0","Congruent","uniform","1","undefined","1","s","0","0","0","20","20","0","20","20","0","0","0","20","20","20","20","0","Sun Sep 25 15:55:40 2022","1500","The main experiment item","yes","Lab21FlankerTask.osexp","/Users/alexisparrish/Desktop","no","mono","no","18","no","white","no","yes","768","legacy","20","20","/Users/alexisparrish/Desktop/DP-subject-3.csv","legacy","Lentiform Loewenfeld","3.3.12","0","s","NA","NA","NA","h","s","457","NA","NA","NA","59375","457","2","legacy","1024","2","48000","-16","experiment","SSSSS","3","odd","63354","NA","NA","NA","NA","NA","98705","97640","NA","NA","3973","98809","99267","98699","98809","3959","Lab 2.1: Flanker Task","21","12177","21","yes","1024"
"100","100","573.0454545454545","573.0454545454545","black","legacy","legacy","legacy","0","Congruent","uniform","1","undefined","1","h","0","0","0","21","21","0","21","21","0","0","0","21","21","21","21","0","Sun Sep 25 15:55:40 2022","1500","The main experiment item","yes","Lab21FlankerTask.osexp","/Users/alexisparrish/Desktop","no","mono","no","18","no","white","no","yes","768","legacy","21","21","/Users/alexisparrish/Desktop/DP-subject-3.csv","legacy","Lentiform Loewenfeld","3.3.12","0","h","NA","NA","NA","h","h","430","NA","NA","NA","59375","430","2","legacy","1024","2","48000","-16","experiment","HHHHH","3","odd","63354","NA","NA","NA","NA","NA","100340","99279","NA","NA","3973","100444","100875","100335","100444","3959","Lab 2.1: Flanker Task","22","12607","22","yes","1024"
"100","100","573.2173913043479","573.2173913043479","black","legacy","legacy","legacy","0","Incongruent","uniform","1","undefined","1","h","0","0","0","22","22","0","22","22","0","0","0","22","22","22","22","0","Sun Sep 25 15:55:40 2022","1500","The main experiment item","yes","Lab21FlankerTask.osexp","/Users/alexisparrish/Desktop","no","mono","no","18","no","white","no","yes","768","legacy","22","22","/Users/alexisparrish/Desktop/DP-subject-3.csv","legacy","Lentiform Loewenfeld","3.3.12","0","h","NA","NA","NA","h","h","577","NA","NA","NA","59375","577","2","legacy","1024","2","48000","-16","experiment","SSHSS","3","odd","63354","NA","NA","NA","NA","NA","101948","100886","NA","NA","3973","102052","102629","101943","102052","3959","Lab 2.1: Flanker Task","23","13184","23","yes","1024"
"100","100","569.3333333333334","569.3333333333334","black","legacy","legacy","legacy","0","Congruent","uniform","1","undefined","1","h","0","0","0","23","23","0","23","23","0","0","0","23","23","23","23","0","Sun Sep 25 15:55:40 2022","1500","The main experiment item","yes","Lab21FlankerTask.osexp","/Users/alexisparrish/Desktop","no","mono","no","18","no","white","no","yes","768","legacy","23","23","/Users/alexisparrish/Desktop/DP-subject-3.csv","legacy","Lentiform Loewenfeld","3.3.12","0","h","NA","NA","NA","h","h","480","NA","NA","NA","59375","480","2","legacy","1024","2","48000","-16","experiment","HHHHH","3","odd","63354","NA","NA","NA","NA","NA","103698","102640","NA","NA","3973","103802","104283","103693","103802","3959","Lab 2.1: Flanker Task","24","13664","24","yes","1024"
"100","100","567.12","567.12","black","legacy","legacy","legacy","0","Congruent","uniform","1","undefined","1","h","0","0","0","24","24","0","24","24","0","0","0","24","24","24","24","0","Sun Sep 25 15:55:40 2022","1500","The main experiment item","yes","Lab21FlankerTask.osexp","/Users/alexisparrish/Desktop","no","mono","no","18","no","white","no","yes","768","legacy","24","24","/Users/alexisparrish/Desktop/DP-subject-3.csv","legacy","Lentiform Loewenfeld","3.3.12","0","h","NA","NA","NA","h","h","514","NA","NA","NA","59375","514","2","legacy","1024","2","48000","-16","experiment","HHHHH","3","odd","63354","NA","NA","NA","NA","NA","105359","104295","NA","NA","3973","105463","105978","105353","105463","3959","Lab 2.1: Flanker Task","25","14178","25","yes","1024"
"100","100","560.5384615384615","560.5384615384615","black","legacy","legacy","legacy","0","Congruent","uniform","1","undefined","1","h","0","0","0","25","25","0","25","25","0","0","0","25","25","25","25","0","Sun Sep 25 15:55:40 2022","1500","The main experiment item","yes","Lab21FlankerTask.osexp","/Users/alexisparrish/Desktop","no","mono","no","18","no","white","no","yes","768","legacy","25","25","/Users/alexisparrish/Desktop/DP-subject-3.csv","legacy","Lentiform Loewenfeld","3.3.12","0","h","NA","NA","NA","h","h","396","NA","NA","NA","59375","396","2","legacy","1024","2","48000","-16","experiment","HHHHH","3","odd","63354","NA","NA","NA","NA","NA","107051","105990","NA","NA","3973","107155","107552","107045","107155","3959","Lab 2.1: Flanker Task","26","14574","26","yes","1024"
"100","100","558.8148148148148","558.8148148148148","black","legacy","legacy","legacy","0","Congruent","uniform","1","undefined","1","s","0","0","0","26","26","0","26","26","0","0","0","26","26","26","26","0","Sun Sep 25 15:55:40 2022","1500","The main experiment item","yes","Lab21FlankerTask.osexp","/Users/alexisparrish/Desktop","no","mono","no","18","no","white","no","yes","768","legacy","26","26","/Users/alexisparrish/Desktop/DP-subject-3.csv","legacy","Lentiform Loewenfeld","3.3.12","0","s","NA","NA","NA","h","s","514","NA","NA","NA","59375","514","2","legacy","1024","2","48000","-16","experiment","SSSSS","3","odd","63354","NA","NA","NA","NA","NA","108626","107563","NA","NA","3973","108731","109246","108620","108730","3959","Lab 2.1: Flanker Task","27","15088","27","yes","1024"
"100","100","553.8214285714286","553.8214285714286","black","legacy","legacy","legacy","0","Congruent","uniform","1","undefined","1","s","0","0","0","27","27","0","27","27","0","0","0","27","27","27","27","0","Sun Sep 25 15:55:40 2022","1500","The main experiment item","yes","Lab21FlankerTask.osexp","/Users/alexisparrish/Desktop","no","mono","no","18","no","white","no","yes","768","legacy","27","27","/Users/alexisparrish/Desktop/DP-subject-3.csv","legacy","Lentiform Loewenfeld","3.3.12","0","s","NA","NA","NA","h","s","419","NA","NA","NA","59375","419","2","legacy","1024","2","48000","-16","experiment","SSSSS","3","odd","63354","NA","NA","NA","NA","NA","110317","109257","NA","NA","3973","110421","110841","110312","110421","3959","Lab 2.1: Flanker Task","28","15507","28","yes","1024"
"100","100","553.551724137931","553.551724137931","black","legacy","legacy","legacy","0","Incongruent","uniform","1","undefined","1","h","0","0","0","28","28","0","28","28","0","0","0","28","28","28","28","0","Sun Sep 25 15:55:40 2022","1500","The main experiment item","yes","Lab21FlankerTask.osexp","/Users/alexisparrish/Desktop","no","mono","no","18","no","white","no","yes","768","legacy","28","28","/Users/alexisparrish/Desktop/DP-subject-3.csv","legacy","Lentiform Loewenfeld","3.3.12","0","h","NA","NA","NA","h","h","546","NA","NA","NA","59375","546","2","legacy","1024","2","48000","-16","experiment","SSHSS","3","odd","63354","NA","NA","NA","NA","NA","111919","110853","NA","NA","3973","112023","112570","111911","112023","3959","Lab 2.1: Flanker Task","29","16053","29","yes","1024"
"100","100","549.9666666666667","549.9666666666667","black","legacy","legacy","legacy","0","Congruent","uniform","1","undefined","1","h","0","0","0","29","29","0","29","29","0","0","0","29","29","29","29","0","Sun Sep 25 15:55:40 2022","1500","The main experiment item","yes","Lab21FlankerTask.osexp","/Users/alexisparrish/Desktop","no","mono","no","18","no","white","no","yes","768","legacy","29","29","/Users/alexisparrish/Desktop/DP-subject-3.csv","legacy","Lentiform Loewenfeld","3.3.12","0","h","NA","NA","NA","h","h","446","NA","NA","NA","59375","446","2","legacy","1024","2","48000","-16","experiment","HHHHH","3","odd","63354","NA","NA","NA","NA","NA","113641","112582","NA","NA","3973","113745","114192","113635","113745","3959","Lab 2.1: Flanker Task","30","16499","30","yes","1024"
"100","100","548.483870967742","548.483870967742","black","legacy","legacy","legacy","0","Incongruent","uniform","1","undefined","1","s","0","0","0","30","30","0","30","30","0","0","0","30","30","30","30","0","Sun Sep 25 15:55:40 2022","1500","The main experiment item","yes","Lab21FlankerTask.osexp","/Users/alexisparrish/Desktop","no","mono","no","18","no","white","no","yes","768","legacy","30","30","/Users/alexisparrish/Desktop/DP-subject-3.csv","legacy","Lentiform Loewenfeld","3.3.12","0","s","NA","NA","NA","h","s","504","NA","NA","NA","59375","504","2","legacy","1024","2","48000","-16","experiment","HHSHH","3","odd","63354","NA","NA","NA","NA","NA","115257","114198","NA","NA","3973","115361","115866","115251","115361","3959","Lab 2.1: Flanker Task","31","17003","31","yes","1024"
"100","100","545.96875","545.96875","black","legacy","legacy","legacy","0","Congruent","uniform","1","undefined","1","h","0","0","0","31","31","0","31","31","0","0","0","31","31","31","31","0","Sun Sep 25 15:55:40 2022","1500","The main experiment item","yes","Lab21FlankerTask.osexp","/Users/alexisparrish/Desktop","no","mono","no","18","no","white","no","yes","768","legacy","31","31","/Users/alexisparrish/Desktop/DP-subject-3.csv","legacy","Lentiform Loewenfeld","3.3.12","0","h","NA","NA","NA","h","h","468","NA","NA","NA","59375","468","2","legacy","1024","2","48000","-16","experiment","HHHHH","3","odd","63354","NA","NA","NA","NA","NA","116933","115877","NA","NA","3973","117037","117506","116929","117037","3959","Lab 2.1: Flanker Task","32","17471","32","yes","1024"
"100","100","549.0909090909091","549.0909090909091","black","legacy","legacy","legacy","0","Incongruent","uniform","1","undefined","1","s","0","0","0","32","32","0","32","32","0","0","0","32","32","32","32","0","Sun Sep 25 15:55:40 2022","1500","The main experiment item","yes","Lab21FlankerTask.osexp","/Users/alexisparrish/Desktop","no","mono","no","18","no","white","no","yes","768","legacy","32","32","/Users/alexisparrish/Desktop/DP-subject-3.csv","legacy","Lentiform Loewenfeld","3.3.12","0","s","NA","NA","NA","h","s","649","NA","NA","NA","59375","649","2","legacy","1024","2","48000","-16","experiment","HHSHH","3","odd","63354","NA","NA","NA","NA","NA","118575","117517","NA","NA","3973","118679","119329","118569","118679","3959","Lab 2.1: Flanker Task","33","18120","33","yes","1024"
"100","100","548.7647058823529","548.7647058823529","black","legacy","legacy","legacy","0","Incongruent","uniform","1","undefined","1","s","0","0","0","33","33","0","33","33","0","0","0","33","33","33","33","0","Sun Sep 25 15:55:40 2022","1500","The main experiment item","yes","Lab21FlankerTask.osexp","/Users/alexisparrish/Desktop","no","mono","no","18","no","white","no","yes","768","legacy","33","33","/Users/alexisparrish/Desktop/DP-subject-3.csv","legacy","Lentiform Loewenfeld","3.3.12","0","s","NA","NA","NA","h","s","538","NA","NA","NA","59375","538","2","legacy","1024","2","48000","-16","experiment","HHSHH","3","odd","63354","NA","NA","NA","NA","NA","120397","119340","NA","NA","3973","120501","121040","120393","120501","3959","Lab 2.1: Flanker Task","34","18658","34","yes","1024"
"100","100","549.3142857142857","549.3142857142857","black","legacy","legacy","legacy","0","Incongruent","uniform","1","undefined","1","h","0","0","0","34","34","0","34","34","0","0","0","34","34","34","34","0","Sun Sep 25 15:55:40 2022","1500","The main experiment item","yes","Lab21FlankerTask.osexp","/Users/alexisparrish/Desktop","no","mono","no","18","no","white","no","yes","768","legacy","34","34","/Users/alexisparrish/Desktop/DP-subject-3.csv","legacy","Lentiform Loewenfeld","3.3.12","0","h","NA","NA","NA","h","h","568","NA","NA","NA","59375","568","2","legacy","1024","2","48000","-16","experiment","SSHSS","3","odd","63354","NA","NA","NA","NA","NA","122110","121051","NA","NA","3973","122216","122785","122104","122215","3959","Lab 2.1: Flanker Task","35","19226","35","yes","1024"
"100","100","549.9722222222222","549.9722222222222","black","legacy","legacy","legacy","0","Incongruent","uniform","1","undefined","1","s","0","0","0","35","35","0","35","35","0","0","0","35","35","35","35","0","Sun Sep 25 15:55:40 2022","1500","The main experiment item","yes","Lab21FlankerTask.osexp","/Users/alexisparrish/Desktop","no","mono","no","18","no","white","no","yes","768","legacy","35","35","/Users/alexisparrish/Desktop/DP-subject-3.csv","legacy","Lentiform Loewenfeld","3.3.12","0","s","NA","NA","NA","h","s","573","NA","NA","NA","59375","573","2","legacy","1024","2","48000","-16","experiment","HHSHH","3","odd","63354","NA","NA","NA","NA","NA","123857","122795","NA","NA","3973","123962","124536","123852","123962","3959","Lab 2.1: Flanker Task","36","19799","36","yes","1024"
"100","100","548.4054054054054","548.4054054054054","black","legacy","legacy","legacy","0","Congruent","uniform","1","undefined","1","s","0","0","0","36","36","0","36","36","0","0","0","36","36","36","36","0","Sun Sep 25 15:55:40 2022","1500","The main experiment item","yes","Lab21FlankerTask.osexp","/Users/alexisparrish/Desktop","no","mono","no","18","no","white","no","yes","768","legacy","36","36","/Users/alexisparrish/Desktop/DP-subject-3.csv","legacy","Lentiform Loewenfeld","3.3.12","0","s","NA","NA","NA","h","s","492","NA","NA","NA","59375","492","2","legacy","1024","2","48000","-16","experiment","SSSSS","3","odd","63354","NA","NA","NA","NA","NA","125604","124542","NA","NA","3973","125708","126201","125599","125708","3959","Lab 2.1: Flanker Task","37","20291","37","yes","1024"
"100","100","544.8421052631579","544.8421052631579","black","legacy","legacy","legacy","0","Congruent","uniform","1","undefined","1","h","0","0","0","37","37","0","37","37","0","0","0","37","37","37","37","0","Sun Sep 25 15:55:40 2022","1500","The main experiment item","yes","Lab21FlankerTask.osexp","/Users/alexisparrish/Desktop","no","mono","no","18","no","white","no","yes","768","legacy","37","37","/Users/alexisparrish/Desktop/DP-subject-3.csv","legacy","Lentiform Loewenfeld","3.3.12","0","h","NA","NA","NA","h","h","413","NA","NA","NA","59375","413","2","legacy","1024","2","48000","-16","experiment","HHHHH","3","odd","63354","NA","NA","NA","NA","NA","127274","126213","NA","NA","3973","127378","127791","127270","127378","3959","Lab 2.1: Flanker Task","38","20704","38","yes","1024"
"100","100","545.5641025641025","545.5641025641025","black","legacy","legacy","legacy","0","Incongruent","uniform","1","undefined","1","h","0","0","0","38","38","0","38","38","0","0","0","38","38","38","38","0","Sun Sep 25 15:55:40 2022","1500","The main experiment item","yes","Lab21FlankerTask.osexp","/Users/alexisparrish/Desktop","no","mono","no","18","no","white","no","yes","768","legacy","38","38","/Users/alexisparrish/Desktop/DP-subject-3.csv","legacy","Lentiform Loewenfeld","3.3.12","0","h","NA","NA","NA","h","h","573","NA","NA","NA","59375","573","2","legacy","1024","2","48000","-16","experiment","SSHSS","3","odd","63354","NA","NA","NA","NA","NA","128864","127803","NA","NA","3973","128969","129542","128858","128969","3959","Lab 2.1: Flanker Task","39","21277","39","yes","1024"
"100","100","550.375","550.375","black","legacy","legacy","legacy","0","Incongruent","uniform","1","undefined","1","s","0","0","0","39","39","0","39","39","0","0","0","39","39","39","39","0","Sun Sep 25 15:55:40 2022","1500","The main experiment item","yes","Lab21FlankerTask.osexp","/Users/alexisparrish/Desktop","no","mono","no","18","no","white","no","yes","768","legacy","39","39","/Users/alexisparrish/Desktop/DP-subject-3.csv","legacy","Lentiform Loewenfeld","3.3.12","0","s","NA","NA","NA","h","s","738","NA","NA","NA","59375","738","2","legacy","1024","2","48000","-16","experiment","HHSHH","3","odd","63354","NA","NA","NA","NA","NA","130615","129554","NA","NA","3973","130719","131457","130609","130719","3959","Lab 2.1: Flanker Task","40","22015","40","yes","1024"
"100","100","548.8780487804878","548.8780487804878","black","legacy","legacy","legacy","0","Incongruent","uniform","1","undefined","1","s","0","0","0","40","40","0","40","40","0","0","0","40","40","40","40","0","Sun Sep 25 15:55:40 2022","1500","The main experiment item","yes","Lab21FlankerTask.osexp","/Users/alexisparrish/Desktop","no","mono","no","18","no","white","no","yes","768","legacy","40","40","/Users/alexisparrish/Desktop/DP-subject-3.csv","legacy","Lentiform Loewenfeld","3.3.12","0","s","NA","NA","NA","h","s","489","NA","NA","NA","59375","489","2","legacy","1024","2","48000","-16","experiment","HHSHH","3","odd","63354","NA","NA","NA","NA","NA","132528","131469","NA","NA","3973","132632","133121","132523","132632","3959","Lab 2.1: Flanker Task","41","22504","41","yes","1024"
"100","100","546.047619047619","546.047619047619","black","legacy","legacy","legacy","0","Congruent","uniform","1","undefined","1","s","0","0","0","41","41","0","41","41","0","0","0","41","41","41","41","0","Sun Sep 25 15:55:40 2022","1500","The main experiment item","yes","Lab21FlankerTask.osexp","/Users/alexisparrish/Desktop","no","mono","no","18","no","white","no","yes","768","legacy","41","41","/Users/alexisparrish/Desktop/DP-subject-3.csv","legacy","Lentiform Loewenfeld","3.3.12","0","s","NA","NA","NA","h","s","430","NA","NA","NA","59375","430","2","legacy","1024","2","48000","-16","experiment","SSSSS","3","odd","63354","NA","NA","NA","NA","NA","134192","133133","NA","NA","3973","134296","134727","134187","134296","3959","Lab 2.1: Flanker Task","42","22934","42","yes","1024"
"100","100","545.1395348837209","545.1395348837209","black","legacy","legacy","legacy","0","Incongruent","uniform","1","undefined","1","h","0","0","0","42","42","0","42","42","0","0","0","42","42","42","42","0","Sun Sep 25 15:55:40 2022","1500","The main experiment item","yes","Lab21FlankerTask.osexp","/Users/alexisparrish/Desktop","no","mono","no","18","no","white","no","yes","768","legacy","42","42","/Users/alexisparrish/Desktop/DP-subject-3.csv","legacy","Lentiform Loewenfeld","3.3.12","0","h","NA","NA","NA","h","h","507","NA","NA","NA","59375","507","2","legacy","1024","2","48000","-16","experiment","SSHSS","3","odd","63354","NA","NA","NA","NA","NA","135796","134738","NA","NA","3973","135900","136408","135791","135900","3959","Lab 2.1: Flanker Task","43","23441","43","yes","1024"
"100","100","542.7727272727273","542.7727272727273","black","legacy","legacy","legacy","0","Congruent","uniform","1","undefined","1","s","0","0","0","43","43","0","43","43","0","0","0","43","43","43","43","0","Sun Sep 25 15:55:40 2022","1500","The main experiment item","yes","Lab21FlankerTask.osexp","/Users/alexisparrish/Desktop","no","mono","no","18","no","white","no","yes","768","legacy","43","43","/Users/alexisparrish/Desktop/DP-subject-3.csv","legacy","Lentiform Loewenfeld","3.3.12","0","s","NA","NA","NA","h","s","441","NA","NA","NA","59375","441","2","legacy","1024","2","48000","-16","experiment","SSSSS","3","odd","63354","NA","NA","NA","NA","NA","137482","136414","NA","NA","3973","137586","138028","137474","137586","3959","Lab 2.1: Flanker Task","44","23882","44","yes","1024"
"100","100","542.6","542.6","black","legacy","legacy","legacy","0","Incongruent","uniform","1","undefined","1","h","0","0","0","44","44","0","44","44","0","0","0","44","44","44","44","0","Sun Sep 25 15:55:40 2022","1500","The main experiment item","yes","Lab21FlankerTask.osexp","/Users/alexisparrish/Desktop","no","mono","no","18","no","white","no","yes","768","legacy","44","44","/Users/alexisparrish/Desktop/DP-subject-3.csv","legacy","Lentiform Loewenfeld","3.3.12","0","h","NA","NA","NA","h","h","535","NA","NA","NA","59375","535","2","legacy","1024","2","48000","-16","experiment","SSHSS","3","odd","63354","NA","NA","NA","NA","NA","139096","138038","NA","NA","3973","139200","139735","139091","139200","3959","Lab 2.1: Flanker Task","45","24417","45","yes","1024"
"100","100","540.9130434782609","540.9130434782609","black","legacy","legacy","legacy","0","Congruent","uniform","1","undefined","1","s","0","0","0","45","45","0","45","45","0","0","0","45","45","45","45","0","Sun Sep 25 15:55:40 2022","1500","The main experiment item","yes","Lab21FlankerTask.osexp","/Users/alexisparrish/Desktop","no","mono","no","18","no","white","no","yes","768","legacy","45","45","/Users/alexisparrish/Desktop/DP-subject-3.csv","legacy","Lentiform Loewenfeld","3.3.12","0","s","NA","NA","NA","h","s","465","NA","NA","NA","59375","465","2","legacy","1024","2","48000","-16","experiment","SSSSS","3","odd","63354","NA","NA","NA","NA","NA","140807","139746","NA","NA","3973","140912","141377","140802","140912","3959","Lab 2.1: Flanker Task","46","24882","46","yes","1024"
"100","100","538.5957446808511","538.5957446808511","black","legacy","legacy","legacy","0","Congruent","uniform","1","undefined","1","s","0","0","0","46","46","0","46","46","0","0","0","46","46","46","46","0","Sun Sep 25 15:55:40 2022","1500","The main experiment item","yes","Lab21FlankerTask.osexp","/Users/alexisparrish/Desktop","no","mono","no","18","no","white","no","yes","768","legacy","46","46","/Users/alexisparrish/Desktop/DP-subject-3.csv","legacy","Lentiform Loewenfeld","3.3.12","0","s","NA","NA","NA","h","s","432","NA","NA","NA","59375","432","2","legacy","1024","2","48000","-16","experiment","SSSSS","3","odd","63354","NA","NA","NA","NA","NA","142449","141388","NA","NA","3973","142554","142987","142444","142553","3959","Lab 2.1: Flanker Task","47","25314","47","yes","1024"
"100","100","542.125","542.125","black","legacy","legacy","legacy","0","Incongruent","uniform","1","undefined","1","s","0","0","0","47","47","0","47","47","0","0","0","47","47","47","47","0","Sun Sep 25 15:55:40 2022","1500","The main experiment item","yes","Lab21FlankerTask.osexp","/Users/alexisparrish/Desktop","no","mono","no","18","no","white","no","yes","768","legacy","47","47","/Users/alexisparrish/Desktop/DP-subject-3.csv","legacy","Lentiform Loewenfeld","3.3.12","0","s","NA","NA","NA","h","s","708","NA","NA","NA","59375","708","2","legacy","1024","2","48000","-16","experiment","HHSHH","3","odd","63354","NA","NA","NA","NA","NA","144062","142999","NA","NA","3973","144166","144875","144057","144166","3959","Lab 2.1: Flanker Task","48","26022","48","yes","1024"
"100","100","540.0408163265306","540.0408163265306","black","legacy","legacy","legacy","0","Incongruent","uniform","1","undefined","1","s","0","0","0","48","48","0","48","48","0","0","0","48","48","48","48","0","Sun Sep 25 15:55:40 2022","1500","The main experiment item","yes","Lab21FlankerTask.osexp","/Users/alexisparrish/Desktop","no","mono","no","18","no","white","no","yes","768","legacy","48","48","/Users/alexisparrish/Desktop/DP-subject-3.csv","legacy","Lentiform Loewenfeld","3.3.12","0","s","NA","NA","NA","h","s","440","NA","NA","NA","59375","440","2","legacy","1024","2","48000","-16","experiment","HHSHH","3","odd","63354","NA","NA","NA","NA","NA","145949","144887","NA","NA","3973","146053","146494","145944","146053","3959","Lab 2.1: Flanker Task","49","26462","49","yes","1024"
"100","100","537.98","537.98","black","legacy","legacy","legacy","0","Congruent","uniform","1","undefined","1","h","0","0","0","49","49","0","49","49","0","0","0","49","49","49","49","0","Sun Sep 25 15:55:40 2022","1500","The main experiment item","yes","Lab21FlankerTask.osexp","/Users/alexisparrish/Desktop","no","mono","no","18","no","white","no","yes","768","legacy","49","49","/Users/alexisparrish/Desktop/DP-subject-3.csv","legacy","Lentiform Loewenfeld","3.3.12","0","h","NA","NA","NA","h","h","437","NA","NA","NA","59375","437","2","legacy","1024","2","48000","-16","experiment","HHHHH","3","odd","63354","NA","NA","NA","NA","NA","147568","146506","NA","NA","3973","147672","148110","147563","147672","3959","Lab 2.1: Flanker Task","50","26899","50","yes","1024"
"100","100","534.8627450980392","534.8627450980392","black","legacy","legacy","legacy","0","Congruent","uniform","1","undefined","1","s","0","0","0","50","50","0","50","50","0","0","0","50","50","50","50","0","Sun Sep 25 15:55:40 2022","1500","The main experiment item","yes","Lab21FlankerTask.osexp","/Users/alexisparrish/Desktop","no","mono","no","18","no","white","no","yes","768","legacy","50","50","/Users/alexisparrish/Desktop/DP-subject-3.csv","legacy","Lentiform Loewenfeld","3.3.12","0","s","NA","NA","NA","h","s","379","NA","NA","NA","59375","379","2","legacy","1024","2","48000","-16","experiment","SSSSS","3","odd","63354","NA","NA","NA","NA","NA","149185","148122","NA","NA","3973","149289","149669","149179","149289","3959","Lab 2.1: Flanker Task","51","27278","51","yes","1024"
"100","100","533.3653846153846","533.3653846153846","black","legacy","legacy","legacy","0","Congruent","uniform","1","undefined","1","s","0","0","0","51","51","0","51","51","0","0","0","51","51","51","51","0","Sun Sep 25 15:55:40 2022","1500","The main experiment item","yes","Lab21FlankerTask.osexp","/Users/alexisparrish/Desktop","no","mono","no","18","no","white","no","yes","768","legacy","51","51","/Users/alexisparrish/Desktop/DP-subject-3.csv","legacy","Lentiform Loewenfeld","3.3.12","0","s","NA","NA","NA","h","s","457","NA","NA","NA","59375","457","2","legacy","1024","2","48000","-16","experiment","SSSSS","3","odd","63354","NA","NA","NA","NA","NA","150743","149681","NA","NA","3973","150847","151305","150738","150847","3959","Lab 2.1: Flanker Task","52","27735","52","yes","1024"
"100","100","531.6415094339623","531.6415094339623","black","legacy","legacy","legacy","0","Congruent","uniform","1","undefined","1","h","0","0","0","52","52","0","52","52","0","0","0","52","52","52","52","0","Sun Sep 25 15:55:40 2022","1500","The main experiment item","yes","Lab21FlankerTask.osexp","/Users/alexisparrish/Desktop","no","mono","no","18","no","white","no","yes","768","legacy","52","52","/Users/alexisparrish/Desktop/DP-subject-3.csv","legacy","Lentiform Loewenfeld","3.3.12","0","h","NA","NA","NA","h","h","442","NA","NA","NA","59375","442","2","legacy","1024","2","48000","-16","experiment","HHHHH","3","odd","63354","NA","NA","NA","NA","NA","152378","151317","NA","NA","3973","152482","152925","152373","152482","3959","Lab 2.1: Flanker Task","53","28177","53","yes","1024"
"100","100","529.925925925926","529.925925925926","black","legacy","legacy","legacy","0","Congruent","uniform","1","undefined","1","h","0","0","0","53","53","0","53","53","0","0","0","53","53","53","53","0","Sun Sep 25 15:55:40 2022","1500","The main experiment item","yes","Lab21FlankerTask.osexp","/Users/alexisparrish/Desktop","no","mono","no","18","no","white","no","yes","768","legacy","53","53","/Users/alexisparrish/Desktop/DP-subject-3.csv","legacy","Lentiform Loewenfeld","3.3.12","0","h","NA","NA","NA","h","h","439","NA","NA","NA","59375","439","2","legacy","1024","2","48000","-16","experiment","HHHHH","3","odd","63354","NA","NA","NA","NA","NA","153996","152935","NA","NA","3973","154101","154542","153991","154101","3959","Lab 2.1: Flanker Task","54","28616","54","yes","1024"
"100","100","529.8363636363637","529.8363636363637","black","legacy","legacy","legacy","0","Incongruent","uniform","1","undefined","1","s","0","0","0","54","54","0","54","54","0","0","0","54","54","54","54","0","Sun Sep 25 15:55:40 2022","1500","The main experiment item","yes","Lab21FlankerTask.osexp","/Users/alexisparrish/Desktop","no","mono","no","18","no","white","no","yes","768","legacy","54","54","/Users/alexisparrish/Desktop/DP-subject-3.csv","legacy","Lentiform Loewenfeld","3.3.12","0","s","NA","NA","NA","h","s","525","NA","NA","NA","59375","525","2","legacy","1024","2","48000","-16","experiment","HHSHH","3","odd","63354","NA","NA","NA","NA","NA","155608","154548","NA","NA","3973","155712","156238","155603","155712","3959","Lab 2.1: Flanker Task","55","29141","55","yes","1024"
"100","100","529.0714285714286","529.0714285714286","black","legacy","legacy","legacy","0","Incongruent","uniform","1","undefined","1","s","0","0","0","55","55","0","55","55","0","0","0","55","55","55","55","0","Sun Sep 25 15:55:40 2022","1500","The main experiment item","yes","Lab21FlankerTask.osexp","/Users/alexisparrish/Desktop","no","mono","no","18","no","white","no","yes","768","legacy","55","55","/Users/alexisparrish/Desktop/DP-subject-3.csv","legacy","Lentiform Loewenfeld","3.3.12","0","s","NA","NA","NA","h","s","487","NA","NA","NA","59375","487","2","legacy","1024","2","48000","-16","experiment","HHSHH","3","odd","63354","NA","NA","NA","NA","NA","157308","156250","NA","NA","3973","157412","157900","157302","157412","3959","Lab 2.1: Flanker Task","56","29628","56","yes","1024"
"100","100","528.5263157894736","528.5263157894736","black","legacy","legacy","legacy","0","Incongruent","uniform","1","undefined","1","s","0","0","0","56","56","0","56","56","0","0","0","56","56","56","56","0","Sun Sep 25 15:55:40 2022","1500","The main experiment item","yes","Lab21FlankerTask.osexp","/Users/alexisparrish/Desktop","no","mono","no","18","no","white","no","yes","768","legacy","56","56","/Users/alexisparrish/Desktop/DP-subject-3.csv","legacy","Lentiform Loewenfeld","3.3.12","0","s","NA","NA","NA","h","s","498","NA","NA","NA","59375","498","2","legacy","1024","2","48000","-16","experiment","HHSHH","3","odd","63354","NA","NA","NA","NA","NA","158972","157912","NA","NA","3973","159078","159577","158966","159077","3959","Lab 2.1: Flanker Task","57","30126","57","yes","1024"
"100","100","526.6896551724138","526.6896551724138","black","legacy","legacy","legacy","0","Incongruent","uniform","1","undefined","1","s","0","0","0","57","57","0","57","57","0","0","0","57","57","57","57","0","Sun Sep 25 15:55:40 2022","1500","The main experiment item","yes","Lab21FlankerTask.osexp","/Users/alexisparrish/Desktop","no","mono","no","18","no","white","no","yes","768","legacy","57","57","/Users/alexisparrish/Desktop/DP-subject-3.csv","legacy","Lentiform Loewenfeld","3.3.12","0","s","NA","NA","NA","h","s","422","NA","NA","NA","59375","422","2","legacy","1024","2","48000","-16","experiment","HHSHH","3","odd","63354","NA","NA","NA","NA","NA","160647","159587","NA","NA","3973","160752","161175","160642","160751","3959","Lab 2.1: Flanker Task","58","30548","58","yes","1024"
"100","100","525.457627118644","525.457627118644","black","legacy","legacy","legacy","0","Congruent","uniform","1","undefined","1","h","0","0","0","58","58","0","58","58","0","0","0","58","58","58","58","0","Sun Sep 25 15:55:40 2022","1500","The main experiment item","yes","Lab21FlankerTask.osexp","/Users/alexisparrish/Desktop","no","mono","no","18","no","white","no","yes","768","legacy","58","58","/Users/alexisparrish/Desktop/DP-subject-3.csv","legacy","Lentiform Loewenfeld","3.3.12","0","h","NA","NA","NA","h","h","454","NA","NA","NA","59375","454","2","legacy","1024","2","48000","-16","experiment","HHHHH","3","odd","63354","NA","NA","NA","NA","NA","162247","161187","NA","NA","3973","162352","162807","162242","162351","3959","Lab 2.1: Flanker Task","59","31002","59","yes","1024"
"100","100","524.4","524.4","black","legacy","legacy","legacy","0","Congruent","uniform","1","undefined","1","s","0","0","0","59","59","0","59","59","0","0","0","59","59","59","59","0","Sun Sep 25 15:55:40 2022","1500","The main experiment item","yes","Lab21FlankerTask.osexp","/Users/alexisparrish/Desktop","no","mono","no","18","no","white","no","yes","768","legacy","59","59","/Users/alexisparrish/Desktop/DP-subject-3.csv","legacy","Lentiform Loewenfeld","3.3.12","0","s","NA","NA","NA","h","s","462","NA","NA","NA","59375","462","2","legacy","1024","2","48000","-16","experiment","SSSSS","3","odd","63354","NA","NA","NA","NA","NA","163883","162817","NA","NA","3973","163987","164450","163875","163987","3959","Lab 2.1: Flanker Task","60","31464","60","yes","1024"
"100","100","523.7049180327868","523.7049180327868","black","legacy","legacy","legacy","0","Congruent","uniform","1","undefined","1","h","0","0","0","60","60","0","60","60","0","0","0","60","60","60","60","0","Sun Sep 25 15:55:40 2022","1500","The main experiment item","yes","Lab21FlankerTask.osexp","/Users/alexisparrish/Desktop","no","mono","no","18","no","white","no","yes","768","legacy","60","60","/Users/alexisparrish/Desktop/DP-subject-3.csv","legacy","Lentiform Loewenfeld","3.3.12","0","h","NA","NA","NA","h","h","482","NA","NA","NA","59375","482","2","legacy","1024","2","48000","-16","experiment","HHHHH","3","odd","63354","NA","NA","NA","NA","NA","165517","164457","NA","NA","3973","165621","166104","165512","165621","3959","Lab 2.1: Flanker Task","61","31946","61","yes","1024"
"100","100","521.4354838709677","521.4354838709677","black","legacy","legacy","legacy","0","Congruent","uniform","1","undefined","1","s","0","0","0","61","61","0","61","61","0","0","0","61","61","61","61","0","Sun Sep 25 15:55:40 2022","1500","The main experiment item","yes","Lab21FlankerTask.osexp","/Users/alexisparrish/Desktop","no","mono","no","18","no","white","no","yes","768","legacy","61","61","/Users/alexisparrish/Desktop/DP-subject-3.csv","legacy","Lentiform Loewenfeld","3.3.12","0","s","NA","NA","NA","h","s","383","NA","NA","NA","59375","383","2","legacy","1024","2","48000","-16","experiment","SSSSS","3","odd","63354","NA","NA","NA","NA","NA","167178","166116","NA","NA","3973","167282","167666","167172","167282","3959","Lab 2.1: Flanker Task","62","32329","62","yes","1024"
"100","100","521.7301587301587","521.7301587301587","black","legacy","legacy","legacy","0","Incongruent","uniform","1","undefined","1","s","0","0","0","62","62","0","62","62","0","0","0","62","62","62","62","0","Sun Sep 25 15:55:40 2022","1500","The main experiment item","yes","Lab21FlankerTask.osexp","/Users/alexisparrish/Desktop","no","mono","no","18","no","white","no","yes","768","legacy","62","62","/Users/alexisparrish/Desktop/DP-subject-3.csv","legacy","Lentiform Loewenfeld","3.3.12","0","s","NA","NA","NA","h","s","540","NA","NA","NA","59375","540","2","legacy","1024","2","48000","-16","experiment","HHSHH","3","odd","63354","NA","NA","NA","NA","NA","168736","167676","NA","NA","3973","168840","169381","168730","168840","3959","Lab 2.1: Flanker Task","63","32869","63","yes","1024"
"100","100","522.859375","522.859375","black","legacy","legacy","legacy","0","Incongruent","uniform","1","undefined","1","h","0","0","0","63","63","0","63","63","0","0","0","63","63","63","63","0","Sun Sep 25 15:55:40 2022","1500","The main experiment item","yes","Lab21FlankerTask.osexp","/Users/alexisparrish/Desktop","no","mono","no","18","no","white","no","yes","768","legacy","63","63","/Users/alexisparrish/Desktop/DP-subject-3.csv","legacy","Lentiform Loewenfeld","3.3.12","0","h","NA","NA","NA","h","h","594","NA","NA","NA","59375","594","2","legacy","1024","2","48000","-16","experiment","SSHSS","3","odd","63354","NA","NA","NA","NA","NA","170451","169393","NA","NA","3973","170555","171150","170446","170555","3959","Lab 2.1: Flanker Task","64","33463","64","yes","1024"
"100","100","522.3230769230769","522.3230769230769","black","legacy","legacy","legacy","0","Congruent","uniform","1","undefined","1","s","0","0","0","64","64","0","64","64","0","0","0","64","64","64","64","0","Sun Sep 25 15:55:40 2022","1500","The main experiment item","yes","Lab21FlankerTask.osexp","/Users/alexisparrish/Desktop","no","mono","no","18","no","white","no","yes","768","legacy","64","64","/Users/alexisparrish/Desktop/DP-subject-3.csv","legacy","Lentiform Loewenfeld","3.3.12","0","s","NA","NA","NA","h","s","488","NA","NA","NA","59375","488","2","legacy","1024","2","48000","-16","experiment","SSSSS","3","odd","63354","NA","NA","NA","NA","NA","172223","171160","NA","NA","3973","172328","172817","172217","172328","3959","Lab 2.1: Flanker Task","65","33951","65","yes","1024"
"100","100","520.9848484848485","520.9848484848485","black","legacy","legacy","legacy","0","Congruent","uniform","1","undefined","1","s","0","0","0","65","65","0","65","65","0","0","0","65","65","65","65","0","Sun Sep 25 15:55:40 2022","1500","The main experiment item","yes","Lab21FlankerTask.osexp","/Users/alexisparrish/Desktop","no","mono","no","18","no","white","no","yes","768","legacy","65","65","/Users/alexisparrish/Desktop/DP-subject-3.csv","legacy","Lentiform Loewenfeld","3.3.12","0","s","NA","NA","NA","h","s","434","NA","NA","NA","59375","434","2","legacy","1024","2","48000","-16","experiment","SSSSS","3","odd","63354","NA","NA","NA","NA","NA","173886","172827","NA","NA","3973","173990","174424","173881","173990","3959","Lab 2.1: Flanker Task","66","34385","66","yes","1024"
"100","100","520.5223880597015","520.5223880597015","black","legacy","legacy","legacy","0","Incongruent","uniform","1","undefined","1","s","0","0","0","66","66","0","66","66","0","0","0","66","66","66","66","0","Sun Sep 25 15:55:40 2022","1500","The main experiment item","yes","Lab21FlankerTask.osexp","/Users/alexisparrish/Desktop","no","mono","no","18","no","white","no","yes","768","legacy","66","66","/Users/alexisparrish/Desktop/DP-subject-3.csv","legacy","Lentiform Loewenfeld","3.3.12","0","s","NA","NA","NA","h","s","490","NA","NA","NA","59375","490","2","legacy","1024","2","48000","-16","experiment","HHSHH","3","odd","63354","NA","NA","NA","NA","NA","175495","174436","NA","NA","3973","175599","176090","175491","175599","3959","Lab 2.1: Flanker Task","67","34875","67","yes","1024"
"100","100","519.2058823529412","519.2058823529412","black","legacy","legacy","legacy","0","Congruent","uniform","1","undefined","1","h","0","0","0","67","67","0","67","67","0","0","0","67","67","67","67","0","Sun Sep 25 15:55:40 2022","1500","The main experiment item","yes","Lab21FlankerTask.osexp","/Users/alexisparrish/Desktop","no","mono","no","18","no","white","no","yes","768","legacy","67","67","/Users/alexisparrish/Desktop/DP-subject-3.csv","legacy","Lentiform Loewenfeld","3.3.12","0","h","NA","NA","NA","h","h","431","NA","NA","NA","59375","431","2","legacy","1024","2","48000","-16","experiment","HHHHH","3","odd","63354","NA","NA","NA","NA","NA","177163","176103","NA","NA","3973","177268","177700","177157","177267","3959","Lab 2.1: Flanker Task","68","35306","68","yes","1024"
"100","100","518.695652173913","518.695652173913","black","legacy","legacy","legacy","0","Incongruent","uniform","1","undefined","1","h","0","0","0","68","68","0","68","68","0","0","0","68","68","68","68","0","Sun Sep 25 15:55:40 2022","1500","The main experiment item","yes","Lab21FlankerTask.osexp","/Users/alexisparrish/Desktop","no","mono","no","18","no","white","no","yes","768","legacy","68","68","/Users/alexisparrish/Desktop/DP-subject-3.csv","legacy","Lentiform Loewenfeld","3.3.12","0","h","NA","NA","NA","h","h","484","NA","NA","NA","59375","484","2","legacy","1024","2","48000","-16","experiment","SSHSS","3","odd","63354","NA","NA","NA","NA","NA","178772","177711","NA","NA","3973","178877","179362","178765","178877","3959","Lab 2.1: Flanker Task","69","35790","69","yes","1024"
"100","100","517.7","517.7","black","legacy","legacy","legacy","0","Incongruent","uniform","1","undefined","1","h","0","0","0","69","69","0","69","69","0","0","0","69","69","69","69","0","Sun Sep 25 15:55:40 2022","1500","The main experiment item","yes","Lab21FlankerTask.osexp","/Users/alexisparrish/Desktop","no","mono","no","18","no","white","no","yes","768","legacy","69","69","/Users/alexisparrish/Desktop/DP-subject-3.csv","legacy","Lentiform Loewenfeld","3.3.12","0","h","NA","NA","NA","h","h","449","NA","NA","NA","59375","449","2","legacy","1024","2","48000","-16","experiment","SSHSS","3","odd","63354","NA","NA","NA","NA","NA","180435","179374","NA","NA","3973","180539","180989","180429","180539","3959","Lab 2.1: Flanker Task","70","36239","70","yes","1024"
"100","100","516.3380281690141","516.3380281690141","black","legacy","legacy","legacy","0","Congruent","uniform","1","undefined","1","s","0","0","0","70","70","0","70","70","0","0","0","70","70","70","70","0","Sun Sep 25 15:55:40 2022","1500","The main experiment item","yes","Lab21FlankerTask.osexp","/Users/alexisparrish/Desktop","no","mono","no","18","no","white","no","yes","768","legacy","70","70","/Users/alexisparrish/Desktop/DP-subject-3.csv","legacy","Lentiform Loewenfeld","3.3.12","0","s","NA","NA","NA","h","s","421","NA","NA","NA","59375","421","2","legacy","1024","2","48000","-16","experiment","SSSSS","3","odd","63354","NA","NA","NA","NA","NA","182062","181001","NA","NA","3973","182167","182589","182056","182166","3959","Lab 2.1: Flanker Task","71","36660","71","yes","1024"
"100","100","515.1666666666666","515.1666666666666","black","legacy","legacy","legacy","0","Incongruent","uniform","1","undefined","1","s","0","0","0","71","71","0","71","71","0","0","0","71","71","71","71","0","Sun Sep 25 15:55:40 2022","1500","The main experiment item","yes","Lab21FlankerTask.osexp","/Users/alexisparrish/Desktop","no","mono","no","18","no","white","no","yes","768","legacy","71","71","/Users/alexisparrish/Desktop/DP-subject-3.csv","legacy","Lentiform Loewenfeld","3.3.12","0","s","NA","NA","NA","h","s","432","NA","NA","NA","59375","432","2","legacy","1024","2","48000","-16","experiment","HHSHH","3","odd","63354","NA","NA","NA","NA","NA","183664","182600","NA","NA","3973","183768","184201","183658","183768","3959","Lab 2.1: Flanker Task","72","37092","72","yes","1024"
"100","100","516.1643835616438","516.1643835616438","black","legacy","legacy","legacy","0","Incongruent","uniform","1","undefined","1","h","0","0","0","72","72","0","72","72","0","0","0","72","72","72","72","0","Sun Sep 25 15:55:40 2022","1500","The main experiment item","yes","Lab21FlankerTask.osexp","/Users/alexisparrish/Desktop","no","mono","no","18","no","white","no","yes","768","legacy","72","72","/Users/alexisparrish/Desktop/DP-subject-3.csv","legacy","Lentiform Loewenfeld","3.3.12","0","h","NA","NA","NA","h","h","588","NA","NA","NA","59375","588","2","legacy","1024","2","48000","-16","experiment","SSHSS","3","odd","63354","NA","NA","NA","NA","NA","185274","184212","NA","NA","3973","185379","185968","185268","185378","3959","Lab 2.1: Flanker Task","73","37680","73","yes","1024"
"100","100","515.4864864864865","515.4864864864865","black","legacy","legacy","legacy","0","Congruent","uniform","1","undefined","1","s","0","0","0","73","73","0","73","73","0","0","0","73","73","73","73","0","Sun Sep 25 15:55:40 2022","1500","The main experiment item","yes","Lab21FlankerTask.osexp","/Users/alexisparrish/Desktop","no","mono","no","18","no","white","no","yes","768","legacy","73","73","/Users/alexisparrish/Desktop/DP-subject-3.csv","legacy","Lentiform Loewenfeld","3.3.12","0","s","NA","NA","NA","h","s","466","NA","NA","NA","59375","466","2","legacy","1024","2","48000","-16","experiment","SSSSS","3","odd","63354","NA","NA","NA","NA","NA","187041","185980","NA","NA","3973","187145","187612","187036","187145","3959","Lab 2.1: Flanker Task","74","38146","74","yes","1024"
"100","100","514.9066666666666","514.9066666666666","black","legacy","legacy","legacy","0","Incongruent","uniform","1","undefined","1","s","0","0","0","74","74","0","74","74","0","0","0","74","74","74","74","0","Sun Sep 25 15:55:40 2022","1500","The main experiment item","yes","Lab21FlankerTask.osexp","/Users/alexisparrish/Desktop","no","mono","no","18","no","white","no","yes","768","legacy","74","74","/Users/alexisparrish/Desktop/DP-subject-3.csv","legacy","Lentiform Loewenfeld","3.3.12","0","s","NA","NA","NA","h","s","472","NA","NA","NA","59375","472","2","legacy","1024","2","48000","-16","experiment","HHSHH","3","odd","63354","NA","NA","NA","NA","NA","188685","187623","NA","NA","3973","188789","189262","188680","188789","3959","Lab 2.1: Flanker Task","75","38618","75","yes","1024"
"100","100","513.9605263157895","513.9605263157895","black","legacy","legacy","legacy","0","Incongruent","uniform","1","undefined","1","s","0","0","0","75","75","0","75","75","0","0","0","75","75","75","75","0","Sun Sep 25 15:55:40 2022","1500","The main experiment item","yes","Lab21FlankerTask.osexp","/Users/alexisparrish/Desktop","no","mono","no","18","no","white","no","yes","768","legacy","75","75","/Users/alexisparrish/Desktop/DP-subject-3.csv","legacy","Lentiform Loewenfeld","3.3.12","0","s","NA","NA","NA","h","s","443","NA","NA","NA","59375","443","2","legacy","1024","2","48000","-16","experiment","HHSHH","3","odd","63354","NA","NA","NA","NA","NA","190331","189273","NA","NA","3973","190436","190880","190327","190436","3959","Lab 2.1: Flanker Task","76","39061","76","yes","1024"
"100","100","514.0909090909091","514.0909090909091","black","legacy","legacy","legacy","0","Incongruent","uniform","1","undefined","1","h","0","0","0","76","76","0","76","76","0","0","0","76","76","76","76","0","Sun Sep 25 15:55:40 2022","1500","The main experiment item","yes","Lab21FlankerTask.osexp","/Users/alexisparrish/Desktop","no","mono","no","18","no","white","no","yes","768","legacy","76","76","/Users/alexisparrish/Desktop/DP-subject-3.csv","legacy","Lentiform Loewenfeld","3.3.12","0","h","NA","NA","NA","h","h","524","NA","NA","NA","59375","524","2","legacy","1024","2","48000","-16","experiment","SSHSS","3","odd","63354","NA","NA","NA","NA","NA","191953","190891","NA","NA","3973","192057","192582","191948","192057","3959","Lab 2.1: Flanker Task","77","39585","77","yes","1024"
"100","100","514.3333333333334","514.3333333333334","black","legacy","legacy","legacy","0","Incongruent","uniform","1","undefined","1","h","0","0","0","77","77","0","77","77","0","0","0","77","77","77","77","0","Sun Sep 25 15:55:40 2022","1500","The main experiment item","yes","Lab21FlankerTask.osexp","/Users/alexisparrish/Desktop","no","mono","no","18","no","white","no","yes","768","legacy","77","77","/Users/alexisparrish/Desktop/DP-subject-3.csv","legacy","Lentiform Loewenfeld","3.3.12","0","h","NA","NA","NA","h","h","533","NA","NA","NA","59375","533","2","legacy","1024","2","48000","-16","experiment","SSHSS","3","odd","63354","NA","NA","NA","NA","NA","193654","192593","NA","NA","3973","193758","194292","193647","193758","3959","Lab 2.1: Flanker Task","78","40118","78","yes","1024"
"100","100","514.9746835443038","514.9746835443038","black","legacy","legacy","legacy","0","Congruent","uniform","1","undefined","1","s","0","0","0","78","78","0","78","78","0","0","0","78","78","78","78","0","Sun Sep 25 15:55:40 2022","1500","The main experiment item","yes","Lab21FlankerTask.osexp","/Users/alexisparrish/Desktop","no","mono","no","18","no","white","no","yes","768","legacy","78","78","/Users/alexisparrish/Desktop/DP-subject-3.csv","legacy","Lentiform Loewenfeld","3.3.12","0","s","NA","NA","NA","h","s","565","NA","NA","NA","59375","565","2","legacy","1024","2","48000","-16","experiment","SSSSS","3","odd","63354","NA","NA","NA","NA","NA","195367","194304","NA","NA","3973","195471","196037","195361","195471","3959","Lab 2.1: Flanker Task","79","40683","79","yes","1024"
"100","100","516.95","516.95","black","legacy","legacy","legacy","0","Incongruent","uniform","1","undefined","1","h","0","0","0","79","79","0","79","79","0","0","0","79","79","79","79","0","Sun Sep 25 15:55:40 2022","1500","The main experiment item","yes","Lab21FlankerTask.osexp","/Users/alexisparrish/Desktop","no","mono","no","18","no","white","no","yes","768","legacy","79","79","/Users/alexisparrish/Desktop/DP-subject-3.csv","legacy","Lentiform Loewenfeld","3.3.12","0","h","NA","NA","NA","h","h","673","NA","NA","NA","59375","673","2","legacy","1024","2","48000","-16","experiment","SSHSS","3","odd","63354","NA","NA","NA","NA","NA","197110","196049","NA","NA","3973","197215","197889","197106","197215","3959","Lab 2.1: Flanker Task","80","41356","80","yes","1024"
"100","100","518.2222222222222","518.2222222222222","black","legacy","legacy","legacy","0","Incongruent","uniform","1","undefined","1","s","0","0","0","80","80","0","80","80","0","0","0","80","80","80","80","0","Sun Sep 25 15:55:40 2022","600","The main experiment item","yes","Lab21FlankerTask.osexp","/Users/alexisparrish/Desktop","no","mono","no","18","no","white","no","yes","768","legacy","0","79","/Users/alexisparrish/Desktop/DP-subject-3.csv","legacy","Lentiform Loewenfeld","3.3.12","0","s","NA","NA","h","h","s","620","NA","NA","6064","59375","620","2","legacy","1024","2","48000","-16","experiment","HHSHH","3","odd","63354","204999","NA","NA","NA","NA","205038","197900","NA","198934","3973","205143","205764","205034","205143","3959","Lab 2.1: Flanker Task","81","41976","81","yes","1024"
"100","100","518.219512195122","518.219512195122","black","legacy","legacy","legacy","0","Incongruent","uniform","1","undefined","1","h","0","0","0","81","81","0","81","81","0","0","0","81","81","81","81","0","Sun Sep 25 15:55:40 2022","600","The main experiment item","yes","Lab21FlankerTask.osexp","/Users/alexisparrish/Desktop","no","mono","no","18","no","white","no","yes","768","legacy","1","79","/Users/alexisparrish/Desktop/DP-subject-3.csv","legacy","Lentiform Loewenfeld","3.3.12","0","h","NA","NA","h","h","h","518","NA","NA","6064","59375","518","2","legacy","1024","2","48000","-16","experiment","SSHSS","3","odd","63354","204999","NA","NA","205775","NA","207341","206281","NA","198934","3973","207446","207965","207336","207446","3959","Lab 2.1: Flanker Task","82","42494","82","yes","1024"
"100","100","518.4096385542168","518.4096385542168","black","legacy","legacy","legacy","0","Incongruent","uniform","1","undefined","1","s","0","0","0","82","82","0","82","82","0","0","0","82","82","82","82","0","Sun Sep 25 15:55:40 2022","600","The main experiment item","yes","Lab21FlankerTask.osexp","/Users/alexisparrish/Desktop","no","mono","no","18","no","white","no","yes","768","legacy","2","79","/Users/alexisparrish/Desktop/DP-subject-3.csv","legacy","Lentiform Loewenfeld","3.3.12","0","s","NA","NA","h","h","s","534","NA","NA","6064","59375","534","2","legacy","1024","2","48000","-16","experiment","HHSHH","3","odd","63354","204999","NA","NA","205775","NA","209039","207975","NA","198934","3973","209143","209678","209031","209143","3959","Lab 2.1: Flanker Task","83","43028","83","yes","1024"
"100","100","517.4642857142857","517.4642857142857","black","legacy","legacy","legacy","0","Congruent","uniform","1","undefined","1","h","0","0","0","83","83","0","83","83","0","0","0","83","83","83","83","0","Sun Sep 25 15:55:40 2022","600","The main experiment item","yes","Lab21FlankerTask.osexp","/Users/alexisparrish/Desktop","no","mono","no","18","no","white","no","yes","768","legacy","3","79","/Users/alexisparrish/Desktop/DP-subject-3.csv","legacy","Lentiform Loewenfeld","3.3.12","0","h","NA","NA","h","h","h","439","NA","NA","6064","59375","439","2","legacy","1024","2","48000","-16","experiment","HHHHH","3","odd","63354","204999","NA","NA","205775","NA","210743","209683","NA","198934","3973","210847","211287","210736","210847","3959","Lab 2.1: Flanker Task","84","43467","84","yes","1024"
"100","100","515.6941176470589","515.6941176470589","black","legacy","legacy","legacy","0","Incongruent","uniform","1","undefined","1","s","0","0","0","84","84","0","84","84","0","0","0","84","84","84","84","0","Sun Sep 25 15:55:40 2022","600","The main experiment item","yes","Lab21FlankerTask.osexp","/Users/alexisparrish/Desktop","no","mono","no","18","no","white","no","yes","768","legacy","4","79","/Users/alexisparrish/Desktop/DP-subject-3.csv","legacy","Lentiform Loewenfeld","3.3.12","0","s","NA","NA","h","h","s","367","NA","NA","6064","59375","367","2","legacy","1024","2","48000","-16","experiment","HHSHH","3","odd","63354","204999","NA","NA","205775","NA","212360","211299","NA","198934","3973","212464","212832","212354","212464","3959","Lab 2.1: Flanker Task","85","43834","85","yes","1024"
"98.83720930232558","98.83720930232558","514.4302325581396","514.4302325581396","black","legacy","legacy","legacy","0","Incongruent","uniform","0","undefined","0","h","0","0","0","85","85","0","85","85","0","0","0","85","85","85","85","0","Sun Sep 25 15:55:40 2022","600","The main experiment item","yes","Lab21FlankerTask.osexp","/Users/alexisparrish/Desktop","no","mono","no","18","no","white","no","yes","768","legacy","5","79","/Users/alexisparrish/Desktop/DP-subject-3.csv","legacy","Lentiform Loewenfeld","3.3.12","0","s","NA","NA","h","h","s","407","NA","NA","6064","59375","407","2","legacy","1024","2","48000","-16","experiment","SSHSS","3","odd","63354","204999","NA","NA","205775","NA","213892","212837","NA","198934","3973","213996","214404","213888","213996","3959","Lab 2.1: Flanker Task","85","44241","86","yes","1024"
"98.85057471264368","98.85057471264368","514.0689655172414","514.0689655172414","black","legacy","legacy","legacy","0","Incongruent","uniform","1","undefined","1","h","0","0","0","86","86","0","86","86","0","0","0","86","86","86","86","0","Sun Sep 25 15:55:40 2022","600","The main experiment item","yes","Lab21FlankerTask.osexp","/Users/alexisparrish/Desktop","no","mono","no","18","no","white","no","yes","768","legacy","6","79","/Users/alexisparrish/Desktop/DP-subject-3.csv","legacy","Lentiform Loewenfeld","3.3.12","0","h","NA","NA","h","h","h","483","NA","NA","6064","59375","483","2","legacy","1024","2","48000","-16","experiment","SSHSS","3","odd","63354","204999","NA","214414","205775","NA","215976","214918","NA","198934","3973","216080","216564","215971","216080","3959","Lab 2.1: Flanker Task","86","44724","87","yes","1024"
"98.86363636363636","98.86363636363636","512.8636363636364","512.8636363636364","black","legacy","legacy","legacy","0","Congruent","uniform","1","undefined","1","h","0","0","0","87","87","0","87","87","0","0","0","87","87","87","87","0","Sun Sep 25 15:55:40 2022","600","The main experiment item","yes","Lab21FlankerTask.osexp","/Users/alexisparrish/Desktop","no","mono","no","18","no","white","no","yes","768","legacy","7","79","/Users/alexisparrish/Desktop/DP-subject-3.csv","legacy","Lentiform Loewenfeld","3.3.12","0","h","NA","NA","h","h","h","408","NA","NA","6064","59375","408","2","legacy","1024","2","48000","-16","experiment","HHHHH","3","odd","63354","204999","NA","214414","205775","NA","217631","216574","NA","198934","3973","217735","218144","217625","217735","3959","Lab 2.1: Flanker Task","87","45132","88","yes","1024"
"98.87640449438203","98.87640449438203","511.40449438202245","511.40449438202245","black","legacy","legacy","legacy","0","Incongruent","uniform","1","undefined","1","s","0","0","0","88","88","0","88","88","0","0","0","88","88","88","88","0","Sun Sep 25 15:55:40 2022","600","The main experiment item","yes","Lab21FlankerTask.osexp","/Users/alexisparrish/Desktop","no","mono","no","18","no","white","no","yes","768","legacy","8","79","/Users/alexisparrish/Desktop/DP-subject-3.csv","legacy","Lentiform Loewenfeld","3.3.12","0","s","NA","NA","h","h","s","383","NA","NA","6064","59375","383","2","legacy","1024","2","48000","-16","experiment","HHSHH","3","odd","63354","204999","NA","214414","205775","NA","219215","218156","NA","198934","3973","219319","219703","219209","219319","3959","Lab 2.1: Flanker Task","88","45515","89","yes","1024"
"98.88888888888889","98.88888888888889","510.0111111111111","510.0111111111111","black","legacy","legacy","legacy","0","Incongruent","uniform","1","undefined","1","h","0","0","0","89","89","0","89","89","0","0","0","89","89","89","89","0","Sun Sep 25 15:55:40 2022","600","The main experiment item","yes","Lab21FlankerTask.osexp","/Users/alexisparrish/Desktop","no","mono","no","18","no","white","no","yes","768","legacy","9","79","/Users/alexisparrish/Desktop/DP-subject-3.csv","legacy","Lentiform Loewenfeld","3.3.12","0","h","NA","NA","h","h","h","386","NA","NA","6064","59375","386","2","legacy","1024","2","48000","-16","experiment","SSHSS","3","odd","63354","204999","NA","214414","205775","NA","220774","219714","NA","198934","3973","220878","221266","220769","220878","3959","Lab 2.1: Flanker Task","89","45901","90","yes","1024"
"98.9010989010989","98.9010989010989","509.8241758241758","509.8241758241758","black","legacy","legacy","legacy","0","Congruent","uniform","1","undefined","1","s","0","0","0","90","90","0","90","90","0","0","0","90","90","90","90","0","Sun Sep 25 15:55:40 2022","600","The main experiment item","yes","Lab21FlankerTask.osexp","/Users/alexisparrish/Desktop","no","mono","no","18","no","white","no","yes","768","legacy","10","79","/Users/alexisparrish/Desktop/DP-subject-3.csv","legacy","Lentiform Loewenfeld","3.3.12","0","s","NA","NA","h","h","s","493","NA","NA","6064","59375","493","2","legacy","1024","2","48000","-16","experiment","SSSSS","3","odd","63354","204999","NA","214414","205775","NA","222339","221277","NA","198934","3973","222443","222937","222333","222443","3959","Lab 2.1: Flanker Task","90","46394","91","yes","1024"
"98.91304347826087","98.91304347826087","509.17391304347825","509.17391304347825","black","legacy","legacy","legacy","0","Incongruent","uniform","1","undefined","1","s","0","0","0","91","91","0","91","91","0","0","0","91","91","91","91","0","Sun Sep 25 15:55:40 2022","600","The main experiment item","yes","Lab21FlankerTask.osexp","/Users/alexisparrish/Desktop","no","mono","no","18","no","white","no","yes","768","legacy","11","79","/Users/alexisparrish/Desktop/DP-subject-3.csv","legacy","Lentiform Loewenfeld","3.3.12","0","s","NA","NA","h","h","s","450","NA","NA","6064","59375","450","2","legacy","1024","2","48000","-16","experiment","HHSHH","3","odd","63354","204999","NA","214414","205775","NA","224010","222949","NA","198934","3973","224114","224566","224005","224114","3959","Lab 2.1: Flanker Task","91","46844","92","yes","1024"
"98.9247311827957","98.9247311827957","508","508","black","legacy","legacy","legacy","0","Congruent","uniform","1","undefined","1","h","0","0","0","92","92","0","92","92","0","0","0","92","92","92","92","0","Sun Sep 25 15:55:40 2022","600","The main experiment item","yes","Lab21FlankerTask.osexp","/Users/alexisparrish/Desktop","no","mono","no","18","no","white","no","yes","768","legacy","12","79","/Users/alexisparrish/Desktop/DP-subject-3.csv","legacy","Lentiform Loewenfeld","3.3.12","0","h","NA","NA","h","h","h","400","NA","NA","6064","59375","400","2","legacy","1024","2","48000","-16","experiment","HHHHH","3","odd","63354","204999","NA","214414","205775","NA","225640","224577","NA","198934","3973","225744","226145","225634","225744","3959","Lab 2.1: Flanker Task","92","47244","93","yes","1024"
"98.93617021276596","98.93617021276596","507.0425531914894","507.0425531914894","black","legacy","legacy","legacy","0","Incongruent","uniform","1","undefined","1","h","0","0","0","93","93","0","93","93","0","0","0","93","93","93","93","0","Sun Sep 25 15:55:40 2022","600","The main experiment item","yes","Lab21FlankerTask.osexp","/Users/alexisparrish/Desktop","no","mono","no","18","no","white","no","yes","768","legacy","13","79","/Users/alexisparrish/Desktop/DP-subject-3.csv","legacy","Lentiform Loewenfeld","3.3.12","0","h","NA","NA","h","h","h","418","NA","NA","6064","59375","418","2","legacy","1024","2","48000","-16","experiment","SSHSS","3","odd","63354","204999","NA","214414","205775","NA","227221","226156","NA","198934","3973","227325","227744","227213","227325","3959","Lab 2.1: Flanker Task","93","47662","94","yes","1024"
"98.94736842105263","98.94736842105263","505.93684210526317","505.93684210526317","black","legacy","legacy","legacy","0","Congruent","uniform","1","undefined","1","h","0","0","0","94","94","0","94","94","0","0","0","94","94","94","94","0","Sun Sep 25 15:55:40 2022","600","The main experiment item","yes","Lab21FlankerTask.osexp","/Users/alexisparrish/Desktop","no","mono","no","18","no","white","no","yes","768","legacy","14","79","/Users/alexisparrish/Desktop/DP-subject-3.csv","legacy","Lentiform Loewenfeld","3.3.12","0","h","NA","NA","h","h","h","402","NA","NA","6064","59375","402","2","legacy","1024","2","48000","-16","experiment","HHHHH","3","odd","63354","204999","NA","214414","205775","NA","228817","227755","NA","198934","3973","228921","229324","228811","228921","3959","Lab 2.1: Flanker Task","94","48064","95","yes","1024"
"98.95833333333333","98.95833333333333","504.9270833333333","504.9270833333333","black","legacy","legacy","legacy","0","Congruent","uniform","1","undefined","1","s","0","0","0","95","95","0","95","95","0","0","0","95","95","95","95","0","Sun Sep 25 15:55:40 2022","600","The main experiment item","yes","Lab21FlankerTask.osexp","/Users/alexisparrish/Desktop","no","mono","no","18","no","white","no","yes","768","legacy","15","79","/Users/alexisparrish/Desktop/DP-subject-3.csv","legacy","Lentiform Loewenfeld","3.3.12","0","s","NA","NA","h","h","s","409","NA","NA","6064","59375","409","2","legacy","1024","2","48000","-16","experiment","SSSSS","3","odd","63354","204999","NA","214414","205775","NA","230392","229335","NA","198934","3973","230496","230906","230386","230496","3959","Lab 2.1: Flanker Task","95","48473","96","yes","1024"
"98.96907216494846","98.96907216494846","504","504","black","legacy","legacy","legacy","0","Congruent","uniform","1","undefined","1","h","0","0","0","96","96","0","96","96","0","0","0","96","96","96","96","0","Sun Sep 25 15:55:40 2022","600","The main experiment item","yes","Lab21FlankerTask.osexp","/Users/alexisparrish/Desktop","no","mono","no","18","no","white","no","yes","768","legacy","16","79","/Users/alexisparrish/Desktop/DP-subject-3.csv","legacy","Lentiform Loewenfeld","3.3.12","0","h","NA","NA","h","h","h","415","NA","NA","6064","59375","415","2","legacy","1024","2","48000","-16","experiment","HHHHH","3","odd","63354","204999","NA","214414","205775","NA","231977","230918","NA","198934","3973","232081","232497","231973","232081","3959","Lab 2.1: Flanker Task","96","48888","97","yes","1024"
"98.9795918367347","98.9795918367347","503.07142857142856","503.07142857142856","black","legacy","legacy","legacy","0","Congruent","uniform","1","undefined","1","s","0","0","0","97","97","0","97","97","0","0","0","97","97","97","97","0","Sun Sep 25 15:55:40 2022","600","The main experiment item","yes","Lab21FlankerTask.osexp","/Users/alexisparrish/Desktop","no","mono","no","18","no","white","no","yes","768","legacy","17","79","/Users/alexisparrish/Desktop/DP-subject-3.csv","legacy","Lentiform Loewenfeld","3.3.12","0","s","NA","NA","h","h","s","413","NA","NA","6064","59375","413","2","legacy","1024","2","48000","-16","experiment","SSSSS","3","odd","63354","204999","NA","214414","205775","NA","233570","232508","NA","198934","3973","233674","234088","233563","233674","3959","Lab 2.1: Flanker Task","97","49301","98","yes","1024"
"98.98989898989899","98.98989898989899","502.62626262626264","502.62626262626264","black","legacy","legacy","legacy","0","Incongruent","uniform","1","undefined","1","s","0","0","0","98","98","0","98","98","0","0","0","98","98","98","98","0","Sun Sep 25 15:55:40 2022","600","The main experiment item","yes","Lab21FlankerTask.osexp","/Users/alexisparrish/Desktop","no","mono","no","18","no","white","no","yes","768","legacy","18","79","/Users/alexisparrish/Desktop/DP-subject-3.csv","legacy","Lentiform Loewenfeld","3.3.12","0","s","NA","NA","h","h","s","459","NA","NA","6064","59375","459","2","legacy","1024","2","48000","-16","experiment","HHSHH","3","odd","63354","204999","NA","214414","205775","NA","235157","234099","NA","198934","3973","235261","235721","235152","235261","3959","Lab 2.1: Flanker Task","98","49760","99","yes","1024"
"99","99","501.31","501.31","black","legacy","legacy","legacy","0","Congruent","uniform","1","undefined","1","s","0","0","0","99","99","0","99","99","0","0","0","99","99","99","99","0","Sun Sep 25 15:55:40 2022","600","The main experiment item","yes","Lab21FlankerTask.osexp","/Users/alexisparrish/Desktop","no","mono","no","18","no","white","no","yes","768","legacy","19","79","/Users/alexisparrish/Desktop/DP-subject-3.csv","legacy","Lentiform Loewenfeld","3.3.12","0","s","NA","NA","h","h","s","371","NA","NA","6064","59375","371","2","legacy","1024","2","48000","-16","experiment","SSSSS","3","odd","63354","204999","NA","214414","205775","NA","236792","235733","NA","198934","3973","236896","237268","236787","236896","3959","Lab 2.1: Flanker Task","99","50131","100","yes","1024"
"99.00990099009901","99.00990099009901","499.8910891089109","499.8910891089109","black","legacy","legacy","legacy","0","Congruent","uniform","1","undefined","1","s","0","0","0","100","100","0","100","100","0","0","0","100","100","100","100","0","Sun Sep 25 15:55:40 2022","600","The main experiment item","yes","Lab21FlankerTask.osexp","/Users/alexisparrish/Desktop","no","mono","no","18","no","white","no","yes","768","legacy","20","79","/Users/alexisparrish/Desktop/DP-subject-3.csv","legacy","Lentiform Loewenfeld","3.3.12","0","s","NA","NA","h","h","s","358","NA","NA","6064","59375","358","2","legacy","1024","2","48000","-16","experiment","SSSSS","3","odd","63354","204999","NA","214414","205775","NA","238341","237279","NA","198934","3973","238445","238804","238336","238445","3959","Lab 2.1: Flanker Task","100","50489","101","yes","1024"
"99.01960784313725","99.01960784313725","500.2647058823529","500.2647058823529","black","legacy","legacy","legacy","0","Incongruent","uniform","1","undefined","1","s","0","0","0","101","101","0","101","101","0","0","0","101","101","101","101","0","Sun Sep 25 15:55:40 2022","600","The main experiment item","yes","Lab21FlankerTask.osexp","/Users/alexisparrish/Desktop","no","mono","no","18","no","white","no","yes","768","legacy","21","79","/Users/alexisparrish/Desktop/DP-subject-3.csv","legacy","Lentiform Loewenfeld","3.3.12","0","s","NA","NA","h","h","s","538","NA","NA","6064","59375","538","2","legacy","1024","2","48000","-16","experiment","HHSHH","3","odd","63354","204999","NA","214414","205775","NA","239878","238816","NA","198934","3973","239982","240521","239873","239982","3959","Lab 2.1: Flanker Task","101","51027","102","yes","1024"
"99.02912621359224","99.02912621359224","500.5728155339806","500.5728155339806","black","legacy","legacy","legacy","0","Incongruent","uniform","1","undefined","1","s","0","0","0","102","102","0","102","102","0","0","0","102","102","102","102","0","Sun Sep 25 15:55:40 2022","600","The main experiment item","yes","Lab21FlankerTask.osexp","/Users/alexisparrish/Desktop","no","mono","no","18","no","white","no","yes","768","legacy","22","79","/Users/alexisparrish/Desktop/DP-subject-3.csv","legacy","Lentiform Loewenfeld","3.3.12","0","s","NA","NA","h","h","s","532","NA","NA","6064","59375","532","2","legacy","1024","2","48000","-16","experiment","HHSHH","3","odd","63354","204999","NA","214414","205775","NA","241592","240533","NA","198934","3973","241696","242229","241588","241696","3959","Lab 2.1: Flanker Task","102","51559","103","yes","1024"
"99.03846153846153","99.03846153846153","499.8942307692308","499.8942307692308","black","legacy","legacy","legacy","0","Incongruent","uniform","1","undefined","1","s","0","0","0","103","103","0","103","103","0","0","0","103","103","103","103","0","Sun Sep 25 15:55:40 2022","600","The main experiment item","yes","Lab21FlankerTask.osexp","/Users/alexisparrish/Desktop","no","mono","no","18","no","white","no","yes","768","legacy","23","79","/Users/alexisparrish/Desktop/DP-subject-3.csv","legacy","Lentiform Loewenfeld","3.3.12","0","s","NA","NA","h","h","s","430","NA","NA","6064","59375","430","2","legacy","1024","2","48000","-16","experiment","HHSHH","3","odd","63354","204999","NA","214414","205775","NA","243300","242239","NA","198934","3973","243404","243835","243295","243404","3959","Lab 2.1: Flanker Task","103","51989","104","yes","1024"
"99.04761904761905","99.04761904761905","499.3333333333333","499.3333333333333","black","legacy","legacy","legacy","0","Congruent","uniform","1","undefined","1","h","0","0","0","104","104","0","104","104","0","0","0","104","104","104","104","0","Sun Sep 25 15:55:40 2022","600","The main experiment item","yes","Lab21FlankerTask.osexp","/Users/alexisparrish/Desktop","no","mono","no","18","no","white","no","yes","768","legacy","24","79","/Users/alexisparrish/Desktop/DP-subject-3.csv","legacy","Lentiform Loewenfeld","3.3.12","0","h","NA","NA","h","h","h","441","NA","NA","6064","59375","441","2","legacy","1024","2","48000","-16","experiment","HHHHH","3","odd","63354","204999","NA","214414","205775","NA","244908","243847","NA","198934","3973","245012","245454","244903","245012","3959","Lab 2.1: Flanker Task","104","52430","105","yes","1024"
"99.05660377358491","99.05660377358491","499.04716981132077","499.04716981132077","black","legacy","legacy","legacy","0","Incongruent","uniform","1","undefined","1","s","0","0","0","105","105","0","105","105","0","0","0","105","105","105","105","0","Sun Sep 25 15:55:40 2022","600","The main experiment item","yes","Lab21FlankerTask.osexp","/Users/alexisparrish/Desktop","no","mono","no","18","no","white","no","yes","768","legacy","25","79","/Users/alexisparrish/Desktop/DP-subject-3.csv","legacy","Lentiform Loewenfeld","3.3.12","0","s","NA","NA","h","h","s","469","NA","NA","6064","59375","469","2","legacy","1024","2","48000","-16","experiment","HHSHH","3","odd","63354","204999","NA","214414","205775","NA","246528","245465","NA","198934","3973","246633","247103","246523","246633","3959","Lab 2.1: Flanker Task","105","52899","106","yes","1024"
"99.06542056074767","99.06542056074767","497.97196261682245","497.97196261682245","black","legacy","legacy","legacy","0","Congruent","uniform","1","undefined","1","h","0","0","0","106","106","0","106","106","0","0","0","106","106","106","106","0","Sun Sep 25 15:55:40 2022","600","The main experiment item","yes","Lab21FlankerTask.osexp","/Users/alexisparrish/Desktop","no","mono","no","18","no","white","no","yes","768","legacy","26","79","/Users/alexisparrish/Desktop/DP-subject-3.csv","legacy","Lentiform Loewenfeld","3.3.12","0","h","NA","NA","h","h","h","384","NA","NA","6064","59375","384","2","legacy","1024","2","48000","-16","experiment","HHHHH","3","odd","63354","204999","NA","214414","205775","NA","248172","247115","NA","198934","3973","248277","248662","248168","248277","3959","Lab 2.1: Flanker Task","106","53283","107","yes","1024"
"99.07407407407408","99.07407407407408","498.43518518518516","498.43518518518516","black","legacy","legacy","legacy","0","Incongruent","uniform","1","undefined","1","s","0","0","0","107","107","0","107","107","0","0","0","107","107","107","107","0","Sun Sep 25 15:55:40 2022","600","The main experiment item","yes","Lab21FlankerTask.osexp","/Users/alexisparrish/Desktop","no","mono","no","18","no","white","no","yes","768","legacy","27","79","/Users/alexisparrish/Desktop/DP-subject-3.csv","legacy","Lentiform Loewenfeld","3.3.12","0","s","NA","NA","h","h","s","548","NA","NA","6064","59375","548","2","legacy","1024","2","48000","-16","experiment","HHSHH","3","odd","63354","204999","NA","214414","205775","NA","249731","248674","NA","198934","3973","249835","250384","249726","249835","3959","Lab 2.1: Flanker Task","107","53831","108","yes","1024"
"99.08256880733946","99.08256880733946","497.4770642201835","497.4770642201835","black","legacy","legacy","legacy","0","Congruent","uniform","1","undefined","1","s","0","0","0","108","108","0","108","108","0","0","0","108","108","108","108","0","Sun Sep 25 15:55:40 2022","600","The main experiment item","yes","Lab21FlankerTask.osexp","/Users/alexisparrish/Desktop","no","mono","no","18","no","white","no","yes","768","legacy","28","79","/Users/alexisparrish/Desktop/DP-subject-3.csv","legacy","Lentiform Loewenfeld","3.3.12","0","s","NA","NA","h","h","s","394","NA","NA","6064","59375","394","2","legacy","1024","2","48000","-16","experiment","SSSSS","3","odd","63354","204999","NA","214414","205775","NA","251456","250394","NA","198934","3973","251560","251955","251451","251560","3959","Lab 2.1: Flanker Task","108","54225","109","yes","1024"
"99.0909090909091","99.0909090909091","496.06363636363636","496.06363636363636","black","legacy","legacy","legacy","0","Congruent","uniform","1","undefined","1","s","0","0","0","109","109","0","109","109","0","0","0","109","109","109","109","0","Sun Sep 25 15:55:40 2022","600","The main experiment item","yes","Lab21FlankerTask.osexp","/Users/alexisparrish/Desktop","no","mono","no","18","no","white","no","yes","768","legacy","29","79","/Users/alexisparrish/Desktop/DP-subject-3.csv","legacy","Lentiform Loewenfeld","3.3.12","0","s","NA","NA","h","h","s","342","NA","NA","6064","59375","342","2","legacy","1024","2","48000","-16","experiment","SSSSS","3","odd","63354","204999","NA","214414","205775","NA","253027","251965","NA","198934","3973","253131","253474","253022","253131","3959","Lab 2.1: Flanker Task","109","54567","110","yes","1024"
"98.1981981981982","98.1981981981982","494.27927927927925","494.27927927927925","black","legacy","legacy","legacy","0","Incongruent","uniform","0","undefined","0","h","0","0","0","110","110","0","110","110","0","0","0","110","110","110","110","0","Sun Sep 25 15:55:40 2022","600","The main experiment item","yes","Lab21FlankerTask.osexp","/Users/alexisparrish/Desktop","no","mono","no","18","no","white","no","yes","768","legacy","30","79","/Users/alexisparrish/Desktop/DP-subject-3.csv","legacy","Lentiform Loewenfeld","3.3.12","0","s","NA","NA","h","h","s","298","NA","NA","6064","59375","298","2","legacy","1024","2","48000","-16","experiment","SSHSS","3","odd","63354","204999","NA","214414","205775","NA","254548","253485","NA","198934","3973","254653","254952","254543","254653","3959","Lab 2.1: Flanker Task","109","54865","111","yes","1024"
"98.21428571428571","98.21428571428571","495.4107142857143","495.4107142857143","black","legacy","legacy","legacy","0","Incongruent","uniform","1","undefined","1","h","0","0","0","111","111","0","111","111","0","0","0","111","111","111","111","0","Sun Sep 25 15:55:40 2022","600","The main experiment item","yes","Lab21FlankerTask.osexp","/Users/alexisparrish/Desktop","no","mono","no","18","no","white","no","yes","768","legacy","31","79","/Users/alexisparrish/Desktop/DP-subject-3.csv","legacy","Lentiform Loewenfeld","3.3.12","0","h","NA","NA","h","h","h","621","NA","NA","6064","59375","621","2","legacy","1024","2","48000","-16","experiment","SSHSS","3","odd","63354","204999","NA","254963","205775","NA","256524","255467","NA","198934","3973","256628","257250","256520","256628","3959","Lab 2.1: Flanker Task","110","55486","112","yes","1024"
"98.23008849557522","98.23008849557522","494.57522123893807","494.57522123893807","black","legacy","legacy","legacy","0","Congruent","uniform","1","undefined","1","h","0","0","0","112","112","0","112","112","0","0","0","112","112","112","112","0","Sun Sep 25 15:55:40 2022","600","The main experiment item","yes","Lab21FlankerTask.osexp","/Users/alexisparrish/Desktop","no","mono","no","18","no","white","no","yes","768","legacy","32","79","/Users/alexisparrish/Desktop/DP-subject-3.csv","legacy","Lentiform Loewenfeld","3.3.12","0","h","NA","NA","h","h","h","401","NA","NA","6064","59375","401","2","legacy","1024","2","48000","-16","experiment","HHHHH","3","odd","63354","204999","NA","254963","257255","NA","258814","257759","NA","198934","3973","258919","259322","258810","258919","3959","Lab 2.1: Flanker Task","111","55887","113","yes","1024"
"98.24561403508773","98.24561403508773","493.82456140350877","493.82456140350877","black","legacy","legacy","legacy","0","Congruent","uniform","1","undefined","1","s","0","0","0","113","113","0","113","113","0","0","0","113","113","113","113","0","Sun Sep 25 15:55:40 2022","600","The main experiment item","yes","Lab21FlankerTask.osexp","/Users/alexisparrish/Desktop","no","mono","no","18","no","white","no","yes","768","legacy","33","79","/Users/alexisparrish/Desktop/DP-subject-3.csv","legacy","Lentiform Loewenfeld","3.3.12","0","s","NA","NA","h","h","s","409","NA","NA","6064","59375","409","2","legacy","1024","2","48000","-16","experiment","SSSSS","3","odd","63354","204999","NA","254963","257255","NA","260392","259333","NA","198934","3973","260497","260907","260386","260496","3959","Lab 2.1: Flanker Task","112","56296","114","yes","1024"
"98.26086956521739","98.26086956521739","494.704347826087","494.704347826087","black","legacy","legacy","legacy","0","Incongruent","uniform","1","undefined","1","h","0","0","0","114","114","0","114","114","0","0","0","114","114","114","114","0","Sun Sep 25 15:55:40 2022","600","The main experiment item","yes","Lab21FlankerTask.osexp","/Users/alexisparrish/Desktop","no","mono","no","18","no","white","no","yes","768","legacy","34","79","/Users/alexisparrish/Desktop/DP-subject-3.csv","legacy","Lentiform Loewenfeld","3.3.12","0","h","NA","NA","h","h","h","595","NA","NA","6064","59375","595","2","legacy","1024","2","48000","-16","experiment","SSHSS","3","odd","63354","204999","NA","254963","257255","NA","261976","260918","NA","198934","3973","262080","262676","261972","262080","3959","Lab 2.1: Flanker Task","113","56891","115","yes","1024"
"98.27586206896552","98.27586206896552","495.1896551724138","495.1896551724138","black","legacy","legacy","legacy","0","Incongruent","uniform","1","undefined","1","s","0","0","0","115","115","0","115","115","0","0","0","115","115","115","115","0","Sun Sep 25 15:55:40 2022","600","The main experiment item","yes","Lab21FlankerTask.osexp","/Users/alexisparrish/Desktop","no","mono","no","18","no","white","no","yes","768","legacy","35","79","/Users/alexisparrish/Desktop/DP-subject-3.csv","legacy","Lentiform Loewenfeld","3.3.12","0","s","NA","NA","h","h","s","551","NA","NA","6064","59375","551","2","legacy","1024","2","48000","-16","experiment","HHSHH","3","odd","63354","204999","NA","254963","257255","NA","263744","262687","NA","198934","3973","263848","264400","263738","263848","3959","Lab 2.1: Flanker Task","114","57442","116","yes","1024"
"98.2905982905983","98.2905982905983","494.20512820512823","494.20512820512823","black","legacy","legacy","legacy","0","Congruent","uniform","1","undefined","1","h","0","0","0","116","116","0","116","116","0","0","0","116","116","116","116","0","Sun Sep 25 15:55:40 2022","600","The main experiment item","yes","Lab21FlankerTask.osexp","/Users/alexisparrish/Desktop","no","mono","no","18","no","white","no","yes","768","legacy","36","79","/Users/alexisparrish/Desktop/DP-subject-3.csv","legacy","Lentiform Loewenfeld","3.3.12","0","h","NA","NA","h","h","h","380","NA","NA","6064","59375","380","2","legacy","1024","2","48000","-16","experiment","HHHHH","3","odd","63354","204999","NA","254963","257255","NA","265469","264412","NA","198934","3973","265573","265954","265465","265573","3959","Lab 2.1: Flanker Task","115","57822","117","yes","1024"
"98.30508474576271","98.30508474576271","493.5593220338983","493.5593220338983","black","legacy","legacy","legacy","0","Incongruent","uniform","1","undefined","1","s","0","0","0","117","117","0","117","117","0","0","0","117","117","117","117","0","Sun Sep 25 15:55:40 2022","600","The main experiment item","yes","Lab21FlankerTask.osexp","/Users/alexisparrish/Desktop","no","mono","no","18","no","white","no","yes","768","legacy","37","79","/Users/alexisparrish/Desktop/DP-subject-3.csv","legacy","Lentiform Loewenfeld","3.3.12","0","s","NA","NA","h","h","s","418","NA","NA","6064","59375","418","2","legacy","1024","2","48000","-16","experiment","HHSHH","3","odd","63354","204999","NA","254963","257255","NA","267023","265966","NA","198934","3973","267127","267546","267018","267127","3959","Lab 2.1: Flanker Task","116","58240","118","yes","1024"
"98.31932773109244","98.31932773109244","492.8067226890756","492.8067226890756","black","legacy","legacy","legacy","0","Congruent","uniform","1","undefined","1","h","0","0","0","118","118","0","118","118","0","0","0","118","118","118","118","0","Sun Sep 25 15:55:40 2022","600","The main experiment item","yes","Lab21FlankerTask.osexp","/Users/alexisparrish/Desktop","no","mono","no","18","no","white","no","yes","768","legacy","38","79","/Users/alexisparrish/Desktop/DP-subject-3.csv","legacy","Lentiform Loewenfeld","3.3.12","0","h","NA","NA","h","h","h","404","NA","NA","6064","59375","404","2","legacy","1024","2","48000","-16","experiment","HHHHH","3","odd","63354","204999","NA","254963","257255","NA","268614","267558","NA","198934","3973","268718","269123","268609","268718","3959","Lab 2.1: Flanker Task","117","58644","119","yes","1024"
"98.33333333333333","98.33333333333333","492.05","492.05","black","legacy","legacy","legacy","0","Congruent","uniform","1","undefined","1","s","0","0","0","119","119","0","119","119","0","0","0","119","119","119","119","0","Sun Sep 25 15:55:40 2022","600","The main experiment item","yes","Lab21FlankerTask.osexp","/Users/alexisparrish/Desktop","no","mono","no","18","no","white","no","yes","768","legacy","39","79","/Users/alexisparrish/Desktop/DP-subject-3.csv","legacy","Lentiform Loewenfeld","3.3.12","0","s","NA","NA","h","h","s","402","NA","NA","6064","59375","402","2","legacy","1024","2","48000","-16","experiment","SSSSS","3","odd","63354","204999","NA","254963","257255","NA","270192","269135","NA","198934","3973","270296","270699","270186","270296","3959","Lab 2.1: Flanker Task","118","59046","120","yes","1024"
"98.34710743801652","98.34710743801652","492.0495867768595","492.0495867768595","black","legacy","legacy","legacy","0","Incongruent","uniform","1","undefined","1","h","0","0","0","120","120","0","120","120","0","0","0","120","120","120","120","0","Sun Sep 25 15:55:40 2022","600","The main experiment item","yes","Lab21FlankerTask.osexp","/Users/alexisparrish/Desktop","no","mono","no","18","no","white","no","yes","768","legacy","40","79","/Users/alexisparrish/Desktop/DP-subject-3.csv","legacy","Lentiform Loewenfeld","3.3.12","0","h","NA","NA","h","h","h","492","NA","NA","6064","59375","492","2","legacy","1024","2","48000","-16","experiment","SSHSS","3","odd","63354","204999","NA","254963","257255","NA","271771","270711","NA","198934","3973","271875","272368","271766","271875","3959","Lab 2.1: Flanker Task","119","59538","121","yes","1024"
"98.36065573770492","98.36065573770492","491.61475409836066","491.61475409836066","black","legacy","legacy","legacy","0","Congruent","uniform","1","undefined","1","h","0","0","0","121","121","0","121","121","0","0","0","121","121","121","121","0","Sun Sep 25 15:55:40 2022","600","The main experiment item","yes","Lab21FlankerTask.osexp","/Users/alexisparrish/Desktop","no","mono","no","18","no","white","no","yes","768","legacy","41","79","/Users/alexisparrish/Desktop/DP-subject-3.csv","legacy","Lentiform Loewenfeld","3.3.12","0","h","NA","NA","h","h","h","439","NA","NA","6064","59375","439","2","legacy","1024","2","48000","-16","experiment","HHHHH","3","odd","63354","204999","NA","254963","257255","NA","273443","272380","NA","198934","3973","273547","273987","273437","273547","3959","Lab 2.1: Flanker Task","120","59977","122","yes","1024"
