"acc","accuracy","average_response_time","avg_rt","background","canvas_backend","clock_backend","color_backend","compensation","condition","coordinates","correct","correct_Instruction1","correct_keyboard_response","correct_response","count_Block1","count_Block2","count_Block3","count_Instruction1","count_errorfeedback","count_experiment","count_faster","count_finish","count_fixation","count_instructions2","count_instructions2_1","count_instructions3","count_instructions3_1","count_isi","count_keyboard_response","count_logger","count_new_sketchpad_1","count_sequence","count_sketchpad","count_stimulus","count_welcome","datetime","deadline","description","disable_garbage_collection","experiment_file","experiment_path","font_bold","font_family","font_italic","font_size","font_underline","foreground","form_clicks","fullscreen","height","keyboard_backend","live_row","live_row_Block1","logfile","mouse_backend","opensesame_codename","opensesame_version","repeat_cycle","response","response_Instruction1","response_finish","response_instructions2","response_instructions2_1","response_instructions3","response_instructions3_1","response_keyboard_response","response_new_sketchpad_1","response_sketchpad","response_time","response_time_Instruction1","response_time_finish","response_time_instructions2","response_time_instructions2_1","response_time_instructions3","response_time_instructions3_1","response_time_keyboard_response","response_time_new_sketchpad_1","response_time_sketchpad","response_time_welcome","response_welcome","round_decimals","sampler_backend","sound_buf_size","sound_channels","sound_freq","sound_sample_size","start","stimulus","subject_nr","subject_parity","time_Block1","time_Block2","time_Block3","time_Instruction1","time_errorfeedback","time_experiment","time_faster","time_finish","time_fixation","time_instructions2","time_instructions2_1","time_instructions3","time_instructions3_1","time_isi","time_keyboard_response","time_logger","time_new_sketchpad_1","time_sequence","time_sketchpad","time_stimulus","time_welcome","title","total_correct","total_response_time","total_responses","uniform_coordinates","width"
"0","0","1500","1500","black","legacy","legacy","legacy","0","congruent","uniform","0","undefined","0","s","0","0","0","0","0","0","0","0","0","NA","0","NA","0","0","0","0","NA","0","NA","0","NA","09/21/22 14:49:45","1500","The main experiment item","yes","FlankerTask.osexp","C:\Users\olasa\OneDrive\Desktop","no","mono","no","18","no","white","no","yes","768","legacy","0","0","C:/Users/olasa/OneDrive/Desktop/OL-subject-3.csv","legacy","Lentiform Loewenfeld","3.3.12","0","None","s","NA","NA","NA","NA","NA","None","NA","NA","1500","127139","NA","NA","NA","NA","NA","1500","NA","NA","NA","NA","2","legacy","1024","2","48000","-16","experiment","SSSSS","3","odd","129618","NA","NA","2476","NA","2470","NA","NA","129707","NA","NA","NA","NA","NA","129811","131311","NA","129705","NA","129811","NA","Flanker Task","0","1500","1","yes","1024"
"0","0","1500","1500","black","legacy","legacy","legacy","0","incongruent","uniform","0","undefined","0","h","0","0","0","0","1","0","1","0","1","NA","0","NA","0","1","1","1","NA","1","NA","1","NA","09/21/22 14:49:45","1500","The main experiment item","yes","FlankerTask.osexp","C:\Users\olasa\OneDrive\Desktop","no","mono","no","18","no","white","no","yes","768","legacy","1","1","C:/Users/olasa/OneDrive/Desktop/OL-subject-3.csv","legacy","Lentiform Loewenfeld","3.3.12","0","None","s","NA","NA","NA","NA","NA","None","NA","NA","1500","127139","NA","NA","NA","NA","NA","1500","NA","NA","NA","NA","2","legacy","1024","2","48000","-16","experiment","SSHSS","3","odd","129618","NA","NA","2476","131327","2470","NA","NA","132906","NA","NA","NA","NA","131830","133009","134509","NA","132904","NA","133009","NA","Flanker Task","0","3000","2","yes","1024"
"0","0","1228","1228","black","legacy","legacy","legacy","0","incongruent","uniform","0","undefined","0","h","0","0","0","0","2","0","2","0","2","NA","0","NA","0","2","2","2","NA","2","NA","2","NA","09/21/22 14:49:45","1500","The main experiment item","yes","FlankerTask.osexp","C:\Users\olasa\OneDrive\Desktop","no","mono","no","18","no","white","no","yes","768","legacy","2","2","C:/Users/olasa/OneDrive/Desktop/OL-subject-3.csv","legacy","Lentiform Loewenfeld","3.3.12","0","s","s","NA","NA","NA","NA","NA","s","NA","NA","684","127139","NA","NA","NA","NA","NA","684","NA","NA","NA","NA","2","legacy","1024","2","48000","-16","experiment","SSHSS","3","odd","129618","NA","NA","2476","134539","2470","NA","NA","136113","NA","NA","NA","NA","135042","136216","136901","NA","136111","NA","136216","NA","Flanker Task","0","3684","3","yes","1024"
"0","0","1152.25","1152.25","black","legacy","legacy","legacy","0","incongruent","uniform","0","undefined","0","s","0","0","0","0","3","0","3","0","3","NA","0","NA","0","3","3","3","NA","3","NA","3","NA","09/21/22 14:49:45","1500","The main experiment item","yes","FlankerTask.osexp","C:\Users\olasa\OneDrive\Desktop","no","mono","no","18","no","white","no","yes","768","legacy","3","3","C:/Users/olasa/OneDrive/Desktop/OL-subject-3.csv","legacy","Lentiform Loewenfeld","3.3.12","0","h","s","NA","NA","NA","NA","NA","h","NA","NA","925","127139","NA","NA","NA","NA","NA","925","NA","NA","NA","NA","2","legacy","1024","2","48000","-16","experiment","HHSHH","3","odd","129618","NA","NA","2476","136911","2470","NA","NA","138489","NA","NA","NA","NA","137414","138590","139517","NA","138486","NA","138590","NA","Flanker Task","0","4609","4","yes","1024"
"0","0","1040","1040","black","legacy","legacy","legacy","0","incongruent","uniform","0","undefined","0","h","0","0","0","0","4","0","4","0","4","NA","0","NA","0","4","4","4","NA","4","NA","4","NA","09/21/22 14:49:45","1500","The main experiment item","yes","FlankerTask.osexp","C:\Users\olasa\OneDrive\Desktop","no","mono","no","18","no","white","no","yes","768","legacy","4","4","C:/Users/olasa/OneDrive/Desktop/OL-subject-3.csv","legacy","Lentiform Loewenfeld","3.3.12","0","s","s","NA","NA","NA","NA","NA","s","NA","NA","591","127139","NA","NA","NA","NA","NA","591","NA","NA","NA","NA","2","legacy","1024","2","48000","-16","experiment","SSHSS","3","odd","129618","NA","NA","2476","139528","2470","NA","NA","141109","NA","NA","NA","NA","140031","141212","141804","NA","141107","NA","141212","NA","Flanker Task","0","5200","5","yes","1024"
"0","0","934.166666667","934.166666667","black","legacy","legacy","legacy","0","congruent","uniform","0","undefined","0","s","0","0","0","0","5","0","5","0","5","NA","0","NA","0","5","5","5","NA","5","NA","5","NA","09/21/22 14:49:45","1500","The main experiment item","yes","FlankerTask.osexp","C:\Users\olasa\OneDrive\Desktop","no","mono","no","18","no","white","no","yes","768","legacy","5","5","C:/Users/olasa/OneDrive/Desktop/OL-subject-3.csv","legacy","Lentiform Loewenfeld","3.3.12","0","h","s","NA","NA","NA","NA","NA","h","NA","NA","405","127139","NA","NA","NA","NA","NA","405","NA","NA","NA","NA","2","legacy","1024","2","48000","-16","experiment","SSSSS","3","odd","129618","NA","NA","2476","141812","2470","NA","NA","143375","NA","NA","NA","NA","142314","143478","143883","NA","143374","NA","143478","NA","Flanker Task","0","5605","6","yes","1024"
"0","0","852.142857143","852.142857143","black","legacy","legacy","legacy","0","incongruent","uniform","0","undefined","0","h","0","0","0","0","6","0","6","0","6","NA","0","NA","0","6","6","6","NA","6","NA","6","NA","09/21/22 14:49:45","1500","The main experiment item","yes","FlankerTask.osexp","C:\Users\olasa\OneDrive\Desktop","no","mono","no","18","no","white","no","yes","768","legacy","6","6","C:/Users/olasa/OneDrive/Desktop/OL-subject-3.csv","legacy","Lentiform Loewenfeld","3.3.12","0","s","s","NA","NA","NA","NA","NA","s","NA","NA","360","127139","NA","NA","NA","NA","NA","360","NA","NA","NA","NA","2","legacy","1024","2","48000","-16","experiment","SSHSS","3","odd","129618","NA","NA","2476","143914","2470","NA","NA","145486","NA","NA","NA","NA","144417","145589","145950","NA","145484","NA","145589","NA","Flanker Task","0","5965","7","yes","1024"
"12.5","12.5","791.75","791.75","black","legacy","legacy","legacy","0","congruent","uniform","1","undefined","1","s","0","0","0","0","7","0","7","0","7","NA","0","NA","0","7","7","7","NA","7","NA","7","NA","09/21/22 14:49:45","1500","The main experiment item","yes","FlankerTask.osexp","C:\Users\olasa\OneDrive\Desktop","no","mono","no","18","no","white","no","yes","768","legacy","7","7","C:/Users/olasa/OneDrive/Desktop/OL-subject-3.csv","legacy","Lentiform Loewenfeld","3.3.12","0","s","s","NA","NA","NA","NA","NA","s","NA","NA","369","127139","NA","NA","NA","NA","NA","369","NA","NA","NA","NA","2","legacy","1024","2","48000","-16","experiment","SSSSS","3","odd","129618","NA","NA","2476","145954","2470","NA","NA","147525","NA","NA","NA","NA","146456","147628","147998","NA","147523","NA","147628","NA","Flanker Task","1","6334","8","yes","1024"
"11.1111111111","11.1111111111","848","848","black","legacy","legacy","legacy","0","incongruent","uniform","0","undefined","0","h","0","0","0","0","8","0","8","0","8","NA","0","NA","0","8","8","8","NA","8","NA","8","NA","09/21/22 14:49:45","1500","The main experiment item","yes","FlankerTask.osexp","C:\Users\olasa\OneDrive\Desktop","no","mono","no","18","no","white","no","yes","768","legacy","8","8","C:/Users/olasa/OneDrive/Desktop/OL-subject-3.csv","legacy","Lentiform Loewenfeld","3.3.12","0","s","s","NA","NA","NA","NA","NA","s","NA","NA","1298","127139","NA","NA","NA","NA","NA","1298","NA","NA","NA","NA","2","legacy","1024","2","48000","-16","experiment","SSHSS","3","odd","129618","NA","NA","2476","145954","2470","NA","NA","149078","NA","NA","NA","NA","148007","149181","150480","NA","149076","NA","149181","NA","Flanker Task","1","7632","9","yes","1024"
"20","20","801.1","801.1","black","legacy","legacy","legacy","0","congruent","uniform","1","undefined","1","h","0","0","0","0","9","0","9","0","9","NA","0","NA","0","9","9","9","NA","9","NA","9","NA","09/21/22 14:49:45","1500","The main experiment item","yes","FlankerTask.osexp","C:\Users\olasa\OneDrive\Desktop","no","mono","no","18","no","white","no","yes","768","legacy","9","9","C:/Users/olasa/OneDrive/Desktop/OL-subject-3.csv","legacy","Lentiform Loewenfeld","3.3.12","0","h","s","NA","NA","NA","NA","NA","h","NA","NA","379","127139","NA","NA","NA","NA","NA","379","NA","NA","NA","NA","2","legacy","1024","2","48000","-16","experiment","HHHHH","3","odd","129618","NA","NA","2476","150489","2470","NA","NA","152063","NA","NA","NA","NA","150992","152166","152545","NA","152060","NA","152166","NA","Flanker Task","2","8011","10","yes","1024"
"18.1818181818","18.1818181818","774.454545455","774.454545455","black","legacy","legacy","legacy","0","congruent","uniform","0","undefined","0","s","0","0","0","0","10","0","10","0","10","NA","0","NA","0","10","10","10","NA","10","NA","10","NA","09/21/22 14:49:45","1500","The main experiment item","yes","FlankerTask.osexp","C:\Users\olasa\OneDrive\Desktop","no","mono","no","18","no","white","no","yes","768","legacy","10","10","C:/Users/olasa/OneDrive/Desktop/OL-subject-3.csv","legacy","Lentiform Loewenfeld","3.3.12","0","h","s","NA","NA","NA","NA","NA","h","NA","NA","508","127139","NA","NA","NA","NA","NA","508","NA","NA","NA","NA","2","legacy","1024","2","48000","-16","experiment","SSSSS","3","odd","129618","NA","NA","2476","150489","2470","NA","NA","153618","NA","NA","NA","NA","152549","153719","154227","NA","153616","NA","153719","NA","Flanker Task","2","8519","11","yes","1024"
"25","25","771","771","black","legacy","legacy","legacy","0","congruent","uniform","1","undefined","1","h","0","0","0","0","11","0","11","0","11","NA","0","NA","0","11","11","11","NA","11","NA","11","NA","09/21/22 14:49:45","1500","The main experiment item","yes","FlankerTask.osexp","C:\Users\olasa\OneDrive\Desktop","no","mono","no","18","no","white","no","yes","768","legacy","11","11","C:/Users/olasa/OneDrive/Desktop/OL-subject-3.csv","legacy","Lentiform Loewenfeld","3.3.12","0","h","s","NA","NA","NA","NA","NA","h","NA","NA","733","127139","NA","NA","NA","NA","NA","733","NA","NA","NA","NA","2","legacy","1024","2","48000","-16","experiment","HHHHH","3","odd","129618","NA","NA","2476","154236","2470","NA","NA","155811","NA","NA","NA","NA","154739","155914","156648","NA","155809","NA","155914","NA","Flanker Task","3","9252","12","yes","1024"
"23.0769230769","23.0769230769","794.538461538","794.538461538","black","legacy","legacy","legacy","0","incongruent","uniform","0","undefined","0","s","0","0","0","0","12","0","12","0","12","NA","0","NA","0","12","12","12","NA","12","NA","12","NA","09/21/22 14:49:45","1500","The main experiment item","yes","FlankerTask.osexp","C:\Users\olasa\OneDrive\Desktop","no","mono","no","18","no","white","no","yes","768","legacy","12","12","C:/Users/olasa/OneDrive/Desktop/OL-subject-3.csv","legacy","Lentiform Loewenfeld","3.3.12","0","h","s","NA","NA","NA","NA","NA","h","NA","NA","1077","127139","NA","NA","NA","NA","NA","1077","NA","NA","NA","NA","2","legacy","1024","2","48000","-16","experiment","HHSHH","3","odd","129618","NA","NA","2476","154236","2470","NA","NA","157726","NA","NA","NA","NA","156655","157829","158907","NA","157724","NA","157828","NA","Flanker Task","3","10329","13","yes","1024"
"28.5714285714","28.5714285714","789.642857143","789.642857143","black","legacy","legacy","legacy","0","incongruent","uniform","1","undefined","1","s","0","0","0","0","13","0","13","0","13","NA","0","NA","0","13","13","13","NA","13","NA","13","NA","09/21/22 14:49:45","1500","The main experiment item","yes","FlankerTask.osexp","C:\Users\olasa\OneDrive\Desktop","no","mono","no","18","no","white","no","yes","768","legacy","13","13","C:/Users/olasa/OneDrive/Desktop/OL-subject-3.csv","legacy","Lentiform Loewenfeld","3.3.12","0","s","s","NA","NA","NA","NA","NA","s","NA","NA","726","127139","NA","NA","NA","NA","NA","726","NA","NA","NA","NA","2","legacy","1024","2","48000","-16","experiment","HHSHH","3","odd","129618","NA","NA","2476","158915","2470","NA","NA","160487","NA","NA","NA","NA","159418","160590","161316","NA","160484","NA","160590","NA","Flanker Task","4","11055","14","yes","1024"
"33.3333333333","33.3333333333","810.666666667","810.666666667","black","legacy","legacy","legacy","0","congruent","uniform","1","undefined","1","h","0","0","0","0","14","0","14","0","14","NA","0","NA","0","14","14","14","NA","14","NA","14","NA","09/21/22 14:49:45","1500","The main experiment item","yes","FlankerTask.osexp","C:\Users\olasa\OneDrive\Desktop","no","mono","no","18","no","white","no","yes","768","legacy","14","14","C:/Users/olasa/OneDrive/Desktop/OL-subject-3.csv","legacy","Lentiform Loewenfeld","3.3.12","0","h","s","NA","NA","NA","NA","NA","h","NA","NA","1105","127139","NA","NA","NA","NA","NA","1105","NA","NA","NA","NA","2","legacy","1024","2","48000","-16","experiment","HHHHH","3","odd","129618","NA","NA","2476","158915","2470","NA","NA","162404","NA","NA","NA","NA","161327","162507","163613","NA","162402","NA","162507","NA","Flanker Task","5","12160","15","yes","1024"
"37.5","37.5","811.625","811.625","black","legacy","legacy","legacy","0","incongruent","uniform","1","undefined","1","s","0","0","0","0","15","0","15","0","15","NA","0","NA","0","15","15","15","NA","15","NA","15","NA","09/21/22 14:49:45","1500","The main experiment item","yes","FlankerTask.osexp","C:\Users\olasa\OneDrive\Desktop","no","mono","no","18","no","white","no","yes","768","legacy","15","15","C:/Users/olasa/OneDrive/Desktop/OL-subject-3.csv","legacy","Lentiform Loewenfeld","3.3.12","0","s","s","NA","NA","NA","NA","NA","s","NA","NA","826","127139","NA","NA","NA","NA","NA","826","NA","NA","NA","NA","2","legacy","1024","2","48000","-16","experiment","HHSHH","3","odd","129618","NA","NA","2476","158915","2470","NA","NA","164709","NA","NA","NA","NA","163643","164812","165639","NA","164707","NA","164812","NA","Flanker Task","6","12986","16","yes","1024"
"41.1764705882","41.1764705882","823.352941176","823.352941176","black","legacy","legacy","legacy","0","incongruent","uniform","1","undefined","1","h","0","0","0","0","16","0","16","0","16","NA","0","NA","0","16","16","16","NA","16","NA","16","NA","09/21/22 14:49:45","1500","The main experiment item","yes","FlankerTask.osexp","C:\Users\olasa\OneDrive\Desktop","no","mono","no","18","no","white","no","yes","768","legacy","16","16","C:/Users/olasa/OneDrive/Desktop/OL-subject-3.csv","legacy","Lentiform Loewenfeld","3.3.12","0","h","s","NA","NA","NA","NA","NA","h","NA","NA","1011","127139","NA","NA","NA","NA","NA","1011","NA","NA","NA","NA","2","legacy","1024","2","48000","-16","experiment","SSHSS","3","odd","129618","NA","NA","2476","158915","2470","NA","NA","166720","NA","NA","NA","NA","165648","166823","167835","NA","166718","NA","166823","NA","Flanker Task","7","13997","17","yes","1024"
"44.4444444444","44.4444444444","847.722222222","847.722222222","black","legacy","legacy","legacy","0","incongruent","uniform","1","undefined","1","s","0","0","0","0","17","0","17","0","17","NA","0","NA","0","17","17","17","NA","17","NA","17","NA","09/21/22 14:49:45","1500","The main experiment item","yes","FlankerTask.osexp","C:\Users\olasa\OneDrive\Desktop","no","mono","no","18","no","white","no","yes","768","legacy","17","17","C:/Users/olasa/OneDrive/Desktop/OL-subject-3.csv","legacy","Lentiform Loewenfeld","3.3.12","0","s","s","NA","NA","NA","NA","NA","s","NA","NA","1262","127139","NA","NA","NA","NA","NA","1262","NA","NA","NA","NA","2","legacy","1024","2","48000","-16","experiment","HHSHH","3","odd","129618","NA","NA","2476","158915","2470","NA","NA","168916","NA","NA","NA","NA","167844","169019","170282","NA","168914","NA","169019","NA","Flanker Task","8","15259","18","yes","1024"
"47.3684210526","47.3684210526","853.105263158","853.105263158","black","legacy","legacy","legacy","0","congruent","uniform","1","undefined","1","s","0","0","0","0","18","0","18","0","18","NA","0","NA","0","18","18","18","NA","18","NA","18","NA","09/21/22 14:49:45","1500","The main experiment item","yes","FlankerTask.osexp","C:\Users\olasa\OneDrive\Desktop","no","mono","no","18","no","white","no","yes","768","legacy","18","18","C:/Users/olasa/OneDrive/Desktop/OL-subject-3.csv","legacy","Lentiform Loewenfeld","3.3.12","0","s","s","NA","NA","NA","NA","NA","s","NA","NA","950","127139","NA","NA","NA","NA","NA","950","NA","NA","NA","NA","2","legacy","1024","2","48000","-16","experiment","SSSSS","3","odd","129618","NA","NA","2476","158915","2470","NA","NA","171360","NA","NA","NA","NA","170288","171463","172414","NA","171358","NA","171463","NA","Flanker Task","9","16209","19","yes","1024"
"50","50","843.8","843.8","black","legacy","legacy","legacy","0","congruent","uniform","1","undefined","1","h","0","0","0","0","19","0","19","0","19","NA","0","NA","0","19","19","19","NA","19","NA","19","NA","09/21/22 14:49:45","1500","The main experiment item","yes","FlankerTask.osexp","C:\Users\olasa\OneDrive\Desktop","no","mono","no","18","no","white","no","yes","768","legacy","19","19","C:/Users/olasa/OneDrive/Desktop/OL-subject-3.csv","legacy","Lentiform Loewenfeld","3.3.12","0","h","s","NA","NA","NA","NA","NA","h","NA","NA","667","127139","NA","NA","NA","NA","NA","667","NA","NA","NA","NA","2","legacy","1024","2","48000","-16","experiment","HHHHH","3","odd","129618","NA","NA","2476","158915","2470","NA","NA","173492","NA","NA","NA","NA","172422","173595","174262","NA","173490","NA","173595","NA","Flanker Task","10","16876","20","yes","1024"
"52.380952381","52.380952381","838.095238095","838.095238095","black","legacy","legacy","legacy","0","incongruent","uniform","1","undefined","1","h","0","0","0","0","20","0","20","0","20","NA","0","NA","0","20","20","20","NA","20","NA","20","NA","09/21/22 14:49:45","1500","The main experiment item","yes","FlankerTask.osexp","C:\Users\olasa\OneDrive\Desktop","no","mono","no","18","no","white","no","yes","768","legacy","20","20","C:/Users/olasa/OneDrive/Desktop/OL-subject-3.csv","legacy","Lentiform Loewenfeld","3.3.12","0","h","s","NA","NA","NA","NA","NA","h","NA","NA","724","127139","NA","NA","NA","NA","NA","724","NA","NA","NA","NA","2","legacy","1024","2","48000","-16","experiment","SSHSS","3","odd","129618","NA","NA","2476","158915","2470","NA","NA","175341","NA","NA","NA","NA","174293","175444","176168","NA","175339","NA","175444","NA","Flanker Task","11","17600","21","yes","1024"
"54.5454545455","54.5454545455","825.045454545","825.045454545","black","legacy","legacy","legacy","0","congruent","uniform","1","undefined","1","s","0","0","0","0","21","0","21","0","21","NA","0","NA","0","21","21","21","NA","21","NA","21","NA","09/21/22 14:49:45","1500","The main experiment item","yes","FlankerTask.osexp","C:\Users\olasa\OneDrive\Desktop","no","mono","no","18","no","white","no","yes","768","legacy","21","21","C:/Users/olasa/OneDrive/Desktop/OL-subject-3.csv","legacy","Lentiform Loewenfeld","3.3.12","0","s","s","NA","NA","NA","NA","NA","s","NA","NA","551","127139","NA","NA","NA","NA","NA","551","NA","NA","NA","NA","2","legacy","1024","2","48000","-16","experiment","SSSSS","3","odd","129618","NA","NA","2476","158915","2470","NA","NA","177269","NA","NA","NA","NA","176198","177370","177921","NA","177266","NA","177370","NA","Flanker Task","12","18151","22","yes","1024"
"56.5217391304","56.5217391304","817.739130435","817.739130435","black","legacy","legacy","legacy","0","congruent","uniform","1","undefined","1","h","0","0","0","0","22","0","22","0","22","NA","0","NA","0","22","22","22","NA","22","NA","22","NA","09/21/22 14:49:45","1500","The main experiment item","yes","FlankerTask.osexp","C:\Users\olasa\OneDrive\Desktop","no","mono","no","18","no","white","no","yes","768","legacy","22","22","C:/Users/olasa/OneDrive/Desktop/OL-subject-3.csv","legacy","Lentiform Loewenfeld","3.3.12","0","h","s","NA","NA","NA","NA","NA","h","NA","NA","657","127139","NA","NA","NA","NA","NA","657","NA","NA","NA","NA","2","legacy","1024","2","48000","-16","experiment","HHHHH","3","odd","129618","NA","NA","2476","158915","2470","NA","NA","179004","NA","NA","NA","NA","177931","179105","179763","NA","179002","NA","179105","NA","Flanker Task","13","18808","23","yes","1024"
"58.3333333333","58.3333333333","807.916666667","807.916666667","black","legacy","legacy","legacy","0","congruent","uniform","1","undefined","1","s","0","0","0","0","23","0","23","0","23","NA","0","NA","0","23","23","23","NA","23","NA","23","NA","09/21/22 14:49:45","1500","The main experiment item","yes","FlankerTask.osexp","C:\Users\olasa\OneDrive\Desktop","no","mono","no","18","no","white","no","yes","768","legacy","23","23","C:/Users/olasa/OneDrive/Desktop/OL-subject-3.csv","legacy","Lentiform Loewenfeld","3.3.12","0","s","s","NA","NA","NA","NA","NA","s","NA","NA","582","127139","NA","NA","NA","NA","NA","582","NA","NA","NA","NA","2","legacy","1024","2","48000","-16","experiment","SSSSS","3","odd","129618","NA","NA","2476","158915","2470","NA","NA","180843","NA","NA","NA","NA","179769","180946","181529","NA","180841","NA","180946","NA","Flanker Task","14","19390","24","yes","1024"
"60","60","802.2","802.2","black","legacy","legacy","legacy","0","incongruent","uniform","1","undefined","1","s","0","0","0","0","24","0","24","0","24","NA","0","NA","0","24","24","24","NA","24","NA","24","NA","09/21/22 14:49:45","1500","The main experiment item","yes","FlankerTask.osexp","C:\Users\olasa\OneDrive\Desktop","no","mono","no","18","no","white","no","yes","768","legacy","24","24","C:/Users/olasa/OneDrive/Desktop/OL-subject-3.csv","legacy","Lentiform Loewenfeld","3.3.12","0","s","s","NA","NA","NA","NA","NA","s","NA","NA","665","127139","NA","NA","NA","NA","NA","665","NA","NA","NA","NA","2","legacy","1024","2","48000","-16","experiment","HHSHH","3","odd","129618","NA","NA","2476","158915","2470","NA","NA","182611","NA","NA","NA","NA","181537","182714","183380","NA","182609","NA","182714","NA","Flanker Task","15","20055","25","yes","1024"
"61.5384615385","61.5384615385","796.730769231","796.730769231","black","legacy","legacy","legacy","0","incongruent","uniform","1","undefined","1","s","0","0","0","0","25","0","25","0","25","NA","0","NA","0","25","25","25","NA","25","NA","25","NA","09/21/22 14:49:45","1500","The main experiment item","yes","FlankerTask.osexp","C:\Users\olasa\OneDrive\Desktop","no","mono","no","18","no","white","no","yes","768","legacy","25","25","C:/Users/olasa/OneDrive/Desktop/OL-subject-3.csv","legacy","Lentiform Loewenfeld","3.3.12","0","s","s","NA","NA","NA","NA","NA","s","NA","NA","660","127139","NA","NA","NA","NA","NA","660","NA","NA","NA","NA","2","legacy","1024","2","48000","-16","experiment","HHSHH","3","odd","129618","NA","NA","2476","158915","2470","NA","NA","184480","NA","NA","NA","NA","183410","184583","185244","NA","184478","NA","184583","NA","Flanker Task","16","20715","26","yes","1024"
"62.962962963","62.962962963","790.037037037","790.037037037","black","legacy","legacy","legacy","0","congruent","uniform","1","undefined","1","s","0","0","0","0","26","0","26","0","26","NA","0","NA","0","26","26","26","NA","26","NA","26","NA","09/21/22 14:49:45","1500","The main experiment item","yes","FlankerTask.osexp","C:\Users\olasa\OneDrive\Desktop","no","mono","no","18","no","white","no","yes","768","legacy","26","26","C:/Users/olasa/OneDrive/Desktop/OL-subject-3.csv","legacy","Lentiform Loewenfeld","3.3.12","0","s","s","NA","NA","NA","NA","NA","s","NA","NA","616","127139","NA","NA","NA","NA","NA","616","NA","NA","NA","NA","2","legacy","1024","2","48000","-16","experiment","SSSSS","3","odd","129618","NA","NA","2476","158915","2470","NA","NA","186334","NA","NA","NA","NA","185251","186437","187053","NA","186331","NA","186437","NA","Flanker Task","17","21331","27","yes","1024"
"64.2857142857","64.2857142857","780.964285714","780.964285714","black","legacy","legacy","legacy","0","incongruent","uniform","1","undefined","1","s","0","0","0","0","27","0","27","0","27","NA","0","NA","0","27","27","27","NA","27","NA","27","NA","09/21/22 14:49:45","1500","The main experiment item","yes","FlankerTask.osexp","C:\Users\olasa\OneDrive\Desktop","no","mono","no","18","no","white","no","yes","768","legacy","27","27","C:/Users/olasa/OneDrive/Desktop/OL-subject-3.csv","legacy","Lentiform Loewenfeld","3.3.12","0","s","s","NA","NA","NA","NA","NA","s","NA","NA","536","127139","NA","NA","NA","NA","NA","536","NA","NA","NA","NA","2","legacy","1024","2","48000","-16","experiment","HHSHH","3","odd","129618","NA","NA","2476","158915","2470","NA","NA","188157","NA","NA","NA","NA","187083","188260","188796","NA","188155","NA","188260","NA","Flanker Task","18","21867","28","yes","1024"
"65.5172413793","65.5172413793","778.379310345","778.379310345","black","legacy","legacy","legacy","0","incongruent","uniform","1","undefined","1","h","0","0","0","0","28","0","28","0","28","NA","0","NA","0","28","28","28","NA","28","NA","28","NA","09/21/22 14:49:45","1500","The main experiment item","yes","FlankerTask.osexp","C:\Users\olasa\OneDrive\Desktop","no","mono","no","18","no","white","no","yes","768","legacy","28","28","C:/Users/olasa/OneDrive/Desktop/OL-subject-3.csv","legacy","Lentiform Loewenfeld","3.3.12","0","h","s","NA","NA","NA","NA","NA","h","NA","NA","706","127139","NA","NA","NA","NA","NA","706","NA","NA","NA","NA","2","legacy","1024","2","48000","-16","experiment","SSHSS","3","odd","129618","NA","NA","2476","158915","2470","NA","NA","189860","NA","NA","NA","NA","188806","189963","190670","NA","189858","NA","189962","NA","Flanker Task","19","22573","29","yes","1024"
"66.6666666667","66.6666666667","773.266666667","773.266666667","black","legacy","legacy","legacy","0","incongruent","uniform","1","undefined","1","h","0","0","0","0","29","0","29","0","29","NA","0","NA","0","29","29","29","NA","29","NA","29","NA","09/21/22 14:49:45","1500","The main experiment item","yes","FlankerTask.osexp","C:\Users\olasa\OneDrive\Desktop","no","mono","no","18","no","white","no","yes","768","legacy","29","29","C:/Users/olasa/OneDrive/Desktop/OL-subject-3.csv","legacy","Lentiform Loewenfeld","3.3.12","0","h","s","NA","NA","NA","NA","NA","h","NA","NA","625","127139","NA","NA","NA","NA","NA","625","NA","NA","NA","NA","2","legacy","1024","2","48000","-16","experiment","SSHSS","3","odd","129618","NA","NA","2476","158915","2470","NA","NA","191773","NA","NA","NA","NA","190674","191876","192501","NA","191771","NA","191876","NA","Flanker Task","20","23198","30","yes","1024"
"67.7419354839","67.7419354839","765.451612903","765.451612903","black","legacy","legacy","legacy","0","incongruent","uniform","1","undefined","1","h","0","0","0","0","30","0","30","0","30","NA","0","NA","0","30","30","30","NA","30","NA","30","NA","09/21/22 14:49:45","1500","The main experiment item","yes","FlankerTask.osexp","C:\Users\olasa\OneDrive\Desktop","no","mono","no","18","no","white","no","yes","768","legacy","30","30","C:/Users/olasa/OneDrive/Desktop/OL-subject-3.csv","legacy","Lentiform Loewenfeld","3.3.12","0","h","s","NA","NA","NA","NA","NA","h","NA","NA","531","127139","NA","NA","NA","NA","NA","531","NA","NA","NA","NA","2","legacy","1024","2","48000","-16","experiment","SSHSS","3","odd","129618","NA","NA","2476","158915","2470","NA","NA","193602","NA","NA","NA","NA","192532","193705","194237","NA","193600","NA","193705","NA","Flanker Task","21","23729","31","yes","1024"
"65.625","65.625","763.03125","763.03125","black","legacy","legacy","legacy","0","congruent","uniform","0","undefined","0","h","0","0","0","0","31","0","31","0","31","NA","0","NA","0","31","31","31","NA","31","NA","31","NA","09/21/22 14:49:45","1500","The main experiment item","yes","FlankerTask.osexp","C:\Users\olasa\OneDrive\Desktop","no","mono","no","18","no","white","no","yes","768","legacy","31","31","C:/Users/olasa/OneDrive/Desktop/OL-subject-3.csv","legacy","Lentiform Loewenfeld","3.3.12","0","s","s","NA","NA","NA","NA","NA","s","NA","NA","688","127139","NA","NA","NA","NA","NA","688","NA","NA","NA","NA","2","legacy","1024","2","48000","-16","experiment","HHHHH","3","odd","129618","NA","NA","2476","158915","2470","NA","NA","195336","NA","NA","NA","NA","194267","195439","196128","NA","195334","NA","195439","NA","Flanker Task","21","24417","32","yes","1024"
"66.6666666667","66.6666666667","762.666666667","762.666666667","black","legacy","legacy","legacy","0","congruent","uniform","1","undefined","1","s","0","0","0","0","32","0","32","0","32","NA","0","NA","0","32","32","32","NA","32","NA","32","NA","09/21/22 14:49:45","1500","The main experiment item","yes","FlankerTask.osexp","C:\Users\olasa\OneDrive\Desktop","no","mono","no","18","no","white","no","yes","768","legacy","32","32","C:/Users/olasa/OneDrive/Desktop/OL-subject-3.csv","legacy","Lentiform Loewenfeld","3.3.12","0","s","s","NA","NA","NA","NA","NA","s","NA","NA","751","127139","NA","NA","NA","NA","NA","751","NA","NA","NA","NA","2","legacy","1024","2","48000","-16","experiment","SSSSS","3","odd","129618","NA","NA","2476","196132","2470","NA","NA","197709","NA","NA","NA","NA","196635","197812","198565","NA","197706","NA","197812","NA","Flanker Task","22","25168","33","yes","1024"
"67.6470588235","67.6470588235","760","760","black","legacy","legacy","legacy","0","congruent","uniform","1","undefined","1","h","0","0","0","0","33","0","33","0","33","NA","0","NA","0","33","33","33","NA","33","NA","33","NA","09/21/22 14:49:45","1500","The main experiment item","yes","FlankerTask.osexp","C:\Users\olasa\OneDrive\Desktop","no","mono","no","18","no","white","no","yes","768","legacy","33","33","C:/Users/olasa/OneDrive/Desktop/OL-subject-3.csv","legacy","Lentiform Loewenfeld","3.3.12","0","h","s","NA","NA","NA","NA","NA","h","NA","NA","672","127139","NA","NA","NA","NA","NA","672","NA","NA","NA","NA","2","legacy","1024","2","48000","-16","experiment","HHHHH","3","odd","129618","NA","NA","2476","196132","2470","NA","NA","199665","NA","NA","NA","NA","198595","199768","200440","NA","199663","NA","199768","NA","Flanker Task","23","25840","34","yes","1024"
"68.5714285714","68.5714285714","756.714285714","756.714285714","black","legacy","legacy","legacy","0","incongruent","uniform","1","undefined","1","s","0","0","0","0","34","0","34","0","34","NA","0","NA","0","34","34","34","NA","34","NA","34","NA","09/21/22 14:49:45","1500","The main experiment item","yes","FlankerTask.osexp","C:\Users\olasa\OneDrive\Desktop","no","mono","no","18","no","white","no","yes","768","legacy","34","34","C:/Users/olasa/OneDrive/Desktop/OL-subject-3.csv","legacy","Lentiform Loewenfeld","3.3.12","0","s","s","NA","NA","NA","NA","NA","s","NA","NA","645","127139","NA","NA","NA","NA","NA","645","NA","NA","NA","NA","2","legacy","1024","2","48000","-16","experiment","HHSHH","3","odd","129618","NA","NA","2476","196132","2470","NA","NA","201548","NA","NA","NA","NA","200471","201651","202297","NA","201546","NA","201651","NA","Flanker Task","24","26485","35","yes","1024"
"69.4444444444","69.4444444444","751.944444444","751.944444444","black","legacy","legacy","legacy","0","congruent","uniform","1","undefined","1","h","0","0","0","0","35","0","35","0","35","NA","0","NA","0","35","35","35","NA","35","NA","35","NA","09/21/22 14:49:45","1500","The main experiment item","yes","FlankerTask.osexp","C:\Users\olasa\OneDrive\Desktop","no","mono","no","18","no","white","no","yes","768","legacy","35","35","C:/Users/olasa/OneDrive/Desktop/OL-subject-3.csv","legacy","Lentiform Loewenfeld","3.3.12","0","h","s","NA","NA","NA","NA","NA","h","NA","NA","585","127139","NA","NA","NA","NA","NA","585","NA","NA","NA","NA","2","legacy","1024","2","48000","-16","experiment","HHHHH","3","odd","129618","NA","NA","2476","196132","2470","NA","NA","203376","NA","NA","NA","NA","202306","203479","204064","NA","203373","NA","203479","NA","Flanker Task","25","27070","36","yes","1024"
"70.2702702703","70.2702702703","745.918918919","745.918918919","black","legacy","legacy","legacy","0","congruent","uniform","1","undefined","1","s","0","0","0","0","36","0","36","0","36","NA","0","NA","0","36","36","36","NA","36","NA","36","NA","09/21/22 14:49:45","1500","The main experiment item","yes","FlankerTask.osexp","C:\Users\olasa\OneDrive\Desktop","no","mono","no","18","no","white","no","yes","768","legacy","36","36","C:/Users/olasa/OneDrive/Desktop/OL-subject-3.csv","legacy","Lentiform Loewenfeld","3.3.12","0","s","s","NA","NA","NA","NA","NA","s","NA","NA","529","127139","NA","NA","NA","NA","NA","529","NA","NA","NA","NA","2","legacy","1024","2","48000","-16","experiment","SSSSS","3","odd","129618","NA","NA","2476","196132","2470","NA","NA","205166","NA","NA","NA","NA","204095","205269","205799","NA","205165","NA","205269","NA","Flanker Task","26","27599","37","yes","1024"
"71.0526315789","71.0526315789","744.605263158","744.605263158","black","legacy","legacy","legacy","0","congruent","uniform","1","undefined","1","h","0","0","0","0","37","0","37","0","37","NA","0","NA","0","37","37","37","NA","37","NA","37","NA","09/21/22 14:49:45","1500","The main experiment item","yes","FlankerTask.osexp","C:\Users\olasa\OneDrive\Desktop","no","mono","no","18","no","white","no","yes","768","legacy","37","37","C:/Users/olasa/OneDrive/Desktop/OL-subject-3.csv","legacy","Lentiform Loewenfeld","3.3.12","0","h","s","NA","NA","NA","NA","NA","h","NA","NA","696","127139","NA","NA","NA","NA","NA","696","NA","NA","NA","NA","2","legacy","1024","2","48000","-16","experiment","HHHHH","3","odd","129618","NA","NA","2476","196132","2470","NA","NA","206879","NA","NA","NA","NA","205808","206982","207678","NA","206878","NA","206982","NA","Flanker Task","27","28295","38","yes","1024"
"71.7948717949","71.7948717949","739.641025641","739.641025641","black","legacy","legacy","legacy","0","congruent","uniform","1","undefined","1","h","0","0","0","0","38","0","38","0","38","NA","0","NA","0","38","38","38","NA","38","NA","38","NA","09/21/22 14:49:45","1500","The main experiment item","yes","FlankerTask.osexp","C:\Users\olasa\OneDrive\Desktop","no","mono","no","18","no","white","no","yes","768","legacy","38","38","C:/Users/olasa/OneDrive/Desktop/OL-subject-3.csv","legacy","Lentiform Loewenfeld","3.3.12","0","h","s","NA","NA","NA","NA","NA","h","NA","NA","551","127139","NA","NA","NA","NA","NA","551","NA","NA","NA","NA","2","legacy","1024","2","48000","-16","experiment","HHHHH","3","odd","129618","NA","NA","2476","196132","2470","NA","NA","208761","NA","NA","NA","NA","207687","208864","209417","NA","208758","NA","208864","NA","Flanker Task","28","28846","39","yes","1024"
"72.5","72.5","737.5","737.5","black","legacy","legacy","legacy","0","incongruent","uniform","1","undefined","1","s","0","0","0","0","39","0","39","0","39","NA","0","NA","0","39","39","39","NA","39","NA","39","NA","09/21/22 14:49:45","1500","The main experiment item","yes","FlankerTask.osexp","C:\Users\olasa\OneDrive\Desktop","no","mono","no","18","no","white","no","yes","768","legacy","39","39","C:/Users/olasa/OneDrive/Desktop/OL-subject-3.csv","legacy","Lentiform Loewenfeld","3.3.12","0","s","s","NA","NA","NA","NA","NA","s","NA","NA","654","127139","NA","NA","NA","NA","NA","654","NA","NA","NA","NA","2","legacy","1024","2","48000","-16","experiment","HHSHH","3","odd","129618","NA","NA","2476","196132","2470","NA","NA","210495","NA","NA","NA","NA","209426","210598","211252","NA","210492","NA","210598","NA","Flanker Task","29","29500","40","yes","1024"
"73.1707317073","73.1707317073","735.43902439","735.43902439","black","legacy","legacy","legacy","0","congruent","uniform","1","undefined","1","h","0","0","0","0","40","0","40","0","40","NA","0","NA","0","40","40","40","NA","40","NA","40","NA","09/21/22 14:49:45","1500","The main experiment item","yes","FlankerTask.osexp","C:\Users\olasa\OneDrive\Desktop","no","mono","no","18","no","white","no","yes","768","legacy","40","40","C:/Users/olasa/OneDrive/Desktop/OL-subject-3.csv","legacy","Lentiform Loewenfeld","3.3.12","0","h","s","NA","NA","NA","NA","NA","h","NA","NA","653","127139","NA","NA","NA","NA","NA","653","NA","NA","NA","NA","2","legacy","1024","2","48000","-16","experiment","HHHHH","3","odd","129618","NA","NA","2476","196132","2470","NA","NA","212327","NA","NA","NA","NA","211262","212429","213083","NA","212324","NA","212428","NA","Flanker Task","30","30153","41","yes","1024"
"73.8095238095","73.8095238095","729.619047619","729.619047619","black","legacy","legacy","legacy","0","congruent","uniform","1","undefined","1","h","0","0","0","0","41","0","41","0","41","NA","0","NA","0","41","41","41","NA","41","NA","41","NA","09/21/22 14:49:45","1500","The main experiment item","yes","FlankerTask.osexp","C:\Users\olasa\OneDrive\Desktop","no","mono","no","18","no","white","no","yes","768","legacy","41","41","C:/Users/olasa/OneDrive/Desktop/OL-subject-3.csv","legacy","Lentiform Loewenfeld","3.3.12","0","h","s","NA","NA","NA","NA","NA","h","NA","NA","491","127139","NA","NA","NA","NA","NA","491","NA","NA","NA","NA","2","legacy","1024","2","48000","-16","experiment","HHHHH","3","odd","129618","NA","NA","2476","196132","2470","NA","NA","214204","NA","NA","NA","NA","213114","214307","214799","NA","214202","NA","214307","NA","Flanker Task","31","30644","42","yes","1024"
"74.4186046512","74.4186046512","723.906976744","723.906976744","black","legacy","legacy","legacy","0","congruent","uniform","1","undefined","1","h","0","0","0","0","42","0","42","0","42","NA","0","NA","0","42","42","42","NA","42","NA","42","NA","09/21/22 14:49:45","1500","The main experiment item","yes","FlankerTask.osexp","C:\Users\olasa\OneDrive\Desktop","no","mono","no","18","no","white","no","yes","768","legacy","42","42","C:/Users/olasa/OneDrive/Desktop/OL-subject-3.csv","legacy","Lentiform Loewenfeld","3.3.12","0","h","s","NA","NA","NA","NA","NA","h","NA","NA","484","127139","NA","NA","NA","NA","NA","484","NA","NA","NA","NA","2","legacy","1024","2","48000","-16","experiment","HHHHH","3","odd","129618","NA","NA","2476","196132","2470","NA","NA","215903","NA","NA","NA","NA","214830","216006","216493","NA","215901","NA","216006","NA","Flanker Task","32","31128","43","yes","1024"
"72.7272727273","72.7272727273","722.113636364","722.113636364","black","legacy","legacy","legacy","0","incongruent","uniform","0","undefined","0","h","0","0","0","0","43","0","43","0","43","NA","0","NA","0","43","43","43","NA","43","NA","43","NA","09/21/22 14:49:45","1500","The main experiment item","yes","FlankerTask.osexp","C:\Users\olasa\OneDrive\Desktop","no","mono","no","18","no","white","no","yes","768","legacy","43","43","C:/Users/olasa/OneDrive/Desktop/OL-subject-3.csv","legacy","Lentiform Loewenfeld","3.3.12","0","s","s","NA","NA","NA","NA","NA","s","NA","NA","645","127139","NA","NA","NA","NA","NA","645","NA","NA","NA","NA","2","legacy","1024","2","48000","-16","experiment","SSHSS","3","odd","129618","NA","NA","2476","196132","2470","NA","NA","217596","NA","NA","NA","NA","216523","217699","218345","NA","217595","NA","217699","NA","Flanker Task","32","31773","44","yes","1024"
"73.3333333333","73.3333333333","724.311111111","724.311111111","black","legacy","legacy","legacy","0","congruent","uniform","1","undefined","1","s","0","0","0","0","44","0","44","0","44","NA","0","NA","0","44","44","44","NA","44","NA","44","NA","09/21/22 14:49:45","1500","The main experiment item","yes","FlankerTask.osexp","C:\Users\olasa\OneDrive\Desktop","no","mono","no","18","no","white","no","yes","768","legacy","44","44","C:/Users/olasa/OneDrive/Desktop/OL-subject-3.csv","legacy","Lentiform Loewenfeld","3.3.12","0","s","s","NA","NA","NA","NA","NA","s","NA","NA","821","127139","NA","NA","NA","NA","NA","821","NA","NA","NA","NA","2","legacy","1024","2","48000","-16","experiment","SSSSS","3","odd","129618","NA","NA","2476","218356","2470","NA","NA","219921","NA","NA","NA","NA","218860","220024","220846","NA","219920","NA","220024","NA","Flanker Task","33","32594","45","yes","1024"
"73.9130434783","73.9130434783","720.152173913","720.152173913","black","legacy","legacy","legacy","0","incongruent","uniform","1","undefined","1","s","0","0","0","0","45","0","45","0","45","NA","0","NA","0","45","45","45","NA","45","NA","45","NA","09/21/22 14:49:45","1500","The main experiment item","yes","FlankerTask.osexp","C:\Users\olasa\OneDrive\Desktop","no","mono","no","18","no","white","no","yes","768","legacy","45","45","C:/Users/olasa/OneDrive/Desktop/OL-subject-3.csv","legacy","Lentiform Loewenfeld","3.3.12","0","s","s","NA","NA","NA","NA","NA","s","NA","NA","533","127139","NA","NA","NA","NA","NA","533","NA","NA","NA","NA","2","legacy","1024","2","48000","-16","experiment","HHSHH","3","odd","129618","NA","NA","2476","218356","2470","NA","NA","221955","NA","NA","NA","NA","220877","222058","222592","NA","221953","NA","222058","NA","Flanker Task","34","33127","46","yes","1024"
"74.4680851064","74.4680851064","717.404255319","717.404255319","black","legacy","legacy","legacy","0","incongruent","uniform","1","undefined","1","s","0","0","0","0","46","0","46","0","46","NA","0","NA","0","46","46","46","NA","46","NA","46","NA","09/21/22 14:49:45","1500","The main experiment item","yes","FlankerTask.osexp","C:\Users\olasa\OneDrive\Desktop","no","mono","no","18","no","white","no","yes","768","legacy","46","46","C:/Users/olasa/OneDrive/Desktop/OL-subject-3.csv","legacy","Lentiform Loewenfeld","3.3.12","0","s","s","NA","NA","NA","NA","NA","s","NA","NA","591","127139","NA","NA","NA","NA","NA","591","NA","NA","NA","NA","2","legacy","1024","2","48000","-16","experiment","HHSHH","3","odd","129618","NA","NA","2476","218356","2470","NA","NA","223694","NA","NA","NA","NA","222622","223797","224389","NA","223692","NA","223797","NA","Flanker Task","35","33718","47","yes","1024"
"75","75","714.125","714.125","black","legacy","legacy","legacy","0","incongruent","uniform","1","undefined","1","s","0","0","0","0","47","0","47","0","47","NA","0","NA","0","47","47","47","NA","47","NA","47","NA","09/21/22 14:49:45","1500","The main experiment item","yes","FlankerTask.osexp","C:\Users\olasa\OneDrive\Desktop","no","mono","no","18","no","white","no","yes","768","legacy","47","47","C:/Users/olasa/OneDrive/Desktop/OL-subject-3.csv","legacy","Lentiform Loewenfeld","3.3.12","0","s","s","NA","NA","NA","NA","NA","s","NA","NA","560","127139","NA","NA","NA","NA","NA","560","NA","NA","NA","NA","2","legacy","1024","2","48000","-16","experiment","HHSHH","3","odd","129618","NA","NA","2476","218356","2470","NA","NA","225496","NA","NA","NA","NA","224420","225599","226160","NA","225494","NA","225599","NA","Flanker Task","36","34278","48","yes","1024"
"75.5102040816","75.5102040816","711.897959184","711.897959184","black","legacy","legacy","legacy","0","congruent","uniform","1","undefined","1","h","0","0","0","0","48","0","48","0","48","NA","0","NA","0","48","48","48","NA","48","NA","48","NA","09/21/22 14:49:45","1500","The main experiment item","yes","FlankerTask.osexp","C:\Users\olasa\OneDrive\Desktop","no","mono","no","18","no","white","no","yes","768","legacy","48","48","C:/Users/olasa/OneDrive/Desktop/OL-subject-3.csv","legacy","Lentiform Loewenfeld","3.3.12","0","h","s","NA","NA","NA","NA","NA","h","NA","NA","605","127139","NA","NA","NA","NA","NA","605","NA","NA","NA","NA","2","legacy","1024","2","48000","-16","experiment","HHHHH","3","odd","129618","NA","NA","2476","218356","2470","NA","NA","227236","NA","NA","NA","NA","226164","227339","227946","NA","227234","NA","227339","NA","Flanker Task","37","34883","49","yes","1024"
"76","76","715.22","715.22","black","legacy","legacy","legacy","0","congruent","uniform","1","undefined","1","s","0","0","0","0","49","0","49","0","49","NA","0","NA","0","49","49","49","NA","49","NA","49","NA","09/21/22 14:49:45","1500","The main experiment item","yes","FlankerTask.osexp","C:\Users\olasa\OneDrive\Desktop","no","mono","no","18","no","white","no","yes","768","legacy","49","49","C:/Users/olasa/OneDrive/Desktop/OL-subject-3.csv","legacy","Lentiform Loewenfeld","3.3.12","0","s","s","NA","NA","NA","NA","NA","s","NA","NA","878","127139","NA","NA","NA","NA","NA","878","NA","NA","NA","NA","2","legacy","1024","2","48000","-16","experiment","SSSSS","3","odd","129618","NA","NA","2476","218356","2470","NA","NA","229025","NA","NA","NA","NA","227954","229128","230007","NA","229022","NA","229128","NA","Flanker Task","38","35761","50","yes","1024"
"76.4705882353","76.4705882353","713.68627451","713.68627451","black","legacy","legacy","legacy","0","congruent","uniform","1","undefined","1","h","0","0","0","0","50","0","50","0","50","NA","0","NA","0","50","50","50","NA","50","NA","50","NA","09/21/22 14:49:45","1500","The main experiment item","yes","FlankerTask.osexp","C:\Users\olasa\OneDrive\Desktop","no","mono","no","18","no","white","no","yes","768","legacy","50","50","C:/Users/olasa/OneDrive/Desktop/OL-subject-3.csv","legacy","Lentiform Loewenfeld","3.3.12","0","h","s","NA","NA","NA","NA","NA","h","NA","NA","637","127139","NA","NA","NA","NA","NA","637","NA","NA","NA","NA","2","legacy","1024","2","48000","-16","experiment","HHHHH","3","odd","129618","NA","NA","2476","218356","2470","NA","NA","231097","NA","NA","NA","NA","230016","231200","231838","NA","231094","NA","231200","NA","Flanker Task","39","36398","51","yes","1024"
"76.9230769231","76.9230769231","717.480769231","717.480769231","black","legacy","legacy","legacy","0","congruent","uniform","1","undefined","1","h","0","0","0","0","51","0","51","0","51","NA","0","NA","0","51","51","51","NA","51","NA","51","NA","09/21/22 14:49:45","1500","The main experiment item","yes","FlankerTask.osexp","C:\Users\olasa\OneDrive\Desktop","no","mono","no","18","no","white","no","yes","768","legacy","51","51","C:/Users/olasa/OneDrive/Desktop/OL-subject-3.csv","legacy","Lentiform Loewenfeld","3.3.12","0","h","s","NA","NA","NA","NA","NA","h","NA","NA","911","127139","NA","NA","NA","NA","NA","911","NA","NA","NA","NA","2","legacy","1024","2","48000","-16","experiment","HHHHH","3","odd","129618","NA","NA","2476","218356","2470","NA","NA","232927","NA","NA","NA","NA","231867","233029","233941","NA","232925","NA","233029","NA","Flanker Task","40","37309","52","yes","1024"
"77.358490566","77.358490566","715.490566038","715.490566038","black","legacy","legacy","legacy","0","incongruent","uniform","1","undefined","1","s","0","0","0","0","52","0","52","0","52","NA","0","NA","0","52","52","52","NA","52","NA","52","NA","09/21/22 14:49:45","1500","The main experiment item","yes","FlankerTask.osexp","C:\Users\olasa\OneDrive\Desktop","no","mono","no","18","no","white","no","yes","768","legacy","52","52","C:/Users/olasa/OneDrive/Desktop/OL-subject-3.csv","legacy","Lentiform Loewenfeld","3.3.12","0","s","s","NA","NA","NA","NA","NA","s","NA","NA","612","127139","NA","NA","NA","NA","NA","612","NA","NA","NA","NA","2","legacy","1024","2","48000","-16","experiment","HHSHH","3","odd","129618","NA","NA","2476","218356","2470","NA","NA","235060","NA","NA","NA","NA","233971","235164","235776","NA","235059","NA","235164","NA","Flanker Task","41","37921","53","yes","1024"
"77.7777777778","77.7777777778","714.037037037","714.037037037","black","legacy","legacy","legacy","0","congruent","uniform","1","undefined","1","s","0","0","0","0","53","0","53","0","53","NA","0","NA","0","53","53","53","NA","53","NA","53","NA","09/21/22 14:49:45","1500","The main experiment item","yes","FlankerTask.osexp","C:\Users\olasa\OneDrive\Desktop","no","mono","no","18","no","white","no","yes","768","legacy","53","53","C:/Users/olasa/OneDrive/Desktop/OL-subject-3.csv","legacy","Lentiform Loewenfeld","3.3.12","0","s","s","NA","NA","NA","NA","NA","s","NA","NA","637","127139","NA","NA","NA","NA","NA","637","NA","NA","NA","NA","2","legacy","1024","2","48000","-16","experiment","SSSSS","3","odd","129618","NA","NA","2476","218356","2470","NA","NA","236855","NA","NA","NA","NA","235785","236958","237596","NA","236853","NA","236958","NA","Flanker Task","42","38558","54","yes","1024"
"78.1818181818","78.1818181818","712.563636364","712.563636364","black","legacy","legacy","legacy","0","incongruent","uniform","1","undefined","1","h","0","0","0","0","54","0","54","0","54","NA","0","NA","0","54","54","54","NA","54","NA","54","NA","09/21/22 14:49:45","1500","The main experiment item","yes","FlankerTask.osexp","C:\Users\olasa\OneDrive\Desktop","no","mono","no","18","no","white","no","yes","768","legacy","54","54","C:/Users/olasa/OneDrive/Desktop/OL-subject-3.csv","legacy","Lentiform Loewenfeld","3.3.12","0","h","s","NA","NA","NA","NA","NA","h","NA","NA","633","127139","NA","NA","NA","NA","NA","633","NA","NA","NA","NA","2","legacy","1024","2","48000","-16","experiment","SSHSS","3","odd","129618","NA","NA","2476","218356","2470","NA","NA","238696","NA","NA","NA","NA","237626","238799","239433","NA","238694","NA","238799","NA","Flanker Task","43","39191","55","yes","1024"
"78.5714285714","78.5714285714","710.303571429","710.303571429","black","legacy","legacy","legacy","0","congruent","uniform","1","undefined","1","s","0","0","0","0","55","0","55","0","55","NA","0","NA","0","55","55","55","NA","55","NA","55","NA","09/21/22 14:49:45","1500","The main experiment item","yes","FlankerTask.osexp","C:\Users\olasa\OneDrive\Desktop","no","mono","no","18","no","white","no","yes","768","legacy","55","55","C:/Users/olasa/OneDrive/Desktop/OL-subject-3.csv","legacy","Lentiform Loewenfeld","3.3.12","0","s","s","NA","NA","NA","NA","NA","s","NA","NA","586","127139","NA","NA","NA","NA","NA","586","NA","NA","NA","NA","2","legacy","1024","2","48000","-16","experiment","SSSSS","3","odd","129618","NA","NA","2476","218356","2470","NA","NA","240534","NA","NA","NA","NA","239463","240637","241224","NA","240532","NA","240637","NA","Flanker Task","44","39777","56","yes","1024"
"77.1929824561","77.1929824561","710.456140351","710.456140351","black","legacy","legacy","legacy","0","incongruent","uniform","0","undefined","0","s","0","0","0","0","56","0","56","0","56","NA","0","NA","0","56","56","56","NA","56","NA","56","NA","09/21/22 14:49:45","1500","The main experiment item","yes","FlankerTask.osexp","C:\Users\olasa\OneDrive\Desktop","no","mono","no","18","no","white","no","yes","768","legacy","56","56","C:/Users/olasa/OneDrive/Desktop/OL-subject-3.csv","legacy","Lentiform Loewenfeld","3.3.12","0","h","s","NA","NA","NA","NA","NA","h","NA","NA","719","127139","NA","NA","NA","NA","NA","719","NA","NA","NA","NA","2","legacy","1024","2","48000","-16","experiment","HHSHH","3","odd","129618","NA","NA","2476","218356","2470","NA","NA","242316","NA","NA","NA","NA","241233","242417","243137","NA","242310","NA","242417","NA","Flanker Task","44","40496","57","yes","1024"
"77.5862068966","77.5862068966","713.103448276","713.103448276","black","legacy","legacy","legacy","0","incongruent","uniform","1","undefined","1","s","0","0","0","0","57","0","57","0","57","NA","0","NA","0","57","57","57","NA","57","NA","57","NA","09/21/22 14:49:45","1500","The main experiment item","yes","FlankerTask.osexp","C:\Users\olasa\OneDrive\Desktop","no","mono","no","18","no","white","no","yes","768","legacy","57","57","C:/Users/olasa/OneDrive/Desktop/OL-subject-3.csv","legacy","Lentiform Loewenfeld","3.3.12","0","s","s","NA","NA","NA","NA","NA","s","NA","NA","864","127139","NA","NA","NA","NA","NA","864","NA","NA","NA","NA","2","legacy","1024","2","48000","-16","experiment","HHSHH","3","odd","129618","NA","NA","2476","243146","2470","NA","NA","244717","NA","NA","NA","NA","243649","244820","245685","NA","244716","NA","244819","NA","Flanker Task","45","41360","58","yes","1024"
"77.9661016949","77.9661016949","713.152542373","713.152542373","black","legacy","legacy","legacy","0","congruent","uniform","1","undefined","1","s","0","0","0","0","58","0","58","0","58","NA","0","NA","0","58","58","58","NA","58","NA","58","NA","09/21/22 14:49:45","1500","The main experiment item","yes","FlankerTask.osexp","C:\Users\olasa\OneDrive\Desktop","no","mono","no","18","no","white","no","yes","768","legacy","58","58","C:/Users/olasa/OneDrive/Desktop/OL-subject-3.csv","legacy","Lentiform Loewenfeld","3.3.12","0","s","s","NA","NA","NA","NA","NA","s","NA","NA","716","127139","NA","NA","NA","NA","NA","716","NA","NA","NA","NA","2","legacy","1024","2","48000","-16","experiment","SSSSS","3","odd","129618","NA","NA","2476","243146","2470","NA","NA","246769","NA","NA","NA","NA","245694","246872","247589","NA","246767","NA","246872","NA","Flanker Task","46","42076","59","yes","1024"
"78.3333333333","78.3333333333","713.683333333","713.683333333","black","legacy","legacy","legacy","0","congruent","uniform","1","undefined","1","h","0","0","0","0","59","0","59","0","59","NA","0","NA","0","59","59","59","NA","59","NA","59","NA","09/21/22 14:49:45","1500","The main experiment item","yes","FlankerTask.osexp","C:\Users\olasa\OneDrive\Desktop","no","mono","no","18","no","white","no","yes","768","legacy","59","59","C:/Users/olasa/OneDrive/Desktop/OL-subject-3.csv","legacy","Lentiform Loewenfeld","3.3.12","0","h","s","NA","NA","NA","NA","NA","h","NA","NA","745","127139","NA","NA","NA","NA","NA","745","NA","NA","NA","NA","2","legacy","1024","2","48000","-16","experiment","HHHHH","3","odd","129618","NA","NA","2476","243146","2470","NA","NA","248669","NA","NA","NA","NA","247597","248772","249518","NA","248667","NA","248772","NA","Flanker Task","47","42821","60","yes","1024"
"78.6885245902","78.6885245902","711.868852459","711.868852459","black","legacy","legacy","legacy","0","congruent","uniform","1","undefined","1","h","0","0","0","0","60","0","60","0","60","NA","0","NA","0","60","60","60","NA","60","NA","60","NA","09/21/22 14:49:45","1500","The main experiment item","yes","FlankerTask.osexp","C:\Users\olasa\OneDrive\Desktop","no","mono","no","18","no","white","no","yes","768","legacy","60","60","C:/Users/olasa/OneDrive/Desktop/OL-subject-3.csv","legacy","Lentiform Loewenfeld","3.3.12","0","h","s","NA","NA","NA","NA","NA","h","NA","NA","603","127139","NA","NA","NA","NA","NA","603","NA","NA","NA","NA","2","legacy","1024","2","48000","-16","experiment","HHHHH","3","odd","129618","NA","NA","2476","243146","2470","NA","NA","250606","NA","NA","NA","NA","249548","250708","251312","NA","250604","NA","250708","NA","Flanker Task","48","43424","61","yes","1024"
"79.0322580645","79.0322580645","709.806451613","709.806451613","black","legacy","legacy","legacy","0","congruent","uniform","1","undefined","1","s","0","0","0","0","61","0","61","0","61","NA","0","NA","0","61","61","61","NA","61","NA","61","NA","09/21/22 14:49:45","1500","The main experiment item","yes","FlankerTask.osexp","C:\Users\olasa\OneDrive\Desktop","no","mono","no","18","no","white","no","yes","768","legacy","61","61","C:/Users/olasa/OneDrive/Desktop/OL-subject-3.csv","legacy","Lentiform Loewenfeld","3.3.12","0","s","s","NA","NA","NA","NA","NA","s","NA","NA","584","127139","NA","NA","NA","NA","NA","584","NA","NA","NA","NA","2","legacy","1024","2","48000","-16","experiment","SSSSS","3","odd","129618","NA","NA","2476","243146","2470","NA","NA","252415","NA","NA","NA","NA","251321","252518","253104","NA","252413","NA","252518","NA","Flanker Task","49","44008","62","yes","1024"
"79.3650793651","79.3650793651","709.158730159","709.158730159","black","legacy","legacy","legacy","0","incongruent","uniform","1","undefined","1","s","0","0","0","0","62","0","62","0","62","NA","0","NA","0","62","62","62","NA","62","NA","62","NA","09/21/22 14:49:45","1500","The main experiment item","yes","FlankerTask.osexp","C:\Users\olasa\OneDrive\Desktop","no","mono","no","18","no","white","no","yes","768","legacy","62","62","C:/Users/olasa/OneDrive/Desktop/OL-subject-3.csv","legacy","Lentiform Loewenfeld","3.3.12","0","s","s","NA","NA","NA","NA","NA","s","NA","NA","669","127139","NA","NA","NA","NA","NA","669","NA","NA","NA","NA","2","legacy","1024","2","48000","-16","experiment","HHSHH","3","odd","129618","NA","NA","2476","243146","2470","NA","NA","254184","NA","NA","NA","NA","253113","254287","254956","NA","254182","NA","254287","NA","Flanker Task","50","44677","63","yes","1024"
"79.6875","79.6875","705.671875","705.671875","black","legacy","legacy","legacy","0","congruent","uniform","1","undefined","1","s","0","0","0","0","63","0","63","0","63","NA","0","NA","0","63","63","63","NA","63","NA","63","NA","09/21/22 14:49:45","1500","The main experiment item","yes","FlankerTask.osexp","C:\Users\olasa\OneDrive\Desktop","no","mono","no","18","no","white","no","yes","768","legacy","63","63","C:/Users/olasa/OneDrive/Desktop/OL-subject-3.csv","legacy","Lentiform Loewenfeld","3.3.12","0","s","s","NA","NA","NA","NA","NA","s","NA","NA","486","127139","NA","NA","NA","NA","NA","486","NA","NA","NA","NA","2","legacy","1024","2","48000","-16","experiment","SSSSS","3","odd","129618","NA","NA","2476","243146","2470","NA","NA","256040","NA","NA","NA","NA","254986","256143","256630","NA","256037","NA","256143","NA","Flanker Task","51","45163","64","yes","1024"
"80","80","705.215384615","705.215384615","black","legacy","legacy","legacy","0","incongruent","uniform","1","undefined","1","h","0","0","0","0","64","0","64","0","64","NA","0","NA","0","64","64","64","NA","64","NA","64","NA","09/21/22 14:49:45","1500","The main experiment item","yes","FlankerTask.osexp","C:\Users\olasa\OneDrive\Desktop","no","mono","no","18","no","white","no","yes","768","legacy","64","64","C:/Users/olasa/OneDrive/Desktop/OL-subject-3.csv","legacy","Lentiform Loewenfeld","3.3.12","0","h","s","NA","NA","NA","NA","NA","h","NA","NA","676","127139","NA","NA","NA","NA","NA","676","NA","NA","NA","NA","2","legacy","1024","2","48000","-16","experiment","SSHSS","3","odd","129618","NA","NA","2476","243146","2470","NA","NA","257724","NA","NA","NA","NA","256660","257827","258504","NA","257722","NA","257827","NA","Flanker Task","52","45839","65","yes","1024"
"80.303030303","80.303030303","707.015151515","707.015151515","black","legacy","legacy","legacy","0","incongruent","uniform","1","undefined","1","s","0","0","0","0","65","0","65","0","65","NA","0","NA","0","65","65","65","NA","65","NA","65","NA","09/21/22 14:49:45","1500","The main experiment item","yes","FlankerTask.osexp","C:\Users\olasa\OneDrive\Desktop","no","mono","no","18","no","white","no","yes","768","legacy","65","65","C:/Users/olasa/OneDrive/Desktop/OL-subject-3.csv","legacy","Lentiform Loewenfeld","3.3.12","0","s","s","NA","NA","NA","NA","NA","s","NA","NA","824","127139","NA","NA","NA","NA","NA","824","NA","NA","NA","NA","2","legacy","1024","2","48000","-16","experiment","HHSHH","3","odd","129618","NA","NA","2476","243146","2470","NA","NA","259607","NA","NA","NA","NA","258534","259710","260536","NA","259605","NA","259710","NA","Flanker Task","53","46663","66","yes","1024"
"80.5970149254","80.5970149254","710.179104478","710.179104478","black","legacy","legacy","legacy","0","congruent","uniform","1","undefined","1","s","0","0","0","0","66","0","66","0","66","NA","0","NA","0","66","66","66","NA","66","NA","66","NA","09/21/22 14:49:45","1500","The main experiment item","yes","FlankerTask.osexp","C:\Users\olasa\OneDrive\Desktop","no","mono","no","18","no","white","no","yes","768","legacy","66","66","C:/Users/olasa/OneDrive/Desktop/OL-subject-3.csv","legacy","Lentiform Loewenfeld","3.3.12","0","s","s","NA","NA","NA","NA","NA","s","NA","NA","919","127139","NA","NA","NA","NA","NA","919","NA","NA","NA","NA","2","legacy","1024","2","48000","-16","experiment","SSSSS","3","odd","129618","NA","NA","2476","243146","2470","NA","NA","261636","NA","NA","NA","NA","260566","261739","262660","NA","261634","NA","261739","NA","Flanker Task","54","47582","67","yes","1024"
"80.8823529412","80.8823529412","709.647058824","709.647058824","black","legacy","legacy","legacy","0","incongruent","uniform","1","undefined","1","h","0","0","0","0","67","0","67","0","67","NA","0","NA","0","67","67","67","NA","67","NA","67","NA","09/21/22 14:49:45","1500","The main experiment item","yes","FlankerTask.osexp","C:\Users\olasa\OneDrive\Desktop","no","mono","no","18","no","white","no","yes","768","legacy","67","67","C:/Users/olasa/OneDrive/Desktop/OL-subject-3.csv","legacy","Lentiform Loewenfeld","3.3.12","0","h","s","NA","NA","NA","NA","NA","h","NA","NA","674","127139","NA","NA","NA","NA","NA","674","NA","NA","NA","NA","2","legacy","1024","2","48000","-16","experiment","SSHSS","3","odd","129618","NA","NA","2476","243146","2470","NA","NA","263726","NA","NA","NA","NA","262666","263827","264502","NA","263724","NA","263827","NA","Flanker Task","55","48256","68","yes","1024"
"81.1594202899","81.1594202899","711.463768116","711.463768116","black","legacy","legacy","legacy","0","congruent","uniform","1","undefined","1","h","0","0","0","0","68","0","68","0","68","NA","0","NA","0","68","68","68","NA","68","NA","68","NA","09/21/22 14:49:45","1500","The main experiment item","yes","FlankerTask.osexp","C:\Users\olasa\OneDrive\Desktop","no","mono","no","18","no","white","no","yes","768","legacy","68","68","C:/Users/olasa/OneDrive/Desktop/OL-subject-3.csv","legacy","Lentiform Loewenfeld","3.3.12","0","h","s","NA","NA","NA","NA","NA","h","NA","NA","835","127139","NA","NA","NA","NA","NA","835","NA","NA","NA","NA","2","legacy","1024","2","48000","-16","experiment","HHHHH","3","odd","129618","NA","NA","2476","243146","2470","NA","NA","265602","NA","NA","NA","NA","264533","265705","266541","NA","265599","NA","265705","NA","Flanker Task","56","49091","69","yes","1024"
"81.4285714286","81.4285714286","709.4","709.4","black","legacy","legacy","legacy","0","congruent","uniform","1","undefined","1","s","0","0","0","0","69","0","69","0","69","NA","0","NA","0","69","69","69","NA","69","NA","69","NA","09/21/22 14:49:45","1500","The main experiment item","yes","FlankerTask.osexp","C:\Users\olasa\OneDrive\Desktop","no","mono","no","18","no","white","no","yes","768","legacy","69","69","C:/Users/olasa/OneDrive/Desktop/OL-subject-3.csv","legacy","Lentiform Loewenfeld","3.3.12","0","s","s","NA","NA","NA","NA","NA","s","NA","NA","567","127139","NA","NA","NA","NA","NA","567","NA","NA","NA","NA","2","legacy","1024","2","48000","-16","experiment","SSSSS","3","odd","129618","NA","NA","2476","243146","2470","NA","NA","267609","NA","NA","NA","NA","266548","267711","268279","NA","267607","NA","267710","NA","Flanker Task","57","49658","70","yes","1024"
"81.6901408451","81.6901408451","710.070422535","710.070422535","black","legacy","legacy","legacy","0","incongruent","uniform","1","undefined","1","h","0","0","0","0","70","0","70","0","70","NA","0","NA","0","70","70","70","NA","70","NA","70","NA","09/21/22 14:49:45","1500","The main experiment item","yes","FlankerTask.osexp","C:\Users\olasa\OneDrive\Desktop","no","mono","no","18","no","white","no","yes","768","legacy","70","70","C:/Users/olasa/OneDrive/Desktop/OL-subject-3.csv","legacy","Lentiform Loewenfeld","3.3.12","0","h","s","NA","NA","NA","NA","NA","h","NA","NA","757","127139","NA","NA","NA","NA","NA","757","NA","NA","NA","NA","2","legacy","1024","2","48000","-16","experiment","SSHSS","3","odd","129618","NA","NA","2476","243146","2470","NA","NA","269378","NA","NA","NA","NA","268309","269481","270239","NA","269375","NA","269481","NA","Flanker Task","58","50415","71","yes","1024"
"81.9444444444","81.9444444444","708.152777778","708.152777778","black","legacy","legacy","legacy","0","incongruent","uniform","1","undefined","1","h","0","0","0","0","71","0","71","0","71","NA","0","NA","0","71","71","71","NA","71","NA","71","NA","09/21/22 14:49:45","1500","The main experiment item","yes","FlankerTask.osexp","C:\Users\olasa\OneDrive\Desktop","no","mono","no","18","no","white","no","yes","768","legacy","71","71","C:/Users/olasa/OneDrive/Desktop/OL-subject-3.csv","legacy","Lentiform Loewenfeld","3.3.12","0","h","s","NA","NA","NA","NA","NA","h","NA","NA","572","127139","NA","NA","NA","NA","NA","572","NA","NA","NA","NA","2","legacy","1024","2","48000","-16","experiment","SSHSS","3","odd","129618","NA","NA","2476","243146","2470","NA","NA","271324","NA","NA","NA","NA","270248","271425","271998","NA","271322","NA","271425","NA","Flanker Task","59","50987","72","yes","1024"
"82.1917808219","82.1917808219","706.054794521","706.054794521","black","legacy","legacy","legacy","0","incongruent","uniform","1","undefined","1","h","0","0","0","0","72","0","72","0","72","NA","0","NA","0","72","72","72","NA","72","NA","72","NA","09/21/22 14:49:45","1500","The main experiment item","yes","FlankerTask.osexp","C:\Users\olasa\OneDrive\Desktop","no","mono","no","18","no","white","no","yes","768","legacy","72","72","C:/Users/olasa/OneDrive/Desktop/OL-subject-3.csv","legacy","Lentiform Loewenfeld","3.3.12","0","h","s","NA","NA","NA","NA","NA","h","NA","NA","555","127139","NA","NA","NA","NA","NA","555","NA","NA","NA","NA","2","legacy","1024","2","48000","-16","experiment","SSHSS","3","odd","129618","NA","NA","2476","243146","2470","NA","NA","273071","NA","NA","NA","NA","272005","273175","273731","NA","273069","NA","273175","NA","Flanker Task","60","51542","73","yes","1024"
"82.4324324324","82.4324324324","705.418918919","705.418918919","black","legacy","legacy","legacy","0","congruent","uniform","1","undefined","1","s","0","0","0","0","73","0","73","0","73","NA","0","NA","0","73","73","73","NA","73","NA","73","NA","09/21/22 14:49:45","1500","The main experiment item","yes","FlankerTask.osexp","C:\Users\olasa\OneDrive\Desktop","no","mono","no","18","no","white","no","yes","768","legacy","73","73","C:/Users/olasa/OneDrive/Desktop/OL-subject-3.csv","legacy","Lentiform Loewenfeld","3.3.12","0","s","s","NA","NA","NA","NA","NA","s","NA","NA","659","127139","NA","NA","NA","NA","NA","659","NA","NA","NA","NA","2","legacy","1024","2","48000","-16","experiment","SSSSS","3","odd","129618","NA","NA","2476","243146","2470","NA","NA","274817","NA","NA","NA","NA","273741","274921","275581","NA","274816","NA","274921","NA","Flanker Task","61","52201","74","yes","1024"
"82.6666666667","82.6666666667","706.706666667","706.706666667","black","legacy","legacy","legacy","0","congruent","uniform","1","undefined","1","h","0","0","0","0","74","0","74","0","74","NA","0","NA","0","74","74","74","NA","74","NA","74","NA","09/21/22 14:49:45","1500","The main experiment item","yes","FlankerTask.osexp","C:\Users\olasa\OneDrive\Desktop","no","mono","no","18","no","white","no","yes","768","legacy","74","74","C:/Users/olasa/OneDrive/Desktop/OL-subject-3.csv","legacy","Lentiform Loewenfeld","3.3.12","0","h","s","NA","NA","NA","NA","NA","h","NA","NA","802","127139","NA","NA","NA","NA","NA","802","NA","NA","NA","NA","2","legacy","1024","2","48000","-16","experiment","HHHHH","3","odd","129618","NA","NA","2476","243146","2470","NA","NA","276681","NA","NA","NA","NA","275611","276784","277587","NA","276679","NA","276784","NA","Flanker Task","62","53003","75","yes","1024"
"82.8947368421","82.8947368421","706.697368421","706.697368421","black","legacy","legacy","legacy","0","incongruent","uniform","1","undefined","1","s","0","0","0","0","75","0","75","0","75","NA","0","NA","0","75","75","75","NA","75","NA","75","NA","09/21/22 14:49:45","1500","The main experiment item","yes","FlankerTask.osexp","C:\Users\olasa\OneDrive\Desktop","no","mono","no","18","no","white","no","yes","768","legacy","75","75","C:/Users/olasa/OneDrive/Desktop/OL-subject-3.csv","legacy","Lentiform Loewenfeld","3.3.12","0","s","s","NA","NA","NA","NA","NA","s","NA","NA","706","127139","NA","NA","NA","NA","NA","706","NA","NA","NA","NA","2","legacy","1024","2","48000","-16","experiment","HHSHH","3","odd","129618","NA","NA","2476","243146","2470","NA","NA","278688","NA","NA","NA","NA","277617","278791","279498","NA","278686","NA","278791","NA","Flanker Task","63","53709","76","yes","1024"
"83.1168831169","83.1168831169","706.116883117","706.116883117","black","legacy","legacy","legacy","0","incongruent","uniform","1","undefined","1","h","0","0","0","0","76","0","76","0","76","NA","0","NA","0","76","76","76","NA","76","NA","76","NA","09/21/22 14:49:45","1500","The main experiment item","yes","FlankerTask.osexp","C:\Users\olasa\OneDrive\Desktop","no","mono","no","18","no","white","no","yes","768","legacy","76","76","C:/Users/olasa/OneDrive/Desktop/OL-subject-3.csv","legacy","Lentiform Loewenfeld","3.3.12","0","h","s","NA","NA","NA","NA","NA","h","NA","NA","662","127139","NA","NA","NA","NA","NA","662","NA","NA","NA","NA","2","legacy","1024","2","48000","-16","experiment","SSHSS","3","odd","129618","NA","NA","2476","243146","2470","NA","NA","280599","NA","NA","NA","NA","279528","280702","281366","NA","280598","NA","280702","NA","Flanker Task","64","54371","77","yes","1024"
"83.3333333333","83.3333333333","706.358974359","706.358974359","black","legacy","legacy","legacy","0","incongruent","uniform","1","undefined","1","s","0","0","0","0","77","0","77","0","77","NA","0","NA","0","77","77","77","NA","77","NA","77","NA","09/21/22 14:49:45","1500","The main experiment item","yes","FlankerTask.osexp","C:\Users\olasa\OneDrive\Desktop","no","mono","no","18","no","white","no","yes","768","legacy","77","77","C:/Users/olasa/OneDrive/Desktop/OL-subject-3.csv","legacy","Lentiform Loewenfeld","3.3.12","0","s","s","NA","NA","NA","NA","NA","s","NA","NA","725","127139","NA","NA","NA","NA","NA","725","NA","NA","NA","NA","2","legacy","1024","2","48000","-16","experiment","HHSHH","3","odd","129618","NA","NA","2476","243146","2470","NA","NA","282477","NA","NA","NA","NA","281397","282580","283306","NA","282475","NA","282580","NA","Flanker Task","65","55096","78","yes","1024"
"83.5443037975","83.5443037975","707.683544304","707.683544304","black","legacy","legacy","legacy","0","incongruent","uniform","1","undefined","1","h","0","0","0","0","78","0","78","0","78","NA","0","NA","0","78","78","78","NA","78","NA","78","NA","09/21/22 14:49:45","1500","The main experiment item","yes","FlankerTask.osexp","C:\Users\olasa\OneDrive\Desktop","no","mono","no","18","no","white","no","yes","768","legacy","78","78","C:/Users/olasa/OneDrive/Desktop/OL-subject-3.csv","legacy","Lentiform Loewenfeld","3.3.12","0","h","s","NA","NA","NA","NA","NA","h","NA","NA","811","127139","NA","NA","NA","NA","NA","811","NA","NA","NA","NA","2","legacy","1024","2","48000","-16","experiment","SSHSS","3","odd","129618","NA","NA","2476","243146","2470","NA","NA","284384","NA","NA","NA","NA","283314","284487","285298","NA","284383","NA","284487","NA","Flanker Task","66","55907","79","yes","1024"
"83.75","83.75","708.1","708.1","black","legacy","legacy","legacy","0","incongruent","uniform","1","undefined","1","h","0","0","0","0","79","0","79","0","79","NA","0","NA","0","79","79","79","NA","79","NA","79","NA","09/21/22 14:49:45","1500","The main experiment item","yes","FlankerTask.osexp","C:\Users\olasa\OneDrive\Desktop","no","mono","no","18","no","white","no","yes","768","legacy","79","79","C:/Users/olasa/OneDrive/Desktop/OL-subject-3.csv","legacy","Lentiform Loewenfeld","3.3.12","0","h","s","NA","NA","NA","NA","NA","h","NA","NA","741","127139","NA","NA","NA","NA","NA","741","NA","NA","NA","NA","2","legacy","1024","2","48000","-16","experiment","SSHSS","3","odd","129618","NA","NA","2476","243146","2470","NA","NA","286390","NA","NA","NA","NA","285328","286493","287236","NA","286388","NA","286492","NA","Flanker Task","67","56648","80","yes","1024"
"83.950617284","83.950617284","709.864197531","709.864197531","black","legacy","legacy","legacy","0","incongruent","uniform","1","undefined","1","h","0","0","0","0","80","0","80","0","80","NA","0","NA","0","80","80","80","NA","80","NA","80","NA","09/21/22 14:49:45","600","The main experiment item","yes","FlankerTask.osexp","C:\Users\olasa\OneDrive\Desktop","no","mono","no","18","no","white","no","yes","768","legacy","0","79","C:/Users/olasa/OneDrive/Desktop/OL-subject-3.csv","legacy","Lentiform Loewenfeld","3.3.12","0","h","s","NA","NA","h","NA","NA","h","NA","NA","851","127139","NA","NA","18809","NA","NA","851","NA","NA","NA","NA","2","legacy","1024","2","48000","-16","experiment","SSHSS","3","odd","129618","307100","NA","2476","243146","2470","NA","NA","307162","NA","288290","NA","NA","287267","307265","308117","NA","307160","NA","307265","NA","Flanker Task","68","57499","81","yes","1024"
"84.1463414634","84.1463414634","708.5","708.5","black","legacy","legacy","legacy","0","incongruent","uniform","1","undefined","1","s","0","0","0","0","81","0","81","0","81","NA","0","NA","0","81","81","81","NA","81","NA","81","NA","09/21/22 14:49:45","600","The main experiment item","yes","FlankerTask.osexp","C:\Users\olasa\OneDrive\Desktop","no","mono","no","18","no","white","no","yes","768","legacy","1","79","C:/Users/olasa/OneDrive/Desktop/OL-subject-3.csv","legacy","Lentiform Loewenfeld","3.3.12","0","s","s","NA","NA","h","NA","NA","s","NA","NA","598","127139","NA","NA","18809","NA","NA","598","NA","NA","NA","NA","2","legacy","1024","2","48000","-16","experiment","HHSHH","3","odd","129618","307100","NA","2476","243146","2470","308128","NA","309702","NA","288290","NA","NA","308631","309805","310404","NA","309701","NA","309805","NA","Flanker Task","69","58097","82","yes","1024"
"84.3373493976","84.3373493976","706.903614458","706.903614458","black","legacy","legacy","legacy","0","congruent","uniform","1","undefined","1","h","0","0","0","0","82","0","82","0","82","NA","0","NA","0","82","82","82","NA","82","NA","82","NA","09/21/22 14:49:45","600","The main experiment item","yes","FlankerTask.osexp","C:\Users\olasa\OneDrive\Desktop","no","mono","no","18","no","white","no","yes","768","legacy","2","79","C:/Users/olasa/OneDrive/Desktop/OL-subject-3.csv","legacy","Lentiform Loewenfeld","3.3.12","0","h","s","NA","NA","h","NA","NA","h","NA","NA","576","127139","NA","NA","18809","NA","NA","576","NA","NA","NA","NA","2","legacy","1024","2","48000","-16","experiment","HHHHH","3","odd","129618","307100","NA","2476","243146","2470","308128","NA","311497","NA","288290","NA","NA","310434","311599","312176","NA","311494","NA","311599","NA","Flanker Task","70","58673","83","yes","1024"
"84.5238095238","84.5238095238","705.833333333","705.833333333","black","legacy","legacy","legacy","0","incongruent","uniform","1","undefined","1","s","0","0","0","0","83","0","83","0","83","NA","0","NA","0","83","83","83","NA","83","NA","83","NA","09/21/22 14:49:45","600","The main experiment item","yes","FlankerTask.osexp","C:\Users\olasa\OneDrive\Desktop","no","mono","no","18","no","white","no","yes","768","legacy","3","79","C:/Users/olasa/OneDrive/Desktop/OL-subject-3.csv","legacy","Lentiform Loewenfeld","3.3.12","0","s","s","NA","NA","h","NA","NA","s","NA","NA","617","127139","NA","NA","18809","NA","NA","617","NA","NA","NA","NA","2","legacy","1024","2","48000","-16","experiment","HHSHH","3","odd","129618","307100","NA","2476","243146","2470","308128","NA","313258","NA","288290","NA","NA","312185","313361","313979","NA","313256","NA","313361","NA","Flanker Task","71","59290","84","yes","1024"
"84.7058823529","84.7058823529","702.258823529","702.258823529","black","legacy","legacy","legacy","0","congruent","uniform","1","undefined","1","s","0","0","0","0","84","0","84","0","84","NA","0","NA","0","84","84","84","NA","84","NA","84","NA","09/21/22 14:49:45","600","The main experiment item","yes","FlankerTask.osexp","C:\Users\olasa\OneDrive\Desktop","no","mono","no","18","no","white","no","yes","768","legacy","4","79","C:/Users/olasa/OneDrive/Desktop/OL-subject-3.csv","legacy","Lentiform Loewenfeld","3.3.12","0","s","s","NA","NA","h","NA","NA","s","NA","NA","402","127139","NA","NA","18809","NA","NA","402","NA","NA","NA","NA","2","legacy","1024","2","48000","-16","experiment","SSSSS","3","odd","129618","307100","NA","2476","243146","2470","313988","NA","315553","NA","288290","NA","NA","314491","315655","316058","NA","315550","NA","315655","NA","Flanker Task","72","59692","85","yes","1024"
"84.8837209302","84.8837209302","699.441860465","699.441860465","black","legacy","legacy","legacy","0","incongruent","uniform","1","undefined","1","s","0","0","0","0","85","0","85","0","85","NA","0","NA","0","85","85","85","NA","85","NA","85","NA","09/21/22 14:49:45","600","The main experiment item","yes","FlankerTask.osexp","C:\Users\olasa\OneDrive\Desktop","no","mono","no","18","no","white","no","yes","768","legacy","5","79","C:/Users/olasa/OneDrive/Desktop/OL-subject-3.csv","legacy","Lentiform Loewenfeld","3.3.12","0","s","s","NA","NA","h","NA","NA","s","NA","NA","460","127139","NA","NA","18809","NA","NA","460","NA","NA","NA","NA","2","legacy","1024","2","48000","-16","experiment","HHSHH","3","odd","129618","307100","NA","2476","243146","2470","313988","NA","317133","NA","288290","NA","NA","316063","317236","317697","NA","317131","NA","317236","NA","Flanker Task","73","60152","86","yes","1024"
"85.0574712644","85.0574712644","695.896551724","695.896551724","black","legacy","legacy","legacy","0","congruent","uniform","1","undefined","1","s","0","0","0","0","86","0","86","0","86","NA","0","NA","0","86","86","86","NA","86","NA","86","NA","09/21/22 14:49:45","600","The main experiment item","yes","FlankerTask.osexp","C:\Users\olasa\OneDrive\Desktop","no","mono","no","18","no","white","no","yes","768","legacy","6","79","C:/Users/olasa/OneDrive/Desktop/OL-subject-3.csv","legacy","Lentiform Loewenfeld","3.3.12","0","s","s","NA","NA","h","NA","NA","s","NA","NA","391","127139","NA","NA","18809","NA","NA","391","NA","NA","NA","NA","2","legacy","1024","2","48000","-16","experiment","SSSSS","3","odd","129618","307100","NA","2476","243146","2470","313988","NA","318776","NA","288290","NA","NA","317706","318879","319271","NA","318774","NA","318879","NA","Flanker Task","74","60543","87","yes","1024"
"85.2272727273","85.2272727273","692.875","692.875","black","legacy","legacy","legacy","0","incongruent","uniform","1","undefined","1","s","0","0","0","0","87","0","87","0","87","NA","0","NA","0","87","87","87","NA","87","NA","87","NA","09/21/22 14:49:45","600","The main experiment item","yes","FlankerTask.osexp","C:\Users\olasa\OneDrive\Desktop","no","mono","no","18","no","white","no","yes","768","legacy","7","79","C:/Users/olasa/OneDrive/Desktop/OL-subject-3.csv","legacy","Lentiform Loewenfeld","3.3.12","0","s","s","NA","NA","h","NA","NA","s","NA","NA","430","127139","NA","NA","18809","NA","NA","430","NA","NA","NA","NA","2","legacy","1024","2","48000","-16","experiment","HHSHH","3","odd","129618","307100","NA","2476","243146","2470","313988","NA","320353","NA","288290","NA","NA","319279","320456","320888","NA","320351","NA","320456","NA","Flanker Task","75","60973","88","yes","1024"
"85.393258427","85.393258427","690.191011236","690.191011236","black","legacy","legacy","legacy","0","incongruent","uniform","1","undefined","1","s","0","0","0","0","88","0","88","0","88","NA","0","NA","0","88","88","88","NA","88","NA","88","NA","09/21/22 14:49:45","600","The main experiment item","yes","FlankerTask.osexp","C:\Users\olasa\OneDrive\Desktop","no","mono","no","18","no","white","no","yes","768","legacy","8","79","C:/Users/olasa/OneDrive/Desktop/OL-subject-3.csv","legacy","Lentiform Loewenfeld","3.3.12","0","s","s","NA","NA","h","NA","NA","s","NA","NA","454","127139","NA","NA","18809","NA","NA","454","NA","NA","NA","NA","2","legacy","1024","2","48000","-16","experiment","HHSHH","3","odd","129618","307100","NA","2476","243146","2470","313988","NA","321988","NA","288290","NA","NA","320898","322091","322546","NA","321987","NA","322091","NA","Flanker Task","76","61427","89","yes","1024"
"85.5555555556","85.5555555556","688.411111111","688.411111111","black","legacy","legacy","legacy","0","congruent","uniform","1","undefined","1","h","0","0","0","0","89","0","89","0","89","NA","0","NA","0","89","89","89","NA","89","NA","89","NA","09/21/22 14:49:45","600","The main experiment item","yes","FlankerTask.osexp","C:\Users\olasa\OneDrive\Desktop","no","mono","no","18","no","white","no","yes","768","legacy","9","79","C:/Users/olasa/OneDrive/Desktop/OL-subject-3.csv","legacy","Lentiform Loewenfeld","3.3.12","0","h","s","NA","NA","h","NA","NA","h","NA","NA","530","127139","NA","NA","18809","NA","NA","530","NA","NA","NA","NA","2","legacy","1024","2","48000","-16","experiment","HHHHH","3","odd","129618","307100","NA","2476","243146","2470","313988","NA","323647","NA","288290","NA","NA","322577","323750","324281","NA","323645","NA","323749","NA","Flanker Task","77","61957","90","yes","1024"
"85.7142857143","85.7142857143","686.340659341","686.340659341","black","legacy","legacy","legacy","0","congruent","uniform","1","undefined","1","s","0","0","0","0","90","0","90","0","90","NA","0","NA","0","90","90","90","NA","90","NA","90","NA","09/21/22 14:49:45","600","The main experiment item","yes","FlankerTask.osexp","C:\Users\olasa\OneDrive\Desktop","no","mono","no","18","no","white","no","yes","768","legacy","10","79","C:/Users/olasa/OneDrive/Desktop/OL-subject-3.csv","legacy","Lentiform Loewenfeld","3.3.12","0","s","s","NA","NA","h","NA","NA","s","NA","NA","500","127139","NA","NA","18809","NA","NA","500","NA","NA","NA","NA","2","legacy","1024","2","48000","-16","experiment","SSSSS","3","odd","129618","307100","NA","2476","243146","2470","313988","NA","325355","NA","288290","NA","NA","324285","325458","325960","NA","325352","NA","325458","NA","Flanker Task","78","62457","91","yes","1024"
"85.8695652174","85.8695652174","685.413043478","685.413043478","black","legacy","legacy","legacy","0","incongruent","uniform","1","undefined","1","h","0","0","0","0","91","0","91","0","91","NA","0","NA","0","91","91","91","NA","91","NA","91","NA","09/21/22 14:49:45","600","The main experiment item","yes","FlankerTask.osexp","C:\Users\olasa\OneDrive\Desktop","no","mono","no","18","no","white","no","yes","768","legacy","11","79","C:/Users/olasa/OneDrive/Desktop/OL-subject-3.csv","legacy","Lentiform Loewenfeld","3.3.12","0","h","s","NA","NA","h","NA","NA","h","NA","NA","601","127139","NA","NA","18809","NA","NA","601","NA","NA","NA","NA","2","legacy","1024","2","48000","-16","experiment","SSHSS","3","odd","129618","307100","NA","2476","243146","2470","313988","NA","327042","NA","288290","NA","NA","325969","327145","327747","NA","327039","NA","327145","NA","Flanker Task","79","63058","92","yes","1024"
"84.9462365591","84.9462365591","682.623655914","682.623655914","black","legacy","legacy","legacy","0","incongruent","uniform","0","undefined","0","s","0","0","0","0","92","0","92","0","92","NA","0","NA","0","92","92","92","NA","92","NA","92","NA","09/21/22 14:49:45","600","The main experiment item","yes","FlankerTask.osexp","C:\Users\olasa\OneDrive\Desktop","no","mono","no","18","no","white","no","yes","768","legacy","12","79","C:/Users/olasa/OneDrive/Desktop/OL-subject-3.csv","legacy","Lentiform Loewenfeld","3.3.12","0","h","s","NA","NA","h","NA","NA","h","NA","NA","426","127139","NA","NA","18809","NA","NA","426","NA","NA","NA","NA","2","legacy","1024","2","48000","-16","experiment","HHSHH","3","odd","129618","307100","NA","2476","243146","2470","327756","NA","329321","NA","288290","NA","NA","328259","329423","329850","NA","329318","NA","329423","NA","Flanker Task","79","63484","93","yes","1024"
"85.1063829787","85.1063829787","681.765957447","681.765957447","black","legacy","legacy","legacy","0","congruent","uniform","1","undefined","1","h","0","0","0","0","93","0","93","0","93","NA","0","NA","0","93","93","93","NA","93","NA","93","NA","09/21/22 14:49:45","600","The main experiment item","yes","FlankerTask.osexp","C:\Users\olasa\OneDrive\Desktop","no","mono","no","18","no","white","no","yes","768","legacy","13","79","C:/Users/olasa/OneDrive/Desktop/OL-subject-3.csv","legacy","Lentiform Loewenfeld","3.3.12","0","h","s","NA","NA","h","NA","NA","h","NA","NA","602","127139","NA","NA","18809","NA","NA","602","NA","NA","NA","NA","2","legacy","1024","2","48000","-16","experiment","HHHHH","3","odd","129618","307100","NA","2476","329881","2470","327756","NA","331480","NA","288290","NA","NA","330384","331583","332187","NA","331478","NA","331583","NA","Flanker Task","80","64086","94","yes","1024"
"84.2105263158","84.2105263158","679.294736842","679.294736842","black","legacy","legacy","legacy","0","incongruent","uniform","0","undefined","0","h","0","0","0","0","94","0","94","0","94","NA","0","NA","0","94","94","94","NA","94","NA","94","NA","09/21/22 14:49:45","600","The main experiment item","yes","FlankerTask.osexp","C:\Users\olasa\OneDrive\Desktop","no","mono","no","18","no","white","no","yes","768","legacy","14","79","C:/Users/olasa/OneDrive/Desktop/OL-subject-3.csv","legacy","Lentiform Loewenfeld","3.3.12","0","s","s","NA","NA","h","NA","NA","s","NA","NA","447","127139","NA","NA","18809","NA","NA","447","NA","NA","NA","NA","2","legacy","1024","2","48000","-16","experiment","SSHSS","3","odd","129618","307100","NA","2476","329881","2470","332217","NA","333792","NA","288290","NA","NA","332720","333895","334343","NA","333790","NA","333895","NA","Flanker Task","80","64533","95","yes","1024"
"84.375","84.375","678.5","678.5","black","legacy","legacy","legacy","0","congruent","uniform","1","undefined","1","h","0","0","0","0","95","0","95","0","95","NA","0","NA","0","95","95","95","NA","95","NA","95","NA","09/21/22 14:49:45","600","The main experiment item","yes","FlankerTask.osexp","C:\Users\olasa\OneDrive\Desktop","no","mono","no","18","no","white","no","yes","768","legacy","15","79","C:/Users/olasa/OneDrive/Desktop/OL-subject-3.csv","legacy","Lentiform Loewenfeld","3.3.12","0","h","s","NA","NA","h","NA","NA","h","NA","NA","603","127139","NA","NA","18809","NA","NA","603","NA","NA","NA","NA","2","legacy","1024","2","48000","-16","experiment","HHHHH","3","odd","129618","307100","NA","2476","334373","2470","332217","NA","335948","NA","288290","NA","NA","334877","336051","336655","NA","335946","NA","336051","NA","Flanker Task","81","65136","96","yes","1024"
"83.5051546392","83.5051546392","675.649484536","675.649484536","black","legacy","legacy","legacy","0","incongruent","uniform","0","undefined","0","s","0","0","0","0","96","0","96","0","96","NA","0","NA","0","96","96","96","NA","96","NA","96","NA","09/21/22 14:49:45","600","The main experiment item","yes","FlankerTask.osexp","C:\Users\olasa\OneDrive\Desktop","no","mono","no","18","no","white","no","yes","768","legacy","16","79","C:/Users/olasa/OneDrive/Desktop/OL-subject-3.csv","legacy","Lentiform Loewenfeld","3.3.12","0","h","s","NA","NA","h","NA","NA","h","NA","NA","402","127139","NA","NA","18809","NA","NA","402","NA","NA","NA","NA","2","legacy","1024","2","48000","-16","experiment","HHSHH","3","odd","129618","307100","NA","2476","334373","2470","336664","NA","338240","NA","288290","NA","NA","337167","338343","338747","NA","338239","NA","338343","NA","Flanker Task","81","65538","97","yes","1024"
"83.6734693878","83.6734693878","674.37755102","674.37755102","black","legacy","legacy","legacy","0","congruent","uniform","1","undefined","1","h","0","0","0","0","97","0","97","0","97","NA","0","NA","0","97","97","97","NA","97","NA","97","NA","09/21/22 14:49:45","600","The main experiment item","yes","FlankerTask.osexp","C:\Users\olasa\OneDrive\Desktop","no","mono","no","18","no","white","no","yes","768","legacy","17","79","C:/Users/olasa/OneDrive/Desktop/OL-subject-3.csv","legacy","Lentiform Loewenfeld","3.3.12","0","h","s","NA","NA","h","NA","NA","h","NA","NA","551","127139","NA","NA","18809","NA","NA","551","NA","NA","NA","NA","2","legacy","1024","2","48000","-16","experiment","HHHHH","3","odd","129618","307100","NA","2476","338757","2470","336664","NA","340331","NA","288290","NA","NA","339261","340435","340988","NA","340329","NA","340435","NA","Flanker Task","82","66089","98","yes","1024"
"83.8383838384","83.8383838384","673.696969697","673.696969697","black","legacy","legacy","legacy","0","congruent","uniform","1","undefined","1","h","0","0","0","0","98","0","98","0","98","NA","0","NA","0","98","98","98","NA","98","NA","98","NA","09/21/22 14:49:45","600","The main experiment item","yes","FlankerTask.osexp","C:\Users\olasa\OneDrive\Desktop","no","mono","no","18","no","white","no","yes","768","legacy","18","79","C:/Users/olasa/OneDrive/Desktop/OL-subject-3.csv","legacy","Lentiform Loewenfeld","3.3.12","0","h","s","NA","NA","h","NA","NA","h","NA","NA","607","127139","NA","NA","18809","NA","NA","607","NA","NA","NA","NA","2","legacy","1024","2","48000","-16","experiment","HHHHH","3","odd","129618","307100","NA","2476","338757","2470","336664","NA","342054","NA","288290","NA","NA","340993","342155","342763","NA","342052","NA","342155","NA","Flanker Task","83","66696","99","yes","1024"
"84","84","672.59","672.59","black","legacy","legacy","legacy","0","congruent","uniform","1","undefined","1","s","0","0","0","0","99","0","99","0","99","NA","0","NA","0","99","99","99","NA","99","NA","99","NA","09/21/22 14:49:45","600","The main experiment item","yes","FlankerTask.osexp","C:\Users\olasa\OneDrive\Desktop","no","mono","no","18","no","white","no","yes","768","legacy","19","79","C:/Users/olasa/OneDrive/Desktop/OL-subject-3.csv","legacy","Lentiform Loewenfeld","3.3.12","0","s","s","NA","NA","h","NA","NA","s","NA","NA","563","127139","NA","NA","18809","NA","NA","563","NA","NA","NA","NA","2","legacy","1024","2","48000","-16","experiment","SSSSS","3","odd","129618","307100","NA","2476","338757","2470","342773","NA","344342","NA","288290","NA","NA","343276","344445","345009","NA","344341","NA","344445","NA","Flanker Task","84","67259","100","yes","1024"
"84.1584158416","84.1584158416","670.821782178","670.821782178","black","legacy","legacy","legacy","0","incongruent","uniform","1","undefined","1","s","0","0","0","0","100","0","100","0","100","NA","0","NA","0","100","100","100","NA","100","NA","100","NA","09/21/22 14:49:45","600","The main experiment item","yes","FlankerTask.osexp","C:\Users\olasa\OneDrive\Desktop","no","mono","no","18","no","white","no","yes","768","legacy","20","79","C:/Users/olasa/OneDrive/Desktop/OL-subject-3.csv","legacy","Lentiform Loewenfeld","3.3.12","0","s","s","NA","NA","h","NA","NA","s","NA","NA","494","127139","NA","NA","18809","NA","NA","494","NA","NA","NA","NA","2","legacy","1024","2","48000","-16","experiment","HHSHH","3","odd","129618","307100","NA","2476","338757","2470","342773","NA","346127","NA","288290","NA","NA","345038","346230","346725","NA","346125","NA","346230","NA","Flanker Task","85","67753","101","yes","1024"
"84.3137254902","84.3137254902","668.843137255","668.843137255","black","legacy","legacy","legacy","0","congruent","uniform","1","undefined","1","s","0","0","0","0","101","0","101","0","101","NA","0","NA","0","101","101","101","NA","101","NA","101","NA","09/21/22 14:49:45","600","The main experiment item","yes","FlankerTask.osexp","C:\Users\olasa\OneDrive\Desktop","no","mono","no","18","no","white","no","yes","768","legacy","21","79","C:/Users/olasa/OneDrive/Desktop/OL-subject-3.csv","legacy","Lentiform Loewenfeld","3.3.12","0","s","s","NA","NA","h","NA","NA","s","NA","NA","469","127139","NA","NA","18809","NA","NA","469","NA","NA","NA","NA","2","legacy","1024","2","48000","-16","experiment","SSSSS","3","odd","129618","307100","NA","2476","338757","2470","342773","NA","347805","NA","288290","NA","NA","346733","347908","348381","NA","347804","NA","347908","NA","Flanker Task","86","68222","102","yes","1024"
"84.4660194175","84.4660194175","667.495145631","667.495145631","black","legacy","legacy","legacy","0","incongruent","uniform","1","undefined","1","h","0","0","0","0","102","0","102","0","102","NA","0","NA","0","102","102","102","NA","102","NA","102","NA","09/21/22 14:49:45","600","The main experiment item","yes","FlankerTask.osexp","C:\Users\olasa\OneDrive\Desktop","no","mono","no","18","no","white","no","yes","768","legacy","22","79","C:/Users/olasa/OneDrive/Desktop/OL-subject-3.csv","legacy","Lentiform Loewenfeld","3.3.12","0","h","s","NA","NA","h","NA","NA","h","NA","NA","530","127139","NA","NA","18809","NA","NA","530","NA","NA","NA","NA","2","legacy","1024","2","48000","-16","experiment","SSHSS","3","odd","129618","307100","NA","2476","338757","2470","342773","NA","349457","NA","288290","NA","NA","348387","349560","350092","NA","349456","NA","349560","NA","Flanker Task","87","68752","103","yes","1024"
"84.6153846154","84.6153846154","667.336538462","667.336538462","black","legacy","legacy","legacy","0","congruent","uniform","1","undefined","1","s","0","0","0","0","103","0","103","0","103","NA","0","NA","0","103","103","103","NA","103","NA","103","NA","09/21/22 14:49:45","600","The main experiment item","yes","FlankerTask.osexp","C:\Users\olasa\OneDrive\Desktop","no","mono","no","18","no","white","no","yes","768","legacy","23","79","C:/Users/olasa/OneDrive/Desktop/OL-subject-3.csv","legacy","Lentiform Loewenfeld","3.3.12","0","s","s","NA","NA","h","NA","NA","s","NA","NA","651","127139","NA","NA","18809","NA","NA","651","NA","NA","NA","NA","2","legacy","1024","2","48000","-16","experiment","SSSSS","3","odd","129618","307100","NA","2476","338757","2470","342773","NA","351200","NA","288290","NA","NA","350122","351303","351955","NA","351198","NA","351303","NA","Flanker Task","88","69403","104","yes","1024"
"84.7619047619","84.7619047619","666.6","666.6","black","legacy","legacy","legacy","0","incongruent","uniform","1","undefined","1","h","0","0","0","0","104","0","104","0","104","NA","0","NA","0","104","104","104","NA","104","NA","104","NA","09/21/22 14:49:45","600","The main experiment item","yes","FlankerTask.osexp","C:\Users\olasa\OneDrive\Desktop","no","mono","no","18","no","white","no","yes","768","legacy","24","79","C:/Users/olasa/OneDrive/Desktop/OL-subject-3.csv","legacy","Lentiform Loewenfeld","3.3.12","0","h","s","NA","NA","h","NA","NA","h","NA","NA","590","127139","NA","NA","18809","NA","NA","590","NA","NA","NA","NA","2","legacy","1024","2","48000","-16","experiment","SSHSS","3","odd","129618","307100","NA","2476","338757","2470","351985","NA","353561","NA","288290","NA","NA","352488","353665","354257","NA","353560","NA","353665","NA","Flanker Task","89","69993","105","yes","1024"
"84.9056603774","84.9056603774","666.235849057","666.235849057","black","legacy","legacy","legacy","0","incongruent","uniform","1","undefined","1","h","0","0","0","0","105","0","105","0","105","NA","0","NA","0","105","105","105","NA","105","NA","105","NA","09/21/22 14:49:45","600","The main experiment item","yes","FlankerTask.osexp","C:\Users\olasa\OneDrive\Desktop","no","mono","no","18","no","white","no","yes","768","legacy","25","79","C:/Users/olasa/OneDrive/Desktop/OL-subject-3.csv","legacy","Lentiform Loewenfeld","3.3.12","0","h","s","NA","NA","h","NA","NA","h","NA","NA","628","127139","NA","NA","18809","NA","NA","628","NA","NA","NA","NA","2","legacy","1024","2","48000","-16","experiment","SSHSS","3","odd","129618","307100","NA","2476","338757","2470","351985","NA","355332","NA","288290","NA","NA","354260","355435","356064","NA","355331","NA","355435","NA","Flanker Task","90","70621","106","yes","1024"
"85.046728972","85.046728972","666.420560748","666.420560748","black","legacy","legacy","legacy","0","congruent","uniform","1","undefined","1","s","0","0","0","0","106","0","106","0","106","NA","0","NA","0","106","106","106","NA","106","NA","106","NA","09/21/22 14:49:45","600","The main experiment item","yes","FlankerTask.osexp","C:\Users\olasa\OneDrive\Desktop","no","mono","no","18","no","white","no","yes","768","legacy","26","79","C:/Users/olasa/OneDrive/Desktop/OL-subject-3.csv","legacy","Lentiform Loewenfeld","3.3.12","0","s","s","NA","NA","h","NA","NA","s","NA","NA","686","127139","NA","NA","18809","NA","NA","686","NA","NA","NA","NA","2","legacy","1024","2","48000","-16","experiment","SSSSS","3","odd","129618","307100","NA","2476","338757","2470","356073","NA","357649","NA","288290","NA","NA","356576","357753","358440","NA","357646","NA","357753","NA","Flanker Task","91","71307","107","yes","1024"
"85.1851851852","85.1851851852","665.722222222","665.722222222","black","legacy","legacy","legacy","0","incongruent","uniform","1","undefined","1","h","0","0","0","0","107","0","107","0","107","NA","0","NA","0","107","107","107","NA","107","NA","107","NA","09/21/22 14:49:45","600","The main experiment item","yes","FlankerTask.osexp","C:\Users\olasa\OneDrive\Desktop","no","mono","no","18","no","white","no","yes","768","legacy","27","79","C:/Users/olasa/OneDrive/Desktop/OL-subject-3.csv","legacy","Lentiform Loewenfeld","3.3.12","0","h","s","NA","NA","h","NA","NA","h","NA","NA","591","127139","NA","NA","18809","NA","NA","591","NA","NA","NA","NA","2","legacy","1024","2","48000","-16","experiment","SSHSS","3","odd","129618","307100","NA","2476","338757","2470","358448","NA","360021","NA","288290","NA","NA","358952","360124","360716","NA","360019","NA","360124","NA","Flanker Task","92","71898","108","yes","1024"
"85.3211009174","85.3211009174","665.541284404","665.541284404","black","legacy","legacy","legacy","0","incongruent","uniform","1","undefined","1","s","0","0","0","0","108","0","108","0","108","NA","0","NA","0","108","108","108","NA","108","NA","108","NA","09/21/22 14:49:45","600","The main experiment item","yes","FlankerTask.osexp","C:\Users\olasa\OneDrive\Desktop","no","mono","no","18","no","white","no","yes","768","legacy","28","79","C:/Users/olasa/OneDrive/Desktop/OL-subject-3.csv","legacy","Lentiform Loewenfeld","3.3.12","0","s","s","NA","NA","h","NA","NA","s","NA","NA","646","127139","NA","NA","18809","NA","NA","646","NA","NA","NA","NA","2","legacy","1024","2","48000","-16","experiment","HHSHH","3","odd","129618","307100","NA","2476","338757","2470","358448","NA","361822","NA","288290","NA","NA","360747","361925","362572","NA","361820","NA","361925","NA","Flanker Task","93","72544","109","yes","1024"
