acc,accuracy,average_response_time,avg_rt,background,canvas_backend,clock_backend,color_backend,compensation,condition,coordinates,correct,correct_Instructions1,correct_KeyboardResponse,correct_response,count_Block1,count_Block2,count_Block3,count_ErrorFeedback,count_Faster,count_Finish,count_Fixation,count_ISI,count_Instructions1,count_Instructions2,count_Instructions3,count_KeyboardResponse,count_Logger,count_Sequence,count_experiment,count_stimulus,datetime,deadline,description,disable_garbage_collection,experiment_file,experiment_path,font_bold,font_family,font_italic,font_size,font_underline,foreground,form_clicks,fullscreen,height,keyboard_backend,live_row,live_row_Block1,logfile,mouse_backend,opensesame_codename,opensesame_version,repeat_cycle,response,response_Finish,response_Instructions1,response_Instructions2,response_Instructions3,response_KeyboardResponse,response_time,response_time_Finish,response_time_Instructions1,response_time_Instructions2,response_time_Instructions3,response_time_KeyboardResponse,round_decimals,sampler_backend,sound_buf_size,sound_channels,sound_freq,sound_sample_size,start,stimulus,subject_nr,subject_parity,time_Block1,time_Block2,time_Block3,time_ErrorFeedback,time_Faster,time_Finish,time_Fixation,time_ISI,time_Instructions1,time_Instructions2,time_Instructions3,time_KeyboardResponse,time_Logger,time_Sequence,time_experiment,time_stimulus,title,total_correct,total_response_time,total_responses,uniform_coordinates,width
100,100,1032,1032,black,legacy,legacy,legacy,0,Incongruent,uniform,1,undefined,1,s,0,0,0,0,0,0,0,0,0,0,0,0,0,0,0,0,Tue Sep 13 19:11:31 2022,1500,The main experiment item,yes,Lab 2.1 FlankerTask.osexp,C:\Users\Melissa\OneDrive\Desktop\ADVANCED QUANT,no,mono,no,18,no,white,no,no,768,legacy,0,0,C:/Users/Melissa/OneDrive/Desktop/ADVANCED QUANT/MM-subject-4.csv,legacy,Lentiform Loewenfeld,3.3.12,0,s,NA,caps lock,NA,NA,s,1032,NA,10058,NA,NA,1032,2,legacy,1024,2,48000,-16,experiment,HHSHH,4,even,11895,NA,NA,NA,NA,NA,11957,NA,1835,NA,NA,12064,13097,11955,1831,12061,Flanker Task,1,1032,1,yes,1024
100,100,769.5,769.5,black,legacy,legacy,legacy,0,Congruent,uniform,1,undefined,1,h,0,0,0,1,1,0,1,1,0,0,0,1,1,1,0,1,Tue Sep 13 19:11:31 2022,1500,The main experiment item,yes,Lab 2.1 FlankerTask.osexp,C:\Users\Melissa\OneDrive\Desktop\ADVANCED QUANT,no,mono,no,18,no,white,no,no,768,legacy,1,1,C:/Users/Melissa/OneDrive/Desktop/ADVANCED QUANT/MM-subject-4.csv,legacy,Lentiform Loewenfeld,3.3.12,0,h,NA,caps lock,NA,NA,h,507,NA,10058,NA,NA,507,2,legacy,1024,2,48000,-16,experiment,HHHHH,4,even,11895,NA,NA,NA,NA,NA,14165,13103,1835,NA,NA,14267,14775,14163,1831,14267,Flanker Task,2,1539,2,yes,1024
100,100,645.6666667,645.6666667,black,legacy,legacy,legacy,0,Congruent,uniform,1,undefined,1,h,0,0,0,2,2,0,2,2,0,0,0,2,2,2,0,2,Tue Sep 13 19:11:31 2022,1500,The main experiment item,yes,Lab 2.1 FlankerTask.osexp,C:\Users\Melissa\OneDrive\Desktop\ADVANCED QUANT,no,mono,no,18,no,white,no,no,768,legacy,2,2,C:/Users/Melissa/OneDrive/Desktop/ADVANCED QUANT/MM-subject-4.csv,legacy,Lentiform Loewenfeld,3.3.12,0,h,NA,caps lock,NA,NA,h,398,NA,10058,NA,NA,398,2,legacy,1024,2,48000,-16,experiment,HHHHH,4,even,11895,NA,NA,NA,NA,NA,15841,14779,1835,NA,NA,15946,16344,15839,1831,15945,Flanker Task,3,1937,3,yes,1024
100,100,580.5,580.5,black,legacy,legacy,legacy,0,Congruent,uniform,1,undefined,1,h,0,0,0,3,3,0,3,3,0,0,0,3,3,3,0,3,Tue Sep 13 19:11:31 2022,1500,The main experiment item,yes,Lab 2.1 FlankerTask.osexp,C:\Users\Melissa\OneDrive\Desktop\ADVANCED QUANT,no,mono,no,18,no,white,no,no,768,legacy,3,3,C:/Users/Melissa/OneDrive/Desktop/ADVANCED QUANT/MM-subject-4.csv,legacy,Lentiform Loewenfeld,3.3.12,0,h,NA,caps lock,NA,NA,h,385,NA,10058,NA,NA,385,2,legacy,1024,2,48000,-16,experiment,HHHHH,4,even,11895,NA,NA,NA,NA,NA,17413,16348,1835,NA,NA,17514,17900,17410,1831,17514,Flanker Task,4,2322,4,yes,1024
80,80,521.8,521.8,black,legacy,legacy,legacy,0,Incongruent,uniform,0,undefined,0,h,0,0,0,4,4,0,4,4,0,0,0,4,4,4,0,4,Tue Sep 13 19:11:31 2022,1500,The main experiment item,yes,Lab 2.1 FlankerTask.osexp,C:\Users\Melissa\OneDrive\Desktop\ADVANCED QUANT,no,mono,no,18,no,white,no,no,768,legacy,4,4,C:/Users/Melissa/OneDrive/Desktop/ADVANCED QUANT/MM-subject-4.csv,legacy,Lentiform Loewenfeld,3.3.12,0,s,NA,caps lock,NA,NA,s,287,NA,10058,NA,NA,287,2,legacy,1024,2,48000,-16,experiment,SSHSS,4,even,11895,NA,NA,NA,NA,NA,18966,17904,1835,NA,NA,19067,19355,18965,1831,19067,Flanker Task,4,2609,5,yes,1024
83.33333333,83.33333333,528.8333333,528.8333333,black,legacy,legacy,legacy,0,Incongruent,uniform,1,undefined,1,h,0,0,0,5,5,0,5,5,0,0,0,5,5,5,0,5,Tue Sep 13 19:11:31 2022,1500,The main experiment item,yes,Lab 2.1 FlankerTask.osexp,C:\Users\Melissa\OneDrive\Desktop\ADVANCED QUANT,no,mono,no,18,no,white,no,no,768,legacy,5,5,C:/Users/Melissa/OneDrive/Desktop/ADVANCED QUANT/MM-subject-4.csv,legacy,Lentiform Loewenfeld,3.3.12,0,h,NA,caps lock,NA,NA,h,564,NA,10058,NA,NA,564,2,legacy,1024,2,48000,-16,experiment,SSHSS,4,even,11895,NA,NA,19358,NA,NA,20921,19859,1835,NA,NA,21025,21589,20919,1831,21024,Flanker Task,5,3173,6,yes,1024
85.71428571,85.71428571,518.2857143,518.2857143,black,legacy,legacy,legacy,0,Incongruent,uniform,1,undefined,1,h,0,0,0,6,6,0,6,6,0,0,0,6,6,6,0,6,Tue Sep 13 19:11:31 2022,1500,The main experiment item,yes,Lab 2.1 FlankerTask.osexp,C:\Users\Melissa\OneDrive\Desktop\ADVANCED QUANT,no,mono,no,18,no,white,no,no,768,legacy,6,6,C:/Users/Melissa/OneDrive/Desktop/ADVANCED QUANT/MM-subject-4.csv,legacy,Lentiform Loewenfeld,3.3.12,0,h,NA,caps lock,NA,NA,h,455,NA,10058,NA,NA,455,2,legacy,1024,2,48000,-16,experiment,SSHSS,4,even,11895,NA,NA,19358,NA,NA,22651,21593,1835,NA,NA,22756,23212,22649,1831,22755,Flanker Task,6,3628,7,yes,1024
87.5,87.5,502.375,502.375,black,legacy,legacy,legacy,0,Congruent,uniform,1,undefined,1,s,0,0,0,7,7,0,7,7,0,0,0,7,7,7,0,7,Tue Sep 13 19:11:31 2022,1500,The main experiment item,yes,Lab 2.1 FlankerTask.osexp,C:\Users\Melissa\OneDrive\Desktop\ADVANCED QUANT,no,mono,no,18,no,white,no,no,768,legacy,7,7,C:/Users/Melissa/OneDrive/Desktop/ADVANCED QUANT/MM-subject-4.csv,legacy,Lentiform Loewenfeld,3.3.12,0,s,NA,caps lock,NA,NA,s,391,NA,10058,NA,NA,391,2,legacy,1024,2,48000,-16,experiment,SSSSS,4,even,11895,NA,NA,19358,NA,NA,24278,23215,1835,NA,NA,24383,24775,24276,1831,24383,Flanker Task,7,4019,8,yes,1024
88.88888889,88.88888889,504.6666667,504.6666667,black,legacy,legacy,legacy,0,Incongruent,uniform,1,undefined,1,h,0,0,0,8,8,0,8,8,0,0,0,8,8,8,0,8,Tue Sep 13 19:11:31 2022,1500,The main experiment item,yes,Lab 2.1 FlankerTask.osexp,C:\Users\Melissa\OneDrive\Desktop\ADVANCED QUANT,no,mono,no,18,no,white,no,no,768,legacy,8,8,C:/Users/Melissa/OneDrive/Desktop/ADVANCED QUANT/MM-subject-4.csv,legacy,Lentiform Loewenfeld,3.3.12,0,h,NA,caps lock,NA,NA,h,523,NA,10058,NA,NA,523,2,legacy,1024,2,48000,-16,experiment,SSHSS,4,even,11895,NA,NA,19358,NA,NA,25859,24780,1835,NA,NA,25960,26484,25857,1831,25960,Flanker Task,8,4542,9,yes,1024
90,90,490.9,490.9,black,legacy,legacy,legacy,0,Incongruent,uniform,1,undefined,1,h,0,0,0,9,9,0,9,9,0,0,0,9,9,9,0,9,Tue Sep 13 19:11:31 2022,1500,The main experiment item,yes,Lab 2.1 FlankerTask.osexp,C:\Users\Melissa\OneDrive\Desktop\ADVANCED QUANT,no,mono,no,18,no,white,no,no,768,legacy,9,9,C:/Users/Melissa/OneDrive/Desktop/ADVANCED QUANT/MM-subject-4.csv,legacy,Lentiform Loewenfeld,3.3.12,0,h,NA,caps lock,NA,NA,h,367,NA,10058,NA,NA,367,2,legacy,1024,2,48000,-16,experiment,SSHSS,4,even,11895,NA,NA,19358,NA,NA,27547,26487,1835,NA,NA,27652,28019,27546,1831,27652,Flanker Task,9,4909,10,yes,1024
81.81818182,81.81818182,481,481,black,legacy,legacy,legacy,0,Incongruent,uniform,0,undefined,0,s,0,0,0,10,10,0,10,10,0,0,0,10,10,10,0,10,Tue Sep 13 19:11:31 2022,1500,The main experiment item,yes,Lab 2.1 FlankerTask.osexp,C:\Users\Melissa\OneDrive\Desktop\ADVANCED QUANT,no,mono,no,18,no,white,no,no,768,legacy,10,10,C:/Users/Melissa/OneDrive/Desktop/ADVANCED QUANT/MM-subject-4.csv,legacy,Lentiform Loewenfeld,3.3.12,0,h,NA,caps lock,NA,NA,h,382,NA,10058,NA,NA,382,2,legacy,1024,2,48000,-16,experiment,HHSHH,4,even,11895,NA,NA,19358,NA,NA,29099,28023,1835,NA,NA,29201,29584,29097,1831,29200,Flanker Task,9,5291,11,yes,1024
83.33333333,83.33333333,491.0833333,491.0833333,black,legacy,legacy,legacy,0,Incongruent,uniform,1,undefined,1,h,0,0,0,11,11,0,11,11,0,0,0,11,11,11,0,11,Tue Sep 13 19:11:31 2022,1500,The main experiment item,yes,Lab 2.1 FlankerTask.osexp,C:\Users\Melissa\OneDrive\Desktop\ADVANCED QUANT,no,mono,no,18,no,white,no,no,768,legacy,11,11,C:/Users/Melissa/OneDrive/Desktop/ADVANCED QUANT/MM-subject-4.csv,legacy,Lentiform Loewenfeld,3.3.12,0,h,NA,caps lock,NA,NA,h,602,NA,10058,NA,NA,602,2,legacy,1024,2,48000,-16,experiment,SSHSS,4,even,11895,NA,NA,29587,NA,NA,31163,30089,1835,NA,NA,31268,31871,31161,1831,31268,Flanker Task,10,5893,12,yes,1024
84.61538462,84.61538462,499.3076923,499.3076923,black,legacy,legacy,legacy,0,Incongruent,uniform,1,undefined,1,h,0,0,0,12,12,0,12,12,0,0,0,12,12,12,0,12,Tue Sep 13 19:11:31 2022,1500,The main experiment item,yes,Lab 2.1 FlankerTask.osexp,C:\Users\Melissa\OneDrive\Desktop\ADVANCED QUANT,no,mono,no,18,no,white,no,no,768,legacy,12,12,C:/Users/Melissa/OneDrive/Desktop/ADVANCED QUANT/MM-subject-4.csv,legacy,Lentiform Loewenfeld,3.3.12,0,h,NA,caps lock,NA,NA,h,598,NA,10058,NA,NA,598,2,legacy,1024,2,48000,-16,experiment,SSHSS,4,even,11895,NA,NA,29587,NA,NA,32937,31875,1835,NA,NA,33039,33637,32935,1831,33039,Flanker Task,11,6491,13,yes,1024
85.71428571,85.71428571,499,499,black,legacy,legacy,legacy,0,Incongruent,uniform,1,undefined,1,s,0,0,0,13,13,0,13,13,0,0,0,13,13,13,0,13,Tue Sep 13 19:11:31 2022,1500,The main experiment item,yes,Lab 2.1 FlankerTask.osexp,C:\Users\Melissa\OneDrive\Desktop\ADVANCED QUANT,no,mono,no,18,no,white,no,no,768,legacy,13,13,C:/Users/Melissa/OneDrive/Desktop/ADVANCED QUANT/MM-subject-4.csv,legacy,Lentiform Loewenfeld,3.3.12,0,s,NA,caps lock,NA,NA,s,495,NA,10058,NA,NA,495,2,legacy,1024,2,48000,-16,experiment,HHSHH,4,even,11895,NA,NA,29587,NA,NA,34720,33640,1835,NA,NA,34827,35323,34718,1831,34827,Flanker Task,12,6986,14,yes,1024
86.66666667,86.66666667,498,498,black,legacy,legacy,legacy,0,Incongruent,uniform,1,undefined,1,s,0,0,0,14,14,0,14,14,0,0,0,14,14,14,0,14,Tue Sep 13 19:11:31 2022,1500,The main experiment item,yes,Lab 2.1 FlankerTask.osexp,C:\Users\Melissa\OneDrive\Desktop\ADVANCED QUANT,no,mono,no,18,no,white,no,no,768,legacy,14,14,C:/Users/Melissa/OneDrive/Desktop/ADVANCED QUANT/MM-subject-4.csv,legacy,Lentiform Loewenfeld,3.3.12,0,s,NA,caps lock,NA,NA,s,484,NA,10058,NA,NA,484,2,legacy,1024,2,48000,-16,experiment,HHSHH,4,even,11895,NA,NA,29587,NA,NA,36390,35327,1835,NA,NA,36494,36979,36389,1831,36494,Flanker Task,13,7470,15,yes,1024
87.5,87.5,491.9375,491.9375,black,legacy,legacy,legacy,0,Congruent,uniform,1,undefined,1,s,0,0,0,15,15,0,15,15,0,0,0,15,15,15,0,15,Tue Sep 13 19:11:31 2022,1500,The main experiment item,yes,Lab 2.1 FlankerTask.osexp,C:\Users\Melissa\OneDrive\Desktop\ADVANCED QUANT,no,mono,no,18,no,white,no,no,768,legacy,15,15,C:/Users/Melissa/OneDrive/Desktop/ADVANCED QUANT/MM-subject-4.csv,legacy,Lentiform Loewenfeld,3.3.12,0,s,NA,caps lock,NA,NA,s,401,NA,10058,NA,NA,401,2,legacy,1024,2,48000,-16,experiment,SSSSS,4,even,11895,NA,NA,29587,NA,NA,38046,36982,1835,NA,NA,38147,38549,38045,1831,38147,Flanker Task,14,7871,16,yes,1024
88.23529412,88.23529412,489.7058824,489.7058824,black,legacy,legacy,legacy,0,Incongruent,uniform,1,undefined,1,h,0,0,0,16,16,0,16,16,0,0,0,16,16,16,0,16,Tue Sep 13 19:11:31 2022,1500,The main experiment item,yes,Lab 2.1 FlankerTask.osexp,C:\Users\Melissa\OneDrive\Desktop\ADVANCED QUANT,no,mono,no,18,no,white,no,no,768,legacy,16,16,C:/Users/Melissa/OneDrive/Desktop/ADVANCED QUANT/MM-subject-4.csv,legacy,Lentiform Loewenfeld,3.3.12,0,h,NA,caps lock,NA,NA,h,454,NA,10058,NA,NA,454,2,legacy,1024,2,48000,-16,experiment,SSHSS,4,even,11895,NA,NA,29587,NA,NA,39614,38553,1835,NA,NA,39718,40172,39612,1831,39718,Flanker Task,15,8325,17,yes,1024
88.88888889,88.88888889,484.2222222,484.2222222,black,legacy,legacy,legacy,0,Congruent,uniform,1,undefined,1,s,0,0,0,17,17,0,17,17,0,0,0,17,17,17,0,17,Tue Sep 13 19:11:31 2022,1500,The main experiment item,yes,Lab 2.1 FlankerTask.osexp,C:\Users\Melissa\OneDrive\Desktop\ADVANCED QUANT,no,mono,no,18,no,white,no,no,768,legacy,17,17,C:/Users/Melissa/OneDrive/Desktop/ADVANCED QUANT/MM-subject-4.csv,legacy,Lentiform Loewenfeld,3.3.12,0,s,NA,caps lock,NA,NA,s,391,NA,10058,NA,NA,391,2,legacy,1024,2,48000,-16,experiment,SSSSS,4,even,11895,NA,NA,29587,NA,NA,41260,40177,1835,NA,NA,41365,41757,41258,1831,41365,Flanker Task,16,8716,18,yes,1024
89.47368421,89.47368421,477.7368421,477.7368421,black,legacy,legacy,legacy,0,Congruent,uniform,1,undefined,1,h,0,0,0,18,18,0,18,18,0,0,0,18,18,18,0,18,Tue Sep 13 19:11:31 2022,1500,The main experiment item,yes,Lab 2.1 FlankerTask.osexp,C:\Users\Melissa\OneDrive\Desktop\ADVANCED QUANT,no,mono,no,18,no,white,no,no,768,legacy,18,18,C:/Users/Melissa/OneDrive/Desktop/ADVANCED QUANT/MM-subject-4.csv,legacy,Lentiform Loewenfeld,3.3.12,0,h,NA,caps lock,NA,NA,h,361,NA,10058,NA,NA,361,2,legacy,1024,2,48000,-16,experiment,HHHHH,4,even,11895,NA,NA,29587,NA,NA,42823,41761,1835,NA,NA,42927,43289,42821,1831,42927,Flanker Task,17,9077,19,yes,1024
90,90,476.1,476.1,black,legacy,legacy,legacy,0,Congruent,uniform,1,undefined,1,s,0,0,0,19,19,0,19,19,0,0,0,19,19,19,0,19,Tue Sep 13 19:11:31 2022,1500,The main experiment item,yes,Lab 2.1 FlankerTask.osexp,C:\Users\Melissa\OneDrive\Desktop\ADVANCED QUANT,no,mono,no,18,no,white,no,no,768,legacy,19,19,C:/Users/Melissa/OneDrive/Desktop/ADVANCED QUANT/MM-subject-4.csv,legacy,Lentiform Loewenfeld,3.3.12,0,s,NA,caps lock,NA,NA,s,445,NA,10058,NA,NA,445,2,legacy,1024,2,48000,-16,experiment,SSSSS,4,even,11895,NA,NA,29587,NA,NA,44352,43292,1835,NA,NA,44456,44901,44350,1831,44456,Flanker Task,18,9522,20,yes,1024
90.47619048,90.47619048,474.3809524,474.3809524,black,legacy,legacy,legacy,0,Incongruent,uniform,1,undefined,1,h,0,0,0,20,20,0,20,20,0,0,0,20,20,20,0,20,Tue Sep 13 19:11:31 2022,1500,The main experiment item,yes,Lab 2.1 FlankerTask.osexp,C:\Users\Melissa\OneDrive\Desktop\ADVANCED QUANT,no,mono,no,18,no,white,no,no,768,legacy,20,20,C:/Users/Melissa/OneDrive/Desktop/ADVANCED QUANT/MM-subject-4.csv,legacy,Lentiform Loewenfeld,3.3.12,0,h,NA,caps lock,NA,NA,h,440,NA,10058,NA,NA,440,2,legacy,1024,2,48000,-16,experiment,SSHSS,4,even,11895,NA,NA,29587,NA,NA,45968,44906,1835,NA,NA,46072,46513,45966,1831,46072,Flanker Task,19,9962,21,yes,1024
86.36363636,86.36363636,474.1818182,474.1818182,black,legacy,legacy,legacy,0,Incongruent,uniform,0,undefined,0,h,0,0,0,21,21,0,21,21,0,0,0,21,21,21,0,21,Tue Sep 13 19:11:31 2022,1500,The main experiment item,yes,Lab 2.1 FlankerTask.osexp,C:\Users\Melissa\OneDrive\Desktop\ADVANCED QUANT,no,mono,no,18,no,white,no,no,768,legacy,21,21,C:/Users/Melissa/OneDrive/Desktop/ADVANCED QUANT/MM-subject-4.csv,legacy,Lentiform Loewenfeld,3.3.12,0,s,NA,caps lock,NA,NA,s,470,NA,10058,NA,NA,470,2,legacy,1024,2,48000,-16,experiment,SSHSS,4,even,11895,NA,NA,29587,NA,NA,47579,46516,1835,NA,NA,47684,48155,47577,1831,47684,Flanker Task,19,10432,22,yes,1024
86.95652174,86.95652174,476.7391304,476.7391304,black,legacy,legacy,legacy,0,Congruent,uniform,1,undefined,1,s,0,0,0,22,22,0,22,22,0,0,0,22,22,22,0,22,Tue Sep 13 19:11:31 2022,1500,The main experiment item,yes,Lab 2.1 FlankerTask.osexp,C:\Users\Melissa\OneDrive\Desktop\ADVANCED QUANT,no,mono,no,18,no,white,no,no,768,legacy,22,22,C:/Users/Melissa/OneDrive/Desktop/ADVANCED QUANT/MM-subject-4.csv,legacy,Lentiform Loewenfeld,3.3.12,0,s,NA,caps lock,NA,NA,s,533,NA,10058,NA,NA,533,2,legacy,1024,2,48000,-16,experiment,SSSSS,4,even,11895,NA,NA,48158,NA,NA,49736,48659,1835,NA,NA,49840,50374,49734,1831,49840,Flanker Task,20,10965,23,yes,1024
87.5,87.5,482.7083333,482.7083333,black,legacy,legacy,legacy,0,Incongruent,uniform,1,undefined,1,s,0,0,0,23,23,0,23,23,0,0,0,23,23,23,0,23,Tue Sep 13 19:11:31 2022,1500,The main experiment item,yes,Lab 2.1 FlankerTask.osexp,C:\Users\Melissa\OneDrive\Desktop\ADVANCED QUANT,no,mono,no,18,no,white,no,no,768,legacy,23,23,C:/Users/Melissa/OneDrive/Desktop/ADVANCED QUANT/MM-subject-4.csv,legacy,Lentiform Loewenfeld,3.3.12,0,s,NA,caps lock,NA,NA,s,620,NA,10058,NA,NA,620,2,legacy,1024,2,48000,-16,experiment,HHSHH,4,even,11895,NA,NA,48158,NA,NA,51468,50378,1835,NA,NA,51573,52193,51466,1831,51573,Flanker Task,21,11585,24,yes,1024
88,88,485.48,485.48,black,legacy,legacy,legacy,0,Congruent,uniform,1,undefined,1,h,0,0,0,24,24,0,24,24,0,0,0,24,24,24,0,24,Tue Sep 13 19:11:31 2022,1500,The main experiment item,yes,Lab 2.1 FlankerTask.osexp,C:\Users\Melissa\OneDrive\Desktop\ADVANCED QUANT,no,mono,no,18,no,white,no,no,768,legacy,24,24,C:/Users/Melissa/OneDrive/Desktop/ADVANCED QUANT/MM-subject-4.csv,legacy,Lentiform Loewenfeld,3.3.12,0,h,NA,caps lock,NA,NA,h,552,NA,10058,NA,NA,552,2,legacy,1024,2,48000,-16,experiment,HHHHH,4,even,11895,NA,NA,48158,NA,NA,53278,52201,1835,NA,NA,53382,53935,53275,1831,53382,Flanker Task,22,12137,25,yes,1024
88.46153846,88.46153846,493.0769231,493.0769231,black,legacy,legacy,legacy,0,Congruent,uniform,1,undefined,1,h,0,0,0,25,25,0,25,25,0,0,0,25,25,25,0,25,Tue Sep 13 19:11:31 2022,1500,The main experiment item,yes,Lab 2.1 FlankerTask.osexp,C:\Users\Melissa\OneDrive\Desktop\ADVANCED QUANT,no,mono,no,18,no,white,no,no,768,legacy,25,25,C:/Users/Melissa/OneDrive/Desktop/ADVANCED QUANT/MM-subject-4.csv,legacy,Lentiform Loewenfeld,3.3.12,0,h,NA,caps lock,NA,NA,h,683,NA,10058,NA,NA,683,2,legacy,1024,2,48000,-16,experiment,HHHHH,4,even,11895,NA,NA,48158,NA,NA,54999,53938,1835,NA,NA,55104,55788,54997,1831,55104,Flanker Task,23,12820,26,yes,1024
88.88888889,88.88888889,490.7777778,490.7777778,black,legacy,legacy,legacy,0,Congruent,uniform,1,undefined,1,s,0,0,0,26,26,0,26,26,0,0,0,26,26,26,0,26,Tue Sep 13 19:11:31 2022,1500,The main experiment item,yes,Lab 2.1 FlankerTask.osexp,C:\Users\Melissa\OneDrive\Desktop\ADVANCED QUANT,no,mono,no,18,no,white,no,no,768,legacy,26,26,C:/Users/Melissa/OneDrive/Desktop/ADVANCED QUANT/MM-subject-4.csv,legacy,Lentiform Loewenfeld,3.3.12,0,s,NA,caps lock,NA,NA,s,431,NA,10058,NA,NA,431,2,legacy,1024,2,48000,-16,experiment,SSSSS,4,even,11895,NA,NA,48158,NA,NA,56855,55793,1835,NA,NA,56958,57390,56853,1831,56957,Flanker Task,24,13251,27,yes,1024
89.28571429,89.28571429,486.8928571,486.8928571,black,legacy,legacy,legacy,0,Congruent,uniform,1,undefined,1,s,0,0,0,27,27,0,27,27,0,0,0,27,27,27,0,27,Tue Sep 13 19:11:31 2022,1500,The main experiment item,yes,Lab 2.1 FlankerTask.osexp,C:\Users\Melissa\OneDrive\Desktop\ADVANCED QUANT,no,mono,no,18,no,white,no,no,768,legacy,27,27,C:/Users/Melissa/OneDrive/Desktop/ADVANCED QUANT/MM-subject-4.csv,legacy,Lentiform Loewenfeld,3.3.12,0,s,NA,caps lock,NA,NA,s,382,NA,10058,NA,NA,382,2,legacy,1024,2,48000,-16,experiment,SSSSS,4,even,11895,NA,NA,48158,NA,NA,58452,57394,1835,NA,NA,58557,58940,58451,1831,58557,Flanker Task,25,13633,28,yes,1024
89.65517241,89.65517241,489.862069,489.862069,black,legacy,legacy,legacy,0,Incongruent,uniform,1,undefined,1,s,0,0,0,28,28,0,28,28,0,0,0,28,28,28,0,28,Tue Sep 13 19:11:31 2022,1500,The main experiment item,yes,Lab 2.1 FlankerTask.osexp,C:\Users\Melissa\OneDrive\Desktop\ADVANCED QUANT,no,mono,no,18,no,white,no,no,768,legacy,28,28,C:/Users/Melissa/OneDrive/Desktop/ADVANCED QUANT/MM-subject-4.csv,legacy,Lentiform Loewenfeld,3.3.12,0,s,NA,caps lock,NA,NA,s,573,NA,10058,NA,NA,573,2,legacy,1024,2,48000,-16,experiment,HHSHH,4,even,11895,NA,NA,48158,NA,NA,60013,58944,1835,NA,NA,60117,60691,60011,1831,60117,Flanker Task,26,14206,29,yes,1024
90,90,489.1666667,489.1666667,black,legacy,legacy,legacy,0,Incongruent,uniform,1,undefined,1,s,0,0,0,29,29,0,29,29,0,0,0,29,29,29,0,29,Tue Sep 13 19:11:31 2022,1500,The main experiment item,yes,Lab 2.1 FlankerTask.osexp,C:\Users\Melissa\OneDrive\Desktop\ADVANCED QUANT,no,mono,no,18,no,white,no,no,768,legacy,29,29,C:/Users/Melissa/OneDrive/Desktop/ADVANCED QUANT/MM-subject-4.csv,legacy,Lentiform Loewenfeld,3.3.12,0,s,NA,caps lock,NA,NA,s,469,NA,10058,NA,NA,469,2,legacy,1024,2,48000,-16,experiment,HHSHH,4,even,11895,NA,NA,48158,NA,NA,61756,60694,1835,NA,NA,61857,62327,61755,1831,61857,Flanker Task,27,14675,30,yes,1024
90.32258065,90.32258065,488.7096774,488.7096774,black,legacy,legacy,legacy,0,Incongruent,uniform,1,undefined,1,s,0,0,0,30,30,0,30,30,0,0,0,30,30,30,0,30,Tue Sep 13 19:11:31 2022,1500,The main experiment item,yes,Lab 2.1 FlankerTask.osexp,C:\Users\Melissa\OneDrive\Desktop\ADVANCED QUANT,no,mono,no,18,no,white,no,no,768,legacy,30,30,C:/Users/Melissa/OneDrive/Desktop/ADVANCED QUANT/MM-subject-4.csv,legacy,Lentiform Loewenfeld,3.3.12,0,s,NA,caps lock,NA,NA,s,475,NA,10058,NA,NA,475,2,legacy,1024,2,48000,-16,experiment,HHSHH,4,even,11895,NA,NA,48158,NA,NA,63393,62331,1835,NA,NA,63494,63970,63390,1831,63494,Flanker Task,28,15150,31,yes,1024
90.625,90.625,486.96875,486.96875,black,legacy,legacy,legacy,0,Incongruent,uniform,1,undefined,1,h,0,0,0,31,31,0,31,31,0,0,0,31,31,31,0,31,Tue Sep 13 19:11:31 2022,1500,The main experiment item,yes,Lab 2.1 FlankerTask.osexp,C:\Users\Melissa\OneDrive\Desktop\ADVANCED QUANT,no,mono,no,18,no,white,no,no,768,legacy,31,31,C:/Users/Melissa/OneDrive/Desktop/ADVANCED QUANT/MM-subject-4.csv,legacy,Lentiform Loewenfeld,3.3.12,0,h,NA,caps lock,NA,NA,h,433,NA,10058,NA,NA,433,2,legacy,1024,2,48000,-16,experiment,SSHSS,4,even,11895,NA,NA,48158,NA,NA,65035,63974,1835,NA,NA,65136,65569,65033,1831,65136,Flanker Task,29,15583,32,yes,1024
90.90909091,90.90909091,491.4545455,491.4545455,black,legacy,legacy,legacy,0,Incongruent,uniform,1,undefined,1,s,0,0,0,32,32,0,32,32,0,0,0,32,32,32,0,32,Tue Sep 13 19:11:31 2022,1500,The main experiment item,yes,Lab 2.1 FlankerTask.osexp,C:\Users\Melissa\OneDrive\Desktop\ADVANCED QUANT,no,mono,no,18,no,white,no,no,768,legacy,32,32,C:/Users/Melissa/OneDrive/Desktop/ADVANCED QUANT/MM-subject-4.csv,legacy,Lentiform Loewenfeld,3.3.12,0,s,NA,caps lock,NA,NA,s,635,NA,10058,NA,NA,635,2,legacy,1024,2,48000,-16,experiment,HHSHH,4,even,11895,NA,NA,48158,NA,NA,66634,65573,1835,NA,NA,66739,67375,66632,1831,66739,Flanker Task,30,16218,33,yes,1024
91.17647059,91.17647059,490.1176471,490.1176471,black,legacy,legacy,legacy,0,Congruent,uniform,1,undefined,1,h,0,0,0,33,33,0,33,33,0,0,0,33,33,33,0,33,Tue Sep 13 19:11:31 2022,1500,The main experiment item,yes,Lab 2.1 FlankerTask.osexp,C:\Users\Melissa\OneDrive\Desktop\ADVANCED QUANT,no,mono,no,18,no,white,no,no,768,legacy,33,33,C:/Users/Melissa/OneDrive/Desktop/ADVANCED QUANT/MM-subject-4.csv,legacy,Lentiform Loewenfeld,3.3.12,0,h,NA,caps lock,NA,NA,h,446,NA,10058,NA,NA,446,2,legacy,1024,2,48000,-16,experiment,HHHHH,4,even,11895,NA,NA,48158,NA,NA,68441,67379,1835,NA,NA,68550,68996,68439,1831,68550,Flanker Task,31,16664,34,yes,1024
91.42857143,91.42857143,488.3428571,488.3428571,black,legacy,legacy,legacy,0,Incongruent,uniform,1,undefined,1,s,0,0,0,34,34,0,34,34,0,0,0,34,34,34,0,34,Tue Sep 13 19:11:31 2022,1500,The main experiment item,yes,Lab 2.1 FlankerTask.osexp,C:\Users\Melissa\OneDrive\Desktop\ADVANCED QUANT,no,mono,no,18,no,white,no,no,768,legacy,34,34,C:/Users/Melissa/OneDrive/Desktop/ADVANCED QUANT/MM-subject-4.csv,legacy,Lentiform Loewenfeld,3.3.12,0,s,NA,caps lock,NA,NA,s,428,NA,10058,NA,NA,428,2,legacy,1024,2,48000,-16,experiment,HHSHH,4,even,11895,NA,NA,48158,NA,NA,70062,68999,1835,NA,NA,70163,70592,70060,1831,70163,Flanker Task,32,17092,35,yes,1024
91.66666667,91.66666667,489.0555556,489.0555556,black,legacy,legacy,legacy,0,Incongruent,uniform,1,undefined,1,h,0,0,0,35,35,0,35,35,0,0,0,35,35,35,0,35,Tue Sep 13 19:11:31 2022,1500,The main experiment item,yes,Lab 2.1 FlankerTask.osexp,C:\Users\Melissa\OneDrive\Desktop\ADVANCED QUANT,no,mono,no,18,no,white,no,no,768,legacy,35,35,C:/Users/Melissa/OneDrive/Desktop/ADVANCED QUANT/MM-subject-4.csv,legacy,Lentiform Loewenfeld,3.3.12,0,h,NA,caps lock,NA,NA,h,514,NA,10058,NA,NA,514,2,legacy,1024,2,48000,-16,experiment,SSHSS,4,even,11895,NA,NA,48158,NA,NA,71672,70598,1835,NA,NA,71777,72292,71670,1831,71777,Flanker Task,33,17606,36,yes,1024
89.18918919,89.18918919,489.3513514,489.3513514,black,legacy,legacy,legacy,0,Incongruent,uniform,0,undefined,0,h,0,0,0,36,36,0,36,36,0,0,0,36,36,36,0,36,Tue Sep 13 19:11:31 2022,1500,The main experiment item,yes,Lab 2.1 FlankerTask.osexp,C:\Users\Melissa\OneDrive\Desktop\ADVANCED QUANT,no,mono,no,18,no,white,no,no,768,legacy,36,36,C:/Users/Melissa/OneDrive/Desktop/ADVANCED QUANT/MM-subject-4.csv,legacy,Lentiform Loewenfeld,3.3.12,0,s,NA,caps lock,NA,NA,s,500,NA,10058,NA,NA,500,2,legacy,1024,2,48000,-16,experiment,SSHSS,4,even,11895,NA,NA,48158,NA,NA,73360,72296,1835,NA,NA,73463,73964,73357,1831,73463,Flanker Task,33,18106,37,yes,1024
89.47368421,89.47368421,488.6842105,488.6842105,black,legacy,legacy,legacy,0,Congruent,uniform,1,undefined,1,s,0,0,0,37,37,0,37,37,0,0,0,37,37,37,0,37,Tue Sep 13 19:11:31 2022,1500,The main experiment item,yes,Lab 2.1 FlankerTask.osexp,C:\Users\Melissa\OneDrive\Desktop\ADVANCED QUANT,no,mono,no,18,no,white,no,no,768,legacy,37,37,C:/Users/Melissa/OneDrive/Desktop/ADVANCED QUANT/MM-subject-4.csv,legacy,Lentiform Loewenfeld,3.3.12,0,s,NA,caps lock,NA,NA,s,464,NA,10058,NA,NA,464,2,legacy,1024,2,48000,-16,experiment,SSSSS,4,even,11895,NA,NA,73967,NA,NA,75539,74468,1835,NA,NA,75644,76109,75537,1831,75644,Flanker Task,34,18570,38,yes,1024
89.74358974,89.74358974,492.3589744,492.3589744,black,legacy,legacy,legacy,0,Incongruent,uniform,1,undefined,1,s,0,0,0,38,38,0,38,38,0,0,0,38,38,38,0,38,Tue Sep 13 19:11:31 2022,1500,The main experiment item,yes,Lab 2.1 FlankerTask.osexp,C:\Users\Melissa\OneDrive\Desktop\ADVANCED QUANT,no,mono,no,18,no,white,no,no,768,legacy,38,38,C:/Users/Melissa/OneDrive/Desktop/ADVANCED QUANT/MM-subject-4.csv,legacy,Lentiform Loewenfeld,3.3.12,0,s,NA,caps lock,NA,NA,s,632,NA,10058,NA,NA,632,2,legacy,1024,2,48000,-16,experiment,HHSHH,4,even,11895,NA,NA,73967,NA,NA,77175,76113,1835,NA,NA,77280,77913,77173,1831,77280,Flanker Task,35,19202,39,yes,1024
90,90,493.625,493.625,black,legacy,legacy,legacy,0,Incongruent,uniform,1,undefined,1,s,0,0,0,39,39,0,39,39,0,0,0,39,39,39,0,39,Tue Sep 13 19:11:31 2022,1500,The main experiment item,yes,Lab 2.1 FlankerTask.osexp,C:\Users\Melissa\OneDrive\Desktop\ADVANCED QUANT,no,mono,no,18,no,white,no,no,768,legacy,39,39,C:/Users/Melissa/OneDrive/Desktop/ADVANCED QUANT/MM-subject-4.csv,legacy,Lentiform Loewenfeld,3.3.12,0,s,NA,caps lock,NA,NA,s,543,NA,10058,NA,NA,543,2,legacy,1024,2,48000,-16,experiment,HHSHH,4,even,11895,NA,NA,73967,NA,NA,78977,77916,1835,NA,NA,79078,79622,78974,1831,79078,Flanker Task,36,19745,40,yes,1024
90.24390244,90.24390244,496.804878,496.804878,black,legacy,legacy,legacy,0,Incongruent,uniform,1,undefined,1,s,0,0,0,40,40,0,40,40,0,0,0,40,40,40,0,40,Tue Sep 13 19:11:31 2022,1500,The main experiment item,yes,Lab 2.1 FlankerTask.osexp,C:\Users\Melissa\OneDrive\Desktop\ADVANCED QUANT,no,mono,no,18,no,white,no,no,768,legacy,40,40,C:/Users/Melissa/OneDrive/Desktop/ADVANCED QUANT/MM-subject-4.csv,legacy,Lentiform Loewenfeld,3.3.12,0,s,NA,caps lock,NA,NA,s,624,NA,10058,NA,NA,624,2,legacy,1024,2,48000,-16,experiment,HHSHH,4,even,11895,NA,NA,73967,NA,NA,80691,79628,1835,NA,NA,80793,81418,80689,1831,80793,Flanker Task,37,20369,41,yes,1024
90.47619048,90.47619048,496.6190476,496.6190476,black,legacy,legacy,legacy,0,Incongruent,uniform,1,undefined,1,s,0,0,0,41,41,0,41,41,0,0,0,41,41,41,0,41,Tue Sep 13 19:11:31 2022,1500,The main experiment item,yes,Lab 2.1 FlankerTask.osexp,C:\Users\Melissa\OneDrive\Desktop\ADVANCED QUANT,no,mono,no,18,no,white,no,no,768,legacy,41,41,C:/Users/Melissa/OneDrive/Desktop/ADVANCED QUANT/MM-subject-4.csv,legacy,Lentiform Loewenfeld,3.3.12,0,s,NA,caps lock,NA,NA,s,489,NA,10058,NA,NA,489,2,legacy,1024,2,48000,-16,experiment,HHSHH,4,even,11895,NA,NA,73967,NA,NA,82487,81421,1835,NA,NA,82589,83079,82486,1831,82589,Flanker Task,38,20858,42,yes,1024
90.69767442,90.69767442,497.2325581,497.2325581,black,legacy,legacy,legacy,0,Incongruent,uniform,1,undefined,1,s,0,0,0,42,42,0,42,42,0,0,0,42,42,42,0,42,Tue Sep 13 19:11:31 2022,1500,The main experiment item,yes,Lab 2.1 FlankerTask.osexp,C:\Users\Melissa\OneDrive\Desktop\ADVANCED QUANT,no,mono,no,18,no,white,no,no,768,legacy,42,42,C:/Users/Melissa/OneDrive/Desktop/ADVANCED QUANT/MM-subject-4.csv,legacy,Lentiform Loewenfeld,3.3.12,0,s,NA,caps lock,NA,NA,s,523,NA,10058,NA,NA,523,2,legacy,1024,2,48000,-16,experiment,HHSHH,4,even,11895,NA,NA,73967,NA,NA,84146,83082,1835,NA,NA,84248,84772,84144,1831,84248,Flanker Task,39,21381,43,yes,1024
90.90909091,90.90909091,493.8863636,493.8863636,black,legacy,legacy,legacy,0,Congruent,uniform,1,undefined,1,h,0,0,0,43,43,0,43,43,0,0,0,43,43,43,0,43,Tue Sep 13 19:11:31 2022,1500,The main experiment item,yes,Lab 2.1 FlankerTask.osexp,C:\Users\Melissa\OneDrive\Desktop\ADVANCED QUANT,no,mono,no,18,no,white,no,no,768,legacy,43,43,C:/Users/Melissa/OneDrive/Desktop/ADVANCED QUANT/MM-subject-4.csv,legacy,Lentiform Loewenfeld,3.3.12,0,h,NA,caps lock,NA,NA,h,350,NA,10058,NA,NA,350,2,legacy,1024,2,48000,-16,experiment,HHHHH,4,even,11895,NA,NA,73967,NA,NA,85838,84776,1835,NA,NA,85953,86304,85836,1831,85953,Flanker Task,40,21731,44,yes,1024
91.11111111,91.11111111,496.7777778,496.7777778,black,legacy,legacy,legacy,0,Congruent,uniform,1,undefined,1,h,0,0,0,44,44,0,44,44,0,0,0,44,44,44,0,44,Tue Sep 13 19:11:31 2022,1500,The main experiment item,yes,Lab 2.1 FlankerTask.osexp,C:\Users\Melissa\OneDrive\Desktop\ADVANCED QUANT,no,mono,no,18,no,white,no,no,768,legacy,44,44,C:/Users/Melissa/OneDrive/Desktop/ADVANCED QUANT/MM-subject-4.csv,legacy,Lentiform Loewenfeld,3.3.12,0,h,NA,caps lock,NA,NA,h,624,NA,10058,NA,NA,624,2,legacy,1024,2,48000,-16,experiment,HHHHH,4,even,11895,NA,NA,73967,NA,NA,87369,86308,1835,NA,NA,87474,88099,87367,1831,87474,Flanker Task,41,22355,45,yes,1024
91.30434783,91.30434783,493.4565217,493.4565217,black,legacy,legacy,legacy,0,Congruent,uniform,1,undefined,1,h,0,0,0,45,45,0,45,45,0,0,0,45,45,45,0,45,Tue Sep 13 19:11:31 2022,1500,The main experiment item,yes,Lab 2.1 FlankerTask.osexp,C:\Users\Melissa\OneDrive\Desktop\ADVANCED QUANT,no,mono,no,18,no,white,no,no,768,legacy,45,45,C:/Users/Melissa/OneDrive/Desktop/ADVANCED QUANT/MM-subject-4.csv,legacy,Lentiform Loewenfeld,3.3.12,0,h,NA,caps lock,NA,NA,h,344,NA,10058,NA,NA,344,2,legacy,1024,2,48000,-16,experiment,HHHHH,4,even,11895,NA,NA,73967,NA,NA,89164,88103,1835,NA,NA,89270,89615,89162,1831,89270,Flanker Task,42,22699,46,yes,1024
91.4893617,91.4893617,490.4468085,490.4468085,black,legacy,legacy,legacy,0,Congruent,uniform,1,undefined,1,h,0,0,0,46,46,0,46,46,0,0,0,46,46,46,0,46,Tue Sep 13 19:11:31 2022,1500,The main experiment item,yes,Lab 2.1 FlankerTask.osexp,C:\Users\Melissa\OneDrive\Desktop\ADVANCED QUANT,no,mono,no,18,no,white,no,no,768,legacy,46,46,C:/Users/Melissa/OneDrive/Desktop/ADVANCED QUANT/MM-subject-4.csv,legacy,Lentiform Loewenfeld,3.3.12,0,h,NA,caps lock,NA,NA,h,352,NA,10058,NA,NA,352,2,legacy,1024,2,48000,-16,experiment,HHHHH,4,even,11895,NA,NA,73967,NA,NA,90680,89618,1835,NA,NA,90782,91135,90678,1831,90782,Flanker Task,43,23051,47,yes,1024
91.66666667,91.66666667,488.9166667,488.9166667,black,legacy,legacy,legacy,0,Incongruent,uniform,1,undefined,1,s,0,0,0,47,47,0,47,47,0,0,0,47,47,47,0,47,Tue Sep 13 19:11:31 2022,1500,The main experiment item,yes,Lab 2.1 FlankerTask.osexp,C:\Users\Melissa\OneDrive\Desktop\ADVANCED QUANT,no,mono,no,18,no,white,no,no,768,legacy,47,47,C:/Users/Melissa/OneDrive/Desktop/ADVANCED QUANT/MM-subject-4.csv,legacy,Lentiform Loewenfeld,3.3.12,0,s,NA,caps lock,NA,NA,s,417,NA,10058,NA,NA,417,2,legacy,1024,2,48000,-16,experiment,HHSHH,4,even,11895,NA,NA,73967,NA,NA,92199,91139,1835,NA,NA,92305,92723,92198,1831,92305,Flanker Task,44,23468,48,yes,1024
91.83673469,91.83673469,487.2857143,487.2857143,black,legacy,legacy,legacy,0,Congruent,uniform,1,undefined,1,s,0,0,0,48,48,0,48,48,0,0,0,48,48,48,0,48,Tue Sep 13 19:11:31 2022,1500,The main experiment item,yes,Lab 2.1 FlankerTask.osexp,C:\Users\Melissa\OneDrive\Desktop\ADVANCED QUANT,no,mono,no,18,no,white,no,no,768,legacy,48,48,C:/Users/Melissa/OneDrive/Desktop/ADVANCED QUANT/MM-subject-4.csv,legacy,Lentiform Loewenfeld,3.3.12,0,s,NA,caps lock,NA,NA,s,409,NA,10058,NA,NA,409,2,legacy,1024,2,48000,-16,experiment,SSSSS,4,even,11895,NA,NA,73967,NA,NA,93808,92729,1835,NA,NA,93915,94325,93807,1831,93914,Flanker Task,45,23877,49,yes,1024
90,90,485.76,485.76,black,legacy,legacy,legacy,0,Incongruent,uniform,0,undefined,0,s,0,0,0,49,49,0,49,49,0,0,0,49,49,49,0,49,Tue Sep 13 19:11:31 2022,1500,The main experiment item,yes,Lab 2.1 FlankerTask.osexp,C:\Users\Melissa\OneDrive\Desktop\ADVANCED QUANT,no,mono,no,18,no,white,no,no,768,legacy,49,49,C:/Users/Melissa/OneDrive/Desktop/ADVANCED QUANT/MM-subject-4.csv,legacy,Lentiform Loewenfeld,3.3.12,0,h,NA,caps lock,NA,NA,h,411,NA,10058,NA,NA,411,2,legacy,1024,2,48000,-16,experiment,HHSHH,4,even,11895,NA,NA,73967,NA,NA,95385,94328,1835,NA,NA,95488,95900,95383,1831,95488,Flanker Task,45,24288,50,yes,1024
90.19607843,90.19607843,487.1764706,487.1764706,black,legacy,legacy,legacy,0,Incongruent,uniform,1,undefined,1,h,0,0,0,50,50,0,50,50,0,0,0,50,50,50,0,50,Tue Sep 13 19:11:31 2022,1500,The main experiment item,yes,Lab 2.1 FlankerTask.osexp,C:\Users\Melissa\OneDrive\Desktop\ADVANCED QUANT,no,mono,no,18,no,white,no,no,768,legacy,50,50,C:/Users/Melissa/OneDrive/Desktop/ADVANCED QUANT/MM-subject-4.csv,legacy,Lentiform Loewenfeld,3.3.12,0,h,NA,caps lock,NA,NA,h,558,NA,10058,NA,NA,558,2,legacy,1024,2,48000,-16,experiment,SSHSS,4,even,11895,NA,NA,95902,NA,NA,97475,96408,1835,NA,NA,97580,98139,97472,1831,97580,Flanker Task,46,24846,51,yes,1024
90.38461538,90.38461538,485.9615385,485.9615385,black,legacy,legacy,legacy,0,Congruent,uniform,1,undefined,1,s,0,0,0,51,51,0,51,51,0,0,0,51,51,51,0,51,Tue Sep 13 19:11:31 2022,1500,The main experiment item,yes,Lab 2.1 FlankerTask.osexp,C:\Users\Melissa\OneDrive\Desktop\ADVANCED QUANT,no,mono,no,18,no,white,no,no,768,legacy,51,51,C:/Users/Melissa/OneDrive/Desktop/ADVANCED QUANT/MM-subject-4.csv,legacy,Lentiform Loewenfeld,3.3.12,0,s,NA,caps lock,NA,NA,s,424,NA,10058,NA,NA,424,2,legacy,1024,2,48000,-16,experiment,SSSSS,4,even,11895,NA,NA,95902,NA,NA,99205,98143,1835,NA,NA,99306,99731,99203,1831,99306,Flanker Task,47,25270,52,yes,1024
90.56603774,90.56603774,485.6792453,485.6792453,black,legacy,legacy,legacy,0,Incongruent,uniform,1,undefined,1,h,0,0,0,52,52,0,52,52,0,0,0,52,52,52,0,52,Tue Sep 13 19:11:31 2022,1500,The main experiment item,yes,Lab 2.1 FlankerTask.osexp,C:\Users\Melissa\OneDrive\Desktop\ADVANCED QUANT,no,mono,no,18,no,white,no,no,768,legacy,52,52,C:/Users/Melissa/OneDrive/Desktop/ADVANCED QUANT/MM-subject-4.csv,legacy,Lentiform Loewenfeld,3.3.12,0,h,NA,caps lock,NA,NA,h,471,NA,10058,NA,NA,471,2,legacy,1024,2,48000,-16,experiment,SSHSS,4,even,11895,NA,NA,95902,NA,NA,100801,99735,1835,NA,NA,100906,101378,100799,1831,100906,Flanker Task,48,25741,53,yes,1024
90.74074074,90.74074074,485.0740741,485.0740741,black,legacy,legacy,legacy,0,Congruent,uniform,1,undefined,1,s,0,0,0,53,53,0,53,53,0,0,0,53,53,53,0,53,Tue Sep 13 19:11:31 2022,1500,The main experiment item,yes,Lab 2.1 FlankerTask.osexp,C:\Users\Melissa\OneDrive\Desktop\ADVANCED QUANT,no,mono,no,18,no,white,no,no,768,legacy,53,53,C:/Users/Melissa/OneDrive/Desktop/ADVANCED QUANT/MM-subject-4.csv,legacy,Lentiform Loewenfeld,3.3.12,0,s,NA,caps lock,NA,NA,s,453,NA,10058,NA,NA,453,2,legacy,1024,2,48000,-16,experiment,SSSSS,4,even,11895,NA,NA,95902,NA,NA,102440,101382,1835,NA,NA,102544,102998,102438,1831,102543,Flanker Task,49,26194,54,yes,1024
90.90909091,90.90909091,484.0727273,484.0727273,black,legacy,legacy,legacy,0,Incongruent,uniform,1,undefined,1,h,0,0,0,54,54,0,54,54,0,0,0,54,54,54,0,54,Tue Sep 13 19:11:31 2022,1500,The main experiment item,yes,Lab 2.1 FlankerTask.osexp,C:\Users\Melissa\OneDrive\Desktop\ADVANCED QUANT,no,mono,no,18,no,white,no,no,768,legacy,54,54,C:/Users/Melissa/OneDrive/Desktop/ADVANCED QUANT/MM-subject-4.csv,legacy,Lentiform Loewenfeld,3.3.12,0,h,NA,caps lock,NA,NA,h,430,NA,10058,NA,NA,430,2,legacy,1024,2,48000,-16,experiment,SSHSS,4,even,11895,NA,NA,95902,NA,NA,104082,103002,1835,NA,NA,104186,104617,104080,1831,104186,Flanker Task,50,26624,55,yes,1024
91.07142857,91.07142857,482.1071429,482.1071429,black,legacy,legacy,legacy,0,Congruent,uniform,1,undefined,1,s,0,0,0,55,55,0,55,55,0,0,0,55,55,55,0,55,Tue Sep 13 19:11:31 2022,1500,The main experiment item,yes,Lab 2.1 FlankerTask.osexp,C:\Users\Melissa\OneDrive\Desktop\ADVANCED QUANT,no,mono,no,18,no,white,no,no,768,legacy,55,55,C:/Users/Melissa/OneDrive/Desktop/ADVANCED QUANT/MM-subject-4.csv,legacy,Lentiform Loewenfeld,3.3.12,0,s,NA,caps lock,NA,NA,s,374,NA,10058,NA,NA,374,2,legacy,1024,2,48000,-16,experiment,SSSSS,4,even,11895,NA,NA,95902,NA,NA,105680,104620,1835,NA,NA,105781,106156,105678,1831,105781,Flanker Task,51,26998,56,yes,1024
91.22807018,91.22807018,480.1403509,480.1403509,black,legacy,legacy,legacy,0,Incongruent,uniform,1,undefined,1,h,0,0,0,56,56,0,56,56,0,0,0,56,56,56,0,56,Tue Sep 13 19:11:31 2022,1500,The main experiment item,yes,Lab 2.1 FlankerTask.osexp,C:\Users\Melissa\OneDrive\Desktop\ADVANCED QUANT,no,mono,no,18,no,white,no,no,768,legacy,56,56,C:/Users/Melissa/OneDrive/Desktop/ADVANCED QUANT/MM-subject-4.csv,legacy,Lentiform Loewenfeld,3.3.12,0,h,NA,caps lock,NA,NA,h,370,NA,10058,NA,NA,370,2,legacy,1024,2,48000,-16,experiment,SSHSS,4,even,11895,NA,NA,95902,NA,NA,107237,106160,1835,NA,NA,107338,107710,107236,1831,107338,Flanker Task,52,27368,57,yes,1024
91.37931034,91.37931034,479.9655172,479.9655172,black,legacy,legacy,legacy,0,Incongruent,uniform,1,undefined,1,h,0,0,0,57,57,0,57,57,0,0,0,57,57,57,0,57,Tue Sep 13 19:11:31 2022,1500,The main experiment item,yes,Lab 2.1 FlankerTask.osexp,C:\Users\Melissa\OneDrive\Desktop\ADVANCED QUANT,no,mono,no,18,no,white,no,no,768,legacy,57,57,C:/Users/Melissa/OneDrive/Desktop/ADVANCED QUANT/MM-subject-4.csv,legacy,Lentiform Loewenfeld,3.3.12,0,h,NA,caps lock,NA,NA,h,470,NA,10058,NA,NA,470,2,legacy,1024,2,48000,-16,experiment,SSHSS,4,even,11895,NA,NA,95902,NA,NA,108784,107715,1835,NA,NA,108885,109356,108781,1831,108885,Flanker Task,53,27838,58,yes,1024
91.52542373,91.52542373,478.8983051,478.8983051,black,legacy,legacy,legacy,0,Congruent,uniform,1,undefined,1,h,0,0,0,58,58,0,58,58,0,0,0,58,58,58,0,58,Tue Sep 13 19:11:31 2022,1500,The main experiment item,yes,Lab 2.1 FlankerTask.osexp,C:\Users\Melissa\OneDrive\Desktop\ADVANCED QUANT,no,mono,no,18,no,white,no,no,768,legacy,58,58,C:/Users/Melissa/OneDrive/Desktop/ADVANCED QUANT/MM-subject-4.csv,legacy,Lentiform Loewenfeld,3.3.12,0,h,NA,caps lock,NA,NA,h,417,NA,10058,NA,NA,417,2,legacy,1024,2,48000,-16,experiment,HHHHH,4,even,11895,NA,NA,95902,NA,NA,110423,109359,1835,NA,NA,110524,110942,110421,1831,110524,Flanker Task,54,28255,59,yes,1024
91.66666667,91.66666667,476.65,476.65,black,legacy,legacy,legacy,0,Congruent,uniform,1,undefined,1,h,0,0,0,59,59,0,59,59,0,0,0,59,59,59,0,59,Tue Sep 13 19:11:31 2022,1500,The main experiment item,yes,Lab 2.1 FlankerTask.osexp,C:\Users\Melissa\OneDrive\Desktop\ADVANCED QUANT,no,mono,no,18,no,white,no,no,768,legacy,59,59,C:/Users/Melissa/OneDrive/Desktop/ADVANCED QUANT/MM-subject-4.csv,legacy,Lentiform Loewenfeld,3.3.12,0,h,NA,caps lock,NA,NA,h,344,NA,10058,NA,NA,344,2,legacy,1024,2,48000,-16,experiment,HHHHH,4,even,11895,NA,NA,95902,NA,NA,112009,110945,1835,NA,NA,112111,112455,112008,1831,112111,Flanker Task,55,28599,60,yes,1024
90.16393443,90.16393443,474.3278689,474.3278689,black,legacy,legacy,legacy,0,Congruent,uniform,0,undefined,0,s,0,0,0,60,60,0,60,60,0,0,0,60,60,60,0,60,Tue Sep 13 19:11:31 2022,1500,The main experiment item,yes,Lab 2.1 FlankerTask.osexp,C:\Users\Melissa\OneDrive\Desktop\ADVANCED QUANT,no,mono,no,18,no,white,no,no,768,legacy,60,60,C:/Users/Melissa/OneDrive/Desktop/ADVANCED QUANT/MM-subject-4.csv,legacy,Lentiform Loewenfeld,3.3.12,0,h,NA,caps lock,NA,NA,h,335,NA,10058,NA,NA,335,2,legacy,1024,2,48000,-16,experiment,SSSSS,4,even,11895,NA,NA,95902,NA,NA,113522,112459,1835,NA,NA,113627,113963,113520,1831,113627,Flanker Task,55,28934,61,yes,1024
90.32258065,90.32258065,473.4677419,473.4677419,black,legacy,legacy,legacy,0,Congruent,uniform,1,undefined,1,h,0,0,0,61,61,0,61,61,0,0,0,61,61,61,0,61,Tue Sep 13 19:11:31 2022,1500,The main experiment item,yes,Lab 2.1 FlankerTask.osexp,C:\Users\Melissa\OneDrive\Desktop\ADVANCED QUANT,no,mono,no,18,no,white,no,no,768,legacy,61,61,C:/Users/Melissa/OneDrive/Desktop/ADVANCED QUANT/MM-subject-4.csv,legacy,Lentiform Loewenfeld,3.3.12,0,h,NA,caps lock,NA,NA,h,421,NA,10058,NA,NA,421,2,legacy,1024,2,48000,-16,experiment,HHHHH,4,even,11895,NA,NA,113967,NA,NA,115527,114468,1835,NA,NA,115629,116050,115526,1831,115629,Flanker Task,56,29355,62,yes,1024
90.47619048,90.47619048,473.6825397,473.6825397,black,legacy,legacy,legacy,0,Incongruent,uniform,1,undefined,1,s,0,0,0,62,62,0,62,62,0,0,0,62,62,62,0,62,Tue Sep 13 19:11:31 2022,1500,The main experiment item,yes,Lab 2.1 FlankerTask.osexp,C:\Users\Melissa\OneDrive\Desktop\ADVANCED QUANT,no,mono,no,18,no,white,no,no,768,legacy,62,62,C:/Users/Melissa/OneDrive/Desktop/ADVANCED QUANT/MM-subject-4.csv,legacy,Lentiform Loewenfeld,3.3.12,0,s,NA,caps lock,NA,NA,s,487,NA,10058,NA,NA,487,2,legacy,1024,2,48000,-16,experiment,HHSHH,4,even,11895,NA,NA,113967,NA,NA,117119,116056,1835,NA,NA,117224,117712,117117,1831,117224,Flanker Task,57,29842,63,yes,1024
90.625,90.625,472.234375,472.234375,black,legacy,legacy,legacy,0,Congruent,uniform,1,undefined,1,h,0,0,0,63,63,0,63,63,0,0,0,63,63,63,0,63,Tue Sep 13 19:11:31 2022,1500,The main experiment item,yes,Lab 2.1 FlankerTask.osexp,C:\Users\Melissa\OneDrive\Desktop\ADVANCED QUANT,no,mono,no,18,no,white,no,no,768,legacy,63,63,C:/Users/Melissa/OneDrive/Desktop/ADVANCED QUANT/MM-subject-4.csv,legacy,Lentiform Loewenfeld,3.3.12,0,h,NA,caps lock,NA,NA,h,381,NA,10058,NA,NA,381,2,legacy,1024,2,48000,-16,experiment,HHHHH,4,even,11895,NA,NA,113967,NA,NA,118792,117716,1835,NA,NA,118895,119277,118790,1831,118895,Flanker Task,58,30223,64,yes,1024
90.76923077,90.76923077,472.8461538,472.8461538,black,legacy,legacy,legacy,0,Congruent,uniform,1,undefined,1,h,0,0,0,64,64,0,64,64,0,0,0,64,64,64,0,64,Tue Sep 13 19:11:31 2022,1500,The main experiment item,yes,Lab 2.1 FlankerTask.osexp,C:\Users\Melissa\OneDrive\Desktop\ADVANCED QUANT,no,mono,no,18,no,white,no,no,768,legacy,64,64,C:/Users/Melissa/OneDrive/Desktop/ADVANCED QUANT/MM-subject-4.csv,legacy,Lentiform Loewenfeld,3.3.12,0,h,NA,caps lock,NA,NA,h,512,NA,10058,NA,NA,512,2,legacy,1024,2,48000,-16,experiment,HHHHH,4,even,11895,NA,NA,113967,NA,NA,120360,119282,1835,NA,NA,120462,120975,120358,1831,120462,Flanker Task,59,30735,65,yes,1024
90.90909091,90.90909091,473.6212121,473.6212121,black,legacy,legacy,legacy,0,Incongruent,uniform,1,undefined,1,s,0,0,0,65,65,0,65,65,0,0,0,65,65,65,0,65,Tue Sep 13 19:11:31 2022,1500,The main experiment item,yes,Lab 2.1 FlankerTask.osexp,C:\Users\Melissa\OneDrive\Desktop\ADVANCED QUANT,no,mono,no,18,no,white,no,no,768,legacy,65,65,C:/Users/Melissa/OneDrive/Desktop/ADVANCED QUANT/MM-subject-4.csv,legacy,Lentiform Loewenfeld,3.3.12,0,s,NA,caps lock,NA,NA,s,524,NA,10058,NA,NA,524,2,legacy,1024,2,48000,-16,experiment,HHSHH,4,even,11895,NA,NA,113967,NA,NA,122040,120978,1835,NA,NA,122142,122667,122038,1831,122142,Flanker Task,60,31259,66,yes,1024
91.04477612,91.04477612,473.5522388,473.5522388,black,legacy,legacy,legacy,0,Congruent,uniform,1,undefined,1,s,0,0,0,66,66,0,66,66,0,0,0,66,66,66,0,66,Tue Sep 13 19:11:31 2022,1500,The main experiment item,yes,Lab 2.1 FlankerTask.osexp,C:\Users\Melissa\OneDrive\Desktop\ADVANCED QUANT,no,mono,no,18,no,white,no,no,768,legacy,66,66,C:/Users/Melissa/OneDrive/Desktop/ADVANCED QUANT/MM-subject-4.csv,legacy,Lentiform Loewenfeld,3.3.12,0,s,NA,caps lock,NA,NA,s,469,NA,10058,NA,NA,469,2,legacy,1024,2,48000,-16,experiment,SSSSS,4,even,11895,NA,NA,113967,NA,NA,123761,122671,1835,NA,NA,123866,124336,123759,1831,123866,Flanker Task,61,31728,67,yes,1024
91.17647059,91.17647059,472.2058824,472.2058824,black,legacy,legacy,legacy,0,Congruent,uniform,1,undefined,1,s,0,0,0,67,67,0,67,67,0,0,0,67,67,67,0,67,Tue Sep 13 19:11:31 2022,1500,The main experiment item,yes,Lab 2.1 FlankerTask.osexp,C:\Users\Melissa\OneDrive\Desktop\ADVANCED QUANT,no,mono,no,18,no,white,no,no,768,legacy,67,67,C:/Users/Melissa/OneDrive/Desktop/ADVANCED QUANT/MM-subject-4.csv,legacy,Lentiform Loewenfeld,3.3.12,0,s,NA,caps lock,NA,NA,s,382,NA,10058,NA,NA,382,2,legacy,1024,2,48000,-16,experiment,SSSSS,4,even,11895,NA,NA,113967,NA,NA,125401,124340,1835,NA,NA,125502,125885,125399,1831,125502,Flanker Task,62,32110,68,yes,1024
91.30434783,91.30434783,471.3913043,471.3913043,black,legacy,legacy,legacy,0,Congruent,uniform,1,undefined,1,s,0,0,0,68,68,0,68,68,0,0,0,68,68,68,0,68,Tue Sep 13 19:11:31 2022,1500,The main experiment item,yes,Lab 2.1 FlankerTask.osexp,C:\Users\Melissa\OneDrive\Desktop\ADVANCED QUANT,no,mono,no,18,no,white,no,no,768,legacy,68,68,C:/Users/Melissa/OneDrive/Desktop/ADVANCED QUANT/MM-subject-4.csv,legacy,Lentiform Loewenfeld,3.3.12,0,s,NA,caps lock,NA,NA,s,416,NA,10058,NA,NA,416,2,legacy,1024,2,48000,-16,experiment,SSSSS,4,even,11895,NA,NA,113967,NA,NA,126962,125888,1835,NA,NA,127063,127480,126960,1831,127063,Flanker Task,63,32526,69,yes,1024
90,90,471.0428571,471.0428571,black,legacy,legacy,legacy,0,Incongruent,uniform,0,undefined,0,s,0,0,0,69,69,0,69,69,0,0,0,69,69,69,0,69,Tue Sep 13 19:11:31 2022,1500,The main experiment item,yes,Lab 2.1 FlankerTask.osexp,C:\Users\Melissa\OneDrive\Desktop\ADVANCED QUANT,no,mono,no,18,no,white,no,no,768,legacy,69,69,C:/Users/Melissa/OneDrive/Desktop/ADVANCED QUANT/MM-subject-4.csv,legacy,Lentiform Loewenfeld,3.3.12,0,h,NA,caps lock,NA,NA,h,447,NA,10058,NA,NA,447,2,legacy,1024,2,48000,-16,experiment,HHSHH,4,even,11895,NA,NA,113967,NA,NA,128548,127485,1835,NA,NA,128651,129099,128546,1831,128651,Flanker Task,63,32973,70,yes,1024
90.14084507,90.14084507,471.4225352,471.4225352,black,legacy,legacy,legacy,0,Congruent,uniform,1,undefined,1,h,0,0,0,70,70,0,70,70,0,0,0,70,70,70,0,70,Tue Sep 13 19:11:31 2022,1500,The main experiment item,yes,Lab 2.1 FlankerTask.osexp,C:\Users\Melissa\OneDrive\Desktop\ADVANCED QUANT,no,mono,no,18,no,white,no,no,768,legacy,70,70,C:/Users/Melissa/OneDrive/Desktop/ADVANCED QUANT/MM-subject-4.csv,legacy,Lentiform Loewenfeld,3.3.12,0,h,NA,caps lock,NA,NA,h,498,NA,10058,NA,NA,498,2,legacy,1024,2,48000,-16,experiment,HHHHH,4,even,11895,NA,NA,129103,NA,NA,130663,129604,1835,NA,NA,130768,131267,130661,1831,130767,Flanker Task,64,33471,71,yes,1024
90.27777778,90.27777778,471.1111111,471.1111111,black,legacy,legacy,legacy,0,Congruent,uniform,1,undefined,1,s,0,0,0,71,71,0,71,71,0,0,0,71,71,71,0,71,Tue Sep 13 19:11:31 2022,1500,The main experiment item,yes,Lab 2.1 FlankerTask.osexp,C:\Users\Melissa\OneDrive\Desktop\ADVANCED QUANT,no,mono,no,18,no,white,no,no,768,legacy,71,71,C:/Users/Melissa/OneDrive/Desktop/ADVANCED QUANT/MM-subject-4.csv,legacy,Lentiform Loewenfeld,3.3.12,0,s,NA,caps lock,NA,NA,s,449,NA,10058,NA,NA,449,2,legacy,1024,2,48000,-16,experiment,SSSSS,4,even,11895,NA,NA,129103,NA,NA,132331,131271,1835,NA,NA,132432,132882,132330,1831,132432,Flanker Task,65,33920,72,yes,1024
90.4109589,90.4109589,471.0136986,471.0136986,black,legacy,legacy,legacy,0,Congruent,uniform,1,undefined,1,s,0,0,0,72,72,0,72,72,0,0,0,72,72,72,0,72,Tue Sep 13 19:11:31 2022,1500,The main experiment item,yes,Lab 2.1 FlankerTask.osexp,C:\Users\Melissa\OneDrive\Desktop\ADVANCED QUANT,no,mono,no,18,no,white,no,no,768,legacy,72,72,C:/Users/Melissa/OneDrive/Desktop/ADVANCED QUANT/MM-subject-4.csv,legacy,Lentiform Loewenfeld,3.3.12,0,s,NA,caps lock,NA,NA,s,464,NA,10058,NA,NA,464,2,legacy,1024,2,48000,-16,experiment,SSSSS,4,even,11895,NA,NA,129103,NA,NA,133957,132885,1835,NA,NA,134062,134527,133956,1831,134062,Flanker Task,66,34384,73,yes,1024
90.54054054,90.54054054,471.0135135,471.0135135,black,legacy,legacy,legacy,0,Incongruent,uniform,1,undefined,1,h,0,0,0,73,73,0,73,73,0,0,0,73,73,73,0,73,Tue Sep 13 19:11:31 2022,1500,The main experiment item,yes,Lab 2.1 FlankerTask.osexp,C:\Users\Melissa\OneDrive\Desktop\ADVANCED QUANT,no,mono,no,18,no,white,no,no,768,legacy,73,73,C:/Users/Melissa/OneDrive/Desktop/ADVANCED QUANT/MM-subject-4.csv,legacy,Lentiform Loewenfeld,3.3.12,0,h,NA,caps lock,NA,NA,h,471,NA,10058,NA,NA,471,2,legacy,1024,2,48000,-16,experiment,SSHSS,4,even,11895,NA,NA,129103,NA,NA,135591,134533,1835,NA,NA,135696,136168,135589,1831,135696,Flanker Task,67,34855,74,yes,1024
90.66666667,90.66666667,470.9466667,470.9466667,black,legacy,legacy,legacy,0,Congruent,uniform,1,undefined,1,h,0,0,0,74,74,0,74,74,0,0,0,74,74,74,0,74,Tue Sep 13 19:11:31 2022,1500,The main experiment item,yes,Lab 2.1 FlankerTask.osexp,C:\Users\Melissa\OneDrive\Desktop\ADVANCED QUANT,no,mono,no,18,no,white,no,no,768,legacy,74,74,C:/Users/Melissa/OneDrive/Desktop/ADVANCED QUANT/MM-subject-4.csv,legacy,Lentiform Loewenfeld,3.3.12,0,h,NA,caps lock,NA,NA,h,466,NA,10058,NA,NA,466,2,legacy,1024,2,48000,-16,experiment,HHHHH,4,even,11895,NA,NA,129103,NA,NA,137251,136172,1835,NA,NA,137353,137820,137249,1831,137353,Flanker Task,68,35321,75,yes,1024
90.78947368,90.78947368,469.7763158,469.7763158,black,legacy,legacy,legacy,0,Congruent,uniform,1,undefined,1,s,0,0,0,75,75,0,75,75,0,0,0,75,75,75,0,75,Tue Sep 13 19:11:31 2022,1500,The main experiment item,yes,Lab 2.1 FlankerTask.osexp,C:\Users\Melissa\OneDrive\Desktop\ADVANCED QUANT,no,mono,no,18,no,white,no,no,768,legacy,75,75,C:/Users/Melissa/OneDrive/Desktop/ADVANCED QUANT/MM-subject-4.csv,legacy,Lentiform Loewenfeld,3.3.12,0,s,NA,caps lock,NA,NA,s,382,NA,10058,NA,NA,382,2,legacy,1024,2,48000,-16,experiment,SSSSS,4,even,11895,NA,NA,129103,NA,NA,138886,137824,1835,NA,NA,138987,139370,138884,1831,138987,Flanker Task,69,35703,76,yes,1024
90.90909091,90.90909091,469.012987,469.012987,black,legacy,legacy,legacy,0,Congruent,uniform,1,undefined,1,s,0,0,0,76,76,0,76,76,0,0,0,76,76,76,0,76,Tue Sep 13 19:11:31 2022,1500,The main experiment item,yes,Lab 2.1 FlankerTask.osexp,C:\Users\Melissa\OneDrive\Desktop\ADVANCED QUANT,no,mono,no,18,no,white,no,no,768,legacy,76,76,C:/Users/Melissa/OneDrive/Desktop/ADVANCED QUANT/MM-subject-4.csv,legacy,Lentiform Loewenfeld,3.3.12,0,s,NA,caps lock,NA,NA,s,411,NA,10058,NA,NA,411,2,legacy,1024,2,48000,-16,experiment,SSSSS,4,even,11895,NA,NA,129103,NA,NA,140431,139374,1835,NA,NA,140534,140945,140430,1831,140534,Flanker Task,70,36114,77,yes,1024
91.02564103,91.02564103,470.6025641,470.6025641,black,legacy,legacy,legacy,0,Congruent,uniform,1,undefined,1,h,0,0,0,77,77,0,77,77,0,0,0,77,77,77,0,77,Tue Sep 13 19:11:31 2022,1500,The main experiment item,yes,Lab 2.1 FlankerTask.osexp,C:\Users\Melissa\OneDrive\Desktop\ADVANCED QUANT,no,mono,no,18,no,white,no,no,768,legacy,77,77,C:/Users/Melissa/OneDrive/Desktop/ADVANCED QUANT/MM-subject-4.csv,legacy,Lentiform Loewenfeld,3.3.12,0,h,NA,caps lock,NA,NA,h,593,NA,10058,NA,NA,593,2,legacy,1024,2,48000,-16,experiment,HHHHH,4,even,11895,NA,NA,129103,NA,NA,142026,140948,1835,NA,NA,142133,142727,142024,1831,142133,Flanker Task,71,36707,78,yes,1024
89.87341772,89.87341772,469.0253165,469.0253165,black,legacy,legacy,legacy,0,Incongruent,uniform,0,undefined,0,h,0,0,0,78,78,0,78,78,0,0,0,78,78,78,0,78,Tue Sep 13 19:11:31 2022,1500,The main experiment item,yes,Lab 2.1 FlankerTask.osexp,C:\Users\Melissa\OneDrive\Desktop\ADVANCED QUANT,no,mono,no,18,no,white,no,no,768,legacy,78,78,C:/Users/Melissa/OneDrive/Desktop/ADVANCED QUANT/MM-subject-4.csv,legacy,Lentiform Loewenfeld,3.3.12,0,s,NA,caps lock,NA,NA,s,346,NA,10058,NA,NA,346,2,legacy,1024,2,48000,-16,experiment,SSHSS,4,even,11895,NA,NA,129103,NA,NA,143793,142731,1835,NA,NA,143894,144241,143792,1831,143894,Flanker Task,71,37053,79,yes,1024
90,90,469.1625,469.1625,black,legacy,legacy,legacy,0,Congruent,uniform,1,undefined,1,h,0,0,0,79,79,0,79,79,0,0,0,79,79,79,0,79,Tue Sep 13 19:11:31 2022,1500,The main experiment item,yes,Lab 2.1 FlankerTask.osexp,C:\Users\Melissa\OneDrive\Desktop\ADVANCED QUANT,no,mono,no,18,no,white,no,no,768,legacy,79,79,C:/Users/Melissa/OneDrive/Desktop/ADVANCED QUANT/MM-subject-4.csv,legacy,Lentiform Loewenfeld,3.3.12,0,h,NA,caps lock,NA,NA,h,480,NA,10058,NA,NA,480,2,legacy,1024,2,48000,-16,experiment,HHHHH,4,even,11895,NA,NA,144245,NA,NA,145807,144746,1835,NA,NA,145911,146392,145805,1831,145911,Flanker Task,72,37533,80,yes,1024
90.12345679,90.12345679,472.0246914,472.0246914,black,legacy,legacy,legacy,0,Incongruent,uniform,1,undefined,1,h,0,0,0,80,80,0,80,80,0,0,0,80,80,80,0,80,Tue Sep 13 19:11:31 2022,600,The main experiment item,yes,Lab 2.1 FlankerTask.osexp,C:\Users\Melissa\OneDrive\Desktop\ADVANCED QUANT,no,mono,no,18,no,white,no,no,768,legacy,0,79,C:/Users/Melissa/OneDrive/Desktop/ADVANCED QUANT/MM-subject-4.csv,legacy,Lentiform Loewenfeld,3.3.12,0,h,NA,caps lock,h,NA,h,701,NA,10058,8933,NA,701,2,legacy,1024,2,48000,-16,experiment,SSHSS,4,even,11895,156368,NA,144245,NA,NA,156411,146398,1835,147434,NA,156516,157217,156410,1831,156515,Flanker Task,73,38234,81,yes,1024
90.24390244,90.24390244,470.597561,470.597561,black,legacy,legacy,legacy,0,Congruent,uniform,1,undefined,1,s,0,0,0,81,81,0,81,81,0,0,0,81,81,81,0,81,Tue Sep 13 19:11:31 2022,600,The main experiment item,yes,Lab 2.1 FlankerTask.osexp,C:\Users\Melissa\OneDrive\Desktop\ADVANCED QUANT,no,mono,no,18,no,white,no,no,768,legacy,1,79,C:/Users/Melissa/OneDrive/Desktop/ADVANCED QUANT/MM-subject-4.csv,legacy,Lentiform Loewenfeld,3.3.12,0,s,NA,caps lock,h,NA,s,355,NA,10058,8933,NA,355,2,legacy,1024,2,48000,-16,experiment,SSSSS,4,even,11895,156368,NA,144245,157232,NA,158796,157734,1835,147434,NA,158901,159257,158794,1831,158900,Flanker Task,74,38589,82,yes,1024
90.36144578,90.36144578,469.2891566,469.2891566,black,legacy,legacy,legacy,0,Congruent,uniform,1,undefined,1,s,0,0,0,82,82,0,82,82,0,0,0,82,82,82,0,82,Tue Sep 13 19:11:31 2022,600,The main experiment item,yes,Lab 2.1 FlankerTask.osexp,C:\Users\Melissa\OneDrive\Desktop\ADVANCED QUANT,no,mono,no,18,no,white,no,no,768,legacy,2,79,C:/Users/Melissa/OneDrive/Desktop/ADVANCED QUANT/MM-subject-4.csv,legacy,Lentiform Loewenfeld,3.3.12,0,s,NA,caps lock,h,NA,s,362,NA,10058,8933,NA,362,2,legacy,1024,2,48000,-16,experiment,SSSSS,4,even,11895,156368,NA,144245,157232,NA,160345,159261,1835,147434,NA,160446,160810,160343,1831,160446,Flanker Task,75,38951,83,yes,1024
89.28571429,89.28571429,468.297619,468.297619,black,legacy,legacy,legacy,0,Incongruent,uniform,0,undefined,0,s,0,0,0,83,83,0,83,83,0,0,0,83,83,83,0,83,Tue Sep 13 19:11:31 2022,600,The main experiment item,yes,Lab 2.1 FlankerTask.osexp,C:\Users\Melissa\OneDrive\Desktop\ADVANCED QUANT,no,mono,no,18,no,white,no,no,768,legacy,3,79,C:/Users/Melissa/OneDrive/Desktop/ADVANCED QUANT/MM-subject-4.csv,legacy,Lentiform Loewenfeld,3.3.12,0,h,NA,caps lock,h,NA,h,386,NA,10058,8933,NA,386,2,legacy,1024,2,48000,-16,experiment,HHSHH,4,even,11895,156368,NA,144245,157232,NA,161889,160813,1835,147434,NA,161994,162381,161887,1831,161992,Flanker Task,75,39337,84,yes,1024
89.41176471,89.41176471,467.6,467.6,black,legacy,legacy,legacy,0,Congruent,uniform,1,undefined,1,h,0,0,0,84,84,0,84,84,0,0,0,84,84,84,0,84,Tue Sep 13 19:11:31 2022,600,The main experiment item,yes,Lab 2.1 FlankerTask.osexp,C:\Users\Melissa\OneDrive\Desktop\ADVANCED QUANT,no,mono,no,18,no,white,no,no,768,legacy,4,79,C:/Users/Melissa/OneDrive/Desktop/ADVANCED QUANT/MM-subject-4.csv,legacy,Lentiform Loewenfeld,3.3.12,0,h,NA,caps lock,h,NA,h,409,NA,10058,8933,NA,409,2,legacy,1024,2,48000,-16,experiment,HHHHH,4,even,11895,156368,NA,162385,157232,NA,163947,162886,1835,147434,NA,164052,164462,163946,1831,164052,Flanker Task,76,39746,85,yes,1024
89.53488372,89.53488372,466.3255814,466.3255814,black,legacy,legacy,legacy,0,Congruent,uniform,1,undefined,1,h,0,0,0,85,85,0,85,85,0,0,0,85,85,85,0,85,Tue Sep 13 19:11:31 2022,600,The main experiment item,yes,Lab 2.1 FlankerTask.osexp,C:\Users\Melissa\OneDrive\Desktop\ADVANCED QUANT,no,mono,no,18,no,white,no,no,768,legacy,5,79,C:/Users/Melissa/OneDrive/Desktop/ADVANCED QUANT/MM-subject-4.csv,legacy,Lentiform Loewenfeld,3.3.12,0,h,NA,caps lock,h,NA,h,358,NA,10058,8933,NA,358,2,legacy,1024,2,48000,-16,experiment,HHHHH,4,even,11895,156368,NA,162385,157232,NA,165527,164466,1835,147434,NA,165628,165987,165526,1831,165628,Flanker Task,77,40104,86,yes,1024
88.50574713,88.50574713,465.4712644,465.4712644,black,legacy,legacy,legacy,0,Incongruent,uniform,0,undefined,0,h,0,0,0,86,86,0,86,86,0,0,0,86,86,86,0,86,Tue Sep 13 19:11:31 2022,600,The main experiment item,yes,Lab 2.1 FlankerTask.osexp,C:\Users\Melissa\OneDrive\Desktop\ADVANCED QUANT,no,mono,no,18,no,white,no,no,768,legacy,6,79,C:/Users/Melissa/OneDrive/Desktop/ADVANCED QUANT/MM-subject-4.csv,legacy,Lentiform Loewenfeld,3.3.12,0,s,NA,caps lock,h,NA,s,392,NA,10058,8933,NA,392,2,legacy,1024,2,48000,-16,experiment,SSHSS,4,even,11895,156368,NA,162385,157232,NA,167052,165990,1835,147434,NA,167157,167550,167050,1831,167157,Flanker Task,77,40496,87,yes,1024
88.63636364,88.63636364,466.5909091,466.5909091,black,legacy,legacy,legacy,0,Incongruent,uniform,1,undefined,1,h,0,0,0,87,87,0,87,87,0,0,0,87,87,87,0,87,Tue Sep 13 19:11:31 2022,600,The main experiment item,yes,Lab 2.1 FlankerTask.osexp,C:\Users\Melissa\OneDrive\Desktop\ADVANCED QUANT,no,mono,no,18,no,white,no,no,768,legacy,7,79,C:/Users/Melissa/OneDrive/Desktop/ADVANCED QUANT/MM-subject-4.csv,legacy,Lentiform Loewenfeld,3.3.12,0,h,NA,caps lock,h,NA,h,564,NA,10058,8933,NA,564,2,legacy,1024,2,48000,-16,experiment,SSHSS,4,even,11895,156368,NA,167554,157232,NA,169122,168056,1835,147434,NA,169226,169791,169120,1831,169226,Flanker Task,78,41060,88,yes,1024
88.76404494,88.76404494,466.4382022,466.4382022,black,legacy,legacy,legacy,0,Incongruent,uniform,1,undefined,1,h,0,0,0,88,88,0,88,88,0,0,0,88,88,88,0,88,Tue Sep 13 19:11:31 2022,600,The main experiment item,yes,Lab 2.1 FlankerTask.osexp,C:\Users\Melissa\OneDrive\Desktop\ADVANCED QUANT,no,mono,no,18,no,white,no,no,768,legacy,8,79,C:/Users/Melissa/OneDrive/Desktop/ADVANCED QUANT/MM-subject-4.csv,legacy,Lentiform Loewenfeld,3.3.12,0,h,NA,caps lock,h,NA,h,453,NA,10058,8933,NA,453,2,legacy,1024,2,48000,-16,experiment,SSHSS,4,even,11895,156368,NA,167554,157232,NA,170873,169795,1835,147434,NA,170974,171428,170871,1831,170974,Flanker Task,79,41513,89,yes,1024
88.88888889,88.88888889,466.8444444,466.8444444,black,legacy,legacy,legacy,0,Incongruent,uniform,1,undefined,1,h,0,0,0,89,89,0,89,89,0,0,0,89,89,89,0,89,Tue Sep 13 19:11:31 2022,600,The main experiment item,yes,Lab 2.1 FlankerTask.osexp,C:\Users\Melissa\OneDrive\Desktop\ADVANCED QUANT,no,mono,no,18,no,white,no,no,768,legacy,9,79,C:/Users/Melissa/OneDrive/Desktop/ADVANCED QUANT/MM-subject-4.csv,legacy,Lentiform Loewenfeld,3.3.12,0,h,NA,caps lock,h,NA,h,503,NA,10058,8933,NA,503,2,legacy,1024,2,48000,-16,experiment,SSHSS,4,even,11895,156368,NA,167554,157232,NA,172493,171431,1835,147434,NA,172595,173099,172491,1831,172595,Flanker Task,80,42016,90,yes,1024
89.01098901,89.01098901,466,466,black,legacy,legacy,legacy,0,Congruent,uniform,1,undefined,1,s,0,0,0,90,90,0,90,90,0,0,0,90,90,90,0,90,Tue Sep 13 19:11:31 2022,600,The main experiment item,yes,Lab 2.1 FlankerTask.osexp,C:\Users\Melissa\OneDrive\Desktop\ADVANCED QUANT,no,mono,no,18,no,white,no,no,768,legacy,10,79,C:/Users/Melissa/OneDrive/Desktop/ADVANCED QUANT/MM-subject-4.csv,legacy,Lentiform Loewenfeld,3.3.12,0,s,NA,caps lock,h,NA,s,390,NA,10058,8933,NA,390,2,legacy,1024,2,48000,-16,experiment,SSSSS,4,even,11895,156368,NA,167554,157232,NA,174183,173103,1835,147434,NA,174288,174678,174181,1831,174288,Flanker Task,81,42406,91,yes,1024
89.13043478,89.13043478,464.7391304,464.7391304,black,legacy,legacy,legacy,0,Congruent,uniform,1,undefined,1,h,0,0,0,91,91,0,91,91,0,0,0,91,91,91,0,91,Tue Sep 13 19:11:31 2022,600,The main experiment item,yes,Lab 2.1 FlankerTask.osexp,C:\Users\Melissa\OneDrive\Desktop\ADVANCED QUANT,no,mono,no,18,no,white,no,no,768,legacy,11,79,C:/Users/Melissa/OneDrive/Desktop/ADVANCED QUANT/MM-subject-4.csv,legacy,Lentiform Loewenfeld,3.3.12,0,h,NA,caps lock,h,NA,h,350,NA,10058,8933,NA,350,2,legacy,1024,2,48000,-16,experiment,HHHHH,4,even,11895,156368,NA,167554,157232,NA,175745,174682,1835,147434,NA,175847,176198,175743,1831,175847,Flanker Task,82,42756,92,yes,1024
89.24731183,89.24731183,465.0645161,465.0645161,black,legacy,legacy,legacy,0,Congruent,uniform,1,undefined,1,s,0,0,0,92,92,0,92,92,0,0,0,92,92,92,0,92,Tue Sep 13 19:11:31 2022,600,The main experiment item,yes,Lab 2.1 FlankerTask.osexp,C:\Users\Melissa\OneDrive\Desktop\ADVANCED QUANT,no,mono,no,18,no,white,no,no,768,legacy,12,79,C:/Users/Melissa/OneDrive/Desktop/ADVANCED QUANT/MM-subject-4.csv,legacy,Lentiform Loewenfeld,3.3.12,0,s,NA,caps lock,h,NA,s,495,NA,10058,8933,NA,495,2,legacy,1024,2,48000,-16,experiment,SSSSS,4,even,11895,156368,NA,167554,157232,NA,177265,176202,1835,147434,NA,177367,177863,177263,1831,177367,Flanker Task,83,43251,93,yes,1024
89.36170213,89.36170213,463.9148936,463.9148936,black,legacy,legacy,legacy,0,Congruent,uniform,1,undefined,1,h,0,0,0,93,93,0,93,93,0,0,0,93,93,93,0,93,Tue Sep 13 19:11:31 2022,600,The main experiment item,yes,Lab 2.1 FlankerTask.osexp,C:\Users\Melissa\OneDrive\Desktop\ADVANCED QUANT,no,mono,no,18,no,white,no,no,768,legacy,13,79,C:/Users/Melissa/OneDrive/Desktop/ADVANCED QUANT/MM-subject-4.csv,legacy,Lentiform Loewenfeld,3.3.12,0,h,NA,caps lock,h,NA,h,357,NA,10058,8933,NA,357,2,legacy,1024,2,48000,-16,experiment,HHHHH,4,even,11895,156368,NA,167554,157232,NA,178924,177866,1835,147434,NA,179029,179388,178922,1831,179029,Flanker Task,84,43608,94,yes,1024
89.47368421,89.47368421,462.7578947,462.7578947,black,legacy,legacy,legacy,0,Congruent,uniform,1,undefined,1,s,0,0,0,94,94,0,94,94,0,0,0,94,94,94,0,94,Tue Sep 13 19:11:31 2022,600,The main experiment item,yes,Lab 2.1 FlankerTask.osexp,C:\Users\Melissa\OneDrive\Desktop\ADVANCED QUANT,no,mono,no,18,no,white,no,no,768,legacy,14,79,C:/Users/Melissa/OneDrive/Desktop/ADVANCED QUANT/MM-subject-4.csv,legacy,Lentiform Loewenfeld,3.3.12,0,s,NA,caps lock,h,NA,s,354,NA,10058,8933,NA,354,2,legacy,1024,2,48000,-16,experiment,SSSSS,4,even,11895,156368,NA,167554,157232,NA,180454,179391,1835,147434,NA,180559,180914,180452,1831,180559,Flanker Task,85,43962,95,yes,1024
89.58333333,89.58333333,461.2291667,461.2291667,black,legacy,legacy,legacy,0,Congruent,uniform,1,undefined,1,h,0,0,0,95,95,0,95,95,0,0,0,95,95,95,0,95,Tue Sep 13 19:11:31 2022,600,The main experiment item,yes,Lab 2.1 FlankerTask.osexp,C:\Users\Melissa\OneDrive\Desktop\ADVANCED QUANT,no,mono,no,18,no,white,no,no,768,legacy,15,79,C:/Users/Melissa/OneDrive/Desktop/ADVANCED QUANT/MM-subject-4.csv,legacy,Lentiform Loewenfeld,3.3.12,0,h,NA,caps lock,h,NA,h,316,NA,10058,8933,NA,316,2,legacy,1024,2,48000,-16,experiment,HHHHH,4,even,11895,156368,NA,167554,157232,NA,181977,180917,1835,147434,NA,182081,182398,181975,1831,182081,Flanker Task,86,44278,96,yes,1024
89.69072165,89.69072165,460.443299,460.443299,black,legacy,legacy,legacy,0,Incongruent,uniform,1,undefined,1,h,0,0,0,96,96,0,96,96,0,0,0,96,96,96,0,96,Tue Sep 13 19:11:31 2022,600,The main experiment item,yes,Lab 2.1 FlankerTask.osexp,C:\Users\Melissa\OneDrive\Desktop\ADVANCED QUANT,no,mono,no,18,no,white,no,no,768,legacy,16,79,C:/Users/Melissa/OneDrive/Desktop/ADVANCED QUANT/MM-subject-4.csv,legacy,Lentiform Loewenfeld,3.3.12,0,h,NA,caps lock,h,NA,h,385,NA,10058,8933,NA,385,2,legacy,1024,2,48000,-16,experiment,SSHSS,4,even,11895,156368,NA,167554,157232,NA,183465,182402,1835,147434,NA,183567,183953,183463,1831,183567,Flanker Task,87,44663,97,yes,1024
89.79591837,89.79591837,459.0714286,459.0714286,black,legacy,legacy,legacy,0,Congruent,uniform,1,undefined,1,s,0,0,0,97,97,0,97,97,0,0,0,97,97,97,0,97,Tue Sep 13 19:11:31 2022,600,The main experiment item,yes,Lab 2.1 FlankerTask.osexp,C:\Users\Melissa\OneDrive\Desktop\ADVANCED QUANT,no,mono,no,18,no,white,no,no,768,legacy,17,79,C:/Users/Melissa/OneDrive/Desktop/ADVANCED QUANT/MM-subject-4.csv,legacy,Lentiform Loewenfeld,3.3.12,0,s,NA,caps lock,h,NA,s,326,NA,10058,8933,NA,326,2,legacy,1024,2,48000,-16,experiment,SSSSS,4,even,11895,156368,NA,167554,157232,NA,185028,183958,1835,147434,NA,185130,185457,185026,1831,185130,Flanker Task,88,44989,98,yes,1024
89.8989899,89.8989899,459.6262626,459.6262626,black,legacy,legacy,legacy,0,Congruent,uniform,1,undefined,1,s,0,0,0,98,98,0,98,98,0,0,0,98,98,98,0,98,Tue Sep 13 19:11:31 2022,600,The main experiment item,yes,Lab 2.1 FlankerTask.osexp,C:\Users\Melissa\OneDrive\Desktop\ADVANCED QUANT,no,mono,no,18,no,white,no,no,768,legacy,18,79,C:/Users/Melissa/OneDrive/Desktop/ADVANCED QUANT/MM-subject-4.csv,legacy,Lentiform Loewenfeld,3.3.12,0,s,NA,caps lock,h,NA,s,514,NA,10058,8933,NA,514,2,legacy,1024,2,48000,-16,experiment,SSSSS,4,even,11895,156368,NA,167554,157232,NA,186523,185461,1835,147434,NA,186624,187139,186521,1831,186624,Flanker Task,89,45503,99,yes,1024
90,90,458.33,458.33,black,legacy,legacy,legacy,0,Congruent,uniform,1,undefined,1,h,0,0,0,99,99,0,99,99,0,0,0,99,99,99,0,99,Tue Sep 13 19:11:31 2022,600,The main experiment item,yes,Lab 2.1 FlankerTask.osexp,C:\Users\Melissa\OneDrive\Desktop\ADVANCED QUANT,no,mono,no,18,no,white,no,no,768,legacy,19,79,C:/Users/Melissa/OneDrive/Desktop/ADVANCED QUANT/MM-subject-4.csv,legacy,Lentiform Loewenfeld,3.3.12,0,h,NA,caps lock,h,NA,h,330,NA,10058,8933,NA,330,2,legacy,1024,2,48000,-16,experiment,HHHHH,4,even,11895,156368,NA,167554,157232,NA,188220,187143,1835,147434,NA,188326,188657,188218,1831,188326,Flanker Task,90,45833,100,yes,1024
90.0990099,90.0990099,457.6039604,457.6039604,black,legacy,legacy,legacy,0,Congruent,uniform,1,undefined,1,s,0,0,0,100,100,0,100,100,0,0,0,100,100,100,0,100,Tue Sep 13 19:11:31 2022,600,The main experiment item,yes,Lab 2.1 FlankerTask.osexp,C:\Users\Melissa\OneDrive\Desktop\ADVANCED QUANT,no,mono,no,18,no,white,no,no,768,legacy,20,79,C:/Users/Melissa/OneDrive/Desktop/ADVANCED QUANT/MM-subject-4.csv,legacy,Lentiform Loewenfeld,3.3.12,0,s,NA,caps lock,h,NA,s,385,NA,10058,8933,NA,385,2,legacy,1024,2,48000,-16,experiment,SSSSS,4,even,11895,156368,NA,167554,157232,NA,189724,188660,1835,147434,NA,189829,190216,189721,1831,189828,Flanker Task,91,46218,101,yes,1024
90.19607843,90.19607843,456.6960784,456.6960784,black,legacy,legacy,legacy,0,Congruent,uniform,1,undefined,1,h,0,0,0,101,101,0,101,101,0,0,0,101,101,101,0,101,Tue Sep 13 19:11:31 2022,600,The main experiment item,yes,Lab 2.1 FlankerTask.osexp,C:\Users\Melissa\OneDrive\Desktop\ADVANCED QUANT,no,mono,no,18,no,white,no,no,768,legacy,21,79,C:/Users/Melissa/OneDrive/Desktop/ADVANCED QUANT/MM-subject-4.csv,legacy,Lentiform Loewenfeld,3.3.12,0,h,NA,caps lock,h,NA,h,365,NA,10058,8933,NA,365,2,legacy,1024,2,48000,-16,experiment,HHHHH,4,even,11895,156368,NA,167554,157232,NA,191295,190220,1835,147434,NA,191398,191764,191293,1831,191398,Flanker Task,92,46583,102,yes,1024
89.32038835,89.32038835,455.2524272,455.2524272,black,legacy,legacy,legacy,0,Incongruent,uniform,0,undefined,0,h,0,0,0,102,102,0,102,102,0,0,0,102,102,102,0,102,Tue Sep 13 19:11:31 2022,600,The main experiment item,yes,Lab 2.1 FlankerTask.osexp,C:\Users\Melissa\OneDrive\Desktop\ADVANCED QUANT,no,mono,no,18,no,white,no,no,768,legacy,22,79,C:/Users/Melissa/OneDrive/Desktop/ADVANCED QUANT/MM-subject-4.csv,legacy,Lentiform Loewenfeld,3.3.12,0,s,NA,caps lock,h,NA,s,308,NA,10058,8933,NA,308,2,legacy,1024,2,48000,-16,experiment,SSHSS,4,even,11895,156368,NA,167554,157232,NA,192830,191767,1835,147434,NA,192935,193244,192828,1831,192935,Flanker Task,92,46891,103,yes,1024
89.42307692,89.42307692,456.25,456.25,black,legacy,legacy,legacy,0,Incongruent,uniform,1,undefined,1,h,0,0,0,103,103,0,103,103,0,0,0,103,103,103,0,103,Tue Sep 13 19:11:31 2022,600,The main experiment item,yes,Lab 2.1 FlankerTask.osexp,C:\Users\Melissa\OneDrive\Desktop\ADVANCED QUANT,no,mono,no,18,no,white,no,no,768,legacy,23,79,C:/Users/Melissa/OneDrive/Desktop/ADVANCED QUANT/MM-subject-4.csv,legacy,Lentiform Loewenfeld,3.3.12,0,h,NA,caps lock,h,NA,h,559,NA,10058,8933,NA,559,2,legacy,1024,2,48000,-16,experiment,SSHSS,4,even,11895,156368,NA,193247,157232,NA,194810,193749,1835,147434,NA,194914,195474,194808,1831,194914,Flanker Task,93,47450,104,yes,1024
89.52380952,89.52380952,455.5904762,455.5904762,black,legacy,legacy,legacy,0,Congruent,uniform,1,undefined,1,s,0,0,0,104,104,0,104,104,0,0,0,104,104,104,0,104,Tue Sep 13 19:11:31 2022,600,The main experiment item,yes,Lab 2.1 FlankerTask.osexp,C:\Users\Melissa\OneDrive\Desktop\ADVANCED QUANT,no,mono,no,18,no,white,no,no,768,legacy,24,79,C:/Users/Melissa/OneDrive/Desktop/ADVANCED QUANT/MM-subject-4.csv,legacy,Lentiform Loewenfeld,3.3.12,0,s,NA,caps lock,h,NA,s,387,NA,10058,8933,NA,387,2,legacy,1024,2,48000,-16,experiment,SSSSS,4,even,11895,156368,NA,193247,157232,NA,196540,195478,1835,147434,NA,196645,197033,196538,1831,196644,Flanker Task,94,47837,105,yes,1024
89.62264151,89.62264151,456.1415094,456.1415094,black,legacy,legacy,legacy,0,Congruent,uniform,1,undefined,1,s,0,0,0,105,105,0,105,105,0,0,0,105,105,105,0,105,Tue Sep 13 19:11:31 2022,600,The main experiment item,yes,Lab 2.1 FlankerTask.osexp,C:\Users\Melissa\OneDrive\Desktop\ADVANCED QUANT,no,mono,no,18,no,white,no,no,768,legacy,25,79,C:/Users/Melissa/OneDrive/Desktop/ADVANCED QUANT/MM-subject-4.csv,legacy,Lentiform Loewenfeld,3.3.12,0,s,NA,caps lock,h,NA,s,514,NA,10058,8933,NA,514,2,legacy,1024,2,48000,-16,experiment,SSSSS,4,even,11895,156368,NA,193247,157232,NA,198097,197036,1835,147434,NA,198200,198715,198096,1831,198200,Flanker Task,95,48351,106,yes,1024
88.78504673,88.78504673,454.6915888,454.6915888,black,legacy,legacy,legacy,0,Incongruent,uniform,0,undefined,0,h,0,0,0,106,106,0,106,106,0,0,0,106,106,106,0,106,Tue Sep 13 19:11:31 2022,600,The main experiment item,yes,Lab 2.1 FlankerTask.osexp,C:\Users\Melissa\OneDrive\Desktop\ADVANCED QUANT,no,mono,no,18,no,white,no,no,768,legacy,26,79,C:/Users/Melissa/OneDrive/Desktop/ADVANCED QUANT/MM-subject-4.csv,legacy,Lentiform Loewenfeld,3.3.12,0,s,NA,caps lock,h,NA,s,301,NA,10058,8933,NA,301,2,legacy,1024,2,48000,-16,experiment,SSHSS,4,even,11895,156368,NA,193247,157232,NA,199783,198718,1835,147434,NA,199884,200186,199780,1831,199884,Flanker Task,95,48652,107,yes,1024
88.88888889,88.88888889,455.1388889,455.1388889,black,legacy,legacy,legacy,0,Incongruent,uniform,1,undefined,1,h,0,0,0,107,107,0,107,107,0,0,0,107,107,107,0,107,Tue Sep 13 19:11:31 2022,600,The main experiment item,yes,Lab 2.1 FlankerTask.osexp,C:\Users\Melissa\OneDrive\Desktop\ADVANCED QUANT,no,mono,no,18,no,white,no,no,768,legacy,27,79,C:/Users/Melissa/OneDrive/Desktop/ADVANCED QUANT/MM-subject-4.csv,legacy,Lentiform Loewenfeld,3.3.12,0,h,NA,caps lock,h,NA,h,503,NA,10058,8933,NA,503,2,legacy,1024,2,48000,-16,experiment,SSHSS,4,even,11895,156368,NA,200189,157232,NA,201766,200690,1835,147434,NA,201872,202376,201764,1831,201871,Flanker Task,96,49155,108,yes,1024
88.99082569,88.99082569,454.5779817,454.5779817,black,legacy,legacy,legacy,0,Congruent,uniform,1,undefined,1,s,0,0,0,108,108,0,108,108,0,0,0,108,108,108,0,108,Tue Sep 13 19:11:31 2022,600,The main experiment item,yes,Lab 2.1 FlankerTask.osexp,C:\Users\Melissa\OneDrive\Desktop\ADVANCED QUANT,no,mono,no,18,no,white,no,no,768,legacy,28,79,C:/Users/Melissa/OneDrive/Desktop/ADVANCED QUANT/MM-subject-4.csv,legacy,Lentiform Loewenfeld,3.3.12,0,s,NA,caps lock,h,NA,s,394,NA,10058,8933,NA,394,2,legacy,1024,2,48000,-16,experiment,SSSSS,4,even,11895,156368,NA,200189,157232,NA,203458,202380,1835,147434,NA,203560,203956,203455,1831,203559,Flanker Task,97,49549,109,yes,1024
89.09090909,89.09090909,454.6090909,454.6090909,black,legacy,legacy,legacy,0,Incongruent,uniform,1,undefined,1,h,0,0,0,109,109,0,109,109,0,0,0,109,109,109,0,109,Tue Sep 13 19:11:31 2022,600,The main experiment item,yes,Lab 2.1 FlankerTask.osexp,C:\Users\Melissa\OneDrive\Desktop\ADVANCED QUANT,no,mono,no,18,no,white,no,no,768,legacy,29,79,C:/Users/Melissa/OneDrive/Desktop/ADVANCED QUANT/MM-subject-4.csv,legacy,Lentiform Loewenfeld,3.3.12,0,h,NA,caps lock,h,NA,h,458,NA,10058,8933,NA,458,2,legacy,1024,2,48000,-16,experiment,SSHSS,4,even,11895,156368,NA,200189,157232,NA,205020,203959,1835,147434,NA,205125,205584,205018,1831,205125,Flanker Task,98,50007,110,yes,1024
89.18918919,89.18918919,454.3783784,454.3783784,black,legacy,legacy,legacy,0,Incongruent,uniform,1,undefined,1,h,0,0,0,110,110,0,110,110,0,0,0,110,110,110,0,110,Tue Sep 13 19:11:31 2022,600,The main experiment item,yes,Lab 2.1 FlankerTask.osexp,C:\Users\Melissa\OneDrive\Desktop\ADVANCED QUANT,no,mono,no,18,no,white,no,no,768,legacy,30,79,C:/Users/Melissa/OneDrive/Desktop/ADVANCED QUANT/MM-subject-4.csv,legacy,Lentiform Loewenfeld,3.3.12,0,h,NA,caps lock,h,NA,h,429,NA,10058,8933,NA,429,2,legacy,1024,2,48000,-16,experiment,SSHSS,4,even,11895,156368,NA,200189,157232,NA,206657,205587,1835,147434,NA,206758,207188,206654,1831,206758,Flanker Task,99,50436,111,yes,1024
89.28571429,89.28571429,455.2142857,455.2142857,black,legacy,legacy,legacy,0,Incongruent,uniform,1,undefined,1,h,0,0,0,111,111,0,111,111,0,0,0,111,111,111,0,111,Tue Sep 13 19:11:31 2022,600,The main experiment item,yes,Lab 2.1 FlankerTask.osexp,C:\Users\Melissa\OneDrive\Desktop\ADVANCED QUANT,no,mono,no,18,no,white,no,no,768,legacy,31,79,C:/Users/Melissa/OneDrive/Desktop/ADVANCED QUANT/MM-subject-4.csv,legacy,Lentiform Loewenfeld,3.3.12,0,h,NA,caps lock,h,NA,h,548,NA,10058,8933,NA,548,2,legacy,1024,2,48000,-16,experiment,SSHSS,4,even,11895,156368,NA,200189,157232,NA,208268,207191,1835,147434,NA,208372,208921,208266,1831,208372,Flanker Task,100,50984,112,yes,1024
88.49557522,88.49557522,455.0530973,455.0530973,black,legacy,legacy,legacy,0,Incongruent,uniform,0,undefined,0,s,0,0,0,112,112,0,112,112,0,0,0,112,112,112,0,112,Tue Sep 13 19:11:31 2022,600,The main experiment item,yes,Lab 2.1 FlankerTask.osexp,C:\Users\Melissa\OneDrive\Desktop\ADVANCED QUANT,no,mono,no,18,no,white,no,no,768,legacy,32,79,C:/Users/Melissa/OneDrive/Desktop/ADVANCED QUANT/MM-subject-4.csv,legacy,Lentiform Loewenfeld,3.3.12,0,h,NA,caps lock,h,NA,h,437,NA,10058,8933,NA,437,2,legacy,1024,2,48000,-16,experiment,HHSHH,4,even,11895,156368,NA,200189,157232,NA,209988,208925,1835,147434,NA,210094,210532,209986,1831,210094,Flanker Task,100,51421,113,yes,1024
88.59649123,88.59649123,454.9298246,454.9298246,black,legacy,legacy,legacy,0,Congruent,uniform,1,undefined,1,h,0,0,0,113,113,0,113,113,0,0,0,113,113,113,0,113,Tue Sep 13 19:11:31 2022,600,The main experiment item,yes,Lab 2.1 FlankerTask.osexp,C:\Users\Melissa\OneDrive\Desktop\ADVANCED QUANT,no,mono,no,18,no,white,no,no,768,legacy,33,79,C:/Users/Melissa/OneDrive/Desktop/ADVANCED QUANT/MM-subject-4.csv,legacy,Lentiform Loewenfeld,3.3.12,0,h,NA,caps lock,h,NA,h,441,NA,10058,8933,NA,441,2,legacy,1024,2,48000,-16,experiment,HHHHH,4,even,11895,156368,NA,210536,157232,NA,212099,211037,1835,147434,NA,212204,212646,212097,1831,212204,Flanker Task,101,51862,114,yes,1024
88.69565217,88.69565217,455.026087,455.026087,black,legacy,legacy,legacy,0,Congruent,uniform,1,undefined,1,h,0,0,0,114,114,0,114,114,0,0,0,114,114,114,0,114,Tue Sep 13 19:11:31 2022,600,The main experiment item,yes,Lab 2.1 FlankerTask.osexp,C:\Users\Melissa\OneDrive\Desktop\ADVANCED QUANT,no,mono,no,18,no,white,no,no,768,legacy,34,79,C:/Users/Melissa/OneDrive/Desktop/ADVANCED QUANT/MM-subject-4.csv,legacy,Lentiform Loewenfeld,3.3.12,0,h,NA,caps lock,h,NA,h,466,NA,10058,8933,NA,466,2,legacy,1024,2,48000,-16,experiment,HHHHH,4,even,11895,156368,NA,210536,157232,NA,213713,212650,1835,147434,NA,213818,214285,213711,1831,213818,Flanker Task,102,52328,115,yes,1024
88.79310345,88.79310345,454.7241379,454.7241379,black,legacy,legacy,legacy,0,Congruent,uniform,1,undefined,1,h,0,0,0,115,115,0,115,115,0,0,0,115,115,115,0,115,Tue Sep 13 19:11:31 2022,600,The main experiment item,yes,Lab 2.1 FlankerTask.osexp,C:\Users\Melissa\OneDrive\Desktop\ADVANCED QUANT,no,mono,no,18,no,white,no,no,768,legacy,35,79,C:/Users/Melissa/OneDrive/Desktop/ADVANCED QUANT/MM-subject-4.csv,legacy,Lentiform Loewenfeld,3.3.12,0,h,NA,caps lock,h,NA,h,420,NA,10058,8933,NA,420,2,legacy,1024,2,48000,-16,experiment,HHHHH,4,even,11895,156368,NA,210536,157232,NA,215352,214289,1835,147434,NA,215454,215875,215349,1831,215454,Flanker Task,103,52748,116,yes,1024
88.88888889,88.88888889,455.3675214,455.3675214,black,legacy,legacy,legacy,0,Congruent,uniform,1,undefined,1,s,0,0,0,116,116,0,116,116,0,0,0,116,116,116,0,116,Tue Sep 13 19:11:31 2022,600,The main experiment item,yes,Lab 2.1 FlankerTask.osexp,C:\Users\Melissa\OneDrive\Desktop\ADVANCED QUANT,no,mono,no,18,no,white,no,no,768,legacy,36,79,C:/Users/Melissa/OneDrive/Desktop/ADVANCED QUANT/MM-subject-4.csv,legacy,Lentiform Loewenfeld,3.3.12,0,s,NA,caps lock,h,NA,s,530,NA,10058,8933,NA,530,2,legacy,1024,2,48000,-16,experiment,SSSSS,4,even,11895,156368,NA,210536,157232,NA,216953,215879,1835,147434,NA,217056,217587,216951,1831,217056,Flanker Task,104,53278,117,yes,1024
88.98305085,88.98305085,454.9491525,454.9491525,black,legacy,legacy,legacy,0,Congruent,uniform,1,undefined,1,s,0,0,0,117,117,0,117,117,0,0,0,117,117,117,0,117,Tue Sep 13 19:11:31 2022,600,The main experiment item,yes,Lab 2.1 FlankerTask.osexp,C:\Users\Melissa\OneDrive\Desktop\ADVANCED QUANT,no,mono,no,18,no,white,no,no,768,legacy,37,79,C:/Users/Melissa/OneDrive/Desktop/ADVANCED QUANT/MM-subject-4.csv,legacy,Lentiform Loewenfeld,3.3.12,0,s,NA,caps lock,h,NA,s,406,NA,10058,8933,NA,406,2,legacy,1024,2,48000,-16,experiment,SSSSS,4,even,11895,156368,NA,210536,157232,NA,218652,217592,1835,147434,NA,218759,219166,218651,1831,218759,Flanker Task,105,53684,118,yes,1024
89.07563025,89.07563025,454.4201681,454.4201681,black,legacy,legacy,legacy,0,Congruent,uniform,1,undefined,1,h,0,0,0,118,118,0,118,118,0,0,0,118,118,118,0,118,Tue Sep 13 19:11:31 2022,600,The main experiment item,yes,Lab 2.1 FlankerTask.osexp,C:\Users\Melissa\OneDrive\Desktop\ADVANCED QUANT,no,mono,no,18,no,white,no,no,768,legacy,38,79,C:/Users/Melissa/OneDrive/Desktop/ADVANCED QUANT/MM-subject-4.csv,legacy,Lentiform Loewenfeld,3.3.12,0,h,NA,caps lock,h,NA,h,392,NA,10058,8933,NA,392,2,legacy,1024,2,48000,-16,experiment,HHHHH,4,even,11895,156368,NA,210536,157232,NA,220233,219170,1835,147434,NA,220337,220731,220230,1831,220337,Flanker Task,106,54076,119,yes,1024
89.16666667,89.16666667,455.0833333,455.0833333,black,legacy,legacy,legacy,0,Incongruent,uniform,1,undefined,1,s,0,0,0,119,119,0,119,119,0,0,0,119,119,119,0,119,Tue Sep 13 19:11:31 2022,600,The main experiment item,yes,Lab 2.1 FlankerTask.osexp,C:\Users\Melissa\OneDrive\Desktop\ADVANCED QUANT,no,mono,no,18,no,white,no,no,768,legacy,39,79,C:/Users/Melissa/OneDrive/Desktop/ADVANCED QUANT/MM-subject-4.csv,legacy,Lentiform Loewenfeld,3.3.12,0,s,NA,caps lock,h,NA,s,534,NA,10058,8933,NA,534,2,legacy,1024,2,48000,-16,experiment,HHSHH,4,even,11895,156368,NA,210536,157232,NA,221795,220734,1835,147434,NA,221898,222433,221793,1831,221898,Flanker Task,107,54610,120,yes,1024
89.25619835,89.25619835,455.661157,455.661157,black,legacy,legacy,legacy,0,Incongruent,uniform,1,undefined,1,s,0,0,0,120,120,0,120,120,0,0,0,120,120,120,0,120,Tue Sep 13 19:11:31 2022,600,The main experiment item,yes,Lab 2.1 FlankerTask.osexp,C:\Users\Melissa\OneDrive\Desktop\ADVANCED QUANT,no,mono,no,18,no,white,no,no,768,legacy,40,79,C:/Users/Melissa/OneDrive/Desktop/ADVANCED QUANT/MM-subject-4.csv,legacy,Lentiform Loewenfeld,3.3.12,0,s,NA,caps lock,h,NA,s,525,NA,10058,8933,NA,525,2,legacy,1024,2,48000,-16,experiment,HHSHH,4,even,11895,156368,NA,210536,157232,NA,223500,222437,1835,147434,NA,223605,224131,223498,1831,223605,Flanker Task,108,55135,121,yes,1024
89.3442623,89.3442623,455.795082,455.795082,black,legacy,legacy,legacy,0,Incongruent,uniform,1,undefined,1,h,0,0,0,121,121,0,121,121,0,0,0,121,121,121,0,121,Tue Sep 13 19:11:31 2022,600,The main experiment item,yes,Lab 2.1 FlankerTask.osexp,C:\Users\Melissa\OneDrive\Desktop\ADVANCED QUANT,no,mono,no,18,no,white,no,no,768,legacy,41,79,C:/Users/Melissa/OneDrive/Desktop/ADVANCED QUANT/MM-subject-4.csv,legacy,Lentiform Loewenfeld,3.3.12,0,h,NA,caps lock,h,NA,h,472,NA,10058,8933,NA,472,2,legacy,1024,2,48000,-16,experiment,SSHSS,4,even,11895,156368,NA,210536,157232,NA,225196,224134,1835,147434,NA,225301,225774,225194,1831,225300,Flanker Task,109,55607,122,yes,1024
89.43089431,89.43089431,455.9918699,455.9918699,black,legacy,legacy,legacy,0,Congruent,uniform,1,undefined,1,h,0,0,0,122,122,0,122,122,0,0,0,122,122,122,0,122,Tue Sep 13 19:11:31 2022,600,The main experiment item,yes,Lab 2.1 FlankerTask.osexp,C:\Users\Melissa\OneDrive\Desktop\ADVANCED QUANT,no,mono,no,18,no,white,no,no,768,legacy,42,79,C:/Users/Melissa/OneDrive/Desktop/ADVANCED QUANT/MM-subject-4.csv,legacy,Lentiform Loewenfeld,3.3.12,0,h,NA,caps lock,h,NA,h,480,NA,10058,8933,NA,480,2,legacy,1024,2,48000,-16,experiment,HHHHH,4,even,11895,156368,NA,210536,157232,NA,226854,225778,1835,147434,NA,226955,227437,226852,1831,226955,Flanker Task,110,56087,123,yes,1024
89.51612903,89.51612903,457.016129,457.016129,black,legacy,legacy,legacy,0,Incongruent,uniform,1,undefined,1,s,0,0,0,123,123,0,123,123,0,0,0,123,123,123,0,123,Tue Sep 13 19:11:31 2022,600,The main experiment item,yes,Lab 2.1 FlankerTask.osexp,C:\Users\Melissa\OneDrive\Desktop\ADVANCED QUANT,no,mono,no,18,no,white,no,no,768,legacy,43,79,C:/Users/Melissa/OneDrive/Desktop/ADVANCED QUANT/MM-subject-4.csv,legacy,Lentiform Loewenfeld,3.3.12,0,s,NA,caps lock,h,NA,s,583,NA,10058,8933,NA,583,2,legacy,1024,2,48000,-16,experiment,HHSHH,4,even,11895,156368,NA,210536,157232,NA,228503,227441,1835,147434,NA,228609,229194,228502,1831,228609,Flanker Task,111,56670,124,yes,1024
89.6,89.6,456.896,456.896,black,legacy,legacy,legacy,0,Congruent,uniform,1,undefined,1,s,0,0,0,124,124,0,124,124,0,0,0,124,124,124,0,124,Tue Sep 13 19:11:31 2022,600,The main experiment item,yes,Lab 2.1 FlankerTask.osexp,C:\Users\Melissa\OneDrive\Desktop\ADVANCED QUANT,no,mono,no,18,no,white,no,no,768,legacy,44,79,C:/Users/Melissa/OneDrive/Desktop/ADVANCED QUANT/MM-subject-4.csv,legacy,Lentiform Loewenfeld,3.3.12,0,s,NA,caps lock,h,NA,s,442,NA,10058,8933,NA,442,2,legacy,1024,2,48000,-16,experiment,SSSSS,4,even,11895,156368,NA,210536,157232,NA,230277,229197,1835,147434,NA,230382,230825,230275,1831,230382,Flanker Task,112,57112,125,yes,1024
89.68253968,89.68253968,456.3333333,456.3333333,black,legacy,legacy,legacy,0,Congruent,uniform,1,undefined,1,s,0,0,0,125,125,0,125,125,0,0,0,125,125,125,0,125,Tue Sep 13 19:11:31 2022,600,The main experiment item,yes,Lab 2.1 FlankerTask.osexp,C:\Users\Melissa\OneDrive\Desktop\ADVANCED QUANT,no,mono,no,18,no,white,no,no,768,legacy,45,79,C:/Users/Melissa/OneDrive/Desktop/ADVANCED QUANT/MM-subject-4.csv,legacy,Lentiform Loewenfeld,3.3.12,0,s,NA,caps lock,h,NA,s,386,NA,10058,8933,NA,386,2,legacy,1024,2,48000,-16,experiment,SSSSS,4,even,11895,156368,NA,210536,157232,NA,231890,230828,1835,147434,NA,231995,232382,231888,1831,231995,Flanker Task,113,57498,126,yes,1024
89.76377953,89.76377953,456.3307087,456.3307087,black,legacy,legacy,legacy,0,Congruent,uniform,1,undefined,1,h,0,0,0,126,126,0,126,126,0,0,0,126,126,126,0,126,Tue Sep 13 19:11:31 2022,600,The main experiment item,yes,Lab 2.1 FlankerTask.osexp,C:\Users\Melissa\OneDrive\Desktop\ADVANCED QUANT,no,mono,no,18,no,white,no,no,768,legacy,46,79,C:/Users/Melissa/OneDrive/Desktop/ADVANCED QUANT/MM-subject-4.csv,legacy,Lentiform Loewenfeld,3.3.12,0,h,NA,caps lock,h,NA,h,456,NA,10058,8933,NA,456,2,legacy,1024,2,48000,-16,experiment,HHHHH,4,even,11895,156368,NA,210536,157232,NA,233451,232386,1835,147434,NA,233552,234009,233449,1831,233552,Flanker Task,114,57954,127,yes,1024
89.84375,89.84375,456.6171875,456.6171875,black,legacy,legacy,legacy,0,Incongruent,uniform,1,undefined,1,s,0,0,0,127,127,0,127,127,0,0,0,127,127,127,0,127,Tue Sep 13 19:11:31 2022,600,The main experiment item,yes,Lab 2.1 FlankerTask.osexp,C:\Users\Melissa\OneDrive\Desktop\ADVANCED QUANT,no,mono,no,18,no,white,no,no,768,legacy,47,79,C:/Users/Melissa/OneDrive/Desktop/ADVANCED QUANT/MM-subject-4.csv,legacy,Lentiform Loewenfeld,3.3.12,0,s,NA,caps lock,h,NA,s,493,NA,10058,8933,NA,493,2,legacy,1024,2,48000,-16,experiment,HHSHH,4,even,11895,156368,NA,210536,157232,NA,235080,234013,1835,147434,NA,235184,235678,235072,1831,235183,Flanker Task,115,58447,128,yes,1024
89.14728682,89.14728682,456.1162791,456.1162791,black,legacy,legacy,legacy,0,Incongruent,uniform,0,undefined,0,s,0,0,0,128,128,0,128,128,0,0,0,128,128,128,0,128,Tue Sep 13 19:11:31 2022,600,The main experiment item,yes,Lab 2.1 FlankerTask.osexp,C:\Users\Melissa\OneDrive\Desktop\ADVANCED QUANT,no,mono,no,18,no,white,no,no,768,legacy,48,79,C:/Users/Melissa/OneDrive/Desktop/ADVANCED QUANT/MM-subject-4.csv,legacy,Lentiform Loewenfeld,3.3.12,0,h,NA,caps lock,h,NA,h,392,NA,10058,8933,NA,392,2,legacy,1024,2,48000,-16,experiment,HHSHH,4,even,11895,156368,NA,210536,157232,NA,236758,235682,1835,147434,NA,236862,237255,236756,1831,236862,Flanker Task,115,58839,129,yes,1024
89.23076923,89.23076923,456.9307692,456.9307692,black,legacy,legacy,legacy,0,Incongruent,uniform,1,undefined,1,h,0,0,0,129,129,0,129,129,0,0,0,129,129,129,0,129,Tue Sep 13 19:11:31 2022,600,The main experiment item,yes,Lab 2.1 FlankerTask.osexp,C:\Users\Melissa\OneDrive\Desktop\ADVANCED QUANT,no,mono,no,18,no,white,no,no,768,legacy,49,79,C:/Users/Melissa/OneDrive/Desktop/ADVANCED QUANT/MM-subject-4.csv,legacy,Lentiform Loewenfeld,3.3.12,0,h,NA,caps lock,h,NA,h,562,NA,10058,8933,NA,562,2,legacy,1024,2,48000,-16,experiment,SSHSS,4,even,11895,156368,NA,237259,157232,NA,238837,237760,1835,147434,NA,238942,239505,238836,1831,238942,Flanker Task,116,59401,130,yes,1024
89.3129771,89.3129771,456.5114504,456.5114504,black,legacy,legacy,legacy,0,Incongruent,uniform,1,undefined,1,s,0,0,0,130,130,0,130,130,0,0,0,130,130,130,0,130,Tue Sep 13 19:11:31 2022,600,The main experiment item,yes,Lab 2.1 FlankerTask.osexp,C:\Users\Melissa\OneDrive\Desktop\ADVANCED QUANT,no,mono,no,18,no,white,no,no,768,legacy,50,79,C:/Users/Melissa/OneDrive/Desktop/ADVANCED QUANT/MM-subject-4.csv,legacy,Lentiform Loewenfeld,3.3.12,0,s,NA,caps lock,h,NA,s,402,NA,10058,8933,NA,402,2,legacy,1024,2,48000,-16,experiment,HHSHH,4,even,11895,156368,NA,237259,157232,NA,240584,239507,1835,147434,NA,240687,241091,240582,1831,240687,Flanker Task,117,59803,131,yes,1024
89.39393939,89.39393939,457.5681818,457.5681818,black,legacy,legacy,legacy,0,Incongruent,uniform,1,undefined,1,h,0,0,0,131,131,0,131,131,0,0,0,131,131,131,0,131,Tue Sep 13 19:11:31 2022,600,The main experiment item,yes,Lab 2.1 FlankerTask.osexp,C:\Users\Melissa\OneDrive\Desktop\ADVANCED QUANT,no,mono,no,18,no,white,no,no,768,legacy,51,79,C:/Users/Melissa/OneDrive/Desktop/ADVANCED QUANT/MM-subject-4.csv,legacy,Lentiform Loewenfeld,3.3.12,0,h,NA,caps lock,h,NA,h,596,NA,10058,8933,NA,596,2,legacy,1024,2,48000,-16,experiment,SSHSS,4,even,11895,156368,NA,237259,157232,NA,242155,241094,1835,147434,NA,242256,242853,242154,1831,242256,Flanker Task,118,60399,132,yes,1024
89.47368421,89.47368421,457.0601504,457.0601504,black,legacy,legacy,legacy,0,Congruent,uniform,1,undefined,1,s,0,0,0,132,132,0,132,132,0,0,0,132,132,132,0,132,Tue Sep 13 19:11:31 2022,600,The main experiment item,yes,Lab 2.1 FlankerTask.osexp,C:\Users\Melissa\OneDrive\Desktop\ADVANCED QUANT,no,mono,no,18,no,white,no,no,768,legacy,52,79,C:/Users/Melissa/OneDrive/Desktop/ADVANCED QUANT/MM-subject-4.csv,legacy,Lentiform Loewenfeld,3.3.12,0,s,NA,caps lock,h,NA,s,390,NA,10058,8933,NA,390,2,legacy,1024,2,48000,-16,experiment,SSSSS,4,even,11895,156368,NA,237259,157232,NA,243945,242857,1835,147434,NA,244047,244438,243942,1831,244047,Flanker Task,119,60789,133,yes,1024
89.55223881,89.55223881,456.641791,456.641791,black,legacy,legacy,legacy,0,Congruent,uniform,1,undefined,1,h,0,0,0,133,133,0,133,133,0,0,0,133,133,133,0,133,Tue Sep 13 19:11:31 2022,600,The main experiment item,yes,Lab 2.1 FlankerTask.osexp,C:\Users\Melissa\OneDrive\Desktop\ADVANCED QUANT,no,mono,no,18,no,white,no,no,768,legacy,53,79,C:/Users/Melissa/OneDrive/Desktop/ADVANCED QUANT/MM-subject-4.csv,legacy,Lentiform Loewenfeld,3.3.12,0,h,NA,caps lock,h,NA,h,401,NA,10058,8933,NA,401,2,legacy,1024,2,48000,-16,experiment,HHHHH,4,even,11895,156368,NA,237259,157232,NA,245507,244442,1835,147434,NA,245609,246011,245505,1831,245608,Flanker Task,120,61190,134,yes,1024
89.62962963,89.62962963,456.5555556,456.5555556,black,legacy,legacy,legacy,0,Congruent,uniform,1,undefined,1,h,0,0,0,134,134,0,134,134,0,0,0,134,134,134,0,134,Tue Sep 13 19:11:31 2022,600,The main experiment item,yes,Lab 2.1 FlankerTask.osexp,C:\Users\Melissa\OneDrive\Desktop\ADVANCED QUANT,no,mono,no,18,no,white,no,no,768,legacy,54,79,C:/Users/Melissa/OneDrive/Desktop/ADVANCED QUANT/MM-subject-4.csv,legacy,Lentiform Loewenfeld,3.3.12,0,h,NA,caps lock,h,NA,h,445,NA,10058,8933,NA,445,2,legacy,1024,2,48000,-16,experiment,HHHHH,4,even,11895,156368,NA,237259,157232,NA,247098,246016,1835,147434,NA,247204,247651,247096,1831,247204,Flanker Task,121,61635,135,yes,1024
89.70588235,89.70588235,456.5588235,456.5588235,black,legacy,legacy,legacy,0,Incongruent,uniform,1,undefined,1,s,0,0,0,135,135,0,135,135,0,0,0,135,135,135,0,135,Tue Sep 13 19:11:31 2022,600,The main experiment item,yes,Lab 2.1 FlankerTask.osexp,C:\Users\Melissa\OneDrive\Desktop\ADVANCED QUANT,no,mono,no,18,no,white,no,no,768,legacy,55,79,C:/Users/Melissa/OneDrive/Desktop/ADVANCED QUANT/MM-subject-4.csv,legacy,Lentiform Loewenfeld,3.3.12,0,s,NA,caps lock,h,NA,s,457,NA,10058,8933,NA,457,2,legacy,1024,2,48000,-16,experiment,HHSHH,4,even,11895,156368,NA,237259,157232,NA,248715,247653,1835,147434,NA,248818,249277,248713,1831,248818,Flanker Task,122,62092,136,yes,1024
89.7810219,89.7810219,456.3138686,456.3138686,black,legacy,legacy,legacy,0,Congruent,uniform,1,undefined,1,s,0,0,0,136,136,0,136,136,0,0,0,136,136,136,0,136,Tue Sep 13 19:11:31 2022,600,The main experiment item,yes,Lab 2.1 FlankerTask.osexp,C:\Users\Melissa\OneDrive\Desktop\ADVANCED QUANT,no,mono,no,18,no,white,no,no,768,legacy,56,79,C:/Users/Melissa/OneDrive/Desktop/ADVANCED QUANT/MM-subject-4.csv,legacy,Lentiform Loewenfeld,3.3.12,0,s,NA,caps lock,h,NA,s,423,NA,10058,8933,NA,423,2,legacy,1024,2,48000,-16,experiment,SSSSS,4,even,11895,156368,NA,237259,157232,NA,250363,249281,1835,147434,NA,250464,250888,250360,1831,250464,Flanker Task,123,62515,137,yes,1024
89.85507246,89.85507246,455.9492754,455.9492754,black,legacy,legacy,legacy,0,Congruent,uniform,1,undefined,1,s,0,0,0,137,137,0,137,137,0,0,0,137,137,137,0,137,Tue Sep 13 19:11:31 2022,600,The main experiment item,yes,Lab 2.1 FlankerTask.osexp,C:\Users\Melissa\OneDrive\Desktop\ADVANCED QUANT,no,mono,no,18,no,white,no,no,768,legacy,57,79,C:/Users/Melissa/OneDrive/Desktop/ADVANCED QUANT/MM-subject-4.csv,legacy,Lentiform Loewenfeld,3.3.12,0,s,NA,caps lock,h,NA,s,406,NA,10058,8933,NA,406,2,legacy,1024,2,48000,-16,experiment,SSSSS,4,even,11895,156368,NA,237259,157232,NA,251965,250892,1835,147434,NA,252070,252477,251963,1831,252070,Flanker Task,124,62921,138,yes,1024
89.92805755,89.92805755,455.6258993,455.6258993,black,legacy,legacy,legacy,0,Congruent,uniform,1,undefined,1,s,0,0,0,138,138,0,138,138,0,0,0,138,138,138,0,138,Tue Sep 13 19:11:31 2022,600,The main experiment item,yes,Lab 2.1 FlankerTask.osexp,C:\Users\Melissa\OneDrive\Desktop\ADVANCED QUANT,no,mono,no,18,no,white,no,no,768,legacy,58,79,C:/Users/Melissa/OneDrive/Desktop/ADVANCED QUANT/MM-subject-4.csv,legacy,Lentiform Loewenfeld,3.3.12,0,s,NA,caps lock,h,NA,s,411,NA,10058,8933,NA,411,2,legacy,1024,2,48000,-16,experiment,SSSSS,4,even,11895,156368,NA,237259,157232,NA,253541,252481,1835,147434,NA,253642,254054,253539,1831,253642,Flanker Task,125,63332,139,yes,1024
90,90,455.25,455.25,black,legacy,legacy,legacy,0,Congruent,uniform,1,undefined,1,h,0,0,0,139,139,0,139,139,0,0,0,139,139,139,0,139,Tue Sep 13 19:11:31 2022,600,The main experiment item,yes,Lab 2.1 FlankerTask.osexp,C:\Users\Melissa\OneDrive\Desktop\ADVANCED QUANT,no,mono,no,18,no,white,no,no,768,legacy,59,79,C:/Users/Melissa/OneDrive/Desktop/ADVANCED QUANT/MM-subject-4.csv,legacy,Lentiform Loewenfeld,3.3.12,0,h,NA,caps lock,h,NA,h,403,NA,10058,8933,NA,403,2,legacy,1024,2,48000,-16,experiment,HHHHH,4,even,11895,156368,NA,237259,157232,NA,255120,254058,1835,147434,NA,255225,255629,255118,1831,255225,Flanker Task,126,63735,140,yes,1024
90.07092199,90.07092199,455.1914894,455.1914894,black,legacy,legacy,legacy,0,Incongruent,uniform,1,undefined,1,s,0,0,0,140,140,0,140,140,0,0,0,140,140,140,0,140,Tue Sep 13 19:11:31 2022,600,The main experiment item,yes,Lab 2.1 FlankerTask.osexp,C:\Users\Melissa\OneDrive\Desktop\ADVANCED QUANT,no,mono,no,18,no,white,no,no,768,legacy,60,79,C:/Users/Melissa/OneDrive/Desktop/ADVANCED QUANT/MM-subject-4.csv,legacy,Lentiform Loewenfeld,3.3.12,0,s,NA,caps lock,h,NA,s,447,NA,10058,8933,NA,447,2,legacy,1024,2,48000,-16,experiment,HHSHH,4,even,11895,156368,NA,237259,157232,NA,256709,255633,1835,147434,NA,256812,257260,256707,1831,256812,Flanker Task,127,64182,141,yes,1024
90.14084507,90.14084507,454.7746479,454.7746479,black,legacy,legacy,legacy,0,Congruent,uniform,1,undefined,1,h,0,0,0,141,141,0,141,141,0,0,0,141,141,141,0,141,Tue Sep 13 19:11:31 2022,600,The main experiment item,yes,Lab 2.1 FlankerTask.osexp,C:\Users\Melissa\OneDrive\Desktop\ADVANCED QUANT,no,mono,no,18,no,white,no,no,768,legacy,61,79,C:/Users/Melissa/OneDrive/Desktop/ADVANCED QUANT/MM-subject-4.csv,legacy,Lentiform Loewenfeld,3.3.12,0,h,NA,caps lock,h,NA,h,396,NA,10058,8933,NA,396,2,legacy,1024,2,48000,-16,experiment,HHHHH,4,even,11895,156368,NA,237259,157232,NA,258327,257264,1835,147434,NA,258429,258826,258325,1831,258429,Flanker Task,128,64578,142,yes,1024
90.20979021,90.20979021,455.5454545,455.5454545,black,legacy,legacy,legacy,0,Congruent,uniform,1,undefined,1,h,0,0,0,142,142,0,142,142,0,0,0,142,142,142,0,142,Tue Sep 13 19:11:31 2022,600,The main experiment item,yes,Lab 2.1 FlankerTask.osexp,C:\Users\Melissa\OneDrive\Desktop\ADVANCED QUANT,no,mono,no,18,no,white,no,no,768,legacy,62,79,C:/Users/Melissa/OneDrive/Desktop/ADVANCED QUANT/MM-subject-4.csv,legacy,Lentiform Loewenfeld,3.3.12,0,h,NA,caps lock,h,NA,h,565,NA,10058,8933,NA,565,2,legacy,1024,2,48000,-16,experiment,HHHHH,4,even,11895,156368,NA,237259,157232,NA,259894,258832,1835,147434,NA,259998,260564,259892,1831,259998,Flanker Task,129,65143,143,yes,1024
90.27777778,90.27777778,455.4097222,455.4097222,black,legacy,legacy,legacy,0,Incongruent,uniform,1,undefined,1,s,0,0,0,143,143,0,143,143,0,0,0,143,143,143,0,143,Tue Sep 13 19:11:31 2022,600,The main experiment item,yes,Lab 2.1 FlankerTask.osexp,C:\Users\Melissa\OneDrive\Desktop\ADVANCED QUANT,no,mono,no,18,no,white,no,no,768,legacy,63,79,C:/Users/Melissa/OneDrive/Desktop/ADVANCED QUANT/MM-subject-4.csv,legacy,Lentiform Loewenfeld,3.3.12,0,s,NA,caps lock,h,NA,s,436,NA,10058,8933,NA,436,2,legacy,1024,2,48000,-16,experiment,HHSHH,4,even,11895,156368,NA,237259,157232,NA,261645,260568,1835,147434,NA,261751,262188,261643,1831,261751,Flanker Task,130,65579,144,yes,1024
89.65517241,89.65517241,454.5655172,454.5655172,black,legacy,legacy,legacy,0,Incongruent,uniform,0,undefined,0,s,0,0,0,144,144,0,144,144,0,0,0,144,144,144,0,144,Tue Sep 13 19:11:31 2022,600,The main experiment item,yes,Lab 2.1 FlankerTask.osexp,C:\Users\Melissa\OneDrive\Desktop\ADVANCED QUANT,no,mono,no,18,no,white,no,no,768,legacy,64,79,C:/Users/Melissa/OneDrive/Desktop/ADVANCED QUANT/MM-subject-4.csv,legacy,Lentiform Loewenfeld,3.3.12,0,h,NA,caps lock,h,NA,h,333,NA,10058,8933,NA,333,2,legacy,1024,2,48000,-16,experiment,HHSHH,4,even,11895,156368,NA,237259,157232,NA,263254,262192,1835,147434,NA,263360,263695,263252,1831,263360,Flanker Task,130,65912,145,yes,1024
89.7260274,89.7260274,454.5547945,454.5547945,black,legacy,legacy,legacy,0,Congruent,uniform,1,undefined,1,h,0,0,0,145,145,0,145,145,0,0,0,145,145,145,0,145,Tue Sep 13 19:11:31 2022,600,The main experiment item,yes,Lab 2.1 FlankerTask.osexp,C:\Users\Melissa\OneDrive\Desktop\ADVANCED QUANT,no,mono,no,18,no,white,no,no,768,legacy,65,79,C:/Users/Melissa/OneDrive/Desktop/ADVANCED QUANT/MM-subject-4.csv,legacy,Lentiform Loewenfeld,3.3.12,0,h,NA,caps lock,h,NA,h,453,NA,10058,8933,NA,453,2,legacy,1024,2,48000,-16,experiment,HHHHH,4,even,11895,156368,NA,263699,157232,NA,265262,264200,1835,147434,NA,265366,265821,265260,1831,265366,Flanker Task,131,66365,146,yes,1024
89.79591837,89.79591837,454.4353741,454.4353741,black,legacy,legacy,legacy,0,Incongruent,uniform,1,undefined,1,s,0,0,0,146,146,0,146,146,0,0,0,146,146,146,0,146,Tue Sep 13 19:11:31 2022,600,The main experiment item,yes,Lab 2.1 FlankerTask.osexp,C:\Users\Melissa\OneDrive\Desktop\ADVANCED QUANT,no,mono,no,18,no,white,no,no,768,legacy,66,79,C:/Users/Melissa/OneDrive/Desktop/ADVANCED QUANT/MM-subject-4.csv,legacy,Lentiform Loewenfeld,3.3.12,0,s,NA,caps lock,h,NA,s,437,NA,10058,8933,NA,437,2,legacy,1024,2,48000,-16,experiment,HHSHH,4,even,11895,156368,NA,263699,157232,NA,266887,265825,1835,147434,NA,266990,267428,266885,1831,266990,Flanker Task,132,66802,147,yes,1024
89.86486486,89.86486486,454.4256757,454.4256757,black,legacy,legacy,legacy,0,Incongruent,uniform,1,undefined,1,s,0,0,0,147,147,0,147,147,0,0,0,147,147,147,0,147,Tue Sep 13 19:11:31 2022,600,The main experiment item,yes,Lab 2.1 FlankerTask.osexp,C:\Users\Melissa\OneDrive\Desktop\ADVANCED QUANT,no,mono,no,18,no,white,no,no,768,legacy,67,79,C:/Users/Melissa/OneDrive/Desktop/ADVANCED QUANT/MM-subject-4.csv,legacy,Lentiform Loewenfeld,3.3.12,0,s,NA,caps lock,h,NA,s,453,NA,10058,8933,NA,453,2,legacy,1024,2,48000,-16,experiment,HHSHH,4,even,11895,156368,NA,263699,157232,NA,268496,267432,1835,147434,NA,268603,269058,268494,1831,268602,Flanker Task,133,67255,148,yes,1024
89.93288591,89.93288591,454.6308725,454.6308725,black,legacy,legacy,legacy,0,Incongruent,uniform,1,undefined,1,s,0,0,0,148,148,0,148,148,0,0,0,148,148,148,0,148,Tue Sep 13 19:11:31 2022,600,The main experiment item,yes,Lab 2.1 FlankerTask.osexp,C:\Users\Melissa\OneDrive\Desktop\ADVANCED QUANT,no,mono,no,18,no,white,no,no,768,legacy,68,79,C:/Users/Melissa/OneDrive/Desktop/ADVANCED QUANT/MM-subject-4.csv,legacy,Lentiform Loewenfeld,3.3.12,0,s,NA,caps lock,h,NA,s,485,NA,10058,8933,NA,485,2,legacy,1024,2,48000,-16,experiment,HHSHH,4,even,11895,156368,NA,263699,157232,NA,270125,269062,1835,147434,NA,270230,270716,270123,1831,270230,Flanker Task,134,67740,149,yes,1024
90,90,454.9466667,454.9466667,black,legacy,legacy,legacy,0,Incongruent,uniform,1,undefined,1,s,0,0,0,149,149,0,149,149,0,0,0,149,149,149,0,149,Tue Sep 13 19:11:31 2022,600,The main experiment item,yes,Lab 2.1 FlankerTask.osexp,C:\Users\Melissa\OneDrive\Desktop\ADVANCED QUANT,no,mono,no,18,no,white,no,no,768,legacy,69,79,C:/Users/Melissa/OneDrive/Desktop/ADVANCED QUANT/MM-subject-4.csv,legacy,Lentiform Loewenfeld,3.3.12,0,s,NA,caps lock,h,NA,s,502,NA,10058,8933,NA,502,2,legacy,1024,2,48000,-16,experiment,HHSHH,4,even,11895,156368,NA,263699,157232,NA,271785,270720,1835,147434,NA,271886,272390,271783,1831,271886,Flanker Task,135,68242,150,yes,1024
90.06622517,90.06622517,455.0993377,455.0993377,black,legacy,legacy,legacy,0,Incongruent,uniform,1,undefined,1,s,0,0,0,150,150,0,150,150,0,0,0,150,150,150,0,150,Tue Sep 13 19:11:31 2022,600,The main experiment item,yes,Lab 2.1 FlankerTask.osexp,C:\Users\Melissa\OneDrive\Desktop\ADVANCED QUANT,no,mono,no,18,no,white,no,no,768,legacy,70,79,C:/Users/Melissa/OneDrive/Desktop/ADVANCED QUANT/MM-subject-4.csv,legacy,Lentiform Loewenfeld,3.3.12,0,s,NA,caps lock,h,NA,s,478,NA,10058,8933,NA,478,2,legacy,1024,2,48000,-16,experiment,HHSHH,4,even,11895,156368,NA,263699,157232,NA,273454,272393,1835,147434,NA,273557,274036,273452,1831,273556,Flanker Task,136,68720,151,yes,1024
