acc,accuracy,average_response_time,avg_rt,background,canvas_backend,clock_backend,color_backend,compensation,condition,coordinates,correct,correct_Instructions1,correct_KeyboardResponse,correct_response,count_Block1,count_Block2,count_Block3,count_ErrorFeedback,count_Faster,count_Finish,count_Fixation,count_ISI,count_Instructions1,count_Instructions2,count_Instructions3,count_KeyboardResponse,count_Logger,count_Sequence,count_experiment,count_stimulus,datetime,deadline,description,disable_garbage_collection,experiment_file,experiment_path,font_bold,font_family,font_italic,font_size,font_underline,foreground,form_clicks,fullscreen,height,keyboard_backend,live_row,live_row_Block1,logfile,mouse_backend,opensesame_codename,opensesame_version,repeat_cycle,response,response_Finish,response_Instructions1,response_Instructions2,response_Instructions3,response_KeyboardResponse,response_time,response_time_Finish,response_time_Instructions1,response_time_Instructions2,response_time_Instructions3,response_time_KeyboardResponse,round_decimals,sampler_backend,sound_buf_size,sound_channels,sound_freq,sound_sample_size,start,stimulus,subject_nr,subject_parity,time_Block1,time_Block2,time_Block3,time_ErrorFeedback,time_Faster,time_Finish,time_Fixation,time_ISI,time_Instructions1,time_Instructions2,time_Instructions3,time_KeyboardResponse,time_Logger,time_Sequence,time_experiment,time_stimulus,title,total_correct,total_response_time,total_responses,uniform_coordinates,width
100,100,471,471,black,legacy,legacy,legacy,0,Congruent,uniform,1,undefined,1,h,0,0,0,0,0,0,0,0,0,0,0,0,0,0,0,0,Tue Sep 13 18:39:03 2022,1500,The main experiment item,yes,Lab 2.1 FlankerTask.osexp,C:\Users\Melissa\OneDrive\Desktop\ADVANCED QUANT,no,mono,no,18,no,white,no,no,768,legacy,0,0,C:/Users/Melissa/OneDrive/Desktop/ADVANCED QUANT/MM-subject-2.csv,legacy,Lentiform Loewenfeld,3.3.12,0,h,NA,s,NA,NA,h,471,NA,1315,NA,NA,471,2,legacy,1024,2,48000,-16,experiment,HHHHH,2,even,3383,NA,NA,NA,NA,NA,3459,NA,2066,NA,NA,3564,4036,3457,2062,3563,Flanker Task,1,471,1,yes,1024
100,100,470,470,black,legacy,legacy,legacy,0,Incongruent,uniform,1,undefined,1,h,0,0,0,1,1,0,1,1,0,0,0,1,1,1,0,1,Tue Sep 13 18:39:03 2022,1500,The main experiment item,yes,Lab 2.1 FlankerTask.osexp,C:\Users\Melissa\OneDrive\Desktop\ADVANCED QUANT,no,mono,no,18,no,white,no,no,768,legacy,1,1,C:/Users/Melissa/OneDrive/Desktop/ADVANCED QUANT/MM-subject-2.csv,legacy,Lentiform Loewenfeld,3.3.12,0,h,NA,s,NA,NA,h,469,NA,1315,NA,NA,469,2,legacy,1024,2,48000,-16,experiment,SSHSS,2,even,3383,NA,NA,NA,NA,NA,5142,4056,2066,NA,NA,5247,5717,5140,2062,5247,Flanker Task,2,940,2,yes,1024
100,100,425.6666667,425.6666667,black,legacy,legacy,legacy,0,Congruent,uniform,1,undefined,1,s,0,0,0,2,2,0,2,2,0,0,0,2,2,2,0,2,Tue Sep 13 18:39:03 2022,1500,The main experiment item,yes,Lab 2.1 FlankerTask.osexp,C:\Users\Melissa\OneDrive\Desktop\ADVANCED QUANT,no,mono,no,18,no,white,no,no,768,legacy,2,2,C:/Users/Melissa/OneDrive/Desktop/ADVANCED QUANT/MM-subject-2.csv,legacy,Lentiform Loewenfeld,3.3.12,0,s,NA,s,NA,NA,s,337,NA,1315,NA,NA,337,2,legacy,1024,2,48000,-16,experiment,SSSSS,2,even,3383,NA,NA,NA,NA,NA,6799,5721,2066,NA,NA,6900,7238,6797,2062,6900,Flanker Task,3,1277,3,yes,1024
100,100,414.25,414.25,black,legacy,legacy,legacy,0,Congruent,uniform,1,undefined,1,s,0,0,0,3,3,0,3,3,0,0,0,3,3,3,0,3,Tue Sep 13 18:39:03 2022,1500,The main experiment item,yes,Lab 2.1 FlankerTask.osexp,C:\Users\Melissa\OneDrive\Desktop\ADVANCED QUANT,no,mono,no,18,no,white,no,no,768,legacy,3,3,C:/Users/Melissa/OneDrive/Desktop/ADVANCED QUANT/MM-subject-2.csv,legacy,Lentiform Loewenfeld,3.3.12,0,s,NA,s,NA,NA,s,380,NA,1315,NA,NA,380,2,legacy,1024,2,48000,-16,experiment,SSSSS,2,even,3383,NA,NA,NA,NA,NA,8350,7253,2066,NA,NA,8459,8840,8348,2062,8459,Flanker Task,4,1657,4,yes,1024
100,100,428.6,428.6,black,legacy,legacy,legacy,0,Incongruent,uniform,1,undefined,1,h,0,0,0,4,4,0,4,4,0,0,0,4,4,4,0,4,Tue Sep 13 18:39:03 2022,1500,The main experiment item,yes,Lab 2.1 FlankerTask.osexp,C:\Users\Melissa\OneDrive\Desktop\ADVANCED QUANT,no,mono,no,18,no,white,no,no,768,legacy,4,4,C:/Users/Melissa/OneDrive/Desktop/ADVANCED QUANT/MM-subject-2.csv,legacy,Lentiform Loewenfeld,3.3.12,0,h,NA,s,NA,NA,h,486,NA,1315,NA,NA,486,2,legacy,1024,2,48000,-16,experiment,SSHSS,2,even,3383,NA,NA,NA,NA,NA,9939,8854,2066,NA,NA,10044,10532,9937,2062,10044,Flanker Task,5,2143,5,yes,1024
100,100,454.1666667,454.1666667,black,legacy,legacy,legacy,0,Congruent,uniform,1,undefined,1,h,0,0,0,5,5,0,5,5,0,0,0,5,5,5,0,5,Tue Sep 13 18:39:03 2022,1500,The main experiment item,yes,Lab 2.1 FlankerTask.osexp,C:\Users\Melissa\OneDrive\Desktop\ADVANCED QUANT,no,mono,no,18,no,white,no,no,768,legacy,5,5,C:/Users/Melissa/OneDrive/Desktop/ADVANCED QUANT/MM-subject-2.csv,legacy,Lentiform Loewenfeld,3.3.12,0,h,NA,s,NA,NA,h,582,NA,1315,NA,NA,582,2,legacy,1024,2,48000,-16,experiment,HHHHH,2,even,3383,NA,NA,NA,NA,NA,11633,10547,2066,NA,NA,11738,12321,11631,2062,11737,Flanker Task,6,2725,6,yes,1024
100,100,465.5714286,465.5714286,black,legacy,legacy,legacy,0,Incongruent,uniform,1,undefined,1,s,0,0,0,6,6,0,6,6,0,0,0,6,6,6,0,6,Tue Sep 13 18:39:03 2022,1500,The main experiment item,yes,Lab 2.1 FlankerTask.osexp,C:\Users\Melissa\OneDrive\Desktop\ADVANCED QUANT,no,mono,no,18,no,white,no,no,768,legacy,6,6,C:/Users/Melissa/OneDrive/Desktop/ADVANCED QUANT/MM-subject-2.csv,legacy,Lentiform Loewenfeld,3.3.12,0,s,NA,s,NA,NA,s,534,NA,1315,NA,NA,534,2,legacy,1024,2,48000,-16,experiment,HHSHH,2,even,3383,NA,NA,NA,NA,NA,13438,12335,2066,NA,NA,13540,14075,13435,2062,13540,Flanker Task,7,3259,7,yes,1024
100,100,513.875,513.875,black,legacy,legacy,legacy,0,Incongruent,uniform,1,undefined,1,s,0,0,0,7,7,0,7,7,0,0,0,7,7,7,0,7,Tue Sep 13 18:39:03 2022,1500,The main experiment item,yes,Lab 2.1 FlankerTask.osexp,C:\Users\Melissa\OneDrive\Desktop\ADVANCED QUANT,no,mono,no,18,no,white,no,no,768,legacy,7,7,C:/Users/Melissa/OneDrive/Desktop/ADVANCED QUANT/MM-subject-2.csv,legacy,Lentiform Loewenfeld,3.3.12,0,s,NA,s,NA,NA,s,852,NA,1315,NA,NA,852,2,legacy,1024,2,48000,-16,experiment,HHSHH,2,even,3383,NA,NA,NA,NA,NA,15185,14087,2066,NA,NA,15290,16142,15184,2062,15289,Flanker Task,8,4111,8,yes,1024
100,100,512.7777778,512.7777778,black,legacy,legacy,legacy,0,Congruent,uniform,1,undefined,1,h,0,0,0,8,8,0,8,8,0,0,0,8,8,8,0,8,Tue Sep 13 18:39:03 2022,1500,The main experiment item,yes,Lab 2.1 FlankerTask.osexp,C:\Users\Melissa\OneDrive\Desktop\ADVANCED QUANT,no,mono,no,18,no,white,no,no,768,legacy,8,8,C:/Users/Melissa/OneDrive/Desktop/ADVANCED QUANT/MM-subject-2.csv,legacy,Lentiform Loewenfeld,3.3.12,0,h,NA,s,NA,NA,h,504,NA,1315,NA,NA,504,2,legacy,1024,2,48000,-16,experiment,HHHHH,2,even,3383,NA,NA,NA,NA,NA,17239,16158,2066,NA,NA,17343,17848,17237,2062,17343,Flanker Task,9,4615,9,yes,1024
100,100,516.5,516.5,black,legacy,legacy,legacy,0,Congruent,uniform,1,undefined,1,s,0,0,0,9,9,0,9,9,0,0,0,9,9,9,0,9,Tue Sep 13 18:39:03 2022,1500,The main experiment item,yes,Lab 2.1 FlankerTask.osexp,C:\Users\Melissa\OneDrive\Desktop\ADVANCED QUANT,no,mono,no,18,no,white,no,no,768,legacy,9,9,C:/Users/Melissa/OneDrive/Desktop/ADVANCED QUANT/MM-subject-2.csv,legacy,Lentiform Loewenfeld,3.3.12,0,s,NA,s,NA,NA,s,550,NA,1315,NA,NA,550,2,legacy,1024,2,48000,-16,experiment,SSSSS,2,even,3383,NA,NA,NA,NA,NA,18958,17864,2066,NA,NA,19063,19613,18956,2062,19062,Flanker Task,10,5165,10,yes,1024
100,100,515.8181818,515.8181818,black,legacy,legacy,legacy,0,Incongruent,uniform,1,undefined,1,h,0,0,0,10,10,0,10,10,0,0,0,10,10,10,0,10,Tue Sep 13 18:39:03 2022,1500,The main experiment item,yes,Lab 2.1 FlankerTask.osexp,C:\Users\Melissa\OneDrive\Desktop\ADVANCED QUANT,no,mono,no,18,no,white,no,no,768,legacy,10,10,C:/Users/Melissa/OneDrive/Desktop/ADVANCED QUANT/MM-subject-2.csv,legacy,Lentiform Loewenfeld,3.3.12,0,h,NA,s,NA,NA,h,509,NA,1315,NA,NA,509,2,legacy,1024,2,48000,-16,experiment,SSHSS,2,even,3383,NA,NA,NA,NA,NA,20712,19619,2066,NA,NA,20822,21332,20710,2062,20822,Flanker Task,11,5674,11,yes,1024
100,100,509.5833333,509.5833333,black,legacy,legacy,legacy,0,Congruent,uniform,1,undefined,1,s,0,0,0,11,11,0,11,11,0,0,0,11,11,11,0,11,Tue Sep 13 18:39:03 2022,1500,The main experiment item,yes,Lab 2.1 FlankerTask.osexp,C:\Users\Melissa\OneDrive\Desktop\ADVANCED QUANT,no,mono,no,18,no,white,no,no,768,legacy,11,11,C:/Users/Melissa/OneDrive/Desktop/ADVANCED QUANT/MM-subject-2.csv,legacy,Lentiform Loewenfeld,3.3.12,0,s,NA,s,NA,NA,s,441,NA,1315,NA,NA,441,2,legacy,1024,2,48000,-16,experiment,SSSSS,2,even,3383,NA,NA,NA,NA,NA,22452,21345,2066,NA,NA,22558,23000,22449,2062,22558,Flanker Task,12,6115,12,yes,1024
92.30769231,92.30769231,500.6153846,500.6153846,black,legacy,legacy,legacy,0,Incongruent,uniform,0,undefined,0,s,0,0,0,12,12,0,12,12,0,0,0,12,12,12,0,12,Tue Sep 13 18:39:03 2022,1500,The main experiment item,yes,Lab 2.1 FlankerTask.osexp,C:\Users\Melissa\OneDrive\Desktop\ADVANCED QUANT,no,mono,no,18,no,white,no,no,768,legacy,12,12,C:/Users/Melissa/OneDrive/Desktop/ADVANCED QUANT/MM-subject-2.csv,legacy,Lentiform Loewenfeld,3.3.12,0,h,NA,s,NA,NA,h,393,NA,1315,NA,NA,393,2,legacy,1024,2,48000,-16,experiment,HHSHH,2,even,3383,NA,NA,NA,NA,NA,24090,23015,2066,NA,NA,24196,24590,24087,2062,24195,Flanker Task,12,6508,13,yes,1024
92.85714286,92.85714286,501.5714286,501.5714286,black,legacy,legacy,legacy,0,Incongruent,uniform,1,undefined,1,h,0,0,0,13,13,0,13,13,0,0,0,13,13,13,0,13,Tue Sep 13 18:39:03 2022,1500,The main experiment item,yes,Lab 2.1 FlankerTask.osexp,C:\Users\Melissa\OneDrive\Desktop\ADVANCED QUANT,no,mono,no,18,no,white,no,no,768,legacy,13,13,C:/Users/Melissa/OneDrive/Desktop/ADVANCED QUANT/MM-subject-2.csv,legacy,Lentiform Loewenfeld,3.3.12,0,h,NA,s,NA,NA,h,514,NA,1315,NA,NA,514,2,legacy,1024,2,48000,-16,experiment,SSHSS,2,even,3383,NA,NA,24602,NA,NA,26188,25107,2066,NA,NA,26293,26809,26186,2062,26293,Flanker Task,13,7022,14,yes,1024
93.33333333,93.33333333,501.9333333,501.9333333,black,legacy,legacy,legacy,0,Incongruent,uniform,1,undefined,1,s,0,0,0,14,14,0,14,14,0,0,0,14,14,14,0,14,Tue Sep 13 18:39:03 2022,1500,The main experiment item,yes,Lab 2.1 FlankerTask.osexp,C:\Users\Melissa\OneDrive\Desktop\ADVANCED QUANT,no,mono,no,18,no,white,no,no,768,legacy,14,14,C:/Users/Melissa/OneDrive/Desktop/ADVANCED QUANT/MM-subject-2.csv,legacy,Lentiform Loewenfeld,3.3.12,0,s,NA,s,NA,NA,s,507,NA,1315,NA,NA,507,2,legacy,1024,2,48000,-16,experiment,HHSHH,2,even,3383,NA,NA,24602,NA,NA,27919,26824,2066,NA,NA,28023,28531,27917,2062,28023,Flanker Task,14,7529,15,yes,1024
93.75,93.75,497.9375,497.9375,black,legacy,legacy,legacy,0,Congruent,uniform,1,undefined,1,h,0,0,0,15,15,0,15,15,0,0,0,15,15,15,0,15,Tue Sep 13 18:39:03 2022,1500,The main experiment item,yes,Lab 2.1 FlankerTask.osexp,C:\Users\Melissa\OneDrive\Desktop\ADVANCED QUANT,no,mono,no,18,no,white,no,no,768,legacy,15,15,C:/Users/Melissa/OneDrive/Desktop/ADVANCED QUANT/MM-subject-2.csv,legacy,Lentiform Loewenfeld,3.3.12,0,h,NA,s,NA,NA,h,438,NA,1315,NA,NA,438,2,legacy,1024,2,48000,-16,experiment,HHHHH,2,even,3383,NA,NA,24602,NA,NA,29644,28544,2066,NA,NA,29749,30188,29642,2062,29749,Flanker Task,15,7967,16,yes,1024
94.11764706,94.11764706,494.3529412,494.3529412,black,legacy,legacy,legacy,0,Congruent,uniform,1,undefined,1,s,0,0,0,16,16,0,16,16,0,0,0,16,16,16,0,16,Tue Sep 13 18:39:03 2022,1500,The main experiment item,yes,Lab 2.1 FlankerTask.osexp,C:\Users\Melissa\OneDrive\Desktop\ADVANCED QUANT,no,mono,no,18,no,white,no,no,768,legacy,16,16,C:/Users/Melissa/OneDrive/Desktop/ADVANCED QUANT/MM-subject-2.csv,legacy,Lentiform Loewenfeld,3.3.12,0,s,NA,s,NA,NA,s,437,NA,1315,NA,NA,437,2,legacy,1024,2,48000,-16,experiment,SSSSS,2,even,3383,NA,NA,24602,NA,NA,31284,30203,2066,NA,NA,31386,31824,31282,2062,31386,Flanker Task,16,8404,17,yes,1024
94.44444444,94.44444444,492.1111111,492.1111111,black,legacy,legacy,legacy,0,Congruent,uniform,1,undefined,1,h,0,0,0,17,17,0,17,17,0,0,0,17,17,17,0,17,Tue Sep 13 18:39:03 2022,1500,The main experiment item,yes,Lab 2.1 FlankerTask.osexp,C:\Users\Melissa\OneDrive\Desktop\ADVANCED QUANT,no,mono,no,18,no,white,no,no,768,legacy,17,17,C:/Users/Melissa/OneDrive/Desktop/ADVANCED QUANT/MM-subject-2.csv,legacy,Lentiform Loewenfeld,3.3.12,0,h,NA,s,NA,NA,h,454,NA,1315,NA,NA,454,2,legacy,1024,2,48000,-16,experiment,HHHHH,2,even,3383,NA,NA,24602,NA,NA,32934,31837,2066,NA,NA,33040,33494,32930,2062,33040,Flanker Task,17,8858,18,yes,1024
94.73684211,94.73684211,484.8947368,484.8947368,black,legacy,legacy,legacy,0,Congruent,uniform,1,undefined,1,s,0,0,0,18,18,0,18,18,0,0,0,18,18,18,0,18,Tue Sep 13 18:39:03 2022,1500,The main experiment item,yes,Lab 2.1 FlankerTask.osexp,C:\Users\Melissa\OneDrive\Desktop\ADVANCED QUANT,no,mono,no,18,no,white,no,no,768,legacy,18,18,C:/Users/Melissa/OneDrive/Desktop/ADVANCED QUANT/MM-subject-2.csv,legacy,Lentiform Loewenfeld,3.3.12,0,s,NA,s,NA,NA,s,355,NA,1315,NA,NA,355,2,legacy,1024,2,48000,-16,experiment,SSSSS,2,even,3383,NA,NA,24602,NA,NA,34590,33498,2066,NA,NA,34692,35048,34588,2062,34692,Flanker Task,18,9213,19,yes,1024
95,95,478.55,478.55,black,legacy,legacy,legacy,0,Congruent,uniform,1,undefined,1,s,0,0,0,19,19,0,19,19,0,0,0,19,19,19,0,19,Tue Sep 13 18:39:03 2022,1500,The main experiment item,yes,Lab 2.1 FlankerTask.osexp,C:\Users\Melissa\OneDrive\Desktop\ADVANCED QUANT,no,mono,no,18,no,white,no,no,768,legacy,19,19,C:/Users/Melissa/OneDrive/Desktop/ADVANCED QUANT/MM-subject-2.csv,legacy,Lentiform Loewenfeld,3.3.12,0,s,NA,s,NA,NA,s,358,NA,1315,NA,NA,358,2,legacy,1024,2,48000,-16,experiment,SSSSS,2,even,3383,NA,NA,24602,NA,NA,36160,35064,2066,NA,NA,36264,36622,36158,2062,36264,Flanker Task,19,9571,20,yes,1024
95.23809524,95.23809524,474.952381,474.952381,black,legacy,legacy,legacy,0,Congruent,uniform,1,undefined,1,h,0,0,0,20,20,0,20,20,0,0,0,20,20,20,0,20,Tue Sep 13 18:39:03 2022,1500,The main experiment item,yes,Lab 2.1 FlankerTask.osexp,C:\Users\Melissa\OneDrive\Desktop\ADVANCED QUANT,no,mono,no,18,no,white,no,no,768,legacy,20,20,C:/Users/Melissa/OneDrive/Desktop/ADVANCED QUANT/MM-subject-2.csv,legacy,Lentiform Loewenfeld,3.3.12,0,h,NA,s,NA,NA,h,403,NA,1315,NA,NA,403,2,legacy,1024,2,48000,-16,experiment,HHHHH,2,even,3383,NA,NA,24602,NA,NA,37735,36636,2066,NA,NA,37837,38241,37733,2062,37837,Flanker Task,20,9974,21,yes,1024
90.90909091,90.90909091,471.4090909,471.4090909,black,legacy,legacy,legacy,0,Incongruent,uniform,0,undefined,0,s,0,0,0,21,21,0,21,21,0,0,0,21,21,21,0,21,Tue Sep 13 18:39:03 2022,1500,The main experiment item,yes,Lab 2.1 FlankerTask.osexp,C:\Users\Melissa\OneDrive\Desktop\ADVANCED QUANT,no,mono,no,18,no,white,no,no,768,legacy,21,21,C:/Users/Melissa/OneDrive/Desktop/ADVANCED QUANT/MM-subject-2.csv,legacy,Lentiform Loewenfeld,3.3.12,0,h,NA,s,NA,NA,h,397,NA,1315,NA,NA,397,2,legacy,1024,2,48000,-16,experiment,HHSHH,2,even,3383,NA,NA,24602,NA,NA,39348,38256,2066,NA,NA,39452,39850,39346,2062,39452,Flanker Task,20,10371,22,yes,1024
91.30434783,91.30434783,472.4347826,472.4347826,black,legacy,legacy,legacy,0,Incongruent,uniform,1,undefined,1,h,0,0,0,22,22,0,22,22,0,0,0,22,22,22,0,22,Tue Sep 13 18:39:03 2022,1500,The main experiment item,yes,Lab 2.1 FlankerTask.osexp,C:\Users\Melissa\OneDrive\Desktop\ADVANCED QUANT,no,mono,no,18,no,white,no,no,768,legacy,22,22,C:/Users/Melissa/OneDrive/Desktop/ADVANCED QUANT/MM-subject-2.csv,legacy,Lentiform Loewenfeld,3.3.12,0,h,NA,s,NA,NA,h,495,NA,1315,NA,NA,495,2,legacy,1024,2,48000,-16,experiment,SSHSS,2,even,3383,NA,NA,39863,NA,NA,41462,40368,2066,NA,NA,41567,42063,41460,2062,41567,Flanker Task,21,10866,23,yes,1024
91.66666667,91.66666667,472.75,472.75,black,legacy,legacy,legacy,0,Incongruent,uniform,1,undefined,1,s,0,0,0,23,23,0,23,23,0,0,0,23,23,23,0,23,Tue Sep 13 18:39:03 2022,1500,The main experiment item,yes,Lab 2.1 FlankerTask.osexp,C:\Users\Melissa\OneDrive\Desktop\ADVANCED QUANT,no,mono,no,18,no,white,no,no,768,legacy,23,23,C:/Users/Melissa/OneDrive/Desktop/ADVANCED QUANT/MM-subject-2.csv,legacy,Lentiform Loewenfeld,3.3.12,0,s,NA,s,NA,NA,s,480,NA,1315,NA,NA,480,2,legacy,1024,2,48000,-16,experiment,HHSHH,2,even,3383,NA,NA,39863,NA,NA,43177,42078,2066,NA,NA,43280,43761,43175,2062,43280,Flanker Task,22,11346,24,yes,1024
92,92,473.6,473.6,black,legacy,legacy,legacy,0,Incongruent,uniform,1,undefined,1,h,0,0,0,24,24,0,24,24,0,0,0,24,24,24,0,24,Tue Sep 13 18:39:03 2022,1500,The main experiment item,yes,Lab 2.1 FlankerTask.osexp,C:\Users\Melissa\OneDrive\Desktop\ADVANCED QUANT,no,mono,no,18,no,white,no,no,768,legacy,24,24,C:/Users/Melissa/OneDrive/Desktop/ADVANCED QUANT/MM-subject-2.csv,legacy,Lentiform Loewenfeld,3.3.12,0,h,NA,s,NA,NA,h,494,NA,1315,NA,NA,494,2,legacy,1024,2,48000,-16,experiment,SSHSS,2,even,3383,NA,NA,39863,NA,NA,44872,43774,2066,NA,NA,44977,45472,44870,2062,44977,Flanker Task,23,11840,25,yes,1024
92.30769231,92.30769231,472.8076923,472.8076923,black,legacy,legacy,legacy,0,Incongruent,uniform,1,undefined,1,h,0,0,0,25,25,0,25,25,0,0,0,25,25,25,0,25,Tue Sep 13 18:39:03 2022,1500,The main experiment item,yes,Lab 2.1 FlankerTask.osexp,C:\Users\Melissa\OneDrive\Desktop\ADVANCED QUANT,no,mono,no,18,no,white,no,no,768,legacy,25,25,C:/Users/Melissa/OneDrive/Desktop/ADVANCED QUANT/MM-subject-2.csv,legacy,Lentiform Loewenfeld,3.3.12,0,h,NA,s,NA,NA,h,453,NA,1315,NA,NA,453,2,legacy,1024,2,48000,-16,experiment,SSHSS,2,even,3383,NA,NA,39863,NA,NA,46615,45486,2066,NA,NA,46720,47174,46612,2062,46720,Flanker Task,24,12293,26,yes,1024
92.59259259,92.59259259,470.5925926,470.5925926,black,legacy,legacy,legacy,0,Congruent,uniform,1,undefined,1,s,0,0,0,26,26,0,26,26,0,0,0,26,26,26,0,26,Tue Sep 13 18:39:03 2022,1500,The main experiment item,yes,Lab 2.1 FlankerTask.osexp,C:\Users\Melissa\OneDrive\Desktop\ADVANCED QUANT,no,mono,no,18,no,white,no,no,768,legacy,26,26,C:/Users/Melissa/OneDrive/Desktop/ADVANCED QUANT/MM-subject-2.csv,legacy,Lentiform Loewenfeld,3.3.12,0,s,NA,s,NA,NA,s,413,NA,1315,NA,NA,413,2,legacy,1024,2,48000,-16,experiment,SSSSS,2,even,3383,NA,NA,39863,NA,NA,48282,47188,2066,NA,NA,48387,48801,48280,2062,48387,Flanker Task,25,12706,27,yes,1024
92.85714286,92.85714286,465.9285714,465.9285714,black,legacy,legacy,legacy,0,Congruent,uniform,1,undefined,1,h,0,0,0,27,27,0,27,27,0,0,0,27,27,27,0,27,Tue Sep 13 18:39:03 2022,1500,The main experiment item,yes,Lab 2.1 FlankerTask.osexp,C:\Users\Melissa\OneDrive\Desktop\ADVANCED QUANT,no,mono,no,18,no,white,no,no,768,legacy,27,27,C:/Users/Melissa/OneDrive/Desktop/ADVANCED QUANT/MM-subject-2.csv,legacy,Lentiform Loewenfeld,3.3.12,0,h,NA,s,NA,NA,h,340,NA,1315,NA,NA,340,2,legacy,1024,2,48000,-16,experiment,HHHHH,2,even,3383,NA,NA,39863,NA,NA,49913,48814,2066,NA,NA,50018,50358,49911,2062,50018,Flanker Task,26,13046,28,yes,1024
93.10344828,93.10344828,465.0344828,465.0344828,black,legacy,legacy,legacy,0,Congruent,uniform,1,undefined,1,h,0,0,0,28,28,0,28,28,0,0,0,28,28,28,0,28,Tue Sep 13 18:39:03 2022,1500,The main experiment item,yes,Lab 2.1 FlankerTask.osexp,C:\Users\Melissa\OneDrive\Desktop\ADVANCED QUANT,no,mono,no,18,no,white,no,no,768,legacy,28,28,C:/Users/Melissa/OneDrive/Desktop/ADVANCED QUANT/MM-subject-2.csv,legacy,Lentiform Loewenfeld,3.3.12,0,h,NA,s,NA,NA,h,440,NA,1315,NA,NA,440,2,legacy,1024,2,48000,-16,experiment,HHHHH,2,even,3383,NA,NA,39863,NA,NA,51466,50371,2066,NA,NA,51571,52012,51464,2062,51571,Flanker Task,27,13486,29,yes,1024
93.33333333,93.33333333,464.3,464.3,black,legacy,legacy,legacy,0,Incongruent,uniform,1,undefined,1,s,0,0,0,29,29,0,29,29,0,0,0,29,29,29,0,29,Tue Sep 13 18:39:03 2022,1500,The main experiment item,yes,Lab 2.1 FlankerTask.osexp,C:\Users\Melissa\OneDrive\Desktop\ADVANCED QUANT,no,mono,no,18,no,white,no,no,768,legacy,29,29,C:/Users/Melissa/OneDrive/Desktop/ADVANCED QUANT/MM-subject-2.csv,legacy,Lentiform Loewenfeld,3.3.12,0,s,NA,s,NA,NA,s,443,NA,1315,NA,NA,443,2,legacy,1024,2,48000,-16,experiment,HHSHH,2,even,3383,NA,NA,39863,NA,NA,53130,52033,2066,NA,NA,53235,53680,53129,2062,53235,Flanker Task,28,13929,30,yes,1024
93.5483871,93.5483871,463.1612903,463.1612903,black,legacy,legacy,legacy,0,Congruent,uniform,1,undefined,1,h,0,0,0,30,30,0,30,30,0,0,0,30,30,30,0,30,Tue Sep 13 18:39:03 2022,1500,The main experiment item,yes,Lab 2.1 FlankerTask.osexp,C:\Users\Melissa\OneDrive\Desktop\ADVANCED QUANT,no,mono,no,18,no,white,no,no,768,legacy,30,30,C:/Users/Melissa/OneDrive/Desktop/ADVANCED QUANT/MM-subject-2.csv,legacy,Lentiform Loewenfeld,3.3.12,0,h,NA,s,NA,NA,h,429,NA,1315,NA,NA,429,2,legacy,1024,2,48000,-16,experiment,HHHHH,2,even,3383,NA,NA,39863,NA,NA,54771,53694,2066,NA,NA,54876,55306,54769,2062,54876,Flanker Task,29,14358,31,yes,1024
93.75,93.75,459.75,459.75,black,legacy,legacy,legacy,0,Congruent,uniform,1,undefined,1,s,0,0,0,31,31,0,31,31,0,0,0,31,31,31,0,31,Tue Sep 13 18:39:03 2022,1500,The main experiment item,yes,Lab 2.1 FlankerTask.osexp,C:\Users\Melissa\OneDrive\Desktop\ADVANCED QUANT,no,mono,no,18,no,white,no,no,768,legacy,31,31,C:/Users/Melissa/OneDrive/Desktop/ADVANCED QUANT/MM-subject-2.csv,legacy,Lentiform Loewenfeld,3.3.12,0,s,NA,s,NA,NA,s,354,NA,1315,NA,NA,354,2,legacy,1024,2,48000,-16,experiment,SSSSS,2,even,3383,NA,NA,39863,NA,NA,56406,55320,2066,NA,NA,56511,56865,56403,2062,56511,Flanker Task,30,14712,32,yes,1024
93.93939394,93.93939394,459,459,black,legacy,legacy,legacy,0,Incongruent,uniform,1,undefined,1,h,0,0,0,32,32,0,32,32,0,0,0,32,32,32,0,32,Tue Sep 13 18:39:03 2022,1500,The main experiment item,yes,Lab 2.1 FlankerTask.osexp,C:\Users\Melissa\OneDrive\Desktop\ADVANCED QUANT,no,mono,no,18,no,white,no,no,768,legacy,32,32,C:/Users/Melissa/OneDrive/Desktop/ADVANCED QUANT/MM-subject-2.csv,legacy,Lentiform Loewenfeld,3.3.12,0,h,NA,s,NA,NA,h,435,NA,1315,NA,NA,435,2,legacy,1024,2,48000,-16,experiment,SSHSS,2,even,3383,NA,NA,39863,NA,NA,57970,56883,2066,NA,NA,58075,58511,57967,2062,58075,Flanker Task,31,15147,33,yes,1024
94.11764706,94.11764706,457.1470588,457.1470588,black,legacy,legacy,legacy,0,Congruent,uniform,1,undefined,1,s,0,0,0,33,33,0,33,33,0,0,0,33,33,33,0,33,Tue Sep 13 18:39:03 2022,1500,The main experiment item,yes,Lab 2.1 FlankerTask.osexp,C:\Users\Melissa\OneDrive\Desktop\ADVANCED QUANT,no,mono,no,18,no,white,no,no,768,legacy,33,33,C:/Users/Melissa/OneDrive/Desktop/ADVANCED QUANT/MM-subject-2.csv,legacy,Lentiform Loewenfeld,3.3.12,0,s,NA,s,NA,NA,s,396,NA,1315,NA,NA,396,2,legacy,1024,2,48000,-16,experiment,SSSSS,2,even,3383,NA,NA,39863,NA,NA,59622,58525,2066,NA,NA,59727,60124,59620,2062,59727,Flanker Task,32,15543,34,yes,1024
94.28571429,94.28571429,456.3714286,456.3714286,black,legacy,legacy,legacy,0,Congruent,uniform,1,undefined,1,h,0,0,0,34,34,0,34,34,0,0,0,34,34,34,0,34,Tue Sep 13 18:39:03 2022,1500,The main experiment item,yes,Lab 2.1 FlankerTask.osexp,C:\Users\Melissa\OneDrive\Desktop\ADVANCED QUANT,no,mono,no,18,no,white,no,no,768,legacy,34,34,C:/Users/Melissa/OneDrive/Desktop/ADVANCED QUANT/MM-subject-2.csv,legacy,Lentiform Loewenfeld,3.3.12,0,h,NA,s,NA,NA,h,430,NA,1315,NA,NA,430,2,legacy,1024,2,48000,-16,experiment,HHHHH,2,even,3383,NA,NA,39863,NA,NA,61240,60140,2066,NA,NA,61346,61777,61238,2062,61345,Flanker Task,33,15973,35,yes,1024
94.44444444,94.44444444,454.0555556,454.0555556,black,legacy,legacy,legacy,0,Incongruent,uniform,1,undefined,1,s,0,0,0,35,35,0,35,35,0,0,0,35,35,35,0,35,Tue Sep 13 18:39:03 2022,1500,The main experiment item,yes,Lab 2.1 FlankerTask.osexp,C:\Users\Melissa\OneDrive\Desktop\ADVANCED QUANT,no,mono,no,18,no,white,no,no,768,legacy,35,35,C:/Users/Melissa/OneDrive/Desktop/ADVANCED QUANT/MM-subject-2.csv,legacy,Lentiform Loewenfeld,3.3.12,0,s,NA,s,NA,NA,s,373,NA,1315,NA,NA,373,2,legacy,1024,2,48000,-16,experiment,HHSHH,2,even,3383,NA,NA,39863,NA,NA,62890,61790,2066,NA,NA,62995,63369,62888,2062,62995,Flanker Task,34,16346,36,yes,1024
94.59459459,94.59459459,453.6756757,453.6756757,black,legacy,legacy,legacy,0,Incongruent,uniform,1,undefined,1,h,0,0,0,36,36,0,36,36,0,0,0,36,36,36,0,36,Tue Sep 13 18:39:03 2022,1500,The main experiment item,yes,Lab 2.1 FlankerTask.osexp,C:\Users\Melissa\OneDrive\Desktop\ADVANCED QUANT,no,mono,no,18,no,white,no,no,768,legacy,36,36,C:/Users/Melissa/OneDrive/Desktop/ADVANCED QUANT/MM-subject-2.csv,legacy,Lentiform Loewenfeld,3.3.12,0,h,NA,s,NA,NA,h,440,NA,1315,NA,NA,440,2,legacy,1024,2,48000,-16,experiment,SSHSS,2,even,3383,NA,NA,39863,NA,NA,64477,63382,2066,NA,NA,64582,65023,64475,2062,64582,Flanker Task,35,16786,37,yes,1024
94.73684211,94.73684211,452.8157895,452.8157895,black,legacy,legacy,legacy,0,Congruent,uniform,1,undefined,1,h,0,0,0,37,37,0,37,37,0,0,0,37,37,37,0,37,Tue Sep 13 18:39:03 2022,1500,The main experiment item,yes,Lab 2.1 FlankerTask.osexp,C:\Users\Melissa\OneDrive\Desktop\ADVANCED QUANT,no,mono,no,18,no,white,no,no,768,legacy,37,37,C:/Users/Melissa/OneDrive/Desktop/ADVANCED QUANT/MM-subject-2.csv,legacy,Lentiform Loewenfeld,3.3.12,0,h,NA,s,NA,NA,h,421,NA,1315,NA,NA,421,2,legacy,1024,2,48000,-16,experiment,HHHHH,2,even,3383,NA,NA,39863,NA,NA,66162,65039,2066,NA,NA,66267,66689,66160,2062,66267,Flanker Task,36,17207,38,yes,1024
94.87179487,94.87179487,452.7692308,452.7692308,black,legacy,legacy,legacy,0,Incongruent,uniform,1,undefined,1,s,0,0,0,38,38,0,38,38,0,0,0,38,38,38,0,38,Tue Sep 13 18:39:03 2022,1500,The main experiment item,yes,Lab 2.1 FlankerTask.osexp,C:\Users\Melissa\OneDrive\Desktop\ADVANCED QUANT,no,mono,no,18,no,white,no,no,768,legacy,38,38,C:/Users/Melissa/OneDrive/Desktop/ADVANCED QUANT/MM-subject-2.csv,legacy,Lentiform Loewenfeld,3.3.12,0,s,NA,s,NA,NA,s,451,NA,1315,NA,NA,451,2,legacy,1024,2,48000,-16,experiment,HHSHH,2,even,3383,NA,NA,39863,NA,NA,67805,66703,2066,NA,NA,67910,68362,67803,2062,67910,Flanker Task,37,17658,39,yes,1024
95,95,452.3,452.3,black,legacy,legacy,legacy,0,Incongruent,uniform,1,undefined,1,h,0,0,0,39,39,0,39,39,0,0,0,39,39,39,0,39,Tue Sep 13 18:39:03 2022,1500,The main experiment item,yes,Lab 2.1 FlankerTask.osexp,C:\Users\Melissa\OneDrive\Desktop\ADVANCED QUANT,no,mono,no,18,no,white,no,no,768,legacy,39,39,C:/Users/Melissa/OneDrive/Desktop/ADVANCED QUANT/MM-subject-2.csv,legacy,Lentiform Loewenfeld,3.3.12,0,h,NA,s,NA,NA,h,434,NA,1315,NA,NA,434,2,legacy,1024,2,48000,-16,experiment,SSHSS,2,even,3383,NA,NA,39863,NA,NA,69472,68376,2066,NA,NA,69577,70012,69471,2062,69577,Flanker Task,38,18092,40,yes,1024
95.12195122,95.12195122,451.2926829,451.2926829,black,legacy,legacy,legacy,0,Incongruent,uniform,1,undefined,1,s,0,0,0,40,40,0,40,40,0,0,0,40,40,40,0,40,Tue Sep 13 18:39:03 2022,1500,The main experiment item,yes,Lab 2.1 FlankerTask.osexp,C:\Users\Melissa\OneDrive\Desktop\ADVANCED QUANT,no,mono,no,18,no,white,no,no,768,legacy,40,40,C:/Users/Melissa/OneDrive/Desktop/ADVANCED QUANT/MM-subject-2.csv,legacy,Lentiform Loewenfeld,3.3.12,0,s,NA,s,NA,NA,s,411,NA,1315,NA,NA,411,2,legacy,1024,2,48000,-16,experiment,HHSHH,2,even,3383,NA,NA,39863,NA,NA,71104,70025,2066,NA,NA,71209,71621,71102,2062,71209,Flanker Task,39,18503,41,yes,1024
95.23809524,95.23809524,451.4285714,451.4285714,black,legacy,legacy,legacy,0,Congruent,uniform,1,undefined,1,s,0,0,0,41,41,0,41,41,0,0,0,41,41,41,0,41,Tue Sep 13 18:39:03 2022,1500,The main experiment item,yes,Lab 2.1 FlankerTask.osexp,C:\Users\Melissa\OneDrive\Desktop\ADVANCED QUANT,no,mono,no,18,no,white,no,no,768,legacy,41,41,C:/Users/Melissa/OneDrive/Desktop/ADVANCED QUANT/MM-subject-2.csv,legacy,Lentiform Loewenfeld,3.3.12,0,s,NA,s,NA,NA,s,457,NA,1315,NA,NA,457,2,legacy,1024,2,48000,-16,experiment,SSSSS,2,even,3383,NA,NA,39863,NA,NA,72712,71635,2066,NA,NA,72814,73272,72710,2062,72814,Flanker Task,40,18960,42,yes,1024
95.34883721,95.34883721,451.3255814,451.3255814,black,legacy,legacy,legacy,0,Congruent,uniform,1,undefined,1,h,0,0,0,42,42,0,42,42,0,0,0,42,42,42,0,42,Tue Sep 13 18:39:03 2022,1500,The main experiment item,yes,Lab 2.1 FlankerTask.osexp,C:\Users\Melissa\OneDrive\Desktop\ADVANCED QUANT,no,mono,no,18,no,white,no,no,768,legacy,42,42,C:/Users/Melissa/OneDrive/Desktop/ADVANCED QUANT/MM-subject-2.csv,legacy,Lentiform Loewenfeld,3.3.12,0,h,NA,s,NA,NA,h,447,NA,1315,NA,NA,447,2,legacy,1024,2,48000,-16,experiment,HHHHH,2,even,3383,NA,NA,39863,NA,NA,74433,73284,2066,NA,NA,74538,74986,74431,2062,74538,Flanker Task,41,19407,43,yes,1024
95.45454545,95.45454545,452.5909091,452.5909091,black,legacy,legacy,legacy,0,Incongruent,uniform,1,undefined,1,h,0,0,0,43,43,0,43,43,0,0,0,43,43,43,0,43,Tue Sep 13 18:39:03 2022,1500,The main experiment item,yes,Lab 2.1 FlankerTask.osexp,C:\Users\Melissa\OneDrive\Desktop\ADVANCED QUANT,no,mono,no,18,no,white,no,no,768,legacy,43,43,C:/Users/Melissa/OneDrive/Desktop/ADVANCED QUANT/MM-subject-2.csv,legacy,Lentiform Loewenfeld,3.3.12,0,h,NA,s,NA,NA,h,507,NA,1315,NA,NA,507,2,legacy,1024,2,48000,-16,experiment,SSHSS,2,even,3383,NA,NA,39863,NA,NA,76078,75001,2066,NA,NA,76183,76691,76076,2062,76183,Flanker Task,42,19914,44,yes,1024
95.55555556,95.55555556,452.3777778,452.3777778,black,legacy,legacy,legacy,0,Congruent,uniform,1,undefined,1,s,0,0,0,44,44,0,44,44,0,0,0,44,44,44,0,44,Tue Sep 13 18:39:03 2022,1500,The main experiment item,yes,Lab 2.1 FlankerTask.osexp,C:\Users\Melissa\OneDrive\Desktop\ADVANCED QUANT,no,mono,no,18,no,white,no,no,768,legacy,44,44,C:/Users/Melissa/OneDrive/Desktop/ADVANCED QUANT/MM-subject-2.csv,legacy,Lentiform Loewenfeld,3.3.12,0,s,NA,s,NA,NA,s,443,NA,1315,NA,NA,443,2,legacy,1024,2,48000,-16,experiment,SSSSS,2,even,3383,NA,NA,39863,NA,NA,77807,76705,2066,NA,NA,77912,78356,77805,2062,77912,Flanker Task,43,20357,45,yes,1024
95.65217391,95.65217391,451.4782609,451.4782609,black,legacy,legacy,legacy,0,Congruent,uniform,1,undefined,1,s,0,0,0,45,45,0,45,45,0,0,0,45,45,45,0,45,Tue Sep 13 18:39:03 2022,1500,The main experiment item,yes,Lab 2.1 FlankerTask.osexp,C:\Users\Melissa\OneDrive\Desktop\ADVANCED QUANT,no,mono,no,18,no,white,no,no,768,legacy,45,45,C:/Users/Melissa/OneDrive/Desktop/ADVANCED QUANT/MM-subject-2.csv,legacy,Lentiform Loewenfeld,3.3.12,0,s,NA,s,NA,NA,s,411,NA,1315,NA,NA,411,2,legacy,1024,2,48000,-16,experiment,SSSSS,2,even,3383,NA,NA,39863,NA,NA,79476,78370,2066,NA,NA,79581,79993,79474,2062,79581,Flanker Task,44,20768,46,yes,1024
95.74468085,95.74468085,450.6170213,450.6170213,black,legacy,legacy,legacy,0,Incongruent,uniform,1,undefined,1,h,0,0,0,46,46,0,46,46,0,0,0,46,46,46,0,46,Tue Sep 13 18:39:03 2022,1500,The main experiment item,yes,Lab 2.1 FlankerTask.osexp,C:\Users\Melissa\OneDrive\Desktop\ADVANCED QUANT,no,mono,no,18,no,white,no,no,768,legacy,46,46,C:/Users/Melissa/OneDrive/Desktop/ADVANCED QUANT/MM-subject-2.csv,legacy,Lentiform Loewenfeld,3.3.12,0,h,NA,s,NA,NA,h,411,NA,1315,NA,NA,411,2,legacy,1024,2,48000,-16,experiment,SSHSS,2,even,3383,NA,NA,39863,NA,NA,81087,80008,2066,NA,NA,81192,81604,81085,2062,81192,Flanker Task,45,21179,47,yes,1024
95.83333333,95.83333333,450.0625,450.0625,black,legacy,legacy,legacy,0,Incongruent,uniform,1,undefined,1,s,0,0,0,47,47,0,47,47,0,0,0,47,47,47,0,47,Tue Sep 13 18:39:03 2022,1500,The main experiment item,yes,Lab 2.1 FlankerTask.osexp,C:\Users\Melissa\OneDrive\Desktop\ADVANCED QUANT,no,mono,no,18,no,white,no,no,768,legacy,47,47,C:/Users/Melissa/OneDrive/Desktop/ADVANCED QUANT/MM-subject-2.csv,legacy,Lentiform Loewenfeld,3.3.12,0,s,NA,s,NA,NA,s,424,NA,1315,NA,NA,424,2,legacy,1024,2,48000,-16,experiment,HHSHH,2,even,3383,NA,NA,39863,NA,NA,82705,81625,2066,NA,NA,82810,83235,82703,2062,82810,Flanker Task,46,21603,48,yes,1024
93.87755102,93.87755102,448.0408163,448.0408163,black,legacy,legacy,legacy,0,Incongruent,uniform,0,undefined,0,s,0,0,0,48,48,0,48,48,0,0,0,48,48,48,0,48,Tue Sep 13 18:39:03 2022,1500,The main experiment item,yes,Lab 2.1 FlankerTask.osexp,C:\Users\Melissa\OneDrive\Desktop\ADVANCED QUANT,no,mono,no,18,no,white,no,no,768,legacy,48,48,C:/Users/Melissa/OneDrive/Desktop/ADVANCED QUANT/MM-subject-2.csv,legacy,Lentiform Loewenfeld,3.3.12,0,h,NA,s,NA,NA,h,351,NA,1315,NA,NA,351,2,legacy,1024,2,48000,-16,experiment,HHSHH,2,even,3383,NA,NA,39863,NA,NA,84341,83250,2066,NA,NA,84446,84797,84339,2062,84446,Flanker Task,46,21954,49,yes,1024
94,94,447.7,447.7,black,legacy,legacy,legacy,0,Congruent,uniform,1,undefined,1,s,0,0,0,49,49,0,49,49,0,0,0,49,49,49,0,49,Tue Sep 13 18:39:03 2022,1500,The main experiment item,yes,Lab 2.1 FlankerTask.osexp,C:\Users\Melissa\OneDrive\Desktop\ADVANCED QUANT,no,mono,no,18,no,white,no,no,768,legacy,49,49,C:/Users/Melissa/OneDrive/Desktop/ADVANCED QUANT/MM-subject-2.csv,legacy,Lentiform Loewenfeld,3.3.12,0,s,NA,s,NA,NA,s,431,NA,1315,NA,NA,431,2,legacy,1024,2,48000,-16,experiment,SSSSS,2,even,3383,NA,NA,84813,NA,NA,86417,85319,2066,NA,NA,86522,86954,86415,2062,86522,Flanker Task,47,22385,50,yes,1024
94.11764706,94.11764706,447.0392157,447.0392157,black,legacy,legacy,legacy,0,Incongruent,uniform,1,undefined,1,s,0,0,0,50,50,0,50,50,0,0,0,50,50,50,0,50,Tue Sep 13 18:39:03 2022,1500,The main experiment item,yes,Lab 2.1 FlankerTask.osexp,C:\Users\Melissa\OneDrive\Desktop\ADVANCED QUANT,no,mono,no,18,no,white,no,no,768,legacy,50,50,C:/Users/Melissa/OneDrive/Desktop/ADVANCED QUANT/MM-subject-2.csv,legacy,Lentiform Loewenfeld,3.3.12,0,s,NA,s,NA,NA,s,414,NA,1315,NA,NA,414,2,legacy,1024,2,48000,-16,experiment,HHSHH,2,even,3383,NA,NA,84813,NA,NA,88054,86969,2066,NA,NA,88159,88574,88051,2062,88159,Flanker Task,48,22799,51,yes,1024
94.23076923,94.23076923,447.7884615,447.7884615,black,legacy,legacy,legacy,0,Congruent,uniform,1,undefined,1,h,0,0,0,51,51,0,51,51,0,0,0,51,51,51,0,51,Tue Sep 13 18:39:03 2022,1500,The main experiment item,yes,Lab 2.1 FlankerTask.osexp,C:\Users\Melissa\OneDrive\Desktop\ADVANCED QUANT,no,mono,no,18,no,white,no,no,768,legacy,51,51,C:/Users/Melissa/OneDrive/Desktop/ADVANCED QUANT/MM-subject-2.csv,legacy,Lentiform Loewenfeld,3.3.12,0,h,NA,s,NA,NA,h,486,NA,1315,NA,NA,486,2,legacy,1024,2,48000,-16,experiment,HHHHH,2,even,3383,NA,NA,84813,NA,NA,89677,88589,2066,NA,NA,89782,90270,89675,2062,89782,Flanker Task,49,23285,52,yes,1024
94.33962264,94.33962264,449.2830189,449.2830189,black,legacy,legacy,legacy,0,Congruent,uniform,1,undefined,1,h,0,0,0,52,52,0,52,52,0,0,0,52,52,52,0,52,Tue Sep 13 18:39:03 2022,1500,The main experiment item,yes,Lab 2.1 FlankerTask.osexp,C:\Users\Melissa\OneDrive\Desktop\ADVANCED QUANT,no,mono,no,18,no,white,no,no,768,legacy,52,52,C:/Users/Melissa/OneDrive/Desktop/ADVANCED QUANT/MM-subject-2.csv,legacy,Lentiform Loewenfeld,3.3.12,0,h,NA,s,NA,NA,h,527,NA,1315,NA,NA,527,2,legacy,1024,2,48000,-16,experiment,HHHHH,2,even,3383,NA,NA,84813,NA,NA,91390,90284,2066,NA,NA,91495,92022,91388,2062,91494,Flanker Task,50,23812,53,yes,1024
94.44444444,94.44444444,447.9814815,447.9814815,black,legacy,legacy,legacy,0,Congruent,uniform,1,undefined,1,s,0,0,0,53,53,0,53,53,0,0,0,53,53,53,0,53,Tue Sep 13 18:39:03 2022,1500,The main experiment item,yes,Lab 2.1 FlankerTask.osexp,C:\Users\Melissa\OneDrive\Desktop\ADVANCED QUANT,no,mono,no,18,no,white,no,no,768,legacy,53,53,C:/Users/Melissa/OneDrive/Desktop/ADVANCED QUANT/MM-subject-2.csv,legacy,Lentiform Loewenfeld,3.3.12,0,s,NA,s,NA,NA,s,379,NA,1315,NA,NA,379,2,legacy,1024,2,48000,-16,experiment,SSSSS,2,even,3383,NA,NA,84813,NA,NA,93120,92035,2066,NA,NA,93226,93606,93118,2062,93226,Flanker Task,51,24191,54,yes,1024
94.54545455,94.54545455,448.3636364,448.3636364,black,legacy,legacy,legacy,0,Congruent,uniform,1,undefined,1,h,0,0,0,54,54,0,54,54,0,0,0,54,54,54,0,54,Tue Sep 13 18:39:03 2022,1500,The main experiment item,yes,Lab 2.1 FlankerTask.osexp,C:\Users\Melissa\OneDrive\Desktop\ADVANCED QUANT,no,mono,no,18,no,white,no,no,768,legacy,54,54,C:/Users/Melissa/OneDrive/Desktop/ADVANCED QUANT/MM-subject-2.csv,legacy,Lentiform Loewenfeld,3.3.12,0,h,NA,s,NA,NA,h,469,NA,1315,NA,NA,469,2,legacy,1024,2,48000,-16,experiment,HHHHH,2,even,3383,NA,NA,84813,NA,NA,94702,93621,2066,NA,NA,94808,95278,94700,2062,94808,Flanker Task,52,24660,55,yes,1024
94.64285714,94.64285714,448.8571429,448.8571429,black,legacy,legacy,legacy,0,Incongruent,uniform,1,undefined,1,h,0,0,0,55,55,0,55,55,0,0,0,55,55,55,0,55,Tue Sep 13 18:39:03 2022,1500,The main experiment item,yes,Lab 2.1 FlankerTask.osexp,C:\Users\Melissa\OneDrive\Desktop\ADVANCED QUANT,no,mono,no,18,no,white,no,no,768,legacy,55,55,C:/Users/Melissa/OneDrive/Desktop/ADVANCED QUANT/MM-subject-2.csv,legacy,Lentiform Loewenfeld,3.3.12,0,h,NA,s,NA,NA,h,476,NA,1315,NA,NA,476,2,legacy,1024,2,48000,-16,experiment,SSHSS,2,even,3383,NA,NA,84813,NA,NA,96389,95293,2066,NA,NA,96494,96971,96387,2062,96493,Flanker Task,53,25136,56,yes,1024
94.73684211,94.73684211,447,447,black,legacy,legacy,legacy,0,Congruent,uniform,1,undefined,1,s,0,0,0,56,56,0,56,56,0,0,0,56,56,56,0,56,Tue Sep 13 18:39:03 2022,1500,The main experiment item,yes,Lab 2.1 FlankerTask.osexp,C:\Users\Melissa\OneDrive\Desktop\ADVANCED QUANT,no,mono,no,18,no,white,no,no,768,legacy,56,56,C:/Users/Melissa/OneDrive/Desktop/ADVANCED QUANT/MM-subject-2.csv,legacy,Lentiform Loewenfeld,3.3.12,0,s,NA,s,NA,NA,s,343,NA,1315,NA,NA,343,2,legacy,1024,2,48000,-16,experiment,SSSSS,2,even,3383,NA,NA,84813,NA,NA,98080,96985,2066,NA,NA,98185,98529,98079,2062,98185,Flanker Task,54,25479,57,yes,1024
94.82758621,94.82758621,448.2241379,448.2241379,black,legacy,legacy,legacy,0,Incongruent,uniform,1,undefined,1,h,0,0,0,57,57,0,57,57,0,0,0,57,57,57,0,57,Tue Sep 13 18:39:03 2022,1500,The main experiment item,yes,Lab 2.1 FlankerTask.osexp,C:\Users\Melissa\OneDrive\Desktop\ADVANCED QUANT,no,mono,no,18,no,white,no,no,768,legacy,57,57,C:/Users/Melissa/OneDrive/Desktop/ADVANCED QUANT/MM-subject-2.csv,legacy,Lentiform Loewenfeld,3.3.12,0,h,NA,s,NA,NA,h,518,NA,1315,NA,NA,518,2,legacy,1024,2,48000,-16,experiment,SSHSS,2,even,3383,NA,NA,84813,NA,NA,99640,98544,2066,NA,NA,99741,100259,99638,2062,99741,Flanker Task,55,25997,58,yes,1024
94.91525424,94.91525424,449.5423729,449.5423729,black,legacy,legacy,legacy,0,Incongruent,uniform,1,undefined,1,s,0,0,0,58,58,0,58,58,0,0,0,58,58,58,0,58,Tue Sep 13 18:39:03 2022,1500,The main experiment item,yes,Lab 2.1 FlankerTask.osexp,C:\Users\Melissa\OneDrive\Desktop\ADVANCED QUANT,no,mono,no,18,no,white,no,no,768,legacy,58,58,C:/Users/Melissa/OneDrive/Desktop/ADVANCED QUANT/MM-subject-2.csv,legacy,Lentiform Loewenfeld,3.3.12,0,s,NA,s,NA,NA,s,526,NA,1315,NA,NA,526,2,legacy,1024,2,48000,-16,experiment,HHSHH,2,even,3383,NA,NA,84813,NA,NA,101365,100276,2066,NA,NA,101470,101997,101362,2062,101470,Flanker Task,56,26523,59,yes,1024
95,95,452.3166667,452.3166667,black,legacy,legacy,legacy,0,Incongruent,uniform,1,undefined,1,s,0,0,0,59,59,0,59,59,0,0,0,59,59,59,0,59,Tue Sep 13 18:39:03 2022,1500,The main experiment item,yes,Lab 2.1 FlankerTask.osexp,C:\Users\Melissa\OneDrive\Desktop\ADVANCED QUANT,no,mono,no,18,no,white,no,no,768,legacy,59,59,C:/Users/Melissa/OneDrive/Desktop/ADVANCED QUANT/MM-subject-2.csv,legacy,Lentiform Loewenfeld,3.3.12,0,s,NA,s,NA,NA,s,616,NA,1315,NA,NA,616,2,legacy,1024,2,48000,-16,experiment,HHSHH,2,even,3383,NA,NA,84813,NA,NA,103107,102012,2066,NA,NA,103212,103830,103105,2062,103211,Flanker Task,57,27139,60,yes,1024
95.08196721,95.08196721,453,453,black,legacy,legacy,legacy,0,Congruent,uniform,1,undefined,1,h,0,0,0,60,60,0,60,60,0,0,0,60,60,60,0,60,Tue Sep 13 18:39:03 2022,1500,The main experiment item,yes,Lab 2.1 FlankerTask.osexp,C:\Users\Melissa\OneDrive\Desktop\ADVANCED QUANT,no,mono,no,18,no,white,no,no,768,legacy,60,60,C:/Users/Melissa/OneDrive/Desktop/ADVANCED QUANT/MM-subject-2.csv,legacy,Lentiform Loewenfeld,3.3.12,0,h,NA,s,NA,NA,h,494,NA,1315,NA,NA,494,2,legacy,1024,2,48000,-16,experiment,HHHHH,2,even,3383,NA,NA,84813,NA,NA,104941,103845,2066,NA,NA,105045,105540,104939,2062,105045,Flanker Task,58,27633,61,yes,1024
95.16129032,95.16129032,453.3709677,453.3709677,black,legacy,legacy,legacy,0,Incongruent,uniform,1,undefined,1,h,0,0,0,61,61,0,61,61,0,0,0,61,61,61,0,61,Tue Sep 13 18:39:03 2022,1500,The main experiment item,yes,Lab 2.1 FlankerTask.osexp,C:\Users\Melissa\OneDrive\Desktop\ADVANCED QUANT,no,mono,no,18,no,white,no,no,768,legacy,61,61,C:/Users/Melissa/OneDrive/Desktop/ADVANCED QUANT/MM-subject-2.csv,legacy,Lentiform Loewenfeld,3.3.12,0,h,NA,s,NA,NA,h,476,NA,1315,NA,NA,476,2,legacy,1024,2,48000,-16,experiment,SSHSS,2,even,3383,NA,NA,84813,NA,NA,106640,105543,2066,NA,NA,106745,107222,106638,2062,106745,Flanker Task,59,28109,62,yes,1024
95.23809524,95.23809524,454.952381,454.952381,black,legacy,legacy,legacy,0,Incongruent,uniform,1,undefined,1,h,0,0,0,62,62,0,62,62,0,0,0,62,62,62,0,62,Tue Sep 13 18:39:03 2022,1500,The main experiment item,yes,Lab 2.1 FlankerTask.osexp,C:\Users\Melissa\OneDrive\Desktop\ADVANCED QUANT,no,mono,no,18,no,white,no,no,768,legacy,62,62,C:/Users/Melissa/OneDrive/Desktop/ADVANCED QUANT/MM-subject-2.csv,legacy,Lentiform Loewenfeld,3.3.12,0,h,NA,s,NA,NA,h,553,NA,1315,NA,NA,553,2,legacy,1024,2,48000,-16,experiment,SSHSS,2,even,3383,NA,NA,84813,NA,NA,108338,107239,2066,NA,NA,108447,109001,108336,2062,108447,Flanker Task,60,28662,63,yes,1024
95.3125,95.3125,455.84375,455.84375,black,legacy,legacy,legacy,0,Incongruent,uniform,1,undefined,1,h,0,0,0,63,63,0,63,63,0,0,0,63,63,63,0,63,Tue Sep 13 18:39:03 2022,1500,The main experiment item,yes,Lab 2.1 FlankerTask.osexp,C:\Users\Melissa\OneDrive\Desktop\ADVANCED QUANT,no,mono,no,18,no,white,no,no,768,legacy,63,63,C:/Users/Melissa/OneDrive/Desktop/ADVANCED QUANT/MM-subject-2.csv,legacy,Lentiform Loewenfeld,3.3.12,0,h,NA,s,NA,NA,h,512,NA,1315,NA,NA,512,2,legacy,1024,2,48000,-16,experiment,SSHSS,2,even,3383,NA,NA,84813,NA,NA,110097,109016,2066,NA,NA,110202,110715,110095,2062,110202,Flanker Task,61,29174,64,yes,1024
95.38461538,95.38461538,456.4769231,456.4769231,black,legacy,legacy,legacy,0,Congruent,uniform,1,undefined,1,h,0,0,0,64,64,0,64,64,0,0,0,64,64,64,0,64,Tue Sep 13 18:39:03 2022,1500,The main experiment item,yes,Lab 2.1 FlankerTask.osexp,C:\Users\Melissa\OneDrive\Desktop\ADVANCED QUANT,no,mono,no,18,no,white,no,no,768,legacy,64,64,C:/Users/Melissa/OneDrive/Desktop/ADVANCED QUANT/MM-subject-2.csv,legacy,Lentiform Loewenfeld,3.3.12,0,h,NA,s,NA,NA,h,497,NA,1315,NA,NA,497,2,legacy,1024,2,48000,-16,experiment,HHHHH,2,even,3383,NA,NA,84813,NA,NA,111823,110728,2066,NA,NA,111925,112423,111821,2062,111924,Flanker Task,62,29671,65,yes,1024
95.45454545,95.45454545,456.6060606,456.6060606,black,legacy,legacy,legacy,0,Congruent,uniform,1,undefined,1,h,0,0,0,65,65,0,65,65,0,0,0,65,65,65,0,65,Tue Sep 13 18:39:03 2022,1500,The main experiment item,yes,Lab 2.1 FlankerTask.osexp,C:\Users\Melissa\OneDrive\Desktop\ADVANCED QUANT,no,mono,no,18,no,white,no,no,768,legacy,65,65,C:/Users/Melissa/OneDrive/Desktop/ADVANCED QUANT/MM-subject-2.csv,legacy,Lentiform Loewenfeld,3.3.12,0,h,NA,s,NA,NA,h,465,NA,1315,NA,NA,465,2,legacy,1024,2,48000,-16,experiment,HHHHH,2,even,3383,NA,NA,84813,NA,NA,113544,112442,2066,NA,NA,113649,114116,113541,2062,113649,Flanker Task,63,30136,66,yes,1024
95.52238806,95.52238806,456.8208955,456.8208955,black,legacy,legacy,legacy,0,Congruent,uniform,1,undefined,1,s,0,0,0,66,66,0,66,66,0,0,0,66,66,66,0,66,Tue Sep 13 18:39:03 2022,1500,The main experiment item,yes,Lab 2.1 FlankerTask.osexp,C:\Users\Melissa\OneDrive\Desktop\ADVANCED QUANT,no,mono,no,18,no,white,no,no,768,legacy,66,66,C:/Users/Melissa/OneDrive/Desktop/ADVANCED QUANT/MM-subject-2.csv,legacy,Lentiform Loewenfeld,3.3.12,0,s,NA,s,NA,NA,s,471,NA,1315,NA,NA,471,2,legacy,1024,2,48000,-16,experiment,SSSSS,2,even,3383,NA,NA,84813,NA,NA,115209,114131,2066,NA,NA,115313,115785,115207,2062,115313,Flanker Task,64,30607,67,yes,1024
95.58823529,95.58823529,456.8823529,456.8823529,black,legacy,legacy,legacy,0,Incongruent,uniform,1,undefined,1,h,0,0,0,67,67,0,67,67,0,0,0,67,67,67,0,67,Tue Sep 13 18:39:03 2022,1500,The main experiment item,yes,Lab 2.1 FlankerTask.osexp,C:\Users\Melissa\OneDrive\Desktop\ADVANCED QUANT,no,mono,no,18,no,white,no,no,768,legacy,67,67,C:/Users/Melissa/OneDrive/Desktop/ADVANCED QUANT/MM-subject-2.csv,legacy,Lentiform Loewenfeld,3.3.12,0,h,NA,s,NA,NA,h,461,NA,1315,NA,NA,461,2,legacy,1024,2,48000,-16,experiment,SSHSS,2,even,3383,NA,NA,84813,NA,NA,116892,115800,2066,NA,NA,116997,117459,116890,2062,116997,Flanker Task,65,31068,68,yes,1024
95.65217391,95.65217391,457.173913,457.173913,black,legacy,legacy,legacy,0,Incongruent,uniform,1,undefined,1,s,0,0,0,68,68,0,68,68,0,0,0,68,68,68,0,68,Tue Sep 13 18:39:03 2022,1500,The main experiment item,yes,Lab 2.1 FlankerTask.osexp,C:\Users\Melissa\OneDrive\Desktop\ADVANCED QUANT,no,mono,no,18,no,white,no,no,768,legacy,68,68,C:/Users/Melissa/OneDrive/Desktop/ADVANCED QUANT/MM-subject-2.csv,legacy,Lentiform Loewenfeld,3.3.12,0,s,NA,s,NA,NA,s,477,NA,1315,NA,NA,477,2,legacy,1024,2,48000,-16,experiment,HHSHH,2,even,3383,NA,NA,84813,NA,NA,118558,117474,2066,NA,NA,118663,119141,118556,2062,118663,Flanker Task,66,31545,69,yes,1024
95.71428571,95.71428571,457.3428571,457.3428571,black,legacy,legacy,legacy,0,Incongruent,uniform,1,undefined,1,s,0,0,0,69,69,0,69,69,0,0,0,69,69,69,0,69,Tue Sep 13 18:39:03 2022,1500,The main experiment item,yes,Lab 2.1 FlankerTask.osexp,C:\Users\Melissa\OneDrive\Desktop\ADVANCED QUANT,no,mono,no,18,no,white,no,no,768,legacy,69,69,C:/Users/Melissa/OneDrive/Desktop/ADVANCED QUANT/MM-subject-2.csv,legacy,Lentiform Loewenfeld,3.3.12,0,s,NA,s,NA,NA,s,469,NA,1315,NA,NA,469,2,legacy,1024,2,48000,-16,experiment,HHSHH,2,even,3383,NA,NA,84813,NA,NA,120226,119144,2066,NA,NA,120332,120802,120225,2062,120332,Flanker Task,67,32014,70,yes,1024
95.77464789,95.77464789,461.1267606,461.1267606,black,legacy,legacy,legacy,0,Congruent,uniform,1,undefined,1,s,0,0,0,70,70,0,70,70,0,0,0,70,70,70,0,70,Tue Sep 13 18:39:03 2022,1500,The main experiment item,yes,Lab 2.1 FlankerTask.osexp,C:\Users\Melissa\OneDrive\Desktop\ADVANCED QUANT,no,mono,no,18,no,white,no,no,768,legacy,70,70,C:/Users/Melissa/OneDrive/Desktop/ADVANCED QUANT/MM-subject-2.csv,legacy,Lentiform Loewenfeld,3.3.12,0,s,NA,s,NA,NA,s,726,NA,1315,NA,NA,726,2,legacy,1024,2,48000,-16,experiment,SSSSS,2,even,3383,NA,NA,84813,NA,NA,121897,120810,2066,NA,NA,122002,122729,121895,2062,122001,Flanker Task,68,32740,71,yes,1024
95.83333333,95.83333333,462.9027778,462.9027778,black,legacy,legacy,legacy,0,Incongruent,uniform,1,undefined,1,s,0,0,0,71,71,0,71,71,0,0,0,71,71,71,0,71,Tue Sep 13 18:39:03 2022,1500,The main experiment item,yes,Lab 2.1 FlankerTask.osexp,C:\Users\Melissa\OneDrive\Desktop\ADVANCED QUANT,no,mono,no,18,no,white,no,no,768,legacy,71,71,C:/Users/Melissa/OneDrive/Desktop/ADVANCED QUANT/MM-subject-2.csv,legacy,Lentiform Loewenfeld,3.3.12,0,s,NA,s,NA,NA,s,589,NA,1315,NA,NA,589,2,legacy,1024,2,48000,-16,experiment,HHSHH,2,even,3383,NA,NA,84813,NA,NA,123845,122747,2066,NA,NA,123950,124540,123842,2062,123950,Flanker Task,69,33329,72,yes,1024
95.89041096,95.89041096,463.6575342,463.6575342,black,legacy,legacy,legacy,0,Congruent,uniform,1,undefined,1,h,0,0,0,72,72,0,72,72,0,0,0,72,72,72,0,72,Tue Sep 13 18:39:03 2022,1500,The main experiment item,yes,Lab 2.1 FlankerTask.osexp,C:\Users\Melissa\OneDrive\Desktop\ADVANCED QUANT,no,mono,no,18,no,white,no,no,768,legacy,72,72,C:/Users/Melissa/OneDrive/Desktop/ADVANCED QUANT/MM-subject-2.csv,legacy,Lentiform Loewenfeld,3.3.12,0,h,NA,s,NA,NA,h,518,NA,1315,NA,NA,518,2,legacy,1024,2,48000,-16,experiment,HHHHH,2,even,3383,NA,NA,84813,NA,NA,125648,124554,2066,NA,NA,125751,126270,125646,2062,125751,Flanker Task,70,33847,73,yes,1024
95.94594595,95.94594595,463.8243243,463.8243243,black,legacy,legacy,legacy,0,Incongruent,uniform,1,undefined,1,h,0,0,0,73,73,0,73,73,0,0,0,73,73,73,0,73,Tue Sep 13 18:39:03 2022,1500,The main experiment item,yes,Lab 2.1 FlankerTask.osexp,C:\Users\Melissa\OneDrive\Desktop\ADVANCED QUANT,no,mono,no,18,no,white,no,no,768,legacy,73,73,C:/Users/Melissa/OneDrive/Desktop/ADVANCED QUANT/MM-subject-2.csv,legacy,Lentiform Loewenfeld,3.3.12,0,h,NA,s,NA,NA,h,476,NA,1315,NA,NA,476,2,legacy,1024,2,48000,-16,experiment,SSHSS,2,even,3383,NA,NA,84813,NA,NA,127387,126285,2066,NA,NA,127492,127969,127385,2062,127492,Flanker Task,71,34323,74,yes,1024
96,96,463.9466667,463.9466667,black,legacy,legacy,legacy,0,Incongruent,uniform,1,undefined,1,s,0,0,0,74,74,0,74,74,0,0,0,74,74,74,0,74,Tue Sep 13 18:39:03 2022,1500,The main experiment item,yes,Lab 2.1 FlankerTask.osexp,C:\Users\Melissa\OneDrive\Desktop\ADVANCED QUANT,no,mono,no,18,no,white,no,no,768,legacy,74,74,C:/Users/Melissa/OneDrive/Desktop/ADVANCED QUANT/MM-subject-2.csv,legacy,Lentiform Loewenfeld,3.3.12,0,s,NA,s,NA,NA,s,473,NA,1315,NA,NA,473,2,legacy,1024,2,48000,-16,experiment,HHSHH,2,even,3383,NA,NA,84813,NA,NA,129111,127985,2066,NA,NA,129217,129691,129108,2062,129216,Flanker Task,72,34796,75,yes,1024
96.05263158,96.05263158,464.6447368,464.6447368,black,legacy,legacy,legacy,0,Incongruent,uniform,1,undefined,1,s,0,0,0,75,75,0,75,75,0,0,0,75,75,75,0,75,Tue Sep 13 18:39:03 2022,1500,The main experiment item,yes,Lab 2.1 FlankerTask.osexp,C:\Users\Melissa\OneDrive\Desktop\ADVANCED QUANT,no,mono,no,18,no,white,no,no,768,legacy,75,75,C:/Users/Melissa/OneDrive/Desktop/ADVANCED QUANT/MM-subject-2.csv,legacy,Lentiform Loewenfeld,3.3.12,0,s,NA,s,NA,NA,s,517,NA,1315,NA,NA,517,2,legacy,1024,2,48000,-16,experiment,HHSHH,2,even,3383,NA,NA,84813,NA,NA,130784,129704,2066,NA,NA,130889,131407,130782,2062,130889,Flanker Task,73,35313,76,yes,1024
96.1038961,96.1038961,464.2597403,464.2597403,black,legacy,legacy,legacy,0,Congruent,uniform,1,undefined,1,s,0,0,0,76,76,0,76,76,0,0,0,76,76,76,0,76,Tue Sep 13 18:39:03 2022,1500,The main experiment item,yes,Lab 2.1 FlankerTask.osexp,C:\Users\Melissa\OneDrive\Desktop\ADVANCED QUANT,no,mono,no,18,no,white,no,no,768,legacy,76,76,C:/Users/Melissa/OneDrive/Desktop/ADVANCED QUANT/MM-subject-2.csv,legacy,Lentiform Loewenfeld,3.3.12,0,s,NA,s,NA,NA,s,435,NA,1315,NA,NA,435,2,legacy,1024,2,48000,-16,experiment,SSSSS,2,even,3383,NA,NA,84813,NA,NA,132511,131412,2066,NA,NA,132617,133053,132510,2062,132617,Flanker Task,74,35748,77,yes,1024
96.15384615,96.15384615,464.8205128,464.8205128,black,legacy,legacy,legacy,0,Congruent,uniform,1,undefined,1,h,0,0,0,77,77,0,77,77,0,0,0,77,77,77,0,77,Tue Sep 13 18:39:03 2022,1500,The main experiment item,yes,Lab 2.1 FlankerTask.osexp,C:\Users\Melissa\OneDrive\Desktop\ADVANCED QUANT,no,mono,no,18,no,white,no,no,768,legacy,77,77,C:/Users/Melissa/OneDrive/Desktop/ADVANCED QUANT/MM-subject-2.csv,legacy,Lentiform Loewenfeld,3.3.12,0,h,NA,s,NA,NA,h,508,NA,1315,NA,NA,508,2,legacy,1024,2,48000,-16,experiment,HHHHH,2,even,3383,NA,NA,84813,NA,NA,134157,133077,2066,NA,NA,134263,134771,134155,2062,134262,Flanker Task,75,36256,78,yes,1024
96.20253165,96.20253165,466.7341772,466.7341772,black,legacy,legacy,legacy,0,Incongruent,uniform,1,undefined,1,h,0,0,0,78,78,0,78,78,0,0,0,78,78,78,0,78,Tue Sep 13 18:39:03 2022,1500,The main experiment item,yes,Lab 2.1 FlankerTask.osexp,C:\Users\Melissa\OneDrive\Desktop\ADVANCED QUANT,no,mono,no,18,no,white,no,no,768,legacy,78,78,C:/Users/Melissa/OneDrive/Desktop/ADVANCED QUANT/MM-subject-2.csv,legacy,Lentiform Loewenfeld,3.3.12,0,h,NA,s,NA,NA,h,616,NA,1315,NA,NA,616,2,legacy,1024,2,48000,-16,experiment,SSHSS,2,even,3383,NA,NA,84813,NA,NA,135884,134786,2066,NA,NA,135985,136602,135882,2062,135985,Flanker Task,76,36872,79,yes,1024
96.25,96.25,466.95,466.95,black,legacy,legacy,legacy,0,Congruent,uniform,1,undefined,1,s,0,0,0,79,79,0,79,79,0,0,0,79,79,79,0,79,Tue Sep 13 18:39:03 2022,1500,The main experiment item,yes,Lab 2.1 FlankerTask.osexp,C:\Users\Melissa\OneDrive\Desktop\ADVANCED QUANT,no,mono,no,18,no,white,no,no,768,legacy,79,79,C:/Users/Melissa/OneDrive/Desktop/ADVANCED QUANT/MM-subject-2.csv,legacy,Lentiform Loewenfeld,3.3.12,0,s,NA,s,NA,NA,s,484,NA,1315,NA,NA,484,2,legacy,1024,2,48000,-16,experiment,SSSSS,2,even,3383,NA,NA,84813,NA,NA,137706,136615,2066,NA,NA,137811,138295,137704,2062,137811,Flanker Task,77,37356,80,yes,1024
96.2962963,96.2962963,467.4567901,467.4567901,black,legacy,legacy,legacy,0,Congruent,uniform,1,undefined,1,h,0,0,0,80,80,0,80,80,0,0,0,80,80,80,0,80,Tue Sep 13 18:39:03 2022,600,The main experiment item,yes,Lab 2.1 FlankerTask.osexp,C:\Users\Melissa\OneDrive\Desktop\ADVANCED QUANT,no,mono,no,18,no,white,no,no,768,legacy,0,79,C:/Users/Melissa/OneDrive/Desktop/ADVANCED QUANT/MM-subject-2.csv,legacy,Lentiform Loewenfeld,3.3.12,0,h,NA,s,s,NA,h,508,NA,1315,41125,NA,508,2,legacy,1024,2,48000,-16,experiment,HHHHH,2,even,3383,180486,NA,84813,NA,NA,180564,138300,2066,139359,NA,180668,181177,180562,2062,180667,Flanker Task,78,37864,81,yes,1024
96.34146341,96.34146341,467.8292683,467.8292683,black,legacy,legacy,legacy,0,Congruent,uniform,1,undefined,1,s,0,0,0,81,81,0,81,81,0,0,0,81,81,81,0,81,Tue Sep 13 18:39:03 2022,600,The main experiment item,yes,Lab 2.1 FlankerTask.osexp,C:\Users\Melissa\OneDrive\Desktop\ADVANCED QUANT,no,mono,no,18,no,white,no,no,768,legacy,1,79,C:/Users/Melissa/OneDrive/Desktop/ADVANCED QUANT/MM-subject-2.csv,legacy,Lentiform Loewenfeld,3.3.12,0,s,NA,s,s,NA,s,498,NA,1315,41125,NA,498,2,legacy,1024,2,48000,-16,experiment,SSSSS,2,even,3383,180486,NA,84813,NA,NA,182312,181193,2066,139359,NA,182417,182916,182310,2062,182417,Flanker Task,79,38362,82,yes,1024
96.38554217,96.38554217,467.3614458,467.3614458,black,legacy,legacy,legacy,0,Congruent,uniform,1,undefined,1,h,0,0,0,82,82,0,82,82,0,0,0,82,82,82,0,82,Tue Sep 13 18:39:03 2022,600,The main experiment item,yes,Lab 2.1 FlankerTask.osexp,C:\Users\Melissa\OneDrive\Desktop\ADVANCED QUANT,no,mono,no,18,no,white,no,no,768,legacy,2,79,C:/Users/Melissa/OneDrive/Desktop/ADVANCED QUANT/MM-subject-2.csv,legacy,Lentiform Loewenfeld,3.3.12,0,h,NA,s,s,NA,h,429,NA,1315,41125,NA,429,2,legacy,1024,2,48000,-16,experiment,HHHHH,2,even,3383,180486,NA,84813,NA,NA,184024,182929,2066,139359,NA,184129,184559,184022,2062,184129,Flanker Task,80,38791,83,yes,1024
96.42857143,96.42857143,468.6666667,468.6666667,black,legacy,legacy,legacy,0,Incongruent,uniform,1,undefined,1,h,0,0,0,83,83,0,83,83,0,0,0,83,83,83,0,83,Tue Sep 13 18:39:03 2022,600,The main experiment item,yes,Lab 2.1 FlankerTask.osexp,C:\Users\Melissa\OneDrive\Desktop\ADVANCED QUANT,no,mono,no,18,no,white,no,no,768,legacy,3,79,C:/Users/Melissa/OneDrive/Desktop/ADVANCED QUANT/MM-subject-2.csv,legacy,Lentiform Loewenfeld,3.3.12,0,h,NA,s,s,NA,h,577,NA,1315,41125,NA,577,2,legacy,1024,2,48000,-16,experiment,SSHSS,2,even,3383,180486,NA,84813,NA,NA,185653,184563,2066,139359,NA,185756,186334,185651,2062,185756,Flanker Task,81,39368,84,yes,1024
96.47058824,96.47058824,469.8588235,469.8588235,black,legacy,legacy,legacy,0,Incongruent,uniform,1,undefined,1,s,0,0,0,84,84,0,84,84,0,0,0,84,84,84,0,84,Tue Sep 13 18:39:03 2022,600,The main experiment item,yes,Lab 2.1 FlankerTask.osexp,C:\Users\Melissa\OneDrive\Desktop\ADVANCED QUANT,no,mono,no,18,no,white,no,no,768,legacy,4,79,C:/Users/Melissa/OneDrive/Desktop/ADVANCED QUANT/MM-subject-2.csv,legacy,Lentiform Loewenfeld,3.3.12,0,s,NA,s,s,NA,s,570,NA,1315,41125,NA,570,2,legacy,1024,2,48000,-16,experiment,HHSHH,2,even,3383,180486,NA,84813,NA,NA,187475,186347,2066,139359,NA,187580,188151,187473,2062,187580,Flanker Task,82,39938,85,yes,1024
96.51162791,96.51162791,470.6046512,470.6046512,black,legacy,legacy,legacy,0,Congruent,uniform,1,undefined,1,h,0,0,0,85,85,0,85,85,0,0,0,85,85,85,0,85,Tue Sep 13 18:39:03 2022,600,The main experiment item,yes,Lab 2.1 FlankerTask.osexp,C:\Users\Melissa\OneDrive\Desktop\ADVANCED QUANT,no,mono,no,18,no,white,no,no,768,legacy,5,79,C:/Users/Melissa/OneDrive/Desktop/ADVANCED QUANT/MM-subject-2.csv,legacy,Lentiform Loewenfeld,3.3.12,0,h,NA,s,s,NA,h,534,NA,1315,41125,NA,534,2,legacy,1024,2,48000,-16,experiment,HHHHH,2,even,3383,180486,NA,84813,NA,NA,189267,188170,2066,139359,NA,189372,189907,189264,2062,189372,Flanker Task,83,40472,86,yes,1024
95.40229885,95.40229885,470.2643678,470.2643678,black,legacy,legacy,legacy,0,Incongruent,uniform,0,undefined,0,h,0,0,0,86,86,0,86,86,0,0,0,86,86,86,0,86,Tue Sep 13 18:39:03 2022,600,The main experiment item,yes,Lab 2.1 FlankerTask.osexp,C:\Users\Melissa\OneDrive\Desktop\ADVANCED QUANT,no,mono,no,18,no,white,no,no,768,legacy,6,79,C:/Users/Melissa/OneDrive/Desktop/ADVANCED QUANT/MM-subject-2.csv,legacy,Lentiform Loewenfeld,3.3.12,0,s,NA,s,s,NA,s,441,NA,1315,41125,NA,441,2,legacy,1024,2,48000,-16,experiment,SSHSS,2,even,3383,180486,NA,84813,NA,NA,191020,189922,2066,139359,NA,191125,191567,191017,2062,191125,Flanker Task,83,40913,87,yes,1024
95.45454545,95.45454545,474.1477273,474.1477273,black,legacy,legacy,legacy,0,Congruent,uniform,1,undefined,1,h,0,0,0,87,87,0,87,87,0,0,0,87,87,87,0,87,Tue Sep 13 18:39:03 2022,600,The main experiment item,yes,Lab 2.1 FlankerTask.osexp,C:\Users\Melissa\OneDrive\Desktop\ADVANCED QUANT,no,mono,no,18,no,white,no,no,768,legacy,7,79,C:/Users/Melissa/OneDrive/Desktop/ADVANCED QUANT/MM-subject-2.csv,legacy,Lentiform Loewenfeld,3.3.12,0,h,NA,s,s,NA,h,812,NA,1315,41125,NA,812,2,legacy,1024,2,48000,-16,experiment,HHHHH,2,even,3383,180486,NA,191581,NA,NA,193182,192082,2066,139359,NA,193287,194100,193180,2062,193287,Flanker Task,84,41725,88,yes,1024
95.50561798,95.50561798,473.6179775,473.6179775,black,legacy,legacy,legacy,0,Congruent,uniform,1,undefined,1,s,0,0,0,88,88,0,88,88,0,0,0,88,88,88,0,88,Tue Sep 13 18:39:03 2022,600,The main experiment item,yes,Lab 2.1 FlankerTask.osexp,C:\Users\Melissa\OneDrive\Desktop\ADVANCED QUANT,no,mono,no,18,no,white,no,no,768,legacy,8,79,C:/Users/Melissa/OneDrive/Desktop/ADVANCED QUANT/MM-subject-2.csv,legacy,Lentiform Loewenfeld,3.3.12,0,s,NA,s,s,NA,s,427,NA,1315,41125,NA,427,2,legacy,1024,2,48000,-16,experiment,SSSSS,2,even,3383,180486,NA,191581,194104,NA,195732,194618,2066,139359,NA,195837,196265,195729,2062,195837,Flanker Task,85,42152,89,yes,1024
95.55555556,95.55555556,473.8888889,473.8888889,black,legacy,legacy,legacy,0,Congruent,uniform,1,undefined,1,h,0,0,0,89,89,0,89,89,0,0,0,89,89,89,0,89,Tue Sep 13 18:39:03 2022,600,The main experiment item,yes,Lab 2.1 FlankerTask.osexp,C:\Users\Melissa\OneDrive\Desktop\ADVANCED QUANT,no,mono,no,18,no,white,no,no,768,legacy,9,79,C:/Users/Melissa/OneDrive/Desktop/ADVANCED QUANT/MM-subject-2.csv,legacy,Lentiform Loewenfeld,3.3.12,0,h,NA,s,s,NA,h,498,NA,1315,41125,NA,498,2,legacy,1024,2,48000,-16,experiment,HHHHH,2,even,3383,180486,NA,191581,194104,NA,197378,196279,2066,139359,NA,197484,197983,197376,2062,197483,Flanker Task,86,42650,90,yes,1024
95.6043956,95.6043956,473.4285714,473.4285714,black,legacy,legacy,legacy,0,Incongruent,uniform,1,undefined,1,s,0,0,0,90,90,0,90,90,0,0,0,90,90,90,0,90,Tue Sep 13 18:39:03 2022,600,The main experiment item,yes,Lab 2.1 FlankerTask.osexp,C:\Users\Melissa\OneDrive\Desktop\ADVANCED QUANT,no,mono,no,18,no,white,no,no,768,legacy,10,79,C:/Users/Melissa/OneDrive/Desktop/ADVANCED QUANT/MM-subject-2.csv,legacy,Lentiform Loewenfeld,3.3.12,0,s,NA,s,s,NA,s,432,NA,1315,41125,NA,432,2,legacy,1024,2,48000,-16,experiment,HHSHH,2,even,3383,180486,NA,191581,194104,NA,199099,197997,2066,139359,NA,199204,199637,199097,2062,199204,Flanker Task,87,43082,91,yes,1024
94.56521739,94.56521739,472.6413043,472.6413043,black,legacy,legacy,legacy,0,Incongruent,uniform,0,undefined,0,h,0,0,0,91,91,0,91,91,0,0,0,91,91,91,0,91,Tue Sep 13 18:39:03 2022,600,The main experiment item,yes,Lab 2.1 FlankerTask.osexp,C:\Users\Melissa\OneDrive\Desktop\ADVANCED QUANT,no,mono,no,18,no,white,no,no,768,legacy,11,79,C:/Users/Melissa/OneDrive/Desktop/ADVANCED QUANT/MM-subject-2.csv,legacy,Lentiform Loewenfeld,3.3.12,0,s,NA,s,s,NA,s,401,NA,1315,41125,NA,401,2,legacy,1024,2,48000,-16,experiment,SSHSS,2,even,3383,180486,NA,191581,194104,NA,200742,199641,2066,139359,NA,200849,201251,200740,2062,200849,Flanker Task,87,43483,92,yes,1024
94.62365591,94.62365591,472.0322581,472.0322581,black,legacy,legacy,legacy,0,Congruent,uniform,1,undefined,1,h,0,0,0,92,92,0,92,92,0,0,0,92,92,92,0,92,Tue Sep 13 18:39:03 2022,600,The main experiment item,yes,Lab 2.1 FlankerTask.osexp,C:\Users\Melissa\OneDrive\Desktop\ADVANCED QUANT,no,mono,no,18,no,white,no,no,768,legacy,12,79,C:/Users/Melissa/OneDrive/Desktop/ADVANCED QUANT/MM-subject-2.csv,legacy,Lentiform Loewenfeld,3.3.12,0,h,NA,s,s,NA,h,416,NA,1315,41125,NA,416,2,legacy,1024,2,48000,-16,experiment,HHHHH,2,even,3383,180486,NA,201265,194104,NA,202848,201771,2066,139359,NA,202952,203370,202846,2062,202952,Flanker Task,88,43899,93,yes,1024
94.68085106,94.68085106,471.6489362,471.6489362,black,legacy,legacy,legacy,0,Incongruent,uniform,1,undefined,1,h,0,0,0,93,93,0,93,93,0,0,0,93,93,93,0,93,Tue Sep 13 18:39:03 2022,600,The main experiment item,yes,Lab 2.1 FlankerTask.osexp,C:\Users\Melissa\OneDrive\Desktop\ADVANCED QUANT,no,mono,no,18,no,white,no,no,768,legacy,13,79,C:/Users/Melissa/OneDrive/Desktop/ADVANCED QUANT/MM-subject-2.csv,legacy,Lentiform Loewenfeld,3.3.12,0,h,NA,s,s,NA,h,436,NA,1315,41125,NA,436,2,legacy,1024,2,48000,-16,experiment,SSHSS,2,even,3383,180486,NA,201265,194104,NA,204484,203387,2066,139359,NA,204590,205027,204482,2062,204589,Flanker Task,89,44335,94,yes,1024
94.73684211,94.73684211,471.6842105,471.6842105,black,legacy,legacy,legacy,0,Incongruent,uniform,1,undefined,1,s,0,0,0,94,94,0,94,94,0,0,0,94,94,94,0,94,Tue Sep 13 18:39:03 2022,600,The main experiment item,yes,Lab 2.1 FlankerTask.osexp,C:\Users\Melissa\OneDrive\Desktop\ADVANCED QUANT,no,mono,no,18,no,white,no,no,768,legacy,14,79,C:/Users/Melissa/OneDrive/Desktop/ADVANCED QUANT/MM-subject-2.csv,legacy,Lentiform Loewenfeld,3.3.12,0,s,NA,s,s,NA,s,475,NA,1315,41125,NA,475,2,legacy,1024,2,48000,-16,experiment,HHSHH,2,even,3383,180486,NA,201265,194104,NA,206110,205031,2066,139359,NA,206214,206690,206109,2062,206214,Flanker Task,90,44810,95,yes,1024
94.79166667,94.79166667,471.0104167,471.0104167,black,legacy,legacy,legacy,0,Congruent,uniform,1,undefined,1,s,0,0,0,95,95,0,95,95,0,0,0,95,95,95,0,95,Tue Sep 13 18:39:03 2022,600,The main experiment item,yes,Lab 2.1 FlankerTask.osexp,C:\Users\Melissa\OneDrive\Desktop\ADVANCED QUANT,no,mono,no,18,no,white,no,no,768,legacy,15,79,C:/Users/Melissa/OneDrive/Desktop/ADVANCED QUANT/MM-subject-2.csv,legacy,Lentiform Loewenfeld,3.3.12,0,s,NA,s,s,NA,s,407,NA,1315,41125,NA,407,2,legacy,1024,2,48000,-16,experiment,SSSSS,2,even,3383,180486,NA,201265,194104,NA,207799,206705,2066,139359,NA,207903,208311,207797,2062,207903,Flanker Task,91,45217,96,yes,1024
94.84536082,94.84536082,470.4639175,470.4639175,black,legacy,legacy,legacy,0,Congruent,uniform,1,undefined,1,h,0,0,0,96,96,0,96,96,0,0,0,96,96,96,0,96,Tue Sep 13 18:39:03 2022,600,The main experiment item,yes,Lab 2.1 FlankerTask.osexp,C:\Users\Melissa\OneDrive\Desktop\ADVANCED QUANT,no,mono,no,18,no,white,no,no,768,legacy,16,79,C:/Users/Melissa/OneDrive/Desktop/ADVANCED QUANT/MM-subject-2.csv,legacy,Lentiform Loewenfeld,3.3.12,0,h,NA,s,s,NA,h,418,NA,1315,41125,NA,418,2,legacy,1024,2,48000,-16,experiment,HHHHH,2,even,3383,180486,NA,201265,194104,NA,209427,208326,2066,139359,NA,209532,209951,209425,2062,209532,Flanker Task,92,45635,97,yes,1024
94.89795918,94.89795918,469.2653061,469.2653061,black,legacy,legacy,legacy,0,Congruent,uniform,1,undefined,1,h,0,0,0,97,97,0,97,97,0,0,0,97,97,97,0,97,Tue Sep 13 18:39:03 2022,600,The main experiment item,yes,Lab 2.1 FlankerTask.osexp,C:\Users\Melissa\OneDrive\Desktop\ADVANCED QUANT,no,mono,no,18,no,white,no,no,768,legacy,17,79,C:/Users/Melissa/OneDrive/Desktop/ADVANCED QUANT/MM-subject-2.csv,legacy,Lentiform Loewenfeld,3.3.12,0,h,NA,s,s,NA,h,353,NA,1315,41125,NA,353,2,legacy,1024,2,48000,-16,experiment,HHHHH,2,even,3383,180486,NA,201265,194104,NA,211060,209965,2066,139359,NA,211163,211517,211057,2062,211162,Flanker Task,93,45988,98,yes,1024
94.94949495,94.94949495,469.6363636,469.6363636,black,legacy,legacy,legacy,0,Incongruent,uniform,1,undefined,1,h,0,0,0,98,98,0,98,98,0,0,0,98,98,98,0,98,Tue Sep 13 18:39:03 2022,600,The main experiment item,yes,Lab 2.1 FlankerTask.osexp,C:\Users\Melissa\OneDrive\Desktop\ADVANCED QUANT,no,mono,no,18,no,white,no,no,768,legacy,18,79,C:/Users/Melissa/OneDrive/Desktop/ADVANCED QUANT/MM-subject-2.csv,legacy,Lentiform Loewenfeld,3.3.12,0,h,NA,s,s,NA,h,506,NA,1315,41125,NA,506,2,legacy,1024,2,48000,-16,experiment,SSHSS,2,even,3383,180486,NA,201265,194104,NA,212626,211532,2066,139359,NA,212731,213239,212624,2062,212731,Flanker Task,94,46494,99,yes,1024
95,95,470.01,470.01,black,legacy,legacy,legacy,0,Incongruent,uniform,1,undefined,1,s,0,0,0,99,99,0,99,99,0,0,0,99,99,99,0,99,Tue Sep 13 18:39:03 2022,600,The main experiment item,yes,Lab 2.1 FlankerTask.osexp,C:\Users\Melissa\OneDrive\Desktop\ADVANCED QUANT,no,mono,no,18,no,white,no,no,768,legacy,19,79,C:/Users/Melissa/OneDrive/Desktop/ADVANCED QUANT/MM-subject-2.csv,legacy,Lentiform Loewenfeld,3.3.12,0,s,NA,s,s,NA,s,507,NA,1315,41125,NA,507,2,legacy,1024,2,48000,-16,experiment,HHSHH,2,even,3383,180486,NA,201265,194104,NA,214334,213243,2066,139359,NA,214440,214949,214332,2062,214440,Flanker Task,95,47001,100,yes,1024
95.04950495,95.04950495,469.6534653,469.6534653,black,legacy,legacy,legacy,0,Incongruent,uniform,1,undefined,1,h,0,0,0,100,100,0,100,100,0,0,0,100,100,100,0,100,Tue Sep 13 18:39:03 2022,600,The main experiment item,yes,Lab 2.1 FlankerTask.osexp,C:\Users\Melissa\OneDrive\Desktop\ADVANCED QUANT,no,mono,no,18,no,white,no,no,768,legacy,20,79,C:/Users/Melissa/OneDrive/Desktop/ADVANCED QUANT/MM-subject-2.csv,legacy,Lentiform Loewenfeld,3.3.12,0,h,NA,s,s,NA,h,434,NA,1315,41125,NA,434,2,legacy,1024,2,48000,-16,experiment,SSHSS,2,even,3383,180486,NA,201265,194104,NA,216068,214965,2066,139359,NA,216174,216609,216066,2062,216173,Flanker Task,96,47435,101,yes,1024
95.09803922,95.09803922,468.8235294,468.8235294,black,legacy,legacy,legacy,0,Congruent,uniform,1,undefined,1,h,0,0,0,101,101,0,101,101,0,0,0,101,101,101,0,101,Tue Sep 13 18:39:03 2022,600,The main experiment item,yes,Lab 2.1 FlankerTask.osexp,C:\Users\Melissa\OneDrive\Desktop\ADVANCED QUANT,no,mono,no,18,no,white,no,no,768,legacy,21,79,C:/Users/Melissa/OneDrive/Desktop/ADVANCED QUANT/MM-subject-2.csv,legacy,Lentiform Loewenfeld,3.3.12,0,h,NA,s,s,NA,h,385,NA,1315,41125,NA,385,2,legacy,1024,2,48000,-16,experiment,HHHHH,2,even,3383,180486,NA,201265,194104,NA,217727,216623,2066,139359,NA,217829,218216,217725,2062,217828,Flanker Task,97,47820,102,yes,1024
95.14563107,95.14563107,468.3786408,468.3786408,black,legacy,legacy,legacy,0,Congruent,uniform,1,undefined,1,s,0,0,0,102,102,0,102,102,0,0,0,102,102,102,0,102,Tue Sep 13 18:39:03 2022,600,The main experiment item,yes,Lab 2.1 FlankerTask.osexp,C:\Users\Melissa\OneDrive\Desktop\ADVANCED QUANT,no,mono,no,18,no,white,no,no,768,legacy,22,79,C:/Users/Melissa/OneDrive/Desktop/ADVANCED QUANT/MM-subject-2.csv,legacy,Lentiform Loewenfeld,3.3.12,0,s,NA,s,s,NA,s,423,NA,1315,41125,NA,423,2,legacy,1024,2,48000,-16,experiment,SSSSS,2,even,3383,180486,NA,201265,194104,NA,219327,218230,2066,139359,NA,219431,219855,219325,2062,219431,Flanker Task,98,48243,103,yes,1024
95.19230769,95.19230769,467.6442308,467.6442308,black,legacy,legacy,legacy,0,Incongruent,uniform,1,undefined,1,s,0,0,0,103,103,0,103,103,0,0,0,103,103,103,0,103,Tue Sep 13 18:39:03 2022,600,The main experiment item,yes,Lab 2.1 FlankerTask.osexp,C:\Users\Melissa\OneDrive\Desktop\ADVANCED QUANT,no,mono,no,18,no,white,no,no,768,legacy,23,79,C:/Users/Melissa/OneDrive/Desktop/ADVANCED QUANT/MM-subject-2.csv,legacy,Lentiform Loewenfeld,3.3.12,0,s,NA,s,s,NA,s,392,NA,1315,41125,NA,392,2,legacy,1024,2,48000,-16,experiment,HHSHH,2,even,3383,180486,NA,201265,194104,NA,220949,219868,2066,139359,NA,221054,221448,220947,2062,221054,Flanker Task,99,48635,104,yes,1024
95.23809524,95.23809524,467.5142857,467.5142857,black,legacy,legacy,legacy,0,Congruent,uniform,1,undefined,1,h,0,0,0,104,104,0,104,104,0,0,0,104,104,104,0,104,Tue Sep 13 18:39:03 2022,600,The main experiment item,yes,Lab 2.1 FlankerTask.osexp,C:\Users\Melissa\OneDrive\Desktop\ADVANCED QUANT,no,mono,no,18,no,white,no,no,768,legacy,24,79,C:/Users/Melissa/OneDrive/Desktop/ADVANCED QUANT/MM-subject-2.csv,legacy,Lentiform Loewenfeld,3.3.12,0,h,NA,s,s,NA,h,454,NA,1315,41125,NA,454,2,legacy,1024,2,48000,-16,experiment,HHHHH,2,even,3383,180486,NA,201265,194104,NA,222570,221452,2066,139359,NA,222675,223130,222568,2062,222675,Flanker Task,100,49089,105,yes,1024
95.28301887,95.28301887,467.6509434,467.6509434,black,legacy,legacy,legacy,0,Congruent,uniform,1,undefined,1,s,0,0,0,105,105,0,105,105,0,0,0,105,105,105,0,105,Tue Sep 13 18:39:03 2022,600,The main experiment item,yes,Lab 2.1 FlankerTask.osexp,C:\Users\Melissa\OneDrive\Desktop\ADVANCED QUANT,no,mono,no,18,no,white,no,no,768,legacy,25,79,C:/Users/Melissa/OneDrive/Desktop/ADVANCED QUANT/MM-subject-2.csv,legacy,Lentiform Loewenfeld,3.3.12,0,s,NA,s,s,NA,s,482,NA,1315,41125,NA,482,2,legacy,1024,2,48000,-16,experiment,SSSSS,2,even,3383,180486,NA,201265,194104,NA,224243,223143,2066,139359,NA,224348,224831,224241,2062,224348,Flanker Task,101,49571,106,yes,1024
95.3271028,95.3271028,467.7196262,467.7196262,black,legacy,legacy,legacy,0,Incongruent,uniform,1,undefined,1,s,0,0,0,106,106,0,106,106,0,0,0,106,106,106,0,106,Tue Sep 13 18:39:03 2022,600,The main experiment item,yes,Lab 2.1 FlankerTask.osexp,C:\Users\Melissa\OneDrive\Desktop\ADVANCED QUANT,no,mono,no,18,no,white,no,no,768,legacy,26,79,C:/Users/Melissa/OneDrive/Desktop/ADVANCED QUANT/MM-subject-2.csv,legacy,Lentiform Loewenfeld,3.3.12,0,s,NA,s,s,NA,s,475,NA,1315,41125,NA,475,2,legacy,1024,2,48000,-16,experiment,HHSHH,2,even,3383,180486,NA,201265,194104,NA,225916,224835,2066,139359,NA,226020,226496,225914,2062,226020,Flanker Task,102,50046,107,yes,1024
95.37037037,95.37037037,467.6203704,467.6203704,black,legacy,legacy,legacy,0,Congruent,uniform,1,undefined,1,s,0,0,0,107,107,0,107,107,0,0,0,107,107,107,0,107,Tue Sep 13 18:39:03 2022,600,The main experiment item,yes,Lab 2.1 FlankerTask.osexp,C:\Users\Melissa\OneDrive\Desktop\ADVANCED QUANT,no,mono,no,18,no,white,no,no,768,legacy,27,79,C:/Users/Melissa/OneDrive/Desktop/ADVANCED QUANT/MM-subject-2.csv,legacy,Lentiform Loewenfeld,3.3.12,0,s,NA,s,s,NA,s,457,NA,1315,41125,NA,457,2,legacy,1024,2,48000,-16,experiment,SSSSS,2,even,3383,180486,NA,201265,194104,NA,227610,226510,2066,139359,NA,227713,228171,227608,2062,227712,Flanker Task,103,50503,108,yes,1024
95.41284404,95.41284404,467.6422018,467.6422018,black,legacy,legacy,legacy,0,Incongruent,uniform,1,undefined,1,h,0,0,0,108,108,0,108,108,0,0,0,108,108,108,0,108,Tue Sep 13 18:39:03 2022,600,The main experiment item,yes,Lab 2.1 FlankerTask.osexp,C:\Users\Melissa\OneDrive\Desktop\ADVANCED QUANT,no,mono,no,18,no,white,no,no,768,legacy,28,79,C:/Users/Melissa/OneDrive/Desktop/ADVANCED QUANT/MM-subject-2.csv,legacy,Lentiform Loewenfeld,3.3.12,0,h,NA,s,s,NA,h,470,NA,1315,41125,NA,470,2,legacy,1024,2,48000,-16,experiment,SSHSS,2,even,3383,180486,NA,201265,194104,NA,229260,228180,2066,139359,NA,229367,229839,229258,2062,229366,Flanker Task,104,50973,109,yes,1024
95.45454545,95.45454545,467.5636364,467.5636364,black,legacy,legacy,legacy,0,Congruent,uniform,1,undefined,1,h,0,0,0,109,109,0,109,109,0,0,0,109,109,109,0,109,Tue Sep 13 18:39:03 2022,600,The main experiment item,yes,Lab 2.1 FlankerTask.osexp,C:\Users\Melissa\OneDrive\Desktop\ADVANCED QUANT,no,mono,no,18,no,white,no,no,768,legacy,29,79,C:/Users/Melissa/OneDrive/Desktop/ADVANCED QUANT/MM-subject-2.csv,legacy,Lentiform Loewenfeld,3.3.12,0,h,NA,s,s,NA,h,459,NA,1315,41125,NA,459,2,legacy,1024,2,48000,-16,experiment,HHHHH,2,even,3383,180486,NA,201265,194104,NA,230950,229852,2066,139359,NA,231055,231515,230948,2062,231055,Flanker Task,105,51432,110,yes,1024
95.4954955,95.4954955,467.1621622,467.1621622,black,legacy,legacy,legacy,0,Congruent,uniform,1,undefined,1,s,0,0,0,110,110,0,110,110,0,0,0,110,110,110,0,110,Tue Sep 13 18:39:03 2022,600,The main experiment item,yes,Lab 2.1 FlankerTask.osexp,C:\Users\Melissa\OneDrive\Desktop\ADVANCED QUANT,no,mono,no,18,no,white,no,no,768,legacy,30,79,C:/Users/Melissa/OneDrive/Desktop/ADVANCED QUANT/MM-subject-2.csv,legacy,Lentiform Loewenfeld,3.3.12,0,s,NA,s,s,NA,s,423,NA,1315,41125,NA,423,2,legacy,1024,2,48000,-16,experiment,SSSSS,2,even,3383,180486,NA,201265,194104,NA,232646,231533,2066,139359,NA,232751,233175,232644,2062,232751,Flanker Task,106,51855,111,yes,1024
95.53571429,95.53571429,469.0625,469.0625,black,legacy,legacy,legacy,0,Congruent,uniform,1,undefined,1,s,0,0,0,111,111,0,111,111,0,0,0,111,111,111,0,111,Tue Sep 13 18:39:03 2022,600,The main experiment item,yes,Lab 2.1 FlankerTask.osexp,C:\Users\Melissa\OneDrive\Desktop\ADVANCED QUANT,no,mono,no,18,no,white,no,no,768,legacy,31,79,C:/Users/Melissa/OneDrive/Desktop/ADVANCED QUANT/MM-subject-2.csv,legacy,Lentiform Loewenfeld,3.3.12,0,s,NA,s,s,NA,s,680,NA,1315,41125,NA,680,2,legacy,1024,2,48000,-16,experiment,SSSSS,2,even,3383,180486,NA,201265,194104,NA,234290,233189,2066,139359,NA,234395,235076,234288,2062,234395,Flanker Task,107,52535,112,yes,1024
95.57522124,95.57522124,468.4247788,468.4247788,black,legacy,legacy,legacy,0,Congruent,uniform,1,undefined,1,s,0,0,0,112,112,0,112,112,0,0,0,112,112,112,0,112,Tue Sep 13 18:39:03 2022,600,The main experiment item,yes,Lab 2.1 FlankerTask.osexp,C:\Users\Melissa\OneDrive\Desktop\ADVANCED QUANT,no,mono,no,18,no,white,no,no,768,legacy,32,79,C:/Users/Melissa/OneDrive/Desktop/ADVANCED QUANT/MM-subject-2.csv,legacy,Lentiform Loewenfeld,3.3.12,0,s,NA,s,s,NA,s,397,NA,1315,41125,NA,397,2,legacy,1024,2,48000,-16,experiment,SSSSS,2,even,3383,180486,NA,201265,235079,NA,236675,235580,2066,139359,NA,236780,237178,236673,2062,236780,Flanker Task,108,52932,113,yes,1024
95.61403509,95.61403509,468.0701754,468.0701754,black,legacy,legacy,legacy,0,Incongruent,uniform,1,undefined,1,h,0,0,0,113,113,0,113,113,0,0,0,113,113,113,0,113,Tue Sep 13 18:39:03 2022,600,The main experiment item,yes,Lab 2.1 FlankerTask.osexp,C:\Users\Melissa\OneDrive\Desktop\ADVANCED QUANT,no,mono,no,18,no,white,no,no,768,legacy,33,79,C:/Users/Melissa/OneDrive/Desktop/ADVANCED QUANT/MM-subject-2.csv,legacy,Lentiform Loewenfeld,3.3.12,0,h,NA,s,s,NA,h,428,NA,1315,41125,NA,428,2,legacy,1024,2,48000,-16,experiment,SSHSS,2,even,3383,180486,NA,201265,235079,NA,238282,237193,2066,139359,NA,238387,238816,238279,2062,238387,Flanker Task,109,53360,114,yes,1024
95.65217391,95.65217391,467.5826087,467.5826087,black,legacy,legacy,legacy,0,Congruent,uniform,1,undefined,1,s,0,0,0,114,114,0,114,114,0,0,0,114,114,114,0,114,Tue Sep 13 18:39:03 2022,600,The main experiment item,yes,Lab 2.1 FlankerTask.osexp,C:\Users\Melissa\OneDrive\Desktop\ADVANCED QUANT,no,mono,no,18,no,white,no,no,768,legacy,34,79,C:/Users/Melissa/OneDrive/Desktop/ADVANCED QUANT/MM-subject-2.csv,legacy,Lentiform Loewenfeld,3.3.12,0,s,NA,s,s,NA,s,412,NA,1315,41125,NA,412,2,legacy,1024,2,48000,-16,experiment,SSSSS,2,even,3383,180486,NA,201265,235079,NA,239926,238830,2066,139359,NA,240031,240444,239924,2062,240031,Flanker Task,110,53772,115,yes,1024
95.68965517,95.68965517,467.0775862,467.0775862,black,legacy,legacy,legacy,0,Incongruent,uniform,1,undefined,1,s,0,0,0,115,115,0,115,115,0,0,0,115,115,115,0,115,Tue Sep 13 18:39:03 2022,600,The main experiment item,yes,Lab 2.1 FlankerTask.osexp,C:\Users\Melissa\OneDrive\Desktop\ADVANCED QUANT,no,mono,no,18,no,white,no,no,768,legacy,35,79,C:/Users/Melissa/OneDrive/Desktop/ADVANCED QUANT/MM-subject-2.csv,legacy,Lentiform Loewenfeld,3.3.12,0,s,NA,s,s,NA,s,409,NA,1315,41125,NA,409,2,legacy,1024,2,48000,-16,experiment,HHSHH,2,even,3383,180486,NA,201265,235079,NA,241556,240449,2066,139359,NA,241661,242071,241554,2062,241661,Flanker Task,111,54181,116,yes,1024
95.72649573,95.72649573,466.9487179,466.9487179,black,legacy,legacy,legacy,0,Congruent,uniform,1,undefined,1,h,0,0,0,116,116,0,116,116,0,0,0,116,116,116,0,116,Tue Sep 13 18:39:03 2022,600,The main experiment item,yes,Lab 2.1 FlankerTask.osexp,C:\Users\Melissa\OneDrive\Desktop\ADVANCED QUANT,no,mono,no,18,no,white,no,no,768,legacy,36,79,C:/Users/Melissa/OneDrive/Desktop/ADVANCED QUANT/MM-subject-2.csv,legacy,Lentiform Loewenfeld,3.3.12,0,h,NA,s,s,NA,h,452,NA,1315,41125,NA,452,2,legacy,1024,2,48000,-16,experiment,HHHHH,2,even,3383,180486,NA,201265,235079,NA,243211,242085,2066,139359,NA,243314,243767,243208,2062,243314,Flanker Task,112,54633,117,yes,1024
95.76271186,95.76271186,467.1694915,467.1694915,black,legacy,legacy,legacy,0,Incongruent,uniform,1,undefined,1,s,0,0,0,117,117,0,117,117,0,0,0,117,117,117,0,117,Tue Sep 13 18:39:03 2022,600,The main experiment item,yes,Lab 2.1 FlankerTask.osexp,C:\Users\Melissa\OneDrive\Desktop\ADVANCED QUANT,no,mono,no,18,no,white,no,no,768,legacy,37,79,C:/Users/Melissa/OneDrive/Desktop/ADVANCED QUANT/MM-subject-2.csv,legacy,Lentiform Loewenfeld,3.3.12,0,s,NA,s,s,NA,s,493,NA,1315,41125,NA,493,2,legacy,1024,2,48000,-16,experiment,HHSHH,2,even,3383,180486,NA,201265,235079,NA,244882,243782,2066,139359,NA,244987,245482,244880,2062,244987,Flanker Task,113,55126,118,yes,1024
95.79831933,95.79831933,466.7815126,466.7815126,black,legacy,legacy,legacy,0,Congruent,uniform,1,undefined,1,s,0,0,0,118,118,0,118,118,0,0,0,118,118,118,0,118,Tue Sep 13 18:39:03 2022,600,The main experiment item,yes,Lab 2.1 FlankerTask.osexp,C:\Users\Melissa\OneDrive\Desktop\ADVANCED QUANT,no,mono,no,18,no,white,no,no,768,legacy,38,79,C:/Users/Melissa/OneDrive/Desktop/ADVANCED QUANT/MM-subject-2.csv,legacy,Lentiform Loewenfeld,3.3.12,0,s,NA,s,s,NA,s,421,NA,1315,41125,NA,421,2,legacy,1024,2,48000,-16,experiment,SSSSS,2,even,3383,180486,NA,201265,235079,NA,246578,245496,2066,139359,NA,246684,247108,246576,2062,246683,Flanker Task,114,55547,119,yes,1024
95.83333333,95.83333333,466.2333333,466.2333333,black,legacy,legacy,legacy,0,Congruent,uniform,1,undefined,1,s,0,0,0,119,119,0,119,119,0,0,0,119,119,119,0,119,Tue Sep 13 18:39:03 2022,600,The main experiment item,yes,Lab 2.1 FlankerTask.osexp,C:\Users\Melissa\OneDrive\Desktop\ADVANCED QUANT,no,mono,no,18,no,white,no,no,768,legacy,39,79,C:/Users/Melissa/OneDrive/Desktop/ADVANCED QUANT/MM-subject-2.csv,legacy,Lentiform Loewenfeld,3.3.12,0,s,NA,s,s,NA,s,401,NA,1315,41125,NA,401,2,legacy,1024,2,48000,-16,experiment,SSSSS,2,even,3383,180486,NA,201265,235079,NA,248216,247122,2066,139359,NA,248325,248727,248214,2062,248325,Flanker Task,115,55948,120,yes,1024
95.8677686,95.8677686,466.107438,466.107438,black,legacy,legacy,legacy,0,Incongruent,uniform,1,undefined,1,h,0,0,0,120,120,0,120,120,0,0,0,120,120,120,0,120,Tue Sep 13 18:39:03 2022,600,The main experiment item,yes,Lab 2.1 FlankerTask.osexp,C:\Users\Melissa\OneDrive\Desktop\ADVANCED QUANT,no,mono,no,18,no,white,no,no,768,legacy,40,79,C:/Users/Melissa/OneDrive/Desktop/ADVANCED QUANT/MM-subject-2.csv,legacy,Lentiform Loewenfeld,3.3.12,0,h,NA,s,s,NA,h,451,NA,1315,41125,NA,451,2,legacy,1024,2,48000,-16,experiment,SSHSS,2,even,3383,180486,NA,201265,235079,NA,249826,248733,2066,139359,NA,249931,250383,249824,2062,249930,Flanker Task,116,56399,121,yes,1024
95.90163934,95.90163934,465.8934426,465.8934426,black,legacy,legacy,legacy,0,Incongruent,uniform,1,undefined,1,h,0,0,0,121,121,0,121,121,0,0,0,121,121,121,0,121,Tue Sep 13 18:39:03 2022,600,The main experiment item,yes,Lab 2.1 FlankerTask.osexp,C:\Users\Melissa\OneDrive\Desktop\ADVANCED QUANT,no,mono,no,18,no,white,no,no,768,legacy,41,79,C:/Users/Melissa/OneDrive/Desktop/ADVANCED QUANT/MM-subject-2.csv,legacy,Lentiform Loewenfeld,3.3.12,0,h,NA,s,s,NA,h,440,NA,1315,41125,NA,440,2,legacy,1024,2,48000,-16,experiment,SSHSS,2,even,3383,180486,NA,201265,235079,NA,251479,250397,2066,139359,NA,251584,252025,251476,2062,251583,Flanker Task,117,56839,122,yes,1024
95.93495935,95.93495935,465.3333333,465.3333333,black,legacy,legacy,legacy,0,Congruent,uniform,1,undefined,1,h,0,0,0,122,122,0,122,122,0,0,0,122,122,122,0,122,Tue Sep 13 18:39:03 2022,600,The main experiment item,yes,Lab 2.1 FlankerTask.osexp,C:\Users\Melissa\OneDrive\Desktop\ADVANCED QUANT,no,mono,no,18,no,white,no,no,768,legacy,42,79,C:/Users/Melissa/OneDrive/Desktop/ADVANCED QUANT/MM-subject-2.csv,legacy,Lentiform Loewenfeld,3.3.12,0,h,NA,s,s,NA,h,397,NA,1315,41125,NA,397,2,legacy,1024,2,48000,-16,experiment,HHHHH,2,even,3383,180486,NA,201265,235079,NA,253141,252038,2066,139359,NA,253246,253644,253140,2062,253245,Flanker Task,118,57236,123,yes,1024
95.96774194,95.96774194,464.983871,464.983871,black,legacy,legacy,legacy,0,Congruent,uniform,1,undefined,1,h,0,0,0,123,123,0,123,123,0,0,0,123,123,123,0,123,Tue Sep 13 18:39:03 2022,600,The main experiment item,yes,Lab 2.1 FlankerTask.osexp,C:\Users\Melissa\OneDrive\Desktop\ADVANCED QUANT,no,mono,no,18,no,white,no,no,768,legacy,43,79,C:/Users/Melissa/OneDrive/Desktop/ADVANCED QUANT/MM-subject-2.csv,legacy,Lentiform Loewenfeld,3.3.12,0,h,NA,s,s,NA,h,422,NA,1315,41125,NA,422,2,legacy,1024,2,48000,-16,experiment,HHHHH,2,even,3383,180486,NA,201265,235079,NA,254760,253659,2066,139359,NA,254865,255288,254758,2062,254865,Flanker Task,119,57658,124,yes,1024
96,96,464.696,464.696,black,legacy,legacy,legacy,0,Incongruent,uniform,1,undefined,1,h,0,0,0,124,124,0,124,124,0,0,0,124,124,124,0,124,Tue Sep 13 18:39:03 2022,600,The main experiment item,yes,Lab 2.1 FlankerTask.osexp,C:\Users\Melissa\OneDrive\Desktop\ADVANCED QUANT,no,mono,no,18,no,white,no,no,768,legacy,44,79,C:/Users/Melissa/OneDrive/Desktop/ADVANCED QUANT/MM-subject-2.csv,legacy,Lentiform Loewenfeld,3.3.12,0,h,NA,s,s,NA,h,429,NA,1315,41125,NA,429,2,legacy,1024,2,48000,-16,experiment,SSHSS,2,even,3383,180486,NA,201265,235079,NA,256412,255302,2066,139359,NA,256517,256948,256410,2062,256517,Flanker Task,120,58087,125,yes,1024
96.03174603,96.03174603,464.2222222,464.2222222,black,legacy,legacy,legacy,0,Congruent,uniform,1,undefined,1,h,0,0,0,125,125,0,125,125,0,0,0,125,125,125,0,125,Tue Sep 13 18:39:03 2022,600,The main experiment item,yes,Lab 2.1 FlankerTask.osexp,C:\Users\Melissa\OneDrive\Desktop\ADVANCED QUANT,no,mono,no,18,no,white,no,no,768,legacy,45,79,C:/Users/Melissa/OneDrive/Desktop/ADVANCED QUANT/MM-subject-2.csv,legacy,Lentiform Loewenfeld,3.3.12,0,h,NA,s,s,NA,h,405,NA,1315,41125,NA,405,2,legacy,1024,2,48000,-16,experiment,HHHHH,2,even,3383,180486,NA,201265,235079,NA,258044,256963,2066,139359,NA,258150,258557,258042,2062,258150,Flanker Task,121,58492,126,yes,1024
96.06299213,96.06299213,465.1338583,465.1338583,black,legacy,legacy,legacy,0,Incongruent,uniform,1,undefined,1,s,0,0,0,126,126,0,126,126,0,0,0,126,126,126,0,126,Tue Sep 13 18:39:03 2022,600,The main experiment item,yes,Lab 2.1 FlankerTask.osexp,C:\Users\Melissa\OneDrive\Desktop\ADVANCED QUANT,no,mono,no,18,no,white,no,no,768,legacy,46,79,C:/Users/Melissa/OneDrive/Desktop/ADVANCED QUANT/MM-subject-2.csv,legacy,Lentiform Loewenfeld,3.3.12,0,s,NA,s,s,NA,s,580,NA,1315,41125,NA,580,2,legacy,1024,2,48000,-16,experiment,HHSHH,2,even,3383,180486,NA,201265,235079,NA,259661,258572,2066,139359,NA,259766,260348,259658,2062,259766,Flanker Task,122,59072,127,yes,1024
96.09375,96.09375,464.96875,464.96875,black,legacy,legacy,legacy,0,Incongruent,uniform,1,undefined,1,h,0,0,0,127,127,0,127,127,0,0,0,127,127,127,0,127,Tue Sep 13 18:39:03 2022,600,The main experiment item,yes,Lab 2.1 FlankerTask.osexp,C:\Users\Melissa\OneDrive\Desktop\ADVANCED QUANT,no,mono,no,18,no,white,no,no,768,legacy,47,79,C:/Users/Melissa/OneDrive/Desktop/ADVANCED QUANT/MM-subject-2.csv,legacy,Lentiform Loewenfeld,3.3.12,0,h,NA,s,s,NA,h,444,NA,1315,41125,NA,444,2,legacy,1024,2,48000,-16,experiment,SSHSS,2,even,3383,180486,NA,201265,235079,NA,261469,260365,2066,139359,NA,261575,262020,261466,2062,261574,Flanker Task,123,59516,128,yes,1024
96.12403101,96.12403101,465.4806202,465.4806202,black,legacy,legacy,legacy,0,Congruent,uniform,1,undefined,1,s,0,0,0,128,128,0,128,128,0,0,0,128,128,128,0,128,Tue Sep 13 18:39:03 2022,600,The main experiment item,yes,Lab 2.1 FlankerTask.osexp,C:\Users\Melissa\OneDrive\Desktop\ADVANCED QUANT,no,mono,no,18,no,white,no,no,768,legacy,48,79,C:/Users/Melissa/OneDrive/Desktop/ADVANCED QUANT/MM-subject-2.csv,legacy,Lentiform Loewenfeld,3.3.12,0,s,NA,s,s,NA,s,531,NA,1315,41125,NA,531,2,legacy,1024,2,48000,-16,experiment,SSSSS,2,even,3383,180486,NA,201265,235079,NA,263129,262034,2066,139359,NA,263233,263766,263126,2062,263233,Flanker Task,124,60047,129,yes,1024
96.15384615,96.15384615,466.9384615,466.9384615,black,legacy,legacy,legacy,0,Congruent,uniform,1,undefined,1,h,0,0,0,129,129,0,129,129,0,0,0,129,129,129,0,129,Tue Sep 13 18:39:03 2022,600,The main experiment item,yes,Lab 2.1 FlankerTask.osexp,C:\Users\Melissa\OneDrive\Desktop\ADVANCED QUANT,no,mono,no,18,no,white,no,no,768,legacy,49,79,C:/Users/Melissa/OneDrive/Desktop/ADVANCED QUANT/MM-subject-2.csv,legacy,Lentiform Loewenfeld,3.3.12,0,h,NA,s,s,NA,h,655,NA,1315,41125,NA,655,2,legacy,1024,2,48000,-16,experiment,HHHHH,2,even,3383,180486,NA,201265,235079,NA,264938,263787,2066,139359,NA,265044,265701,264936,2062,265044,Flanker Task,125,60702,130,yes,1024
96.18320611,96.18320611,467.1145038,467.1145038,black,legacy,legacy,legacy,0,Incongruent,uniform,1,undefined,1,h,0,0,0,130,130,0,130,130,0,0,0,130,130,130,0,130,Tue Sep 13 18:39:03 2022,600,The main experiment item,yes,Lab 2.1 FlankerTask.osexp,C:\Users\Melissa\OneDrive\Desktop\ADVANCED QUANT,no,mono,no,18,no,white,no,no,768,legacy,50,79,C:/Users/Melissa/OneDrive/Desktop/ADVANCED QUANT/MM-subject-2.csv,legacy,Lentiform Loewenfeld,3.3.12,0,h,NA,s,s,NA,h,490,NA,1315,41125,NA,490,2,legacy,1024,2,48000,-16,experiment,SSHSS,2,even,3383,180486,NA,201265,265715,NA,267319,266220,2066,139359,NA,267421,267912,267317,2062,267421,Flanker Task,126,61192,131,yes,1024
96.21212121,96.21212121,467.3863636,467.3863636,black,legacy,legacy,legacy,0,Incongruent,uniform,1,undefined,1,s,0,0,0,131,131,0,131,131,0,0,0,131,131,131,0,131,Tue Sep 13 18:39:03 2022,600,The main experiment item,yes,Lab 2.1 FlankerTask.osexp,C:\Users\Melissa\OneDrive\Desktop\ADVANCED QUANT,no,mono,no,18,no,white,no,no,768,legacy,51,79,C:/Users/Melissa/OneDrive/Desktop/ADVANCED QUANT/MM-subject-2.csv,legacy,Lentiform Loewenfeld,3.3.12,0,s,NA,s,s,NA,s,503,NA,1315,41125,NA,503,2,legacy,1024,2,48000,-16,experiment,HHSHH,2,even,3383,180486,NA,201265,265715,NA,269037,267926,2066,139359,NA,269142,269647,269035,2062,269142,Flanker Task,127,61695,132,yes,1024
96.2406015,96.2406015,469.9323308,469.9323308,black,legacy,legacy,legacy,0,Incongruent,uniform,1,undefined,1,h,0,0,0,132,132,0,132,132,0,0,0,132,132,132,0,132,Tue Sep 13 18:39:03 2022,600,The main experiment item,yes,Lab 2.1 FlankerTask.osexp,C:\Users\Melissa\OneDrive\Desktop\ADVANCED QUANT,no,mono,no,18,no,white,no,no,768,legacy,52,79,C:/Users/Melissa/OneDrive/Desktop/ADVANCED QUANT/MM-subject-2.csv,legacy,Lentiform Loewenfeld,3.3.12,0,h,NA,s,s,NA,h,806,NA,1315,41125,NA,806,2,legacy,1024,2,48000,-16,experiment,SSHSS,2,even,3383,180486,NA,201265,265715,NA,270762,269661,2066,139359,NA,270867,271675,270760,2062,270867,Flanker Task,128,62501,133,yes,1024
96.26865672,96.26865672,470.1940299,470.1940299,black,legacy,legacy,legacy,0,Incongruent,uniform,1,undefined,1,s,0,0,0,133,133,0,133,133,0,0,0,133,133,133,0,133,Tue Sep 13 18:39:03 2022,600,The main experiment item,yes,Lab 2.1 FlankerTask.osexp,C:\Users\Melissa\OneDrive\Desktop\ADVANCED QUANT,no,mono,no,18,no,white,no,no,768,legacy,53,79,C:/Users/Melissa/OneDrive/Desktop/ADVANCED QUANT/MM-subject-2.csv,legacy,Lentiform Loewenfeld,3.3.12,0,s,NA,s,s,NA,s,505,NA,1315,41125,NA,505,2,legacy,1024,2,48000,-16,experiment,HHSHH,2,even,3383,180486,NA,201265,271689,NA,273307,272194,2066,139359,NA,273413,273919,273306,2062,273413,Flanker Task,129,63006,134,yes,1024
96.2962963,96.2962963,470.1407407,470.1407407,black,legacy,legacy,legacy,0,Congruent,uniform,1,undefined,1,s,0,0,0,134,134,0,134,134,0,0,0,134,134,134,0,134,Tue Sep 13 18:39:03 2022,600,The main experiment item,yes,Lab 2.1 FlankerTask.osexp,C:\Users\Melissa\OneDrive\Desktop\ADVANCED QUANT,no,mono,no,18,no,white,no,no,768,legacy,54,79,C:/Users/Melissa/OneDrive/Desktop/ADVANCED QUANT/MM-subject-2.csv,legacy,Lentiform Loewenfeld,3.3.12,0,s,NA,s,s,NA,s,463,NA,1315,41125,NA,463,2,legacy,1024,2,48000,-16,experiment,SSSSS,2,even,3383,180486,NA,201265,271689,NA,275033,273936,2066,139359,NA,275138,275603,275031,2062,275138,Flanker Task,130,63469,135,yes,1024
96.32352941,96.32352941,470.4852941,470.4852941,black,legacy,legacy,legacy,0,Congruent,uniform,1,undefined,1,h,0,0,0,135,135,0,135,135,0,0,0,135,135,135,0,135,Tue Sep 13 18:39:03 2022,600,The main experiment item,yes,Lab 2.1 FlankerTask.osexp,C:\Users\Melissa\OneDrive\Desktop\ADVANCED QUANT,no,mono,no,18,no,white,no,no,768,legacy,55,79,C:/Users/Melissa/OneDrive/Desktop/ADVANCED QUANT/MM-subject-2.csv,legacy,Lentiform Loewenfeld,3.3.12,0,h,NA,s,s,NA,h,517,NA,1315,41125,NA,517,2,legacy,1024,2,48000,-16,experiment,HHHHH,2,even,3383,180486,NA,201265,271689,NA,276716,275620,2066,139359,NA,276818,277336,276714,2062,276818,Flanker Task,131,63986,136,yes,1024
96.35036496,96.35036496,470.5255474,470.5255474,black,legacy,legacy,legacy,0,Incongruent,uniform,1,undefined,1,s,0,0,0,136,136,0,136,136,0,0,0,136,136,136,0,136,Tue Sep 13 18:39:03 2022,600,The main experiment item,yes,Lab 2.1 FlankerTask.osexp,C:\Users\Melissa\OneDrive\Desktop\ADVANCED QUANT,no,mono,no,18,no,white,no,no,768,legacy,56,79,C:/Users/Melissa/OneDrive/Desktop/ADVANCED QUANT/MM-subject-2.csv,legacy,Lentiform Loewenfeld,3.3.12,0,s,NA,s,s,NA,s,476,NA,1315,41125,NA,476,2,legacy,1024,2,48000,-16,experiment,HHSHH,2,even,3383,180486,NA,201265,271689,NA,278424,277342,2066,139359,NA,278530,279008,278422,2062,278529,Flanker Task,132,64462,137,yes,1024
96.37681159,96.37681159,470.057971,470.057971,black,legacy,legacy,legacy,0,Congruent,uniform,1,undefined,1,s,0,0,0,137,137,0,137,137,0,0,0,137,137,137,0,137,Tue Sep 13 18:39:03 2022,600,The main experiment item,yes,Lab 2.1 FlankerTask.osexp,C:\Users\Melissa\OneDrive\Desktop\ADVANCED QUANT,no,mono,no,18,no,white,no,no,768,legacy,57,79,C:/Users/Melissa/OneDrive/Desktop/ADVANCED QUANT/MM-subject-2.csv,legacy,Lentiform Loewenfeld,3.3.12,0,s,NA,s,s,NA,s,406,NA,1315,41125,NA,406,2,legacy,1024,2,48000,-16,experiment,SSSSS,2,even,3383,180486,NA,201265,271689,NA,280120,279021,2066,139359,NA,280225,280633,280118,2062,280225,Flanker Task,133,64868,138,yes,1024
96.4028777,96.4028777,469.7266187,469.7266187,black,legacy,legacy,legacy,0,Incongruent,uniform,1,undefined,1,s,0,0,0,138,138,0,138,138,0,0,0,138,138,138,0,138,Tue Sep 13 18:39:03 2022,600,The main experiment item,yes,Lab 2.1 FlankerTask.osexp,C:\Users\Melissa\OneDrive\Desktop\ADVANCED QUANT,no,mono,no,18,no,white,no,no,768,legacy,58,79,C:/Users/Melissa/OneDrive/Desktop/ADVANCED QUANT/MM-subject-2.csv,legacy,Lentiform Loewenfeld,3.3.12,0,s,NA,s,s,NA,s,424,NA,1315,41125,NA,424,2,legacy,1024,2,48000,-16,experiment,HHSHH,2,even,3383,180486,NA,201265,271689,NA,281749,280646,2066,139359,NA,281854,282279,281747,2062,281854,Flanker Task,134,65292,139,yes,1024
96.42857143,96.42857143,469.9571429,469.9571429,black,legacy,legacy,legacy,0,Incongruent,uniform,1,undefined,1,h,0,0,0,139,139,0,139,139,0,0,0,139,139,139,0,139,Tue Sep 13 18:39:03 2022,600,The main experiment item,yes,Lab 2.1 FlankerTask.osexp,C:\Users\Melissa\OneDrive\Desktop\ADVANCED QUANT,no,mono,no,18,no,white,no,no,768,legacy,59,79,C:/Users/Melissa/OneDrive/Desktop/ADVANCED QUANT/MM-subject-2.csv,legacy,Lentiform Loewenfeld,3.3.12,0,h,NA,s,s,NA,h,502,NA,1315,41125,NA,502,2,legacy,1024,2,48000,-16,experiment,SSHSS,2,even,3383,180486,NA,201265,271689,NA,283390,282293,2066,139359,NA,283493,283997,283388,2062,283492,Flanker Task,135,65794,140,yes,1024
96.45390071,96.45390071,470.6666667,470.6666667,black,legacy,legacy,legacy,0,Incongruent,uniform,1,undefined,1,h,0,0,0,140,140,0,140,140,0,0,0,140,140,140,0,140,Tue Sep 13 18:39:03 2022,600,The main experiment item,yes,Lab 2.1 FlankerTask.osexp,C:\Users\Melissa\OneDrive\Desktop\ADVANCED QUANT,no,mono,no,18,no,white,no,no,768,legacy,60,79,C:/Users/Melissa/OneDrive/Desktop/ADVANCED QUANT/MM-subject-2.csv,legacy,Lentiform Loewenfeld,3.3.12,0,h,NA,s,s,NA,h,570,NA,1315,41125,NA,570,2,legacy,1024,2,48000,-16,experiment,SSHSS,2,even,3383,180486,NA,201265,271689,NA,285121,284011,2066,139359,NA,285223,285794,285118,2062,285223,Flanker Task,136,66364,141,yes,1024
96.47887324,96.47887324,470.4225352,470.4225352,black,legacy,legacy,legacy,0,Congruent,uniform,1,undefined,1,s,0,0,0,141,141,0,141,141,0,0,0,141,141,141,0,141,Tue Sep 13 18:39:03 2022,600,The main experiment item,yes,Lab 2.1 FlankerTask.osexp,C:\Users\Melissa\OneDrive\Desktop\ADVANCED QUANT,no,mono,no,18,no,white,no,no,768,legacy,61,79,C:/Users/Melissa/OneDrive/Desktop/ADVANCED QUANT/MM-subject-2.csv,legacy,Lentiform Loewenfeld,3.3.12,0,s,NA,s,s,NA,s,436,NA,1315,41125,NA,436,2,legacy,1024,2,48000,-16,experiment,SSSSS,2,even,3383,180486,NA,201265,271689,NA,286910,285809,2066,139359,NA,287015,287453,286908,2062,287015,Flanker Task,137,66800,142,yes,1024
96.5034965,96.5034965,470.1678322,470.1678322,black,legacy,legacy,legacy,0,Congruent,uniform,1,undefined,1,s,0,0,0,142,142,0,142,142,0,0,0,142,142,142,0,142,Tue Sep 13 18:39:03 2022,600,The main experiment item,yes,Lab 2.1 FlankerTask.osexp,C:\Users\Melissa\OneDrive\Desktop\ADVANCED QUANT,no,mono,no,18,no,white,no,no,768,legacy,62,79,C:/Users/Melissa/OneDrive/Desktop/ADVANCED QUANT/MM-subject-2.csv,legacy,Lentiform Loewenfeld,3.3.12,0,s,NA,s,s,NA,s,434,NA,1315,41125,NA,434,2,legacy,1024,2,48000,-16,experiment,SSSSS,2,even,3383,180486,NA,201265,271689,NA,288587,287466,2066,139359,NA,288692,289128,288585,2062,288692,Flanker Task,138,67234,143,yes,1024
96.52777778,96.52777778,470.5208333,470.5208333,black,legacy,legacy,legacy,0,Incongruent,uniform,1,undefined,1,s,0,0,0,143,143,0,143,143,0,0,0,143,143,143,0,143,Tue Sep 13 18:39:03 2022,600,The main experiment item,yes,Lab 2.1 FlankerTask.osexp,C:\Users\Melissa\OneDrive\Desktop\ADVANCED QUANT,no,mono,no,18,no,white,no,no,768,legacy,63,79,C:/Users/Melissa/OneDrive/Desktop/ADVANCED QUANT/MM-subject-2.csv,legacy,Lentiform Loewenfeld,3.3.12,0,s,NA,s,s,NA,s,521,NA,1315,41125,NA,521,2,legacy,1024,2,48000,-16,experiment,HHSHH,2,even,3383,180486,NA,201265,271689,NA,290237,289142,2066,139359,NA,290339,290863,290234,2062,290339,Flanker Task,139,67755,144,yes,1024
96.55172414,96.55172414,470.2344828,470.2344828,black,legacy,legacy,legacy,0,Congruent,uniform,1,undefined,1,h,0,0,0,144,144,0,144,144,0,0,0,144,144,144,0,144,Tue Sep 13 18:39:03 2022,600,The main experiment item,yes,Lab 2.1 FlankerTask.osexp,C:\Users\Melissa\OneDrive\Desktop\ADVANCED QUANT,no,mono,no,18,no,white,no,no,768,legacy,64,79,C:/Users/Melissa/OneDrive/Desktop/ADVANCED QUANT/MM-subject-2.csv,legacy,Lentiform Loewenfeld,3.3.12,0,h,NA,s,s,NA,h,429,NA,1315,41125,NA,429,2,legacy,1024,2,48000,-16,experiment,HHHHH,2,even,3383,180486,NA,201265,271689,NA,291976,290875,2066,139359,NA,292081,292511,291974,2062,292081,Flanker Task,140,68184,145,yes,1024
96.57534247,96.57534247,470.0547945,470.0547945,black,legacy,legacy,legacy,0,Incongruent,uniform,1,undefined,1,s,0,0,0,145,145,0,145,145,0,0,0,145,145,145,0,145,Tue Sep 13 18:39:03 2022,600,The main experiment item,yes,Lab 2.1 FlankerTask.osexp,C:\Users\Melissa\OneDrive\Desktop\ADVANCED QUANT,no,mono,no,18,no,white,no,no,768,legacy,65,79,C:/Users/Melissa/OneDrive/Desktop/ADVANCED QUANT/MM-subject-2.csv,legacy,Lentiform Loewenfeld,3.3.12,0,s,NA,s,s,NA,s,444,NA,1315,41125,NA,444,2,legacy,1024,2,48000,-16,experiment,HHSHH,2,even,3383,180486,NA,201265,271689,NA,293623,292524,2066,139359,NA,293728,294173,293621,2062,293728,Flanker Task,141,68628,146,yes,1024
96.59863946,96.59863946,469.7619048,469.7619048,black,legacy,legacy,legacy,0,Congruent,uniform,1,undefined,1,s,0,0,0,146,146,0,146,146,0,0,0,146,146,146,0,146,Tue Sep 13 18:39:03 2022,600,The main experiment item,yes,Lab 2.1 FlankerTask.osexp,C:\Users\Melissa\OneDrive\Desktop\ADVANCED QUANT,no,mono,no,18,no,white,no,no,768,legacy,66,79,C:/Users/Melissa/OneDrive/Desktop/ADVANCED QUANT/MM-subject-2.csv,legacy,Lentiform Loewenfeld,3.3.12,0,s,NA,s,s,NA,s,427,NA,1315,41125,NA,427,2,legacy,1024,2,48000,-16,experiment,SSSSS,2,even,3383,180486,NA,201265,271689,NA,295281,294191,2066,139359,NA,295384,295813,295279,2062,295384,Flanker Task,142,69055,147,yes,1024
96.62162162,96.62162162,469.3648649,469.3648649,black,legacy,legacy,legacy,0,Congruent,uniform,1,undefined,1,s,0,0,0,147,147,0,147,147,0,0,0,147,147,147,0,147,Tue Sep 13 18:39:03 2022,600,The main experiment item,yes,Lab 2.1 FlankerTask.osexp,C:\Users\Melissa\OneDrive\Desktop\ADVANCED QUANT,no,mono,no,18,no,white,no,no,768,legacy,67,79,C:/Users/Melissa/OneDrive/Desktop/ADVANCED QUANT/MM-subject-2.csv,legacy,Lentiform Loewenfeld,3.3.12,0,s,NA,s,s,NA,s,411,NA,1315,41125,NA,411,2,legacy,1024,2,48000,-16,experiment,SSSSS,2,even,3383,180486,NA,201265,271689,NA,296914,295827,2066,139359,NA,297016,297428,296911,2062,297016,Flanker Task,143,69466,148,yes,1024
96.6442953,96.6442953,470.3489933,470.3489933,black,legacy,legacy,legacy,0,Incongruent,uniform,1,undefined,1,s,0,0,0,148,148,0,148,148,0,0,0,148,148,148,0,148,Tue Sep 13 18:39:03 2022,600,The main experiment item,yes,Lab 2.1 FlankerTask.osexp,C:\Users\Melissa\OneDrive\Desktop\ADVANCED QUANT,no,mono,no,18,no,white,no,no,768,legacy,68,79,C:/Users/Melissa/OneDrive/Desktop/ADVANCED QUANT/MM-subject-2.csv,legacy,Lentiform Loewenfeld,3.3.12,0,s,NA,s,s,NA,s,616,NA,1315,41125,NA,616,2,legacy,1024,2,48000,-16,experiment,HHSHH,2,even,3383,180486,NA,201265,271689,NA,298540,297443,2066,139359,NA,298647,299265,298538,2062,298646,Flanker Task,144,70082,149,yes,1024
96.66666667,96.66666667,471.6266667,471.6266667,black,legacy,legacy,legacy,0,Congruent,uniform,1,undefined,1,h,0,0,0,149,149,0,149,149,0,0,0,149,149,149,0,149,Tue Sep 13 18:39:03 2022,600,The main experiment item,yes,Lab 2.1 FlankerTask.osexp,C:\Users\Melissa\OneDrive\Desktop\ADVANCED QUANT,no,mono,no,18,no,white,no,no,768,legacy,69,79,C:/Users/Melissa/OneDrive/Desktop/ADVANCED QUANT/MM-subject-2.csv,legacy,Lentiform Loewenfeld,3.3.12,0,h,NA,s,s,NA,h,662,NA,1315,41125,NA,662,2,legacy,1024,2,48000,-16,experiment,HHHHH,2,even,3383,180486,NA,201265,299280,NA,300877,299781,2066,139359,NA,300980,301644,300874,2062,300980,Flanker Task,145,70744,150,yes,1024
96.68874172,96.68874172,472.7284768,472.7284768,black,legacy,legacy,legacy,0,Incongruent,uniform,1,undefined,1,h,0,0,0,150,150,0,150,150,0,0,0,150,150,150,0,150,Tue Sep 13 18:39:03 2022,600,The main experiment item,yes,Lab 2.1 FlankerTask.osexp,C:\Users\Melissa\OneDrive\Desktop\ADVANCED QUANT,no,mono,no,18,no,white,no,no,768,legacy,70,79,C:/Users/Melissa/OneDrive/Desktop/ADVANCED QUANT/MM-subject-2.csv,legacy,Lentiform Loewenfeld,3.3.12,0,h,NA,s,s,NA,h,638,NA,1315,41125,NA,638,2,legacy,1024,2,48000,-16,experiment,SSHSS,2,even,3383,180486,NA,201265,301658,NA,303255,302160,2066,139359,NA,303360,303999,303252,2062,303360,Flanker Task,146,71382,151,yes,1024
96.71052632,96.71052632,473.2828947,473.2828947,black,legacy,legacy,legacy,0,Incongruent,uniform,1,undefined,1,h,0,0,0,151,151,0,151,151,0,0,0,151,151,151,0,151,Tue Sep 13 18:39:03 2022,600,The main experiment item,yes,Lab 2.1 FlankerTask.osexp,C:\Users\Melissa\OneDrive\Desktop\ADVANCED QUANT,no,mono,no,18,no,white,no,no,768,legacy,71,79,C:/Users/Melissa/OneDrive/Desktop/ADVANCED QUANT/MM-subject-2.csv,legacy,Lentiform Loewenfeld,3.3.12,0,h,NA,s,s,NA,h,557,NA,1315,41125,NA,557,2,legacy,1024,2,48000,-16,experiment,SSHSS,2,even,3383,180486,NA,201265,304023,NA,305627,304527,2066,139359,NA,305732,306290,305625,2062,305732,Flanker Task,147,71939,152,yes,1024
96.73202614,96.73202614,473.2418301,473.2418301,black,legacy,legacy,legacy,0,Incongruent,uniform,1,undefined,1,s,0,0,0,152,152,0,152,152,0,0,0,152,152,152,0,152,Tue Sep 13 18:39:03 2022,600,The main experiment item,yes,Lab 2.1 FlankerTask.osexp,C:\Users\Melissa\OneDrive\Desktop\ADVANCED QUANT,no,mono,no,18,no,white,no,no,768,legacy,72,79,C:/Users/Melissa/OneDrive/Desktop/ADVANCED QUANT/MM-subject-2.csv,legacy,Lentiform Loewenfeld,3.3.12,0,s,NA,s,s,NA,s,467,NA,1315,41125,NA,467,2,legacy,1024,2,48000,-16,experiment,HHSHH,2,even,3383,180486,NA,201265,304023,NA,307401,306304,2066,139359,NA,307504,307973,307398,2062,307504,Flanker Task,148,72406,153,yes,1024
