"acc","accuracy","average_response_time","avg_rt","background","canvas_backend","clock_backend","color_backend","compensation","condition","coordinates","correct","correct_Intructions1","correct_KeyboardResponse","correct_response","count_Block1","count_Block2","count_Block3","count_ErrorFeedback","count_Faster","count_Finish","count_Fixation","count_ISI","count_Instruction3","count_Instructions2","count_Intructions1","count_KeyboardResponse","count_Logger","count_Sequence","count_Stimulus","count_experiment","datetime","deadline","description","disable_garbage_collection","experiment_file","experiment_path","font_bold","font_family","font_italic","font_size","font_underline","foreground","form_clicks","fullscreen","height","keyboard_backend","live_row","live_row_Block1","logfile","mouse_backend","opensesame_codename","opensesame_version","repeat_cycle","response","response_Finish","response_Instruction3","response_Instructions2","response_Intructions1","response_KeyboardResponse","response_time","response_time_Finish","response_time_Instruction3","response_time_Instructions2","response_time_Intructions1","response_time_KeyboardResponse","round_decimals","sampler_backend","sound_buf_size","sound_channels","sound_freq","sound_sample_size","start","stimulus","subject_nr","subject_parity","time_Block1","time_Block2","time_Block3","time_ErrorFeedback","time_Faster","time_Finish","time_Fixation","time_ISI","time_Instruction3","time_Instructions2","time_Intructions1","time_KeyboardResponse","time_Logger","time_Sequence","time_Stimulus","time_experiment","title","total_correct","total_response_time","total_responses","uniform_coordinates","width"
"100","100","723","723","black","legacy","legacy","legacy","0","Congruent","uniform","1","undefined","1","s","0","0","0","0","0","0","0","0","0","0","0","0","0","0","0","0","Sun Sep 25 15:37:14 2022","1500","The main experiment item","yes","Lab21FlankerTask.osexp","/Users/alexisparrish/Desktop","no","mono","no","18","no","white","no","yes","768","legacy","0","0","/Users/alexisparrish/Desktop/DU-subject-1.csv","legacy","Lentiform Loewenfeld","3.3.12","0","s","NA","NA","NA","h","s","723","NA","NA","NA","49596","723","2","legacy","1024","2","48000","-16","experiment","SSSSS","1","odd","53620","NA","NA","NA","NA","NA","53672","NA","NA","NA","4017","53777","54500","53667","53777","4005","Lab 2.1: Flanker Task","1","723","1","yes","1024"
"100","100","675","675","black","legacy","legacy","legacy","0","Incongruent","uniform","1","undefined","1","s","0","0","0","1","1","0","1","1","0","0","0","1","1","1","1","0","Sun Sep 25 15:37:14 2022","1500","The main experiment item","yes","Lab21FlankerTask.osexp","/Users/alexisparrish/Desktop","no","mono","no","18","no","white","no","yes","768","legacy","1","1","/Users/alexisparrish/Desktop/DU-subject-1.csv","legacy","Lentiform Loewenfeld","3.3.12","0","s","NA","NA","NA","h","s","627","NA","NA","NA","49596","627","2","legacy","1024","2","48000","-16","experiment","HHSHH","1","odd","53620","NA","NA","NA","NA","NA","55573","54508","NA","NA","4017","55677","56308","55569","55677","4005","Lab 2.1: Flanker Task","2","1350","2","yes","1024"
"100","100","638","638","black","legacy","legacy","legacy","0","Incongruent","uniform","1","undefined","1","s","0","0","0","2","2","0","2","2","0","0","0","2","2","2","2","0","Sun Sep 25 15:37:14 2022","1500","The main experiment item","yes","Lab21FlankerTask.osexp","/Users/alexisparrish/Desktop","no","mono","no","18","no","white","no","yes","768","legacy","2","2","/Users/alexisparrish/Desktop/DU-subject-1.csv","legacy","Lentiform Loewenfeld","3.3.12","0","s","NA","NA","NA","h","s","564","NA","NA","NA","49596","564","2","legacy","1024","2","48000","-16","experiment","HHSHH","1","odd","53620","NA","NA","NA","NA","NA","57373","56313","NA","NA","4017","57478","58042","57366","57478","4005","Lab 2.1: Flanker Task","3","1914","3","yes","1024"
"100","100","594.5","594.5","black","legacy","legacy","legacy","0","Congruent","uniform","1","undefined","1","s","0","0","0","3","3","0","3","3","0","0","0","3","3","3","3","0","Sun Sep 25 15:37:14 2022","1500","The main experiment item","yes","Lab21FlankerTask.osexp","/Users/alexisparrish/Desktop","no","mono","no","18","no","white","no","yes","768","legacy","3","3","/Users/alexisparrish/Desktop/DU-subject-1.csv","legacy","Lentiform Loewenfeld","3.3.12","0","s","NA","NA","NA","h","s","464","NA","NA","NA","49596","464","2","legacy","1024","2","48000","-16","experiment","SSSSS","1","odd","53620","NA","NA","NA","NA","NA","59106","58047","NA","NA","4017","59210","59675","59101","59210","4005","Lab 2.1: Flanker Task","4","2378","4","yes","1024"
"100","100","569.8","569.8","black","legacy","legacy","legacy","0","Incongruent","uniform","1","undefined","1","s","0","0","0","4","4","0","4","4","0","0","0","4","4","4","4","0","Sun Sep 25 15:37:14 2022","1500","The main experiment item","yes","Lab21FlankerTask.osexp","/Users/alexisparrish/Desktop","no","mono","no","18","no","white","no","yes","768","legacy","4","4","/Users/alexisparrish/Desktop/DU-subject-1.csv","legacy","Lentiform Loewenfeld","3.3.12","0","s","NA","NA","NA","h","s","471","NA","NA","NA","49596","471","2","legacy","1024","2","48000","-16","experiment","HHSHH","1","odd","53620","NA","NA","NA","NA","NA","60737","59680","NA","NA","4017","60841","61313","60732","60841","4005","Lab 2.1: Flanker Task","5","2849","5","yes","1024"
"100","100","523.8333333333334","523.8333333333334","black","legacy","legacy","legacy","0","Incongruent","uniform","1","undefined","1","s","0","0","0","5","5","0","5","5","0","0","0","5","5","5","5","0","Sun Sep 25 15:37:14 2022","1500","The main experiment item","yes","Lab21FlankerTask.osexp","/Users/alexisparrish/Desktop","no","mono","no","18","no","white","no","yes","768","legacy","5","5","/Users/alexisparrish/Desktop/DU-subject-1.csv","legacy","Lentiform Loewenfeld","3.3.12","0","s","NA","NA","NA","h","s","294","NA","NA","NA","49596","294","2","legacy","1024","2","48000","-16","experiment","HHSHH","1","odd","53620","NA","NA","NA","NA","NA","62376","61319","NA","NA","4017","62480","62775","62371","62480","4005","Lab 2.1: Flanker Task","6","3143","6","yes","1024"
"100","100","494.7142857142857","494.7142857142857","black","legacy","legacy","legacy","0","Incongruent","uniform","1","undefined","1","s","0","0","0","6","6","0","6","6","0","0","0","6","6","6","6","0","Sun Sep 25 15:37:14 2022","1500","The main experiment item","yes","Lab21FlankerTask.osexp","/Users/alexisparrish/Desktop","no","mono","no","18","no","white","no","yes","768","legacy","6","6","/Users/alexisparrish/Desktop/DU-subject-1.csv","legacy","Lentiform Loewenfeld","3.3.12","0","s","NA","NA","NA","h","s","320","NA","NA","NA","49596","320","2","legacy","1024","2","48000","-16","experiment","HHSHH","1","odd","53620","NA","NA","NA","NA","NA","63839","62780","NA","NA","4017","63943","64264","63834","63943","4005","Lab 2.1: Flanker Task","7","3463","7","yes","1024"
"100","100","474.25","474.25","black","legacy","legacy","legacy","0","Incongruent","uniform","1","undefined","1","s","0","0","0","7","7","0","7","7","0","0","0","7","7","7","7","0","Sun Sep 25 15:37:14 2022","1500","The main experiment item","yes","Lab21FlankerTask.osexp","/Users/alexisparrish/Desktop","no","mono","no","18","no","white","no","yes","768","legacy","7","7","/Users/alexisparrish/Desktop/DU-subject-1.csv","legacy","Lentiform Loewenfeld","3.3.12","0","s","NA","NA","NA","h","s","331","NA","NA","NA","49596","331","2","legacy","1024","2","48000","-16","experiment","HHSHH","1","odd","53620","NA","NA","NA","NA","NA","65326","64269","NA","NA","4017","65430","65762","65321","65430","4005","Lab 2.1: Flanker Task","8","3794","8","yes","1024"
"100","100","461","461","black","legacy","legacy","legacy","0","Incongruent","uniform","1","undefined","1","s","0","0","0","8","8","0","8","8","0","0","0","8","8","8","8","0","Sun Sep 25 15:37:14 2022","1500","The main experiment item","yes","Lab21FlankerTask.osexp","/Users/alexisparrish/Desktop","no","mono","no","18","no","white","no","yes","768","legacy","8","8","/Users/alexisparrish/Desktop/DU-subject-1.csv","legacy","Lentiform Loewenfeld","3.3.12","0","s","NA","NA","NA","h","s","355","NA","NA","NA","49596","355","2","legacy","1024","2","48000","-16","experiment","HHSHH","1","odd","53620","NA","NA","NA","NA","NA","66827","65767","NA","NA","4017","66931","67287","66820","66931","4005","Lab 2.1: Flanker Task","9","4149","9","yes","1024"
"100","100","452.2","452.2","black","legacy","legacy","legacy","0","Congruent","uniform","1","undefined","1","s","0","0","0","9","9","0","9","9","0","0","0","9","9","9","9","0","Sun Sep 25 15:37:14 2022","1500","The main experiment item","yes","Lab21FlankerTask.osexp","/Users/alexisparrish/Desktop","no","mono","no","18","no","white","no","yes","768","legacy","9","9","/Users/alexisparrish/Desktop/DU-subject-1.csv","legacy","Lentiform Loewenfeld","3.3.12","0","s","NA","NA","NA","h","s","373","NA","NA","NA","49596","373","2","legacy","1024","2","48000","-16","experiment","SSSSS","1","odd","53620","NA","NA","NA","NA","NA","68350","67292","NA","NA","4017","68455","68828","68346","68455","4005","Lab 2.1: Flanker Task","10","4522","10","yes","1024"
"100","100","440.3636363636364","440.3636363636364","black","legacy","legacy","legacy","0","Congruent","uniform","1","undefined","1","s","0","0","0","10","10","0","10","10","0","0","0","10","10","10","10","0","Sun Sep 25 15:37:14 2022","1500","The main experiment item","yes","Lab21FlankerTask.osexp","/Users/alexisparrish/Desktop","no","mono","no","18","no","white","no","yes","768","legacy","10","10","/Users/alexisparrish/Desktop/DU-subject-1.csv","legacy","Lentiform Loewenfeld","3.3.12","0","s","NA","NA","NA","h","s","322","NA","NA","NA","49596","322","2","legacy","1024","2","48000","-16","experiment","SSSSS","1","odd","53620","NA","NA","NA","NA","NA","69894","68835","NA","NA","4017","69998","70321","69889","69998","4005","Lab 2.1: Flanker Task","11","4844","11","yes","1024"
"100","100","442","442","black","legacy","legacy","legacy","0","Incongruent","uniform","1","undefined","1","s","0","0","0","11","11","0","11","11","0","0","0","11","11","11","11","0","Sun Sep 25 15:37:14 2022","1500","The main experiment item","yes","Lab21FlankerTask.osexp","/Users/alexisparrish/Desktop","no","mono","no","18","no","white","no","yes","768","legacy","11","11","/Users/alexisparrish/Desktop/DU-subject-1.csv","legacy","Lentiform Loewenfeld","3.3.12","0","s","NA","NA","NA","h","s","460","NA","NA","NA","49596","460","2","legacy","1024","2","48000","-16","experiment","HHSHH","1","odd","53620","NA","NA","NA","NA","NA","71384","70326","NA","NA","4017","71488","71949","71379","71488","4005","Lab 2.1: Flanker Task","12","5304","12","yes","1024"
"100","100","445","445","black","legacy","legacy","legacy","0","Congruent","uniform","1","undefined","1","h","0","0","0","12","12","0","12","12","0","0","0","12","12","12","12","0","Sun Sep 25 15:37:14 2022","1500","The main experiment item","yes","Lab21FlankerTask.osexp","/Users/alexisparrish/Desktop","no","mono","no","18","no","white","no","yes","768","legacy","12","12","/Users/alexisparrish/Desktop/DU-subject-1.csv","legacy","Lentiform Loewenfeld","3.3.12","0","h","NA","NA","NA","h","h","481","NA","NA","NA","49596","481","2","legacy","1024","2","48000","-16","experiment","HHHHH","1","odd","53620","NA","NA","NA","NA","NA","73015","71954","NA","NA","4017","73119","73601","73010","73119","4005","Lab 2.1: Flanker Task","13","5785","13","yes","1024"
"92.85714285714286","92.85714285714286","436.2857142857143","436.2857142857143","black","legacy","legacy","legacy","0","Incongruent","uniform","0","undefined","0","s","0","0","0","13","13","0","13","13","0","0","0","13","13","13","13","0","Sun Sep 25 15:37:14 2022","1500","The main experiment item","yes","Lab21FlankerTask.osexp","/Users/alexisparrish/Desktop","no","mono","no","18","no","white","no","yes","768","legacy","13","13","/Users/alexisparrish/Desktop/DU-subject-1.csv","legacy","Lentiform Loewenfeld","3.3.12","0","h","NA","NA","NA","h","h","323","NA","NA","NA","49596","323","2","legacy","1024","2","48000","-16","experiment","HHSHH","1","odd","53620","NA","NA","NA","NA","NA","74670","73609","NA","NA","4017","74775","75099","74665","74775","4005","Lab 2.1: Flanker Task","13","6108","14","yes","1024"
"93.33333333333333","93.33333333333333","432.4","432.4","black","legacy","legacy","legacy","0","Incongruent","uniform","1","undefined","1","s","0","0","0","14","14","0","14","14","0","0","0","14","14","14","14","0","Sun Sep 25 15:37:14 2022","1500","The main experiment item","yes","Lab21FlankerTask.osexp","/Users/alexisparrish/Desktop","no","mono","no","18","no","white","no","yes","768","legacy","14","14","/Users/alexisparrish/Desktop/DU-subject-1.csv","legacy","Lentiform Loewenfeld","3.3.12","0","s","NA","NA","NA","h","s","378","NA","NA","NA","49596","378","2","legacy","1024","2","48000","-16","experiment","HHSHH","1","odd","53620","NA","NA","75104","NA","NA","76672","75610","NA","NA","4017","76776","77155","76666","76776","4005","Lab 2.1: Flanker Task","14","6486","15","yes","1024"
"87.5","87.5","426","426","black","legacy","legacy","legacy","0","Congruent","uniform","0","undefined","0","h","0","0","0","15","15","0","15","15","0","0","0","15","15","15","15","0","Sun Sep 25 15:37:14 2022","1500","The main experiment item","yes","Lab21FlankerTask.osexp","/Users/alexisparrish/Desktop","no","mono","no","18","no","white","no","yes","768","legacy","15","15","/Users/alexisparrish/Desktop/DU-subject-1.csv","legacy","Lentiform Loewenfeld","3.3.12","0","s","NA","NA","NA","h","s","330","NA","NA","NA","49596","330","2","legacy","1024","2","48000","-16","experiment","HHHHH","1","odd","53620","NA","NA","75104","NA","NA","78220","77161","NA","NA","4017","78325","78656","78216","78325","4005","Lab 2.1: Flanker Task","14","6816","16","yes","1024"
"88.23529411764706","88.23529411764706","421.47058823529414","421.47058823529414","black","legacy","legacy","legacy","0","Congruent","uniform","1","undefined","1","s","0","0","0","16","16","0","16","16","0","0","0","16","16","16","16","0","Sun Sep 25 15:37:14 2022","1500","The main experiment item","yes","Lab21FlankerTask.osexp","/Users/alexisparrish/Desktop","no","mono","no","18","no","white","no","yes","768","legacy","16","16","/Users/alexisparrish/Desktop/DU-subject-1.csv","legacy","Lentiform Loewenfeld","3.3.12","0","s","NA","NA","NA","h","s","349","NA","NA","NA","49596","349","2","legacy","1024","2","48000","-16","experiment","SSSSS","1","odd","53620","NA","NA","78661","NA","NA","80226","79165","NA","NA","4017","80330","80681","80219","80330","4005","Lab 2.1: Flanker Task","15","7165","17","yes","1024"
"88.88888888888889","88.88888888888889","414.05555555555554","414.05555555555554","black","legacy","legacy","legacy","0","Incongruent","uniform","1","undefined","1","s","0","0","0","17","17","0","17","17","0","0","0","17","17","17","17","0","Sun Sep 25 15:37:14 2022","1500","The main experiment item","yes","Lab21FlankerTask.osexp","/Users/alexisparrish/Desktop","no","mono","no","18","no","white","no","yes","768","legacy","17","17","/Users/alexisparrish/Desktop/DU-subject-1.csv","legacy","Lentiform Loewenfeld","3.3.12","0","s","NA","NA","NA","h","s","288","NA","NA","NA","49596","288","2","legacy","1024","2","48000","-16","experiment","HHSHH","1","odd","53620","NA","NA","78661","NA","NA","81746","80686","NA","NA","4017","81850","82138","81741","81850","4005","Lab 2.1: Flanker Task","16","7453","18","yes","1024"
"84.21052631578948","84.21052631578948","409.94736842105266","409.94736842105266","black","legacy","legacy","legacy","0","Congruent","uniform","0","undefined","0","h","0","0","0","18","18","0","18","18","0","0","0","18","18","18","18","0","Sun Sep 25 15:37:14 2022","1500","The main experiment item","yes","Lab21FlankerTask.osexp","/Users/alexisparrish/Desktop","no","mono","no","18","no","white","no","yes","768","legacy","18","18","/Users/alexisparrish/Desktop/DU-subject-1.csv","legacy","Lentiform Loewenfeld","3.3.12","0","s","NA","NA","NA","h","s","336","NA","NA","NA","49596","336","2","legacy","1024","2","48000","-16","experiment","HHHHH","1","odd","53620","NA","NA","78661","NA","NA","83204","82144","NA","NA","4017","83309","83646","83199","83309","4005","Lab 2.1: Flanker Task","16","7789","19","yes","1024"
"80","80","407.4","407.4","black","legacy","legacy","legacy","0","Incongruent","uniform","0","undefined","0","h","0","0","0","19","19","0","19","19","0","0","0","19","19","19","19","0","Sun Sep 25 15:37:14 2022","1500","The main experiment item","yes","Lab21FlankerTask.osexp","/Users/alexisparrish/Desktop","no","mono","no","18","no","white","no","yes","768","legacy","19","19","/Users/alexisparrish/Desktop/DU-subject-1.csv","legacy","Lentiform Loewenfeld","3.3.12","0","s","NA","NA","NA","h","s","359","NA","NA","NA","49596","359","2","legacy","1024","2","48000","-16","experiment","SSHSS","1","odd","53620","NA","NA","83652","NA","NA","85214","84156","NA","NA","4017","85319","85679","85210","85319","4005","Lab 2.1: Flanker Task","16","8148","20","yes","1024"
"80.95238095238095","80.95238095238095","408.6666666666667","408.6666666666667","black","legacy","legacy","legacy","0","Incongruent","uniform","1","undefined","1","s","0","0","0","20","20","0","20","20","0","0","0","20","20","20","20","0","Sun Sep 25 15:37:14 2022","1500","The main experiment item","yes","Lab21FlankerTask.osexp","/Users/alexisparrish/Desktop","no","mono","no","18","no","white","no","yes","768","legacy","20","20","/Users/alexisparrish/Desktop/DU-subject-1.csv","legacy","Lentiform Loewenfeld","3.3.12","0","s","NA","NA","NA","h","s","434","NA","NA","NA","49596","434","2","legacy","1024","2","48000","-16","experiment","HHSHH","1","odd","53620","NA","NA","85684","NA","NA","87251","86189","NA","NA","4017","87357","87791","87246","87357","4005","Lab 2.1: Flanker Task","17","8582","21","yes","1024"
"81.81818181818181","81.81818181818181","410.27272727272725","410.27272727272725","black","legacy","legacy","legacy","0","Congruent","uniform","1","undefined","1","h","0","0","0","21","21","0","21","21","0","0","0","21","21","21","21","0","Sun Sep 25 15:37:14 2022","1500","The main experiment item","yes","Lab21FlankerTask.osexp","/Users/alexisparrish/Desktop","no","mono","no","18","no","white","no","yes","768","legacy","21","21","/Users/alexisparrish/Desktop/DU-subject-1.csv","legacy","Lentiform Loewenfeld","3.3.12","0","h","NA","NA","NA","h","h","444","NA","NA","NA","49596","444","2","legacy","1024","2","48000","-16","experiment","HHHHH","1","odd","53620","NA","NA","85684","NA","NA","88857","87797","NA","NA","4017","88961","89405","88852","88961","4005","Lab 2.1: Flanker Task","18","9026","22","yes","1024"
"82.6086956521739","82.6086956521739","409.60869565217394","409.60869565217394","black","legacy","legacy","legacy","0","Congruent","uniform","1","undefined","1","s","0","0","0","22","22","0","22","22","0","0","0","22","22","22","22","0","Sun Sep 25 15:37:14 2022","1500","The main experiment item","yes","Lab21FlankerTask.osexp","/Users/alexisparrish/Desktop","no","mono","no","18","no","white","no","yes","768","legacy","22","22","/Users/alexisparrish/Desktop/DU-subject-1.csv","legacy","Lentiform Loewenfeld","3.3.12","0","s","NA","NA","NA","h","s","395","NA","NA","NA","49596","395","2","legacy","1024","2","48000","-16","experiment","SSSSS","1","odd","53620","NA","NA","85684","NA","NA","90475","89412","NA","NA","4017","90580","90976","90468","90580","4005","Lab 2.1: Flanker Task","19","9421","23","yes","1024"
"83.33333333333333","83.33333333333333","414.8333333333333","414.8333333333333","black","legacy","legacy","legacy","0","Incongruent","uniform","1","undefined","1","h","0","0","0","23","23","0","23","23","0","0","0","23","23","23","23","0","Sun Sep 25 15:37:14 2022","1500","The main experiment item","yes","Lab21FlankerTask.osexp","/Users/alexisparrish/Desktop","no","mono","no","18","no","white","no","yes","768","legacy","23","23","/Users/alexisparrish/Desktop/DU-subject-1.csv","legacy","Lentiform Loewenfeld","3.3.12","0","h","NA","NA","NA","h","h","535","NA","NA","NA","49596","535","2","legacy","1024","2","48000","-16","experiment","SSHSS","1","odd","53620","NA","NA","85684","NA","NA","92042","90982","NA","NA","4017","92146","92681","92037","92146","4005","Lab 2.1: Flanker Task","20","9956","24","yes","1024"
"84","84","418","418","black","legacy","legacy","legacy","0","Incongruent","uniform","1","undefined","1","h","0","0","0","24","24","0","24","24","0","0","0","24","24","24","24","0","Sun Sep 25 15:37:14 2022","1500","The main experiment item","yes","Lab21FlankerTask.osexp","/Users/alexisparrish/Desktop","no","mono","no","18","no","white","no","yes","768","legacy","24","24","/Users/alexisparrish/Desktop/DU-subject-1.csv","legacy","Lentiform Loewenfeld","3.3.12","0","h","NA","NA","NA","h","h","494","NA","NA","NA","49596","494","2","legacy","1024","2","48000","-16","experiment","SSHSS","1","odd","53620","NA","NA","85684","NA","NA","93748","92688","NA","NA","4017","93853","94348","93743","93853","4005","Lab 2.1: Flanker Task","21","10450","25","yes","1024"
"84.61538461538461","84.61538461538461","421.11538461538464","421.11538461538464","black","legacy","legacy","legacy","0","Congruent","uniform","1","undefined","1","h","0","0","0","25","25","0","25","25","0","0","0","25","25","25","25","0","Sun Sep 25 15:37:14 2022","1500","The main experiment item","yes","Lab21FlankerTask.osexp","/Users/alexisparrish/Desktop","no","mono","no","18","no","white","no","yes","768","legacy","25","25","/Users/alexisparrish/Desktop/DU-subject-1.csv","legacy","Lentiform Loewenfeld","3.3.12","0","h","NA","NA","NA","h","h","499","NA","NA","NA","49596","499","2","legacy","1024","2","48000","-16","experiment","HHHHH","1","odd","53620","NA","NA","85684","NA","NA","95410","94353","NA","NA","4017","95514","96014","95405","95514","4005","Lab 2.1: Flanker Task","22","10949","26","yes","1024"
"85.18518518518519","85.18518518518519","420.77777777777777","420.77777777777777","black","legacy","legacy","legacy","0","Congruent","uniform","1","undefined","1","s","0","0","0","26","26","0","26","26","0","0","0","26","26","26","26","0","Sun Sep 25 15:37:14 2022","1500","The main experiment item","yes","Lab21FlankerTask.osexp","/Users/alexisparrish/Desktop","no","mono","no","18","no","white","no","yes","768","legacy","26","26","/Users/alexisparrish/Desktop/DU-subject-1.csv","legacy","Lentiform Loewenfeld","3.3.12","0","s","NA","NA","NA","h","s","412","NA","NA","NA","49596","412","2","legacy","1024","2","48000","-16","experiment","SSSSS","1","odd","53620","NA","NA","85684","NA","NA","97081","96021","NA","NA","4017","97185","97598","97076","97185","4005","Lab 2.1: Flanker Task","23","11361","27","yes","1024"
"82.14285714285714","82.14285714285714","417.10714285714283","417.10714285714283","black","legacy","legacy","legacy","0","Incongruent","uniform","0","undefined","0","h","0","0","0","27","27","0","27","27","0","0","0","27","27","27","27","0","Sun Sep 25 15:37:14 2022","1500","The main experiment item","yes","Lab21FlankerTask.osexp","/Users/alexisparrish/Desktop","no","mono","no","18","no","white","no","yes","768","legacy","27","27","/Users/alexisparrish/Desktop/DU-subject-1.csv","legacy","Lentiform Loewenfeld","3.3.12","0","s","NA","NA","NA","h","s","318","NA","NA","NA","49596","318","2","legacy","1024","2","48000","-16","experiment","SSHSS","1","odd","53620","NA","NA","85684","NA","NA","98661","97603","NA","NA","4017","98765","99084","98656","98765","4005","Lab 2.1: Flanker Task","23","11679","28","yes","1024"
"82.75862068965517","82.75862068965517","415.2758620689655","415.2758620689655","black","legacy","legacy","legacy","0","Congruent","uniform","1","undefined","1","s","0","0","0","28","28","0","28","28","0","0","0","28","28","28","28","0","Sun Sep 25 15:37:14 2022","1500","The main experiment item","yes","Lab21FlankerTask.osexp","/Users/alexisparrish/Desktop","no","mono","no","18","no","white","no","yes","768","legacy","28","28","/Users/alexisparrish/Desktop/DU-subject-1.csv","legacy","Lentiform Loewenfeld","3.3.12","0","s","NA","NA","NA","h","s","364","NA","NA","NA","49596","364","2","legacy","1024","2","48000","-16","experiment","SSSSS","1","odd","53620","NA","NA","99090","NA","NA","100653","99594","NA","NA","4017","100758","101123","100648","100758","4005","Lab 2.1: Flanker Task","24","12043","29","yes","1024"
"83.33333333333333","83.33333333333333","411.2","411.2","black","legacy","legacy","legacy","0","Congruent","uniform","1","undefined","1","s","0","0","0","29","29","0","29","29","0","0","0","29","29","29","29","0","Sun Sep 25 15:37:14 2022","1500","The main experiment item","yes","Lab21FlankerTask.osexp","/Users/alexisparrish/Desktop","no","mono","no","18","no","white","no","yes","768","legacy","29","29","/Users/alexisparrish/Desktop/DU-subject-1.csv","legacy","Lentiform Loewenfeld","3.3.12","0","s","NA","NA","NA","h","s","293","NA","NA","NA","49596","293","2","legacy","1024","2","48000","-16","experiment","SSSSS","1","odd","53620","NA","NA","99090","NA","NA","102191","101128","NA","NA","4017","102295","102589","102184","102295","4005","Lab 2.1: Flanker Task","25","12336","30","yes","1024"
"83.87096774193549","83.87096774193549","410.51612903225805","410.51612903225805","black","legacy","legacy","legacy","0","Congruent","uniform","1","undefined","1","h","0","0","0","30","30","0","30","30","0","0","0","30","30","30","30","0","Sun Sep 25 15:37:14 2022","1500","The main experiment item","yes","Lab21FlankerTask.osexp","/Users/alexisparrish/Desktop","no","mono","no","18","no","white","no","yes","768","legacy","30","30","/Users/alexisparrish/Desktop/DU-subject-1.csv","legacy","Lentiform Loewenfeld","3.3.12","0","h","NA","NA","NA","h","h","390","NA","NA","NA","49596","390","2","legacy","1024","2","48000","-16","experiment","HHHHH","1","odd","53620","NA","NA","99090","NA","NA","103653","102594","NA","NA","4017","103757","104148","103649","103757","4005","Lab 2.1: Flanker Task","26","12726","31","yes","1024"
"84.375","84.375","413.125","413.125","black","legacy","legacy","legacy","0","Congruent","uniform","1","undefined","1","h","0","0","0","31","31","0","31","31","0","0","0","31","31","31","31","0","Sun Sep 25 15:37:14 2022","1500","The main experiment item","yes","Lab21FlankerTask.osexp","/Users/alexisparrish/Desktop","no","mono","no","18","no","white","no","yes","768","legacy","31","31","/Users/alexisparrish/Desktop/DU-subject-1.csv","legacy","Lentiform Loewenfeld","3.3.12","0","h","NA","NA","NA","h","h","494","NA","NA","NA","49596","494","2","legacy","1024","2","48000","-16","experiment","HHHHH","1","odd","53620","NA","NA","99090","NA","NA","105214","104154","NA","NA","4017","105318","105813","105209","105318","4005","Lab 2.1: Flanker Task","27","13220","32","yes","1024"
"81.81818181818181","81.81818181818181","409.3939393939394","409.3939393939394","black","legacy","legacy","legacy","0","Congruent","uniform","0","undefined","0","h","0","0","0","32","32","0","32","32","0","0","0","32","32","32","32","0","Sun Sep 25 15:37:14 2022","1500","The main experiment item","yes","Lab21FlankerTask.osexp","/Users/alexisparrish/Desktop","no","mono","no","18","no","white","no","yes","768","legacy","32","32","/Users/alexisparrish/Desktop/DU-subject-1.csv","legacy","Lentiform Loewenfeld","3.3.12","0","s","NA","NA","NA","h","s","290","NA","NA","NA","49596","290","2","legacy","1024","2","48000","-16","experiment","HHHHH","1","odd","53620","NA","NA","99090","NA","NA","106878","105818","NA","NA","4017","106982","107273","106873","106982","4005","Lab 2.1: Flanker Task","27","13510","33","yes","1024"
"82.3529411764706","82.3529411764706","412.8529411764706","412.8529411764706","black","legacy","legacy","legacy","0","Incongruent","uniform","1","undefined","1","h","0","0","0","33","33","0","33","33","0","0","0","33","33","33","33","0","Sun Sep 25 15:37:14 2022","1500","The main experiment item","yes","Lab21FlankerTask.osexp","/Users/alexisparrish/Desktop","no","mono","no","18","no","white","no","yes","768","legacy","33","33","/Users/alexisparrish/Desktop/DU-subject-1.csv","legacy","Lentiform Loewenfeld","3.3.12","0","h","NA","NA","NA","h","h","527","NA","NA","NA","49596","527","2","legacy","1024","2","48000","-16","experiment","SSHSS","1","odd","53620","NA","NA","107278","NA","NA","108843","107782","NA","NA","4017","108949","109477","108838","108949","4005","Lab 2.1: Flanker Task","28","14037","34","yes","1024"
"80","80","410.8","410.8","black","legacy","legacy","legacy","0","Incongruent","uniform","0","undefined","0","h","0","0","0","34","34","0","34","34","0","0","0","34","34","34","34","0","Sun Sep 25 15:37:14 2022","1500","The main experiment item","yes","Lab21FlankerTask.osexp","/Users/alexisparrish/Desktop","no","mono","no","18","no","white","no","yes","768","legacy","34","34","/Users/alexisparrish/Desktop/DU-subject-1.csv","legacy","Lentiform Loewenfeld","3.3.12","0","s","NA","NA","NA","h","s","341","NA","NA","NA","49596","341","2","legacy","1024","2","48000","-16","experiment","SSHSS","1","odd","53620","NA","NA","107278","NA","NA","110545","109484","NA","NA","4017","110649","110991","110540","110649","4005","Lab 2.1: Flanker Task","28","14378","35","yes","1024"
"80.55555555555556","80.55555555555556","410.22222222222223","410.22222222222223","black","legacy","legacy","legacy","0","Incongruent","uniform","1","undefined","1","s","0","0","0","35","35","0","35","35","0","0","0","35","35","35","35","0","Sun Sep 25 15:37:14 2022","1500","The main experiment item","yes","Lab21FlankerTask.osexp","/Users/alexisparrish/Desktop","no","mono","no","18","no","white","no","yes","768","legacy","35","35","/Users/alexisparrish/Desktop/DU-subject-1.csv","legacy","Lentiform Loewenfeld","3.3.12","0","s","NA","NA","NA","h","s","390","NA","NA","NA","49596","390","2","legacy","1024","2","48000","-16","experiment","HHSHH","1","odd","53620","NA","NA","110998","NA","NA","112562","111502","NA","NA","4017","112666","113057","112556","112666","4005","Lab 2.1: Flanker Task","29","14768","36","yes","1024"
"81.08108108108108","81.08108108108108","410.9189189189189","410.9189189189189","black","legacy","legacy","legacy","0","Incongruent","uniform","1","undefined","1","s","0","0","0","36","36","0","36","36","0","0","0","36","36","36","36","0","Sun Sep 25 15:37:14 2022","1500","The main experiment item","yes","Lab21FlankerTask.osexp","/Users/alexisparrish/Desktop","no","mono","no","18","no","white","no","yes","768","legacy","36","36","/Users/alexisparrish/Desktop/DU-subject-1.csv","legacy","Lentiform Loewenfeld","3.3.12","0","s","NA","NA","NA","h","s","436","NA","NA","NA","49596","436","2","legacy","1024","2","48000","-16","experiment","HHSHH","1","odd","53620","NA","NA","110998","NA","NA","114121","113062","NA","NA","4017","114226","114663","114117","114226","4005","Lab 2.1: Flanker Task","30","15204","37","yes","1024"
"78.94736842105263","78.94736842105263","408.05263157894734","408.05263157894734","black","legacy","legacy","legacy","0","Incongruent","uniform","0","undefined","0","h","0","0","0","37","37","0","37","37","0","0","0","37","37","37","37","0","Sun Sep 25 15:37:14 2022","1500","The main experiment item","yes","Lab21FlankerTask.osexp","/Users/alexisparrish/Desktop","no","mono","no","18","no","white","no","yes","768","legacy","37","37","/Users/alexisparrish/Desktop/DU-subject-1.csv","legacy","Lentiform Loewenfeld","3.3.12","0","s","NA","NA","NA","h","s","302","NA","NA","NA","49596","302","2","legacy","1024","2","48000","-16","experiment","SSHSS","1","odd","53620","NA","NA","110998","NA","NA","115724","114668","NA","NA","4017","115828","116131","115719","115828","4005","Lab 2.1: Flanker Task","30","15506","38","yes","1024"
"79.48717948717949","79.48717948717949","408.20512820512823","408.20512820512823","black","legacy","legacy","legacy","0","Congruent","uniform","1","undefined","1","h","0","0","0","38","38","0","38","38","0","0","0","38","38","38","38","0","Sun Sep 25 15:37:14 2022","1500","The main experiment item","yes","Lab21FlankerTask.osexp","/Users/alexisparrish/Desktop","no","mono","no","18","no","white","no","yes","768","legacy","38","38","/Users/alexisparrish/Desktop/DU-subject-1.csv","legacy","Lentiform Loewenfeld","3.3.12","0","h","NA","NA","NA","h","h","414","NA","NA","NA","49596","414","2","legacy","1024","2","48000","-16","experiment","HHHHH","1","odd","53620","NA","NA","116141","NA","NA","117706","116646","NA","NA","4017","117810","118225","117701","117810","4005","Lab 2.1: Flanker Task","31","15920","39","yes","1024"
"80","80","409.35","409.35","black","legacy","legacy","legacy","0","Congruent","uniform","1","undefined","1","h","0","0","0","39","39","0","39","39","0","0","0","39","39","39","39","0","Sun Sep 25 15:37:14 2022","1500","The main experiment item","yes","Lab21FlankerTask.osexp","/Users/alexisparrish/Desktop","no","mono","no","18","no","white","no","yes","768","legacy","39","39","/Users/alexisparrish/Desktop/DU-subject-1.csv","legacy","Lentiform Loewenfeld","3.3.12","0","h","NA","NA","NA","h","h","454","NA","NA","NA","49596","454","2","legacy","1024","2","48000","-16","experiment","HHHHH","1","odd","53620","NA","NA","116141","NA","NA","119289","118230","NA","NA","4017","119393","119848","119283","119393","4005","Lab 2.1: Flanker Task","32","16374","40","yes","1024"
"80.48780487804878","80.48780487804878","410.4146341463415","410.4146341463415","black","legacy","legacy","legacy","0","Incongruent","uniform","1","undefined","1","h","0","0","0","40","40","0","40","40","0","0","0","40","40","40","40","0","Sun Sep 25 15:37:14 2022","1500","The main experiment item","yes","Lab21FlankerTask.osexp","/Users/alexisparrish/Desktop","no","mono","no","18","no","white","no","yes","768","legacy","40","40","/Users/alexisparrish/Desktop/DU-subject-1.csv","legacy","Lentiform Loewenfeld","3.3.12","0","h","NA","NA","NA","h","h","453","NA","NA","NA","49596","453","2","legacy","1024","2","48000","-16","experiment","SSHSS","1","odd","53620","NA","NA","116141","NA","NA","120911","119854","NA","NA","4017","121015","121468","120906","121015","4005","Lab 2.1: Flanker Task","33","16827","41","yes","1024"
"78.57142857142857","78.57142857142857","409.07142857142856","409.07142857142856","black","legacy","legacy","legacy","0","Congruent","uniform","0","undefined","0","s","0","0","0","41","41","0","41","41","0","0","0","41","41","41","41","0","Sun Sep 25 15:37:14 2022","1500","The main experiment item","yes","Lab21FlankerTask.osexp","/Users/alexisparrish/Desktop","no","mono","no","18","no","white","no","yes","768","legacy","41","41","/Users/alexisparrish/Desktop/DU-subject-1.csv","legacy","Lentiform Loewenfeld","3.3.12","0","h","NA","NA","NA","h","h","354","NA","NA","NA","49596","354","2","legacy","1024","2","48000","-16","experiment","SSSSS","1","odd","53620","NA","NA","116141","NA","NA","122534","121474","NA","NA","4017","122639","122994","122528","122639","4005","Lab 2.1: Flanker Task","33","17181","42","yes","1024"
"79.06976744186046","79.06976744186046","411.3255813953488","411.3255813953488","black","legacy","legacy","legacy","0","Congruent","uniform","1","undefined","1","s","0","0","0","42","42","0","42","42","0","0","0","42","42","42","42","0","Sun Sep 25 15:37:14 2022","1500","The main experiment item","yes","Lab21FlankerTask.osexp","/Users/alexisparrish/Desktop","no","mono","no","18","no","white","no","yes","768","legacy","42","42","/Users/alexisparrish/Desktop/DU-subject-1.csv","legacy","Lentiform Loewenfeld","3.3.12","0","s","NA","NA","NA","h","s","506","NA","NA","NA","49596","506","2","legacy","1024","2","48000","-16","experiment","SSSSS","1","odd","53620","NA","NA","122999","NA","NA","124562","123504","NA","NA","4017","124666","125172","124557","124666","4005","Lab 2.1: Flanker Task","34","17687","43","yes","1024"
"79.54545454545455","79.54545454545455","409.84090909090907","409.84090909090907","black","legacy","legacy","legacy","0","Congruent","uniform","1","undefined","1","s","0","0","0","43","43","0","43","43","0","0","0","43","43","43","43","0","Sun Sep 25 15:37:14 2022","1500","The main experiment item","yes","Lab21FlankerTask.osexp","/Users/alexisparrish/Desktop","no","mono","no","18","no","white","no","yes","768","legacy","43","43","/Users/alexisparrish/Desktop/DU-subject-1.csv","legacy","Lentiform Loewenfeld","3.3.12","0","s","NA","NA","NA","h","s","346","NA","NA","NA","49596","346","2","legacy","1024","2","48000","-16","experiment","SSSSS","1","odd","53620","NA","NA","122999","NA","NA","126242","125184","NA","NA","4017","126347","126694","126238","126347","4005","Lab 2.1: Flanker Task","35","18033","44","yes","1024"
"80","80","408.35555555555555","408.35555555555555","black","legacy","legacy","legacy","0","Congruent","uniform","1","undefined","1","s","0","0","0","44","44","0","44","44","0","0","0","44","44","44","44","0","Sun Sep 25 15:37:14 2022","1500","The main experiment item","yes","Lab21FlankerTask.osexp","/Users/alexisparrish/Desktop","no","mono","no","18","no","white","no","yes","768","legacy","44","44","/Users/alexisparrish/Desktop/DU-subject-1.csv","legacy","Lentiform Loewenfeld","3.3.12","0","s","NA","NA","NA","h","s","343","NA","NA","NA","49596","343","2","legacy","1024","2","48000","-16","experiment","SSSSS","1","odd","53620","NA","NA","122999","NA","NA","127768","126706","NA","NA","4017","127872","128215","127763","127872","4005","Lab 2.1: Flanker Task","36","18376","45","yes","1024"
"80.43478260869566","80.43478260869566","409.2173913043478","409.2173913043478","black","legacy","legacy","legacy","0","Congruent","uniform","1","undefined","1","h","0","0","0","45","45","0","45","45","0","0","0","45","45","45","45","0","Sun Sep 25 15:37:14 2022","1500","The main experiment item","yes","Lab21FlankerTask.osexp","/Users/alexisparrish/Desktop","no","mono","no","18","no","white","no","yes","768","legacy","45","45","/Users/alexisparrish/Desktop/DU-subject-1.csv","legacy","Lentiform Loewenfeld","3.3.12","0","h","NA","NA","NA","h","h","448","NA","NA","NA","49596","448","2","legacy","1024","2","48000","-16","experiment","HHHHH","1","odd","53620","NA","NA","122999","NA","NA","129285","128226","NA","NA","4017","129389","129838","129280","129389","4005","Lab 2.1: Flanker Task","37","18824","46","yes","1024"
"80.85106382978724","80.85106382978724","408.82978723404256","408.82978723404256","black","legacy","legacy","legacy","0","Congruent","uniform","1","undefined","1","s","0","0","0","46","46","0","46","46","0","0","0","46","46","46","46","0","Sun Sep 25 15:37:14 2022","1500","The main experiment item","yes","Lab21FlankerTask.osexp","/Users/alexisparrish/Desktop","no","mono","no","18","no","white","no","yes","768","legacy","46","46","/Users/alexisparrish/Desktop/DU-subject-1.csv","legacy","Lentiform Loewenfeld","3.3.12","0","s","NA","NA","NA","h","s","391","NA","NA","NA","49596","391","2","legacy","1024","2","48000","-16","experiment","SSSSS","1","odd","53620","NA","NA","122999","NA","NA","130908","129850","NA","NA","4017","131012","131404","130903","131012","4005","Lab 2.1: Flanker Task","38","19215","47","yes","1024"
"81.25","81.25","413.7916666666667","413.7916666666667","black","legacy","legacy","legacy","0","Incongruent","uniform","1","undefined","1","h","0","0","0","47","47","0","47","47","0","0","0","47","47","47","47","0","Sun Sep 25 15:37:14 2022","1500","The main experiment item","yes","Lab21FlankerTask.osexp","/Users/alexisparrish/Desktop","no","mono","no","18","no","white","no","yes","768","legacy","47","47","/Users/alexisparrish/Desktop/DU-subject-1.csv","legacy","Lentiform Loewenfeld","3.3.12","0","h","NA","NA","NA","h","h","647","NA","NA","NA","49596","647","2","legacy","1024","2","48000","-16","experiment","SSHSS","1","odd","53620","NA","NA","122999","NA","NA","132480","131416","NA","NA","4017","132585","133232","132476","132585","4005","Lab 2.1: Flanker Task","39","19862","48","yes","1024"
"81.63265306122449","81.63265306122449","414.0204081632653","414.0204081632653","black","legacy","legacy","legacy","0","Congruent","uniform","1","undefined","1","s","0","0","0","48","48","0","48","48","0","0","0","48","48","48","48","0","Sun Sep 25 15:37:14 2022","1500","The main experiment item","yes","Lab21FlankerTask.osexp","/Users/alexisparrish/Desktop","no","mono","no","18","no","white","no","yes","768","legacy","48","48","/Users/alexisparrish/Desktop/DU-subject-1.csv","legacy","Lentiform Loewenfeld","3.3.12","0","s","NA","NA","NA","h","s","425","NA","NA","NA","49596","425","2","legacy","1024","2","48000","-16","experiment","SSSSS","1","odd","53620","NA","NA","122999","NA","NA","134305","133242","NA","NA","4017","134411","134837","134300","134410","4005","Lab 2.1: Flanker Task","40","20287","49","yes","1024"
"82","82","413.5","413.5","black","legacy","legacy","legacy","0","Incongruent","uniform","1","undefined","1","h","0","0","0","49","49","0","49","49","0","0","0","49","49","49","49","0","Sun Sep 25 15:37:14 2022","1500","The main experiment item","yes","Lab21FlankerTask.osexp","/Users/alexisparrish/Desktop","no","mono","no","18","no","white","no","yes","768","legacy","49","49","/Users/alexisparrish/Desktop/DU-subject-1.csv","legacy","Lentiform Loewenfeld","3.3.12","0","h","NA","NA","NA","h","h","388","NA","NA","NA","49596","388","2","legacy","1024","2","48000","-16","experiment","SSHSS","1","odd","53620","NA","NA","122999","NA","NA","135909","134848","NA","NA","4017","136013","136402","135903","136013","4005","Lab 2.1: Flanker Task","41","20675","50","yes","1024"
"82.3529411764706","82.3529411764706","413.27450980392155","413.27450980392155","black","legacy","legacy","legacy","0","Congruent","uniform","1","undefined","1","h","0","0","0","50","50","0","50","50","0","0","0","50","50","50","50","0","Sun Sep 25 15:37:14 2022","1500","The main experiment item","yes","Lab21FlankerTask.osexp","/Users/alexisparrish/Desktop","no","mono","no","18","no","white","no","yes","768","legacy","50","50","/Users/alexisparrish/Desktop/DU-subject-1.csv","legacy","Lentiform Loewenfeld","3.3.12","0","h","NA","NA","NA","h","h","402","NA","NA","NA","49596","402","2","legacy","1024","2","48000","-16","experiment","HHHHH","1","odd","53620","NA","NA","122999","NA","NA","137476","136413","NA","NA","4017","137580","137983","137470","137580","4005","Lab 2.1: Flanker Task","42","21077","51","yes","1024"
"82.6923076923077","82.6923076923077","417.0769230769231","417.0769230769231","black","legacy","legacy","legacy","0","Incongruent","uniform","1","undefined","1","s","0","0","0","51","51","0","51","51","0","0","0","51","51","51","51","0","Sun Sep 25 15:37:14 2022","1500","The main experiment item","yes","Lab21FlankerTask.osexp","/Users/alexisparrish/Desktop","no","mono","no","18","no","white","no","yes","768","legacy","51","51","/Users/alexisparrish/Desktop/DU-subject-1.csv","legacy","Lentiform Loewenfeld","3.3.12","0","s","NA","NA","NA","h","s","611","NA","NA","NA","49596","611","2","legacy","1024","2","48000","-16","experiment","HHSHH","1","odd","53620","NA","NA","122999","NA","NA","139059","137994","NA","NA","4017","139163","139775","139053","139163","4005","Lab 2.1: Flanker Task","43","21688","52","yes","1024"
"83.01886792452831","83.01886792452831","416.9056603773585","416.9056603773585","black","legacy","legacy","legacy","0","Incongruent","uniform","1","undefined","1","s","0","0","0","52","52","0","52","52","0","0","0","52","52","52","52","0","Sun Sep 25 15:37:14 2022","1500","The main experiment item","yes","Lab21FlankerTask.osexp","/Users/alexisparrish/Desktop","no","mono","no","18","no","white","no","yes","768","legacy","52","52","/Users/alexisparrish/Desktop/DU-subject-1.csv","legacy","Lentiform Loewenfeld","3.3.12","0","s","NA","NA","NA","h","s","408","NA","NA","NA","49596","408","2","legacy","1024","2","48000","-16","experiment","HHSHH","1","odd","53620","NA","NA","122999","NA","NA","140849","139786","NA","NA","4017","140953","141362","140844","140953","4005","Lab 2.1: Flanker Task","44","22096","53","yes","1024"
"83.33333333333333","83.33333333333333","418.22222222222223","418.22222222222223","black","legacy","legacy","legacy","0","Incongruent","uniform","1","undefined","1","h","0","0","0","53","53","0","53","53","0","0","0","53","53","53","53","0","Sun Sep 25 15:37:14 2022","1500","The main experiment item","yes","Lab21FlankerTask.osexp","/Users/alexisparrish/Desktop","no","mono","no","18","no","white","no","yes","768","legacy","53","53","/Users/alexisparrish/Desktop/DU-subject-1.csv","legacy","Lentiform Loewenfeld","3.3.12","0","h","NA","NA","NA","h","h","488","NA","NA","NA","49596","488","2","legacy","1024","2","48000","-16","experiment","SSHSS","1","odd","53620","NA","NA","122999","NA","NA","142432","141374","NA","NA","4017","142536","143025","142427","142536","4005","Lab 2.1: Flanker Task","45","22584","54","yes","1024"
"83.63636363636364","83.63636363636364","419.6909090909091","419.6909090909091","black","legacy","legacy","legacy","0","Incongruent","uniform","1","undefined","1","h","0","0","0","54","54","0","54","54","0","0","0","54","54","54","54","0","Sun Sep 25 15:37:14 2022","1500","The main experiment item","yes","Lab21FlankerTask.osexp","/Users/alexisparrish/Desktop","no","mono","no","18","no","white","no","yes","768","legacy","54","54","/Users/alexisparrish/Desktop/DU-subject-1.csv","legacy","Lentiform Loewenfeld","3.3.12","0","h","NA","NA","NA","h","h","499","NA","NA","NA","49596","499","2","legacy","1024","2","48000","-16","experiment","SSHSS","1","odd","53620","NA","NA","122999","NA","NA","144099","143036","NA","NA","4017","144203","144703","144094","144203","4005","Lab 2.1: Flanker Task","46","23083","55","yes","1024"
"83.92857142857143","83.92857142857143","419.4642857142857","419.4642857142857","black","legacy","legacy","legacy","0","Congruent","uniform","1","undefined","1","h","0","0","0","55","55","0","55","55","0","0","0","55","55","55","55","0","Sun Sep 25 15:37:14 2022","1500","The main experiment item","yes","Lab21FlankerTask.osexp","/Users/alexisparrish/Desktop","no","mono","no","18","no","white","no","yes","768","legacy","55","55","/Users/alexisparrish/Desktop/DU-subject-1.csv","legacy","Lentiform Loewenfeld","3.3.12","0","h","NA","NA","NA","h","h","407","NA","NA","NA","49596","407","2","legacy","1024","2","48000","-16","experiment","HHHHH","1","odd","53620","NA","NA","122999","NA","NA","145778","144715","NA","NA","4017","145882","146290","145772","145882","4005","Lab 2.1: Flanker Task","47","23490","56","yes","1024"
"84.21052631578948","84.21052631578948","419.4035087719298","419.4035087719298","black","legacy","legacy","legacy","0","Congruent","uniform","1","undefined","1","s","0","0","0","56","56","0","56","56","0","0","0","56","56","56","56","0","Sun Sep 25 15:37:14 2022","1500","The main experiment item","yes","Lab21FlankerTask.osexp","/Users/alexisparrish/Desktop","no","mono","no","18","no","white","no","yes","768","legacy","56","56","/Users/alexisparrish/Desktop/DU-subject-1.csv","legacy","Lentiform Loewenfeld","3.3.12","0","s","NA","NA","NA","h","s","416","NA","NA","NA","49596","416","2","legacy","1024","2","48000","-16","experiment","SSSSS","1","odd","53620","NA","NA","122999","NA","NA","147368","146302","NA","NA","4017","147472","147889","147362","147472","4005","Lab 2.1: Flanker Task","48","23906","57","yes","1024"
"84.48275862068965","84.48275862068965","420.7586206896552","420.7586206896552","black","legacy","legacy","legacy","0","Incongruent","uniform","1","undefined","1","h","0","0","0","57","57","0","57","57","0","0","0","57","57","57","57","0","Sun Sep 25 15:37:14 2022","1500","The main experiment item","yes","Lab21FlankerTask.osexp","/Users/alexisparrish/Desktop","no","mono","no","18","no","white","no","yes","768","legacy","57","57","/Users/alexisparrish/Desktop/DU-subject-1.csv","legacy","Lentiform Loewenfeld","3.3.12","0","h","NA","NA","NA","h","h","498","NA","NA","NA","49596","498","2","legacy","1024","2","48000","-16","experiment","SSHSS","1","odd","53620","NA","NA","122999","NA","NA","148959","147899","NA","NA","4017","149063","149562","148953","149063","4005","Lab 2.1: Flanker Task","49","24404","58","yes","1024"
"84.7457627118644","84.7457627118644","422.0169491525424","422.0169491525424","black","legacy","legacy","legacy","0","Congruent","uniform","1","undefined","1","h","0","0","0","58","58","0","58","58","0","0","0","58","58","58","58","0","Sun Sep 25 15:37:14 2022","1500","The main experiment item","yes","Lab21FlankerTask.osexp","/Users/alexisparrish/Desktop","no","mono","no","18","no","white","no","yes","768","legacy","58","58","/Users/alexisparrish/Desktop/DU-subject-1.csv","legacy","Lentiform Loewenfeld","3.3.12","0","h","NA","NA","NA","h","h","495","NA","NA","NA","49596","495","2","legacy","1024","2","48000","-16","experiment","HHHHH","1","odd","53620","NA","NA","122999","NA","NA","150644","149574","NA","NA","4017","150748","151244","150638","150748","4005","Lab 2.1: Flanker Task","50","24899","59","yes","1024"
"85","85","422.65","422.65","black","legacy","legacy","legacy","0","Incongruent","uniform","1","undefined","1","h","0","0","0","59","59","0","59","59","0","0","0","59","59","59","59","0","Sun Sep 25 15:37:14 2022","1500","The main experiment item","yes","Lab21FlankerTask.osexp","/Users/alexisparrish/Desktop","no","mono","no","18","no","white","no","yes","768","legacy","59","59","/Users/alexisparrish/Desktop/DU-subject-1.csv","legacy","Lentiform Loewenfeld","3.3.12","0","h","NA","NA","NA","h","h","460","NA","NA","NA","49596","460","2","legacy","1024","2","48000","-16","experiment","SSHSS","1","odd","53620","NA","NA","122999","NA","NA","152310","151252","NA","NA","4017","152414","152875","152305","152414","4005","Lab 2.1: Flanker Task","51","25359","60","yes","1024"
"85.24590163934427","85.24590163934427","421.57377049180326","421.57377049180326","black","legacy","legacy","legacy","0","Incongruent","uniform","1","undefined","1","h","0","0","0","60","60","0","60","60","0","0","0","60","60","60","60","0","Sun Sep 25 15:37:14 2022","1500","The main experiment item","yes","Lab21FlankerTask.osexp","/Users/alexisparrish/Desktop","no","mono","no","18","no","white","no","yes","768","legacy","60","60","/Users/alexisparrish/Desktop/DU-subject-1.csv","legacy","Lentiform Loewenfeld","3.3.12","0","h","NA","NA","NA","h","h","357","NA","NA","NA","49596","357","2","legacy","1024","2","48000","-16","experiment","SSHSS","1","odd","53620","NA","NA","122999","NA","NA","153949","152886","NA","NA","4017","154053","154411","153944","154053","4005","Lab 2.1: Flanker Task","52","25716","61","yes","1024"
"85.48387096774194","85.48387096774194","421.2903225806452","421.2903225806452","black","legacy","legacy","legacy","0","Congruent","uniform","1","undefined","1","h","0","0","0","61","61","0","61","61","0","0","0","61","61","61","61","0","Sun Sep 25 15:37:14 2022","1500","The main experiment item","yes","Lab21FlankerTask.osexp","/Users/alexisparrish/Desktop","no","mono","no","18","no","white","no","yes","768","legacy","61","61","/Users/alexisparrish/Desktop/DU-subject-1.csv","legacy","Lentiform Loewenfeld","3.3.12","0","h","NA","NA","NA","h","h","404","NA","NA","NA","49596","404","2","legacy","1024","2","48000","-16","experiment","HHHHH","1","odd","53620","NA","NA","122999","NA","NA","155475","154416","NA","NA","4017","155579","155984","155469","155579","4005","Lab 2.1: Flanker Task","53","26120","62","yes","1024"
"85.71428571428571","85.71428571428571","419.3809523809524","419.3809523809524","black","legacy","legacy","legacy","0","Congruent","uniform","1","undefined","1","s","0","0","0","62","62","0","62","62","0","0","0","62","62","62","62","0","Sun Sep 25 15:37:14 2022","1500","The main experiment item","yes","Lab21FlankerTask.osexp","/Users/alexisparrish/Desktop","no","mono","no","18","no","white","no","yes","768","legacy","62","62","/Users/alexisparrish/Desktop/DU-subject-1.csv","legacy","Lentiform Loewenfeld","3.3.12","0","s","NA","NA","NA","h","s","301","NA","NA","NA","49596","301","2","legacy","1024","2","48000","-16","experiment","SSSSS","1","odd","53620","NA","NA","122999","NA","NA","157054","155996","NA","NA","4017","157158","157460","157049","157158","4005","Lab 2.1: Flanker Task","54","26421","63","yes","1024"
"85.9375","85.9375","419.09375","419.09375","black","legacy","legacy","legacy","0","Congruent","uniform","1","undefined","1","h","0","0","0","63","63","0","63","63","0","0","0","63","63","63","63","0","Sun Sep 25 15:37:14 2022","1500","The main experiment item","yes","Lab21FlankerTask.osexp","/Users/alexisparrish/Desktop","no","mono","no","18","no","white","no","yes","768","legacy","63","63","/Users/alexisparrish/Desktop/DU-subject-1.csv","legacy","Lentiform Loewenfeld","3.3.12","0","h","NA","NA","NA","h","h","401","NA","NA","NA","49596","401","2","legacy","1024","2","48000","-16","experiment","HHHHH","1","odd","53620","NA","NA","122999","NA","NA","158534","157471","NA","NA","4017","158638","159040","158528","158638","4005","Lab 2.1: Flanker Task","55","26822","64","yes","1024"
"86.15384615384616","86.15384615384616","419.4769230769231","419.4769230769231","black","legacy","legacy","legacy","0","Incongruent","uniform","1","undefined","1","h","0","0","0","64","64","0","64","64","0","0","0","64","64","64","64","0","Sun Sep 25 15:37:14 2022","1500","The main experiment item","yes","Lab21FlankerTask.osexp","/Users/alexisparrish/Desktop","no","mono","no","18","no","white","no","yes","768","legacy","64","64","/Users/alexisparrish/Desktop/DU-subject-1.csv","legacy","Lentiform Loewenfeld","3.3.12","0","h","NA","NA","NA","h","h","444","NA","NA","NA","49596","444","2","legacy","1024","2","48000","-16","experiment","SSHSS","1","odd","53620","NA","NA","122999","NA","NA","160110","159051","NA","NA","4017","160214","160659","160104","160214","4005","Lab 2.1: Flanker Task","56","27266","65","yes","1024"
"86.36363636363636","86.36363636363636","419.90909090909093","419.90909090909093","black","legacy","legacy","legacy","0","Incongruent","uniform","1","undefined","1","h","0","0","0","65","65","0","65","65","0","0","0","65","65","65","65","0","Sun Sep 25 15:37:14 2022","1500","The main experiment item","yes","Lab21FlankerTask.osexp","/Users/alexisparrish/Desktop","no","mono","no","18","no","white","no","yes","768","legacy","65","65","/Users/alexisparrish/Desktop/DU-subject-1.csv","legacy","Lentiform Loewenfeld","3.3.12","0","h","NA","NA","NA","h","h","448","NA","NA","NA","49596","448","2","legacy","1024","2","48000","-16","experiment","SSHSS","1","odd","53620","NA","NA","122999","NA","NA","161733","160669","NA","NA","4017","161837","162286","161727","161837","4005","Lab 2.1: Flanker Task","57","27714","66","yes","1024"
"86.56716417910448","86.56716417910448","419.23880597014926","419.23880597014926","black","legacy","legacy","legacy","0","Incongruent","uniform","1","undefined","1","h","0","0","0","66","66","0","66","66","0","0","0","66","66","66","66","0","Sun Sep 25 15:37:14 2022","1500","The main experiment item","yes","Lab21FlankerTask.osexp","/Users/alexisparrish/Desktop","no","mono","no","18","no","white","no","yes","768","legacy","66","66","/Users/alexisparrish/Desktop/DU-subject-1.csv","legacy","Lentiform Loewenfeld","3.3.12","0","h","NA","NA","NA","h","h","375","NA","NA","NA","49596","375","2","legacy","1024","2","48000","-16","experiment","SSHSS","1","odd","53620","NA","NA","122999","NA","NA","163357","162298","NA","NA","4017","163461","163837","163351","163461","4005","Lab 2.1: Flanker Task","58","28089","67","yes","1024"
"86.76470588235294","86.76470588235294","418.0735294117647","418.0735294117647","black","legacy","legacy","legacy","0","Congruent","uniform","1","undefined","1","h","0","0","0","67","67","0","67","67","0","0","0","67","67","67","67","0","Sun Sep 25 15:37:14 2022","1500","The main experiment item","yes","Lab21FlankerTask.osexp","/Users/alexisparrish/Desktop","no","mono","no","18","no","white","no","yes","768","legacy","67","67","/Users/alexisparrish/Desktop/DU-subject-1.csv","legacy","Lentiform Loewenfeld","3.3.12","0","h","NA","NA","NA","h","h","340","NA","NA","NA","49596","340","2","legacy","1024","2","48000","-16","experiment","HHHHH","1","odd","53620","NA","NA","122999","NA","NA","164911","163847","NA","NA","4017","165015","165356","164905","165015","4005","Lab 2.1: Flanker Task","59","28429","68","yes","1024"
"85.5072463768116","85.5072463768116","416.9855072463768","416.9855072463768","black","legacy","legacy","legacy","0","Congruent","uniform","0","undefined","0","s","0","0","0","68","68","0","68","68","0","0","0","68","68","68","68","0","Sun Sep 25 15:37:14 2022","1500","The main experiment item","yes","Lab21FlankerTask.osexp","/Users/alexisparrish/Desktop","no","mono","no","18","no","white","no","yes","768","legacy","68","68","/Users/alexisparrish/Desktop/DU-subject-1.csv","legacy","Lentiform Loewenfeld","3.3.12","0","h","NA","NA","NA","h","h","343","NA","NA","NA","49596","343","2","legacy","1024","2","48000","-16","experiment","SSSSS","1","odd","53620","NA","NA","122999","NA","NA","166431","165368","NA","NA","4017","166535","166879","166425","166535","4005","Lab 2.1: Flanker Task","59","28772","69","yes","1024"
"84.28571428571429","84.28571428571429","416.5571428571429","416.5571428571429","black","legacy","legacy","legacy","0","Incongruent","uniform","0","undefined","0","s","0","0","0","69","69","0","69","69","0","0","0","69","69","69","69","0","Sun Sep 25 15:37:14 2022","1500","The main experiment item","yes","Lab21FlankerTask.osexp","/Users/alexisparrish/Desktop","no","mono","no","18","no","white","no","yes","768","legacy","69","69","/Users/alexisparrish/Desktop/DU-subject-1.csv","legacy","Lentiform Loewenfeld","3.3.12","0","h","NA","NA","NA","h","h","387","NA","NA","NA","49596","387","2","legacy","1024","2","48000","-16","experiment","HHSHH","1","odd","53620","NA","NA","166891","NA","NA","168460","167397","NA","NA","4017","168564","168952","168455","168564","4005","Lab 2.1: Flanker Task","59","29159","70","yes","1024"
"84.50704225352112","84.50704225352112","415.23943661971833","415.23943661971833","black","legacy","legacy","legacy","0","Incongruent","uniform","1","undefined","1","h","0","0","0","70","70","0","70","70","0","0","0","70","70","70","70","0","Sun Sep 25 15:37:14 2022","1500","The main experiment item","yes","Lab21FlankerTask.osexp","/Users/alexisparrish/Desktop","no","mono","no","18","no","white","no","yes","768","legacy","70","70","/Users/alexisparrish/Desktop/DU-subject-1.csv","legacy","Lentiform Loewenfeld","3.3.12","0","h","NA","NA","NA","h","h","323","NA","NA","NA","49596","323","2","legacy","1024","2","48000","-16","experiment","SSHSS","1","odd","53620","NA","NA","168964","NA","NA","170531","169468","NA","NA","4017","170635","170959","170525","170635","4005","Lab 2.1: Flanker Task","60","29482","71","yes","1024"
"84.72222222222223","84.72222222222223","415.8611111111111","415.8611111111111","black","legacy","legacy","legacy","0","Incongruent","uniform","1","undefined","1","h","0","0","0","71","71","0","71","71","0","0","0","71","71","71","71","0","Sun Sep 25 15:37:14 2022","1500","The main experiment item","yes","Lab21FlankerTask.osexp","/Users/alexisparrish/Desktop","no","mono","no","18","no","white","no","yes","768","legacy","71","71","/Users/alexisparrish/Desktop/DU-subject-1.csv","legacy","Lentiform Loewenfeld","3.3.12","0","h","NA","NA","NA","h","h","460","NA","NA","NA","49596","460","2","legacy","1024","2","48000","-16","experiment","SSHSS","1","odd","53620","NA","NA","168964","NA","NA","172036","170972","NA","NA","4017","172140","172601","172031","172140","4005","Lab 2.1: Flanker Task","61","29942","72","yes","1024"
"84.93150684931507","84.93150684931507","415.73972602739724","415.73972602739724","black","legacy","legacy","legacy","0","Congruent","uniform","1","undefined","1","h","0","0","0","72","72","0","72","72","0","0","0","72","72","72","72","0","Sun Sep 25 15:37:14 2022","1500","The main experiment item","yes","Lab21FlankerTask.osexp","/Users/alexisparrish/Desktop","no","mono","no","18","no","white","no","yes","768","legacy","72","72","/Users/alexisparrish/Desktop/DU-subject-1.csv","legacy","Lentiform Loewenfeld","3.3.12","0","h","NA","NA","NA","h","h","407","NA","NA","NA","49596","407","2","legacy","1024","2","48000","-16","experiment","HHHHH","1","odd","53620","NA","NA","168964","NA","NA","173671","172612","NA","NA","4017","173775","174183","173666","173775","4005","Lab 2.1: Flanker Task","62","30349","73","yes","1024"
"85.13513513513513","85.13513513513513","415.3378378378378","415.3378378378378","black","legacy","legacy","legacy","0","Incongruent","uniform","1","undefined","1","s","0","0","0","73","73","0","73","73","0","0","0","73","73","73","73","0","Sun Sep 25 15:37:14 2022","1500","The main experiment item","yes","Lab21FlankerTask.osexp","/Users/alexisparrish/Desktop","no","mono","no","18","no","white","no","yes","768","legacy","73","73","/Users/alexisparrish/Desktop/DU-subject-1.csv","legacy","Lentiform Loewenfeld","3.3.12","0","s","NA","NA","NA","h","s","386","NA","NA","NA","49596","386","2","legacy","1024","2","48000","-16","experiment","HHSHH","1","odd","53620","NA","NA","168964","NA","NA","175258","174194","NA","NA","4017","175362","175749","175251","175362","4005","Lab 2.1: Flanker Task","63","30735","74","yes","1024"
"85.33333333333333","85.33333333333333","415.1066666666667","415.1066666666667","black","legacy","legacy","legacy","0","Congruent","uniform","1","undefined","1","h","0","0","0","74","74","0","74","74","0","0","0","74","74","74","74","0","Sun Sep 25 15:37:14 2022","1500","The main experiment item","yes","Lab21FlankerTask.osexp","/Users/alexisparrish/Desktop","no","mono","no","18","no","white","no","yes","768","legacy","74","74","/Users/alexisparrish/Desktop/DU-subject-1.csv","legacy","Lentiform Loewenfeld","3.3.12","0","h","NA","NA","NA","h","h","398","NA","NA","NA","49596","398","2","legacy","1024","2","48000","-16","experiment","HHHHH","1","odd","53620","NA","NA","168964","NA","NA","176825","175761","NA","NA","4017","176929","177328","176819","176929","4005","Lab 2.1: Flanker Task","64","31133","75","yes","1024"
"85.52631578947368","85.52631578947368","415.6842105263158","415.6842105263158","black","legacy","legacy","legacy","0","Incongruent","uniform","1","undefined","1","s","0","0","0","75","75","0","75","75","0","0","0","75","75","75","75","0","Sun Sep 25 15:37:14 2022","1500","The main experiment item","yes","Lab21FlankerTask.osexp","/Users/alexisparrish/Desktop","no","mono","no","18","no","white","no","yes","768","legacy","75","75","/Users/alexisparrish/Desktop/DU-subject-1.csv","legacy","Lentiform Loewenfeld","3.3.12","0","s","NA","NA","NA","h","s","459","NA","NA","NA","49596","459","2","legacy","1024","2","48000","-16","experiment","HHSHH","1","odd","53620","NA","NA","168964","NA","NA","178397","177334","NA","NA","4017","178502","178962","178391","178502","4005","Lab 2.1: Flanker Task","65","31592","76","yes","1024"
"85.71428571428571","85.71428571428571","415.5584415584416","415.5584415584416","black","legacy","legacy","legacy","0","Congruent","uniform","1","undefined","1","s","0","0","0","76","76","0","76","76","0","0","0","76","76","76","76","0","Sun Sep 25 15:37:14 2022","1500","The main experiment item","yes","Lab21FlankerTask.osexp","/Users/alexisparrish/Desktop","no","mono","no","18","no","white","no","yes","768","legacy","76","76","/Users/alexisparrish/Desktop/DU-subject-1.csv","legacy","Lentiform Loewenfeld","3.3.12","0","s","NA","NA","NA","h","s","406","NA","NA","NA","49596","406","2","legacy","1024","2","48000","-16","experiment","SSSSS","1","odd","53620","NA","NA","168964","NA","NA","180038","178974","NA","NA","4017","180142","180549","180033","180142","4005","Lab 2.1: Flanker Task","66","31998","77","yes","1024"
"85.8974358974359","85.8974358974359","416.5769230769231","416.5769230769231","black","legacy","legacy","legacy","0","Congruent","uniform","1","undefined","1","s","0","0","0","77","77","0","77","77","0","0","0","77","77","77","77","0","Sun Sep 25 15:37:14 2022","1500","The main experiment item","yes","Lab21FlankerTask.osexp","/Users/alexisparrish/Desktop","no","mono","no","18","no","white","no","yes","768","legacy","77","77","/Users/alexisparrish/Desktop/DU-subject-1.csv","legacy","Lentiform Loewenfeld","3.3.12","0","s","NA","NA","NA","h","s","495","NA","NA","NA","49596","495","2","legacy","1024","2","48000","-16","experiment","SSSSS","1","odd","53620","NA","NA","168964","NA","NA","181617","180556","NA","NA","4017","181721","182217","181612","181721","4005","Lab 2.1: Flanker Task","67","32493","78","yes","1024"
"86.07594936708861","86.07594936708861","416.2911392405063","416.2911392405063","black","legacy","legacy","legacy","0","Congruent","uniform","1","undefined","1","h","0","0","0","78","78","0","78","78","0","0","0","78","78","78","78","0","Sun Sep 25 15:37:14 2022","1500","The main experiment item","yes","Lab21FlankerTask.osexp","/Users/alexisparrish/Desktop","no","mono","no","18","no","white","no","yes","768","legacy","78","78","/Users/alexisparrish/Desktop/DU-subject-1.csv","legacy","Lentiform Loewenfeld","3.3.12","0","h","NA","NA","NA","h","h","394","NA","NA","NA","49596","394","2","legacy","1024","2","48000","-16","experiment","HHHHH","1","odd","53620","NA","NA","168964","NA","NA","183293","182229","NA","NA","4017","183397","183792","183288","183397","4005","Lab 2.1: Flanker Task","68","32887","79","yes","1024"
"86.25","86.25","416.35","416.35","black","legacy","legacy","legacy","0","Incongruent","uniform","1","undefined","1","s","0","0","0","79","79","0","79","79","0","0","0","79","79","79","79","0","Sun Sep 25 15:37:14 2022","1500","The main experiment item","yes","Lab21FlankerTask.osexp","/Users/alexisparrish/Desktop","no","mono","no","18","no","white","no","yes","768","legacy","79","79","/Users/alexisparrish/Desktop/DU-subject-1.csv","legacy","Lentiform Loewenfeld","3.3.12","0","s","NA","NA","NA","h","s","421","NA","NA","NA","49596","421","2","legacy","1024","2","48000","-16","experiment","HHSHH","1","odd","53620","NA","NA","168964","NA","NA","184867","183803","NA","NA","4017","184971","185393","184861","184971","4005","Lab 2.1: Flanker Task","69","33308","80","yes","1024"
"86.41975308641975","86.41975308641975","418.04938271604937","418.04938271604937","black","legacy","legacy","legacy","0","Incongruent","uniform","1","undefined","1","h","0","0","0","80","80","0","80","80","0","0","0","80","80","80","80","0","Sun Sep 25 15:37:14 2022","600","The main experiment item","yes","Lab21FlankerTask.osexp","/Users/alexisparrish/Desktop","no","mono","no","18","no","white","no","yes","768","legacy","0","79","/Users/alexisparrish/Desktop/DU-subject-1.csv","legacy","Lentiform Loewenfeld","3.3.12","0","h","NA","NA","h","h","h","554","NA","NA","20049","49596","554","2","legacy","1024","2","48000","-16","experiment","SSHSS","1","odd","53620","206488","NA","168964","NA","NA","206529","185405","NA","186438","4017","206633","207188","206524","206633","4005","Lab 2.1: Flanker Task","70","33862","81","yes","1024"
"86.58536585365853","86.58536585365853","417.3780487804878","417.3780487804878","black","legacy","legacy","legacy","0","Congruent","uniform","1","undefined","1","h","0","0","0","81","81","0","81","81","0","0","0","81","81","81","81","0","Sun Sep 25 15:37:14 2022","600","The main experiment item","yes","Lab21FlankerTask.osexp","/Users/alexisparrish/Desktop","no","mono","no","18","no","white","no","yes","768","legacy","1","79","/Users/alexisparrish/Desktop/DU-subject-1.csv","legacy","Lentiform Loewenfeld","3.3.12","0","h","NA","NA","h","h","h","363","NA","NA","20049","49596","363","2","legacy","1024","2","48000","-16","experiment","HHHHH","1","odd","53620","206488","NA","168964","NA","NA","208261","207198","NA","186438","4017","208365","208729","208255","208365","4005","Lab 2.1: Flanker Task","71","34225","82","yes","1024"
"86.74698795180723","86.74698795180723","415.89156626506025","415.89156626506025","black","legacy","legacy","legacy","0","Congruent","uniform","1","undefined","1","s","0","0","0","82","82","0","82","82","0","0","0","82","82","82","82","0","Sun Sep 25 15:37:14 2022","600","The main experiment item","yes","Lab21FlankerTask.osexp","/Users/alexisparrish/Desktop","no","mono","no","18","no","white","no","yes","768","legacy","2","79","/Users/alexisparrish/Desktop/DU-subject-1.csv","legacy","Lentiform Loewenfeld","3.3.12","0","s","NA","NA","h","h","s","294","NA","NA","20049","49596","294","2","legacy","1024","2","48000","-16","experiment","SSSSS","1","odd","53620","206488","NA","168964","NA","NA","209794","208734","NA","186438","4017","209899","210194","209788","209899","4005","Lab 2.1: Flanker Task","72","34519","83","yes","1024"
"86.9047619047619","86.9047619047619","415.39285714285717","415.39285714285717","black","legacy","legacy","legacy","0","Congruent","uniform","1","undefined","1","h","0","0","0","83","83","0","83","83","0","0","0","83","83","83","83","0","Sun Sep 25 15:37:14 2022","600","The main experiment item","yes","Lab21FlankerTask.osexp","/Users/alexisparrish/Desktop","no","mono","no","18","no","white","no","yes","768","legacy","3","79","/Users/alexisparrish/Desktop/DU-subject-1.csv","legacy","Lentiform Loewenfeld","3.3.12","0","h","NA","NA","h","h","h","374","NA","NA","20049","49596","374","2","legacy","1024","2","48000","-16","experiment","HHHHH","1","odd","53620","206488","NA","168964","NA","NA","211263","210205","NA","186438","4017","211367","211742","211258","211367","4005","Lab 2.1: Flanker Task","73","34893","84","yes","1024"
"87.05882352941177","87.05882352941177","415.5529411764706","415.5529411764706","black","legacy","legacy","legacy","0","Incongruent","uniform","1","undefined","1","s","0","0","0","84","84","0","84","84","0","0","0","84","84","84","84","0","Sun Sep 25 15:37:14 2022","600","The main experiment item","yes","Lab21FlankerTask.osexp","/Users/alexisparrish/Desktop","no","mono","no","18","no","white","no","yes","768","legacy","4","79","/Users/alexisparrish/Desktop/DU-subject-1.csv","legacy","Lentiform Loewenfeld","3.3.12","0","s","NA","NA","h","h","s","429","NA","NA","20049","49596","429","2","legacy","1024","2","48000","-16","experiment","HHSHH","1","odd","53620","206488","NA","168964","NA","NA","212812","211751","NA","186438","4017","212916","213346","212806","212916","4005","Lab 2.1: Flanker Task","74","35322","85","yes","1024"
"87.20930232558139","87.20930232558139","414.3953488372093","414.3953488372093","black","legacy","legacy","legacy","0","Congruent","uniform","1","undefined","1","h","0","0","0","85","85","0","85","85","0","0","0","85","85","85","85","0","Sun Sep 25 15:37:14 2022","600","The main experiment item","yes","Lab21FlankerTask.osexp","/Users/alexisparrish/Desktop","no","mono","no","18","no","white","no","yes","768","legacy","5","79","/Users/alexisparrish/Desktop/DU-subject-1.csv","legacy","Lentiform Loewenfeld","3.3.12","0","h","NA","NA","h","h","h","316","NA","NA","20049","49596","316","2","legacy","1024","2","48000","-16","experiment","HHHHH","1","odd","53620","206488","NA","168964","NA","NA","214420","213357","NA","186438","4017","214524","214841","214416","214524","4005","Lab 2.1: Flanker Task","75","35638","86","yes","1024"
"87.35632183908046","87.35632183908046","413.8735632183908","413.8735632183908","black","legacy","legacy","legacy","0","Congruent","uniform","1","undefined","1","s","0","0","0","86","86","0","86","86","0","0","0","86","86","86","86","0","Sun Sep 25 15:37:14 2022","600","The main experiment item","yes","Lab21FlankerTask.osexp","/Users/alexisparrish/Desktop","no","mono","no","18","no","white","no","yes","768","legacy","6","79","/Users/alexisparrish/Desktop/DU-subject-1.csv","legacy","Lentiform Loewenfeld","3.3.12","0","s","NA","NA","h","h","s","369","NA","NA","20049","49596","369","2","legacy","1024","2","48000","-16","experiment","SSSSS","1","odd","53620","206488","NA","168964","NA","NA","215914","214851","NA","186438","4017","216018","216388","215908","216018","4005","Lab 2.1: Flanker Task","76","36007","87","yes","1024"
"87.5","87.5","412.5113636363636","412.5113636363636","black","legacy","legacy","legacy","0","Incongruent","uniform","1","undefined","1","h","0","0","0","87","87","0","87","87","0","0","0","87","87","87","87","0","Sun Sep 25 15:37:14 2022","600","The main experiment item","yes","Lab21FlankerTask.osexp","/Users/alexisparrish/Desktop","no","mono","no","18","no","white","no","yes","768","legacy","7","79","/Users/alexisparrish/Desktop/DU-subject-1.csv","legacy","Lentiform Loewenfeld","3.3.12","0","h","NA","NA","h","h","h","294","NA","NA","20049","49596","294","2","legacy","1024","2","48000","-16","experiment","SSHSS","1","odd","53620","206488","NA","168964","NA","NA","217462","216399","NA","186438","4017","217566","217862","217456","217566","4005","Lab 2.1: Flanker Task","77","36301","88","yes","1024"
"87.64044943820225","87.64044943820225","411.24719101123594","411.24719101123594","black","legacy","legacy","legacy","0","Congruent","uniform","1","undefined","1","s","0","0","0","88","88","0","88","88","0","0","0","88","88","88","88","0","Sun Sep 25 15:37:14 2022","600","The main experiment item","yes","Lab21FlankerTask.osexp","/Users/alexisparrish/Desktop","no","mono","no","18","no","white","no","yes","768","legacy","8","79","/Users/alexisparrish/Desktop/DU-subject-1.csv","legacy","Lentiform Loewenfeld","3.3.12","0","s","NA","NA","h","h","s","300","NA","NA","20049","49596","300","2","legacy","1024","2","48000","-16","experiment","SSSSS","1","odd","53620","206488","NA","168964","NA","NA","218934","217872","NA","186438","4017","219038","219339","218929","219038","4005","Lab 2.1: Flanker Task","78","36601","89","yes","1024"
"87.77777777777777","87.77777777777777","409.64444444444445","409.64444444444445","black","legacy","legacy","legacy","0","Congruent","uniform","1","undefined","1","s","0","0","0","89","89","0","89","89","0","0","0","89","89","89","89","0","Sun Sep 25 15:37:14 2022","600","The main experiment item","yes","Lab21FlankerTask.osexp","/Users/alexisparrish/Desktop","no","mono","no","18","no","white","no","yes","768","legacy","9","79","/Users/alexisparrish/Desktop/DU-subject-1.csv","legacy","Lentiform Loewenfeld","3.3.12","0","s","NA","NA","h","h","s","267","NA","NA","20049","49596","267","2","legacy","1024","2","48000","-16","experiment","SSSSS","1","odd","53620","206488","NA","168964","NA","NA","220410","219349","NA","186438","4017","220514","220782","220406","220514","4005","Lab 2.1: Flanker Task","79","36868","90","yes","1024"
"87.91208791208791","87.91208791208791","408.45054945054943","408.45054945054943","black","legacy","legacy","legacy","0","Congruent","uniform","1","undefined","1","s","0","0","0","90","90","0","90","90","0","0","0","90","90","90","90","0","Sun Sep 25 15:37:14 2022","600","The main experiment item","yes","Lab21FlankerTask.osexp","/Users/alexisparrish/Desktop","no","mono","no","18","no","white","no","yes","768","legacy","10","79","/Users/alexisparrish/Desktop/DU-subject-1.csv","legacy","Lentiform Loewenfeld","3.3.12","0","s","NA","NA","h","h","s","301","NA","NA","20049","49596","301","2","legacy","1024","2","48000","-16","experiment","SSSSS","1","odd","53620","206488","NA","168964","NA","NA","221851","220793","NA","186438","4017","221955","222258","221846","221955","4005","Lab 2.1: Flanker Task","80","37169","91","yes","1024"
"88.04347826086956","88.04347826086956","408.39130434782606","408.39130434782606","black","legacy","legacy","legacy","0","Congruent","uniform","1","undefined","1","h","0","0","0","91","91","0","91","91","0","0","0","91","91","91","91","0","Sun Sep 25 15:37:14 2022","600","The main experiment item","yes","Lab21FlankerTask.osexp","/Users/alexisparrish/Desktop","no","mono","no","18","no","white","no","yes","768","legacy","11","79","/Users/alexisparrish/Desktop/DU-subject-1.csv","legacy","Lentiform Loewenfeld","3.3.12","0","h","NA","NA","h","h","h","403","NA","NA","20049","49596","403","2","legacy","1024","2","48000","-16","experiment","HHHHH","1","odd","53620","206488","NA","168964","NA","NA","223329","222270","NA","186438","4017","223434","223838","223325","223434","4005","Lab 2.1: Flanker Task","81","37572","92","yes","1024"
"88.17204301075269","88.17204301075269","407.5698924731183","407.5698924731183","black","legacy","legacy","legacy","0","Congruent","uniform","1","undefined","1","h","0","0","0","92","92","0","92","92","0","0","0","92","92","92","92","0","Sun Sep 25 15:37:14 2022","600","The main experiment item","yes","Lab21FlankerTask.osexp","/Users/alexisparrish/Desktop","no","mono","no","18","no","white","no","yes","768","legacy","12","79","/Users/alexisparrish/Desktop/DU-subject-1.csv","legacy","Lentiform Loewenfeld","3.3.12","0","h","NA","NA","h","h","h","332","NA","NA","20049","49596","332","2","legacy","1024","2","48000","-16","experiment","HHHHH","1","odd","53620","206488","NA","168964","NA","NA","224910","223849","NA","186438","4017","225014","225347","224904","225014","4005","Lab 2.1: Flanker Task","82","37904","93","yes","1024"
"88.29787234042553","88.29787234042553","408.0744680851064","408.0744680851064","black","legacy","legacy","legacy","0","Incongruent","uniform","1","undefined","1","h","0","0","0","93","93","0","93","93","0","0","0","93","93","93","93","0","Sun Sep 25 15:37:14 2022","600","The main experiment item","yes","Lab21FlankerTask.osexp","/Users/alexisparrish/Desktop","no","mono","no","18","no","white","no","yes","768","legacy","13","79","/Users/alexisparrish/Desktop/DU-subject-1.csv","legacy","Lentiform Loewenfeld","3.3.12","0","h","NA","NA","h","h","h","455","NA","NA","20049","49596","455","2","legacy","1024","2","48000","-16","experiment","SSHSS","1","odd","53620","206488","NA","168964","NA","NA","226417","225358","NA","186438","4017","226522","226978","226412","226521","4005","Lab 2.1: Flanker Task","83","38359","94","yes","1024"
"88.42105263157895","88.42105263157895","407.93684210526317","407.93684210526317","black","legacy","legacy","legacy","0","Congruent","uniform","1","undefined","1","h","0","0","0","94","94","0","94","94","0","0","0","94","94","94","94","0","Sun Sep 25 15:37:14 2022","600","The main experiment item","yes","Lab21FlankerTask.osexp","/Users/alexisparrish/Desktop","no","mono","no","18","no","white","no","yes","768","legacy","14","79","/Users/alexisparrish/Desktop/DU-subject-1.csv","legacy","Lentiform Loewenfeld","3.3.12","0","h","NA","NA","h","h","h","395","NA","NA","20049","49596","395","2","legacy","1024","2","48000","-16","experiment","HHHHH","1","odd","53620","206488","NA","168964","NA","NA","228054","226991","NA","186438","4017","228159","228555","228048","228159","4005","Lab 2.1: Flanker Task","84","38754","95","yes","1024"
"88.54166666666667","88.54166666666667","408.4791666666667","408.4791666666667","black","legacy","legacy","legacy","0","Incongruent","uniform","1","undefined","1","h","0","0","0","95","95","0","95","95","0","0","0","95","95","95","95","0","Sun Sep 25 15:37:14 2022","600","The main experiment item","yes","Lab21FlankerTask.osexp","/Users/alexisparrish/Desktop","no","mono","no","18","no","white","no","yes","768","legacy","15","79","/Users/alexisparrish/Desktop/DU-subject-1.csv","legacy","Lentiform Loewenfeld","3.3.12","0","h","NA","NA","h","h","h","460","NA","NA","20049","49596","460","2","legacy","1024","2","48000","-16","experiment","SSHSS","1","odd","53620","206488","NA","168964","NA","NA","229628","228566","NA","186438","4017","229732","230193","229623","229732","4005","Lab 2.1: Flanker Task","85","39214","96","yes","1024"
"88.65979381443299","88.65979381443299","407.70103092783506","407.70103092783506","black","legacy","legacy","legacy","0","Incongruent","uniform","1","undefined","1","h","0","0","0","96","96","0","96","96","0","0","0","96","96","96","96","0","Sun Sep 25 15:37:14 2022","600","The main experiment item","yes","Lab21FlankerTask.osexp","/Users/alexisparrish/Desktop","no","mono","no","18","no","white","no","yes","768","legacy","16","79","/Users/alexisparrish/Desktop/DU-subject-1.csv","legacy","Lentiform Loewenfeld","3.3.12","0","h","NA","NA","h","h","h","333","NA","NA","20049","49596","333","2","legacy","1024","2","48000","-16","experiment","SSHSS","1","odd","53620","206488","NA","168964","NA","NA","231263","230205","NA","186438","4017","231367","231701","231257","231367","4005","Lab 2.1: Flanker Task","86","39547","97","yes","1024"
"88.77551020408163","88.77551020408163","406.5204081632653","406.5204081632653","black","legacy","legacy","legacy","0","Congruent","uniform","1","undefined","1","h","0","0","0","97","97","0","97","97","0","0","0","97","97","97","97","0","Sun Sep 25 15:37:14 2022","600","The main experiment item","yes","Lab21FlankerTask.osexp","/Users/alexisparrish/Desktop","no","mono","no","18","no","white","no","yes","768","legacy","17","79","/Users/alexisparrish/Desktop/DU-subject-1.csv","legacy","Lentiform Loewenfeld","3.3.12","0","h","NA","NA","h","h","h","292","NA","NA","20049","49596","292","2","legacy","1024","2","48000","-16","experiment","HHHHH","1","odd","53620","206488","NA","168964","NA","NA","232769","231712","NA","186438","4017","232873","233166","232763","232873","4005","Lab 2.1: Flanker Task","87","39839","98","yes","1024"
"88.88888888888889","88.88888888888889","406.06060606060606","406.06060606060606","black","legacy","legacy","legacy","0","Congruent","uniform","1","undefined","1","h","0","0","0","98","98","0","98","98","0","0","0","98","98","98","98","0","Sun Sep 25 15:37:14 2022","600","The main experiment item","yes","Lab21FlankerTask.osexp","/Users/alexisparrish/Desktop","no","mono","no","18","no","white","no","yes","768","legacy","18","79","/Users/alexisparrish/Desktop/DU-subject-1.csv","legacy","Lentiform Loewenfeld","3.3.12","0","h","NA","NA","h","h","h","361","NA","NA","20049","49596","361","2","legacy","1024","2","48000","-16","experiment","HHHHH","1","odd","53620","206488","NA","168964","NA","NA","234231","233175","NA","186438","4017","234335","234697","234226","234335","4005","Lab 2.1: Flanker Task","88","40200","99","yes","1024"
"89","89","405.9","405.9","black","legacy","legacy","legacy","0","Congruent","uniform","1","undefined","1","s","0","0","0","99","99","0","99","99","0","0","0","99","99","99","99","0","Sun Sep 25 15:37:14 2022","600","The main experiment item","yes","Lab21FlankerTask.osexp","/Users/alexisparrish/Desktop","no","mono","no","18","no","white","no","yes","768","legacy","19","79","/Users/alexisparrish/Desktop/DU-subject-1.csv","legacy","Lentiform Loewenfeld","3.3.12","0","s","NA","NA","h","h","s","390","NA","NA","20049","49596","390","2","legacy","1024","2","48000","-16","experiment","SSSSS","1","odd","53620","206488","NA","168964","NA","NA","235771","234709","NA","186438","4017","235875","236266","235765","235875","4005","Lab 2.1: Flanker Task","89","40590","100","yes","1024"
"89.10891089108911","89.10891089108911","404.6930693069307","404.6930693069307","black","legacy","legacy","legacy","0","Incongruent","uniform","1","undefined","1","h","0","0","0","100","100","0","100","100","0","0","0","100","100","100","100","0","Sun Sep 25 15:37:14 2022","600","The main experiment item","yes","Lab21FlankerTask.osexp","/Users/alexisparrish/Desktop","no","mono","no","18","no","white","no","yes","768","legacy","20","79","/Users/alexisparrish/Desktop/DU-subject-1.csv","legacy","Lentiform Loewenfeld","3.3.12","0","h","NA","NA","h","h","h","284","NA","NA","20049","49596","284","2","legacy","1024","2","48000","-16","experiment","SSHSS","1","odd","53620","206488","NA","168964","NA","NA","237337","236278","NA","186438","4017","237441","237726","237332","237441","4005","Lab 2.1: Flanker Task","90","40874","101","yes","1024"
"89.2156862745098","89.2156862745098","403.72549019607845","403.72549019607845","black","legacy","legacy","legacy","0","Congruent","uniform","1","undefined","1","s","0","0","0","101","101","0","101","101","0","0","0","101","101","101","101","0","Sun Sep 25 15:37:14 2022","600","The main experiment item","yes","Lab21FlankerTask.osexp","/Users/alexisparrish/Desktop","no","mono","no","18","no","white","no","yes","768","legacy","21","79","/Users/alexisparrish/Desktop/DU-subject-1.csv","legacy","Lentiform Loewenfeld","3.3.12","0","s","NA","NA","h","h","s","306","NA","NA","20049","49596","306","2","legacy","1024","2","48000","-16","experiment","SSSSS","1","odd","53620","206488","NA","168964","NA","NA","238799","237737","NA","186438","4017","238903","239210","238793","238903","4005","Lab 2.1: Flanker Task","91","41180","102","yes","1024"
"89.32038834951456","89.32038834951456","402.92233009708735","402.92233009708735","black","legacy","legacy","legacy","0","Incongruent","uniform","1","undefined","1","s","0","0","0","102","102","0","102","102","0","0","0","102","102","102","102","0","Sun Sep 25 15:37:14 2022","600","The main experiment item","yes","Lab21FlankerTask.osexp","/Users/alexisparrish/Desktop","no","mono","no","18","no","white","no","yes","768","legacy","22","79","/Users/alexisparrish/Desktop/DU-subject-1.csv","legacy","Lentiform Loewenfeld","3.3.12","0","s","NA","NA","h","h","s","321","NA","NA","20049","49596","321","2","legacy","1024","2","48000","-16","experiment","HHSHH","1","odd","53620","206488","NA","168964","NA","NA","240279","239221","NA","186438","4017","240383","240705","240274","240383","4005","Lab 2.1: Flanker Task","92","41501","103","yes","1024"
"89.42307692307692","89.42307692307692","401.86538461538464","401.86538461538464","black","legacy","legacy","legacy","0","Incongruent","uniform","1","undefined","1","s","0","0","0","103","103","0","103","103","0","0","0","103","103","103","103","0","Sun Sep 25 15:37:14 2022","600","The main experiment item","yes","Lab21FlankerTask.osexp","/Users/alexisparrish/Desktop","no","mono","no","18","no","white","no","yes","768","legacy","23","79","/Users/alexisparrish/Desktop/DU-subject-1.csv","legacy","Lentiform Loewenfeld","3.3.12","0","s","NA","NA","h","h","s","293","NA","NA","20049","49596","293","2","legacy","1024","2","48000","-16","experiment","HHSHH","1","odd","53620","206488","NA","168964","NA","NA","241780","240718","NA","186438","4017","241884","242178","241775","241884","4005","Lab 2.1: Flanker Task","93","41794","104","yes","1024"
"89.52380952380952","89.52380952380952","401.12380952380954","401.12380952380954","black","legacy","legacy","legacy","0","Incongruent","uniform","1","undefined","1","s","0","0","0","104","104","0","104","104","0","0","0","104","104","104","104","0","Sun Sep 25 15:37:14 2022","600","The main experiment item","yes","Lab21FlankerTask.osexp","/Users/alexisparrish/Desktop","no","mono","no","18","no","white","no","yes","768","legacy","24","79","/Users/alexisparrish/Desktop/DU-subject-1.csv","legacy","Lentiform Loewenfeld","3.3.12","0","s","NA","NA","h","h","s","324","NA","NA","20049","49596","324","2","legacy","1024","2","48000","-16","experiment","HHSHH","1","odd","53620","206488","NA","168964","NA","NA","243247","242188","NA","186438","4017","243351","243676","243241","243351","4005","Lab 2.1: Flanker Task","94","42118","105","yes","1024"
"88.67924528301887","88.67924528301887","399.97169811320754","399.97169811320754","black","legacy","legacy","legacy","0","Incongruent","uniform","0","undefined","0","h","0","0","0","105","105","0","105","105","0","0","0","105","105","105","105","0","Sun Sep 25 15:37:14 2022","600","The main experiment item","yes","Lab21FlankerTask.osexp","/Users/alexisparrish/Desktop","no","mono","no","18","no","white","no","yes","768","legacy","25","79","/Users/alexisparrish/Desktop/DU-subject-1.csv","legacy","Lentiform Loewenfeld","3.3.12","0","s","NA","NA","h","h","s","279","NA","NA","20049","49596","279","2","legacy","1024","2","48000","-16","experiment","SSHSS","1","odd","53620","206488","NA","168964","NA","NA","244747","243688","NA","186438","4017","244851","245131","244742","244851","4005","Lab 2.1: Flanker Task","94","42397","106","yes","1024"
"88.78504672897196","88.78504672897196","399.5700934579439","399.5700934579439","black","legacy","legacy","legacy","0","Incongruent","uniform","1","undefined","1","h","0","0","0","106","106","0","106","106","0","0","0","106","106","106","106","0","Sun Sep 25 15:37:14 2022","600","The main experiment item","yes","Lab21FlankerTask.osexp","/Users/alexisparrish/Desktop","no","mono","no","18","no","white","no","yes","768","legacy","26","79","/Users/alexisparrish/Desktop/DU-subject-1.csv","legacy","Lentiform Loewenfeld","3.3.12","0","h","NA","NA","h","h","h","357","NA","NA","20049","49596","357","2","legacy","1024","2","48000","-16","experiment","SSHSS","1","odd","53620","206488","NA","245143","NA","NA","246707","245647","NA","186438","4017","246811","247170","246701","246811","4005","Lab 2.1: Flanker Task","95","42754","107","yes","1024"
"88.88888888888889","88.88888888888889","398.99074074074076","398.99074074074076","black","legacy","legacy","legacy","0","Congruent","uniform","1","undefined","1","s","0","0","0","107","107","0","107","107","0","0","0","107","107","107","107","0","Sun Sep 25 15:37:14 2022","600","The main experiment item","yes","Lab21FlankerTask.osexp","/Users/alexisparrish/Desktop","no","mono","no","18","no","white","no","yes","768","legacy","27","79","/Users/alexisparrish/Desktop/DU-subject-1.csv","legacy","Lentiform Loewenfeld","3.3.12","0","s","NA","NA","h","h","s","337","NA","NA","20049","49596","337","2","legacy","1024","2","48000","-16","experiment","SSSSS","1","odd","53620","206488","NA","245143","NA","NA","248241","247180","NA","186438","4017","248345","248683","248235","248345","4005","Lab 2.1: Flanker Task","96","43091","108","yes","1024"
"88.9908256880734","88.9908256880734","398.72477064220186","398.72477064220186","black","legacy","legacy","legacy","0","Congruent","uniform","1","undefined","1","s","0","0","0","108","108","0","108","108","0","0","0","108","108","108","108","0","Sun Sep 25 15:37:14 2022","600","The main experiment item","yes","Lab21FlankerTask.osexp","/Users/alexisparrish/Desktop","no","mono","no","18","no","white","no","yes","768","legacy","28","79","/Users/alexisparrish/Desktop/DU-subject-1.csv","legacy","Lentiform Loewenfeld","3.3.12","0","s","NA","NA","h","h","s","370","NA","NA","20049","49596","370","2","legacy","1024","2","48000","-16","experiment","SSSSS","1","odd","53620","206488","NA","245143","NA","NA","249756","248693","NA","186438","4017","249861","250232","249750","249860","4005","Lab 2.1: Flanker Task","97","43461","109","yes","1024"
"89.0909090909091","89.0909090909091","397.58181818181816","397.58181818181816","black","legacy","legacy","legacy","0","Incongruent","uniform","1","undefined","1","s","0","0","0","109","109","0","109","109","0","0","0","109","109","109","109","0","Sun Sep 25 15:37:14 2022","600","The main experiment item","yes","Lab21FlankerTask.osexp","/Users/alexisparrish/Desktop","no","mono","no","18","no","white","no","yes","768","legacy","29","79","/Users/alexisparrish/Desktop/DU-subject-1.csv","legacy","Lentiform Loewenfeld","3.3.12","0","s","NA","NA","h","h","s","273","NA","NA","20049","49596","273","2","legacy","1024","2","48000","-16","experiment","HHSHH","1","odd","53620","206488","NA","245143","NA","NA","251303","250244","NA","186438","4017","251408","251682","251298","251408","4005","Lab 2.1: Flanker Task","98","43734","110","yes","1024"
"88.28828828828829","88.28828828828829","397.39639639639637","397.39639639639637","black","legacy","legacy","legacy","0","Incongruent","uniform","0","undefined","0","h","0","0","0","110","110","0","110","110","0","0","0","110","110","110","110","0","Sun Sep 25 15:37:14 2022","600","The main experiment item","yes","Lab21FlankerTask.osexp","/Users/alexisparrish/Desktop","no","mono","no","18","no","white","no","yes","768","legacy","30","79","/Users/alexisparrish/Desktop/DU-subject-1.csv","legacy","Lentiform Loewenfeld","3.3.12","0","s","NA","NA","h","h","s","377","NA","NA","20049","49596","377","2","legacy","1024","2","48000","-16","experiment","SSHSS","1","odd","53620","206488","NA","245143","NA","NA","252750","251693","NA","186438","4017","252854","253232","252745","252854","4005","Lab 2.1: Flanker Task","98","44111","111","yes","1024"
"88.39285714285714","88.39285714285714","396.95535714285717","396.95535714285717","black","legacy","legacy","legacy","0","Incongruent","uniform","1","undefined","1","s","0","0","0","111","111","0","111","111","0","0","0","111","111","111","111","0","Sun Sep 25 15:37:14 2022","600","The main experiment item","yes","Lab21FlankerTask.osexp","/Users/alexisparrish/Desktop","no","mono","no","18","no","white","no","yes","768","legacy","31","79","/Users/alexisparrish/Desktop/DU-subject-1.csv","legacy","Lentiform Loewenfeld","3.3.12","0","s","NA","NA","h","h","s","348","NA","NA","20049","49596","348","2","legacy","1024","2","48000","-16","experiment","HHSHH","1","odd","53620","206488","NA","253243","NA","NA","254811","253749","NA","186438","4017","254915","255265","254807","254915","4005","Lab 2.1: Flanker Task","99","44459","112","yes","1024"
"87.61061946902655","87.61061946902655","395.8053097345133","395.8053097345133","black","legacy","legacy","legacy","0","Congruent","uniform","0","undefined","0","h","0","0","0","112","112","0","112","112","0","0","0","112","112","112","112","0","Sun Sep 25 15:37:14 2022","600","The main experiment item","yes","Lab21FlankerTask.osexp","/Users/alexisparrish/Desktop","no","mono","no","18","no","white","no","yes","768","legacy","32","79","/Users/alexisparrish/Desktop/DU-subject-1.csv","legacy","Lentiform Loewenfeld","3.3.12","0","s","NA","NA","h","h","s","267","NA","NA","20049","49596","267","2","legacy","1024","2","48000","-16","experiment","HHHHH","1","odd","53620","206488","NA","253243","NA","NA","256337","255276","NA","186438","4017","256441","256710","256333","256441","4005","Lab 2.1: Flanker Task","99","44726","113","yes","1024"
"87.71929824561404","87.71929824561404","395.3421052631579","395.3421052631579","black","legacy","legacy","legacy","0","Congruent","uniform","1","undefined","1","h","0","0","0","113","113","0","113","113","0","0","0","113","113","113","113","0","Sun Sep 25 15:37:14 2022","600","The main experiment item","yes","Lab21FlankerTask.osexp","/Users/alexisparrish/Desktop","no","mono","no","18","no","white","no","yes","768","legacy","33","79","/Users/alexisparrish/Desktop/DU-subject-1.csv","legacy","Lentiform Loewenfeld","3.3.12","0","h","NA","NA","h","h","h","343","NA","NA","20049","49596","343","2","legacy","1024","2","48000","-16","experiment","HHHHH","1","odd","53620","206488","NA","256722","NA","NA","258288","257226","NA","186438","4017","258392","258737","258283","258392","4005","Lab 2.1: Flanker Task","100","45069","114","yes","1024"
"87.82608695652173","87.82608695652173","394.9826086956522","394.9826086956522","black","legacy","legacy","legacy","0","Congruent","uniform","1","undefined","1","s","0","0","0","114","114","0","114","114","0","0","0","114","114","114","114","0","Sun Sep 25 15:37:14 2022","600","The main experiment item","yes","Lab21FlankerTask.osexp","/Users/alexisparrish/Desktop","no","mono","no","18","no","white","no","yes","768","legacy","34","79","/Users/alexisparrish/Desktop/DU-subject-1.csv","legacy","Lentiform Loewenfeld","3.3.12","0","s","NA","NA","h","h","s","354","NA","NA","20049","49596","354","2","legacy","1024","2","48000","-16","experiment","SSSSS","1","odd","53620","206488","NA","256722","NA","NA","259807","258747","NA","186438","4017","259911","260266","259801","259911","4005","Lab 2.1: Flanker Task","101","45423","115","yes","1024"
"87.93103448275862","87.93103448275862","395.33620689655174","395.33620689655174","black","legacy","legacy","legacy","0","Congruent","uniform","1","undefined","1","h","0","0","0","115","115","0","115","115","0","0","0","115","115","115","115","0","Sun Sep 25 15:37:14 2022","600","The main experiment item","yes","Lab21FlankerTask.osexp","/Users/alexisparrish/Desktop","no","mono","no","18","no","white","no","yes","768","legacy","35","79","/Users/alexisparrish/Desktop/DU-subject-1.csv","legacy","Lentiform Loewenfeld","3.3.12","0","h","NA","NA","h","h","h","436","NA","NA","20049","49596","436","2","legacy","1024","2","48000","-16","experiment","HHHHH","1","odd","53620","206488","NA","256722","NA","NA","261336","260277","NA","186438","4017","261440","261878","261331","261440","4005","Lab 2.1: Flanker Task","102","45859","116","yes","1024"
"88.03418803418803","88.03418803418803","394.97435897435895","394.97435897435895","black","legacy","legacy","legacy","0","Congruent","uniform","1","undefined","1","h","0","0","0","116","116","0","116","116","0","0","0","116","116","116","116","0","Sun Sep 25 15:37:14 2022","600","The main experiment item","yes","Lab21FlankerTask.osexp","/Users/alexisparrish/Desktop","no","mono","no","18","no","white","no","yes","768","legacy","36","79","/Users/alexisparrish/Desktop/DU-subject-1.csv","legacy","Lentiform Loewenfeld","3.3.12","0","h","NA","NA","h","h","h","353","NA","NA","20049","49596","353","2","legacy","1024","2","48000","-16","experiment","HHHHH","1","odd","53620","206488","NA","256722","NA","NA","262950","261890","NA","186438","4017","263054","263408","262944","263054","4005","Lab 2.1: Flanker Task","103","46212","117","yes","1024"
"88.13559322033899","88.13559322033899","395.5593220338983","395.5593220338983","black","legacy","legacy","legacy","0","Incongruent","uniform","1","undefined","1","s","0","0","0","117","117","0","117","117","0","0","0","117","117","117","117","0","Sun Sep 25 15:37:14 2022","600","The main experiment item","yes","Lab21FlankerTask.osexp","/Users/alexisparrish/Desktop","no","mono","no","18","no","white","no","yes","768","legacy","37","79","/Users/alexisparrish/Desktop/DU-subject-1.csv","legacy","Lentiform Loewenfeld","3.3.12","0","s","NA","NA","h","h","s","464","NA","NA","20049","49596","464","2","legacy","1024","2","48000","-16","experiment","HHSHH","1","odd","53620","206488","NA","256722","NA","NA","264480","263420","NA","186438","4017","264584","265049","264474","264584","4005","Lab 2.1: Flanker Task","104","46676","118","yes","1024"
"88.23529411764706","88.23529411764706","395.4033613445378","395.4033613445378","black","legacy","legacy","legacy","0","Incongruent","uniform","1","undefined","1","s","0","0","0","118","118","0","118","118","0","0","0","118","118","118","118","0","Sun Sep 25 15:37:14 2022","600","The main experiment item","yes","Lab21FlankerTask.osexp","/Users/alexisparrish/Desktop","no","mono","no","18","no","white","no","yes","768","legacy","38","79","/Users/alexisparrish/Desktop/DU-subject-1.csv","legacy","Lentiform Loewenfeld","3.3.12","0","s","NA","NA","h","h","s","377","NA","NA","20049","49596","377","2","legacy","1024","2","48000","-16","experiment","HHSHH","1","odd","53620","206488","NA","256722","NA","NA","266121","265061","NA","186438","4017","266225","266604","266116","266225","4005","Lab 2.1: Flanker Task","105","47053","119","yes","1024"
"87.5","87.5","394.475","394.475","black","legacy","legacy","legacy","0","Incongruent","uniform","0","undefined","0","h","0","0","0","119","119","0","119","119","0","0","0","119","119","119","119","0","Sun Sep 25 15:37:14 2022","600","The main experiment item","yes","Lab21FlankerTask.osexp","/Users/alexisparrish/Desktop","no","mono","no","18","no","white","no","yes","768","legacy","39","79","/Users/alexisparrish/Desktop/DU-subject-1.csv","legacy","Lentiform Loewenfeld","3.3.12","0","s","NA","NA","h","h","s","284","NA","NA","20049","49596","284","2","legacy","1024","2","48000","-16","experiment","SSHSS","1","odd","53620","206488","NA","256722","NA","NA","267675","266614","NA","186438","4017","267779","268064","267670","267779","4005","Lab 2.1: Flanker Task","105","47337","120","yes","1024"
