"acc","accuracy","average_response_time","avg_rt","background","canvas_backend","clock_backend","color_backend","compensation","condition","coordinates","correct","correct_Instructions1","correct_keyboard_response","correct_response","count_Block1","count_Block2","count_Block3","count_ISI","count_Instructions1","count_Instructions2","count_Instructions3","count_Sequence","count_errorFeedback","count_experiment","count_faster","count_finish","count_fixation","count_getting_started","count_keyboard_response","count_logger","count_new_loop","count_new_sketchpad","count_stimulus","count_welcome","datetime","deadline","description","disable_garbage_collection","empty_column","experiment_file","experiment_path","font_bold","font_family","font_italic","font_size","font_underline","foreground","form_clicks","fullscreen","height","keyboard_backend","live_row","live_row_Block1","logfile","mouse_backend","opensesame_codename","opensesame_version","repeat_cycle","response","response_Instructions1","response_Instructions2","response_Instructions3","response_finish","response_keyboard_response","response_new_sketchpad","response_time","response_time_Instructions1","response_time_Instructions2","response_time_Instructions3","response_time_finish","response_time_keyboard_response","response_time_new_sketchpad","response_time_welcome","response_welcome","round_decimals","sampler_backend","sound_buf_size","sound_channels","sound_freq","sound_sample_size","start","stimulus","subject_nr","subject_parity","time_Block1","time_Block2","time_Block3","time_ISI","time_Instructions1","time_Instructions2","time_Instructions3","time_Sequence","time_errorFeedback","time_experiment","time_faster","time_finish","time_fixation","time_getting_started","time_keyboard_response","time_logger","time_new_loop","time_new_sketchpad","time_stimulus","time_welcome","title","total_correct","total_response_time","total_responses","uniform_coordinates","width"
"0","0","397","397","black","legacy","legacy","legacy","0","incongruent","uniform","0","undefined","0","h","0","0","0","0","0","0","0","0","0","0","0","0","0","0","0","0","NA","NA","0","0","Sun Sep 25 14:32:14 2022","1500","The main experiment item","yes","NA","KH-Subject-1.osexp","/Users/keelihatcher/Desktop/Tarleton M.D./Advanced Quantitative Methods & Experimental Design","no","mono","no","18","no","white","no","no","768","legacy","0","0","/Users/keelihatcher/Desktop/Tarleton M.D./Advanced Quantitative Methods & Experimental Design/KH-subject-1.csv","legacy","Lentiform Loewenfeld","3.3.12","0","s","s","NA","NA","NA","s","NA","397","59829","NA","NA","NA","397","NA","NA","NA","2","legacy","1024","2","48000","-16","experiment","SSHSS","1","odd","61790","NA","NA","NA","1942","NA","NA","61835","NA","1801","NA","NA","61839","NA","61944","62353","NA","NA","61944","NA","Flanker Task","0","397","1","yes","1024"
"0","0","368.5","368.5","black","legacy","legacy","legacy","0","incongruent","uniform","0","undefined","0","s","0","0","0","1","0","0","0","1","1","0","1","0","1","0","1","1","NA","NA","1","0","Sun Sep 25 14:32:14 2022","1500","The main experiment item","yes","NA","KH-Subject-1.osexp","/Users/keelihatcher/Desktop/Tarleton M.D./Advanced Quantitative Methods & Experimental Design","no","mono","no","18","no","white","no","no","768","legacy","1","1","/Users/keelihatcher/Desktop/Tarleton M.D./Advanced Quantitative Methods & Experimental Design/KH-subject-1.csv","legacy","Lentiform Loewenfeld","3.3.12","0","h","s","NA","NA","NA","h","NA","340","59829","NA","NA","NA","340","NA","NA","NA","2","legacy","1024","2","48000","-16","experiment","HHSHH","1","odd","61790","NA","NA","62872","1942","NA","NA","63955","62358","1801","NA","NA","63959","NA","64065","64405","NA","NA","64065","NA","Flanker Task","0","737","2","yes","1024"
"33.333333333333336","33.333333333333336","349.3333333333333","349.3333333333333","black","legacy","legacy","legacy","0","congruent","uniform","1","undefined","1","h","0","0","0","2","0","0","0","2","2","0","2","0","2","0","2","2","NA","NA","2","0","Sun Sep 25 14:32:14 2022","1500","The main experiment item","yes","NA","KH-Subject-1.osexp","/Users/keelihatcher/Desktop/Tarleton M.D./Advanced Quantitative Methods & Experimental Design","no","mono","no","18","no","white","no","no","768","legacy","2","2","/Users/keelihatcher/Desktop/Tarleton M.D./Advanced Quantitative Methods & Experimental Design/KH-subject-1.csv","legacy","Lentiform Loewenfeld","3.3.12","0","h","s","NA","NA","NA","h","NA","311","59829","NA","NA","NA","311","NA","NA","NA","2","legacy","1024","2","48000","-16","experiment","HHHHH","1","odd","61790","NA","NA","64921","1942","NA","NA","66003","64410","1801","NA","NA","66007","NA","66112","66423","NA","NA","66112","NA","Flanker Task","1","1048","3","yes","1024"
"25","25","338.75","338.75","black","legacy","legacy","legacy","0","incongruent","uniform","0","undefined","0","h","0","0","0","3","0","0","0","3","3","0","3","0","3","0","3","3","NA","NA","3","0","Sun Sep 25 14:32:14 2022","1500","The main experiment item","yes","NA","KH-Subject-1.osexp","/Users/keelihatcher/Desktop/Tarleton M.D./Advanced Quantitative Methods & Experimental Design","no","mono","no","18","no","white","no","no","768","legacy","3","3","/Users/keelihatcher/Desktop/Tarleton M.D./Advanced Quantitative Methods & Experimental Design/KH-subject-1.csv","legacy","Lentiform Loewenfeld","3.3.12","0","s","s","NA","NA","NA","s","NA","307","59829","NA","NA","NA","307","NA","NA","NA","2","legacy","1024","2","48000","-16","experiment","SSHSS","1","odd","61790","NA","NA","66428","1942","NA","NA","67503","64410","1801","NA","NA","67507","NA","67612","67920","NA","NA","67612","NA","Flanker Task","1","1355","4","yes","1024"
"40","40","338","338","black","legacy","legacy","legacy","0","incongruent","uniform","1","undefined","1","s","0","0","0","4","0","0","0","4","4","0","4","0","4","0","4","4","NA","NA","4","0","Sun Sep 25 14:32:14 2022","1500","The main experiment item","yes","NA","KH-Subject-1.osexp","/Users/keelihatcher/Desktop/Tarleton M.D./Advanced Quantitative Methods & Experimental Design","no","mono","no","18","no","white","no","no","768","legacy","4","4","/Users/keelihatcher/Desktop/Tarleton M.D./Advanced Quantitative Methods & Experimental Design/KH-subject-1.csv","legacy","Lentiform Loewenfeld","3.3.12","0","s","s","NA","NA","NA","s","NA","335","59829","NA","NA","NA","335","NA","NA","NA","2","legacy","1024","2","48000","-16","experiment","HHSHH","1","odd","61790","NA","NA","68431","1942","NA","NA","69510","67924","1801","NA","NA","69514","NA","69619","69954","NA","NA","69619","NA","Flanker Task","2","1690","5","yes","1024"
"50","50","339.1666666666667","339.1666666666667","black","legacy","legacy","legacy","0","incongruent","uniform","1","undefined","1","s","0","0","0","5","0","0","0","5","5","0","5","0","5","0","5","5","NA","NA","5","0","Sun Sep 25 14:32:14 2022","1500","The main experiment item","yes","NA","KH-Subject-1.osexp","/Users/keelihatcher/Desktop/Tarleton M.D./Advanced Quantitative Methods & Experimental Design","no","mono","no","18","no","white","no","no","768","legacy","5","5","/Users/keelihatcher/Desktop/Tarleton M.D./Advanced Quantitative Methods & Experimental Design/KH-subject-1.csv","legacy","Lentiform Loewenfeld","3.3.12","0","s","s","NA","NA","NA","s","NA","345","59829","NA","NA","NA","345","NA","NA","NA","2","legacy","1024","2","48000","-16","experiment","HHSHH","1","odd","61790","NA","NA","69958","1942","NA","NA","71037","67924","1801","NA","NA","71041","NA","71147","71493","NA","NA","71146","NA","Flanker Task","3","2035","6","yes","1024"
"57.142857142857146","57.142857142857146","356","356","black","legacy","legacy","legacy","0","congruent","uniform","1","undefined","1","s","0","0","0","6","0","0","0","6","6","0","6","0","6","0","6","6","NA","NA","6","0","Sun Sep 25 14:32:14 2022","1500","The main experiment item","yes","NA","KH-Subject-1.osexp","/Users/keelihatcher/Desktop/Tarleton M.D./Advanced Quantitative Methods & Experimental Design","no","mono","no","18","no","white","no","no","768","legacy","6","6","/Users/keelihatcher/Desktop/Tarleton M.D./Advanced Quantitative Methods & Experimental Design/KH-subject-1.csv","legacy","Lentiform Loewenfeld","3.3.12","0","s","s","NA","NA","NA","s","NA","457","59829","NA","NA","NA","457","NA","NA","NA","2","legacy","1024","2","48000","-16","experiment","SSSSS","1","odd","61790","NA","NA","71497","1942","NA","NA","72581","67924","1801","NA","NA","72585","NA","72690","73148","NA","NA","72690","NA","Flanker Task","4","2492","7","yes","1024"
"62.5","62.5","343","343","black","legacy","legacy","legacy","0","congruent","uniform","1","undefined","1","h","0","0","0","7","0","0","0","7","7","0","7","0","7","0","7","7","NA","NA","7","0","Sun Sep 25 14:32:14 2022","1500","The main experiment item","yes","NA","KH-Subject-1.osexp","/Users/keelihatcher/Desktop/Tarleton M.D./Advanced Quantitative Methods & Experimental Design","no","mono","no","18","no","white","no","no","768","legacy","7","7","/Users/keelihatcher/Desktop/Tarleton M.D./Advanced Quantitative Methods & Experimental Design/KH-subject-1.csv","legacy","Lentiform Loewenfeld","3.3.12","0","h","s","NA","NA","NA","h","NA","252","59829","NA","NA","NA","252","NA","NA","NA","2","legacy","1024","2","48000","-16","experiment","HHHHH","1","odd","61790","NA","NA","73153","1942","NA","NA","74232","67924","1801","NA","NA","74236","NA","74341","74594","NA","NA","74341","NA","Flanker Task","5","2744","8","yes","1024"
"66.66666666666667","66.66666666666667","336.6666666666667","336.6666666666667","black","legacy","legacy","legacy","0","congruent","uniform","1","undefined","1","s","0","0","0","8","0","0","0","8","8","0","8","0","8","0","8","8","NA","NA","8","0","Sun Sep 25 14:32:14 2022","1500","The main experiment item","yes","NA","KH-Subject-1.osexp","/Users/keelihatcher/Desktop/Tarleton M.D./Advanced Quantitative Methods & Experimental Design","no","mono","no","18","no","white","no","no","768","legacy","8","8","/Users/keelihatcher/Desktop/Tarleton M.D./Advanced Quantitative Methods & Experimental Design/KH-subject-1.csv","legacy","Lentiform Loewenfeld","3.3.12","0","s","s","NA","NA","NA","s","NA","286","59829","NA","NA","NA","286","NA","NA","NA","2","legacy","1024","2","48000","-16","experiment","SSSSS","1","odd","61790","NA","NA","74598","1942","NA","NA","75673","67924","1801","NA","NA","75676","NA","75781","76067","NA","NA","75781","NA","Flanker Task","6","3030","9","yes","1024"
"70","70","334.7","334.7","black","legacy","legacy","legacy","0","congruent","uniform","1","undefined","1","s","0","0","0","9","0","0","0","9","9","0","9","0","9","0","9","9","NA","NA","9","0","Sun Sep 25 14:32:14 2022","1500","The main experiment item","yes","NA","KH-Subject-1.osexp","/Users/keelihatcher/Desktop/Tarleton M.D./Advanced Quantitative Methods & Experimental Design","no","mono","no","18","no","white","no","no","768","legacy","9","9","/Users/keelihatcher/Desktop/Tarleton M.D./Advanced Quantitative Methods & Experimental Design/KH-subject-1.csv","legacy","Lentiform Loewenfeld","3.3.12","0","s","s","NA","NA","NA","s","NA","317","59829","NA","NA","NA","317","NA","NA","NA","2","legacy","1024","2","48000","-16","experiment","SSSSS","1","odd","61790","NA","NA","76072","1942","NA","NA","77154","67924","1801","NA","NA","77158","NA","77264","77581","NA","NA","77264","NA","Flanker Task","7","3347","10","yes","1024"
"72.72727272727273","72.72727272727273","332.3636363636364","332.3636363636364","black","legacy","legacy","legacy","0","incongruent","uniform","1","undefined","1","h","0","0","0","10","0","0","0","10","10","0","10","0","10","0","10","10","NA","NA","10","0","Sun Sep 25 14:32:14 2022","1500","The main experiment item","yes","NA","KH-Subject-1.osexp","/Users/keelihatcher/Desktop/Tarleton M.D./Advanced Quantitative Methods & Experimental Design","no","mono","no","18","no","white","no","no","768","legacy","10","10","/Users/keelihatcher/Desktop/Tarleton M.D./Advanced Quantitative Methods & Experimental Design/KH-subject-1.csv","legacy","Lentiform Loewenfeld","3.3.12","0","h","s","NA","NA","NA","h","NA","309","59829","NA","NA","NA","309","NA","NA","NA","2","legacy","1024","2","48000","-16","experiment","SSHSS","1","odd","61790","NA","NA","77585","1942","NA","NA","78659","67924","1801","NA","NA","78662","NA","78767","79077","NA","NA","78767","NA","Flanker Task","8","3656","11","yes","1024"
"75","75","332.4166666666667","332.4166666666667","black","legacy","legacy","legacy","0","congruent","uniform","1","undefined","1","h","0","0","0","11","0","0","0","11","11","0","11","0","11","0","11","11","NA","NA","11","0","Sun Sep 25 14:32:14 2022","1500","The main experiment item","yes","NA","KH-Subject-1.osexp","/Users/keelihatcher/Desktop/Tarleton M.D./Advanced Quantitative Methods & Experimental Design","no","mono","no","18","no","white","no","no","768","legacy","11","11","/Users/keelihatcher/Desktop/Tarleton M.D./Advanced Quantitative Methods & Experimental Design/KH-subject-1.csv","legacy","Lentiform Loewenfeld","3.3.12","0","h","s","NA","NA","NA","h","NA","333","59829","NA","NA","NA","333","NA","NA","NA","2","legacy","1024","2","48000","-16","experiment","HHHHH","1","odd","61790","NA","NA","79081","1942","NA","NA","80157","67924","1801","NA","NA","80161","NA","80266","80599","NA","NA","80266","NA","Flanker Task","9","3989","12","yes","1024"
"69.23076923076923","69.23076923076923","327.7692307692308","327.7692307692308","black","legacy","legacy","legacy","0","incongruent","uniform","0","undefined","0","h","0","0","0","12","0","0","0","12","12","0","12","0","12","0","12","12","NA","NA","12","0","Sun Sep 25 14:32:14 2022","1500","The main experiment item","yes","NA","KH-Subject-1.osexp","/Users/keelihatcher/Desktop/Tarleton M.D./Advanced Quantitative Methods & Experimental Design","no","mono","no","18","no","white","no","no","768","legacy","12","12","/Users/keelihatcher/Desktop/Tarleton M.D./Advanced Quantitative Methods & Experimental Design/KH-subject-1.csv","legacy","Lentiform Loewenfeld","3.3.12","0","s","s","NA","NA","NA","s","NA","272","59829","NA","NA","NA","272","NA","NA","NA","2","legacy","1024","2","48000","-16","experiment","SSHSS","1","odd","61790","NA","NA","80603","1942","NA","NA","81663","67924","1801","NA","NA","81666","NA","81771","82044","NA","NA","81771","NA","Flanker Task","9","4261","13","yes","1024"
"64.28571428571429","64.28571428571429","325.7142857142857","325.7142857142857","black","legacy","legacy","legacy","0","incongruent","uniform","0","undefined","0","h","0","0","0","13","0","0","0","13","13","0","13","0","13","0","13","13","NA","NA","13","0","Sun Sep 25 14:32:14 2022","1500","The main experiment item","yes","NA","KH-Subject-1.osexp","/Users/keelihatcher/Desktop/Tarleton M.D./Advanced Quantitative Methods & Experimental Design","no","mono","no","18","no","white","no","no","768","legacy","13","13","/Users/keelihatcher/Desktop/Tarleton M.D./Advanced Quantitative Methods & Experimental Design/KH-subject-1.csv","legacy","Lentiform Loewenfeld","3.3.12","0","s","s","NA","NA","NA","s","NA","299","59829","NA","NA","NA","299","NA","NA","NA","2","legacy","1024","2","48000","-16","experiment","SSHSS","1","odd","61790","NA","NA","82559","1942","NA","NA","83646","82048","1801","NA","NA","83650","NA","83756","84055","NA","NA","83755","NA","Flanker Task","9","4560","14","yes","1024"
"66.66666666666667","66.66666666666667","325.93333333333334","325.93333333333334","black","legacy","legacy","legacy","0","incongruent","uniform","1","undefined","1","s","0","0","0","14","0","0","0","14","14","0","14","0","14","0","14","14","NA","NA","14","0","Sun Sep 25 14:32:14 2022","1500","The main experiment item","yes","NA","KH-Subject-1.osexp","/Users/keelihatcher/Desktop/Tarleton M.D./Advanced Quantitative Methods & Experimental Design","no","mono","no","18","no","white","no","no","768","legacy","14","14","/Users/keelihatcher/Desktop/Tarleton M.D./Advanced Quantitative Methods & Experimental Design/KH-subject-1.csv","legacy","Lentiform Loewenfeld","3.3.12","0","s","s","NA","NA","NA","s","NA","329","59829","NA","NA","NA","329","NA","NA","NA","2","legacy","1024","2","48000","-16","experiment","HHSHH","1","odd","61790","NA","NA","84570","1942","NA","NA","85656","84060","1801","NA","NA","85659","NA","85764","86094","NA","NA","85764","NA","Flanker Task","10","4889","15","yes","1024"
"68.75","68.75","326.1875","326.1875","black","legacy","legacy","legacy","0","congruent","uniform","1","undefined","1","h","0","0","0","15","0","0","0","15","15","0","15","0","15","0","15","15","NA","NA","15","0","Sun Sep 25 14:32:14 2022","1500","The main experiment item","yes","NA","KH-Subject-1.osexp","/Users/keelihatcher/Desktop/Tarleton M.D./Advanced Quantitative Methods & Experimental Design","no","mono","no","18","no","white","no","no","768","legacy","15","15","/Users/keelihatcher/Desktop/Tarleton M.D./Advanced Quantitative Methods & Experimental Design/KH-subject-1.csv","legacy","Lentiform Loewenfeld","3.3.12","0","h","s","NA","NA","NA","h","NA","330","59829","NA","NA","NA","330","NA","NA","NA","2","legacy","1024","2","48000","-16","experiment","HHHHH","1","odd","61790","NA","NA","86099","1942","NA","NA","87179","84060","1801","NA","NA","87183","NA","87288","87619","NA","NA","87288","NA","Flanker Task","11","5219","16","yes","1024"
"70.58823529411765","70.58823529411765","325.5882352941176","325.5882352941176","black","legacy","legacy","legacy","0","incongruent","uniform","1","undefined","1","s","0","0","0","16","0","0","0","16","16","0","16","0","16","0","16","16","NA","NA","16","0","Sun Sep 25 14:32:14 2022","1500","The main experiment item","yes","NA","KH-Subject-1.osexp","/Users/keelihatcher/Desktop/Tarleton M.D./Advanced Quantitative Methods & Experimental Design","no","mono","no","18","no","white","no","no","768","legacy","16","16","/Users/keelihatcher/Desktop/Tarleton M.D./Advanced Quantitative Methods & Experimental Design/KH-subject-1.csv","legacy","Lentiform Loewenfeld","3.3.12","0","s","s","NA","NA","NA","s","NA","316","59829","NA","NA","NA","316","NA","NA","NA","2","legacy","1024","2","48000","-16","experiment","HHSHH","1","odd","61790","NA","NA","87623","1942","NA","NA","88707","84060","1801","NA","NA","88711","NA","88816","89133","NA","NA","88816","NA","Flanker Task","12","5535","17","yes","1024"
"72.22222222222223","72.22222222222223","326.8888888888889","326.8888888888889","black","legacy","legacy","legacy","0","congruent","uniform","1","undefined","1","s","0","0","0","17","0","0","0","17","17","0","17","0","17","0","17","17","NA","NA","17","0","Sun Sep 25 14:32:14 2022","1500","The main experiment item","yes","NA","KH-Subject-1.osexp","/Users/keelihatcher/Desktop/Tarleton M.D./Advanced Quantitative Methods & Experimental Design","no","mono","no","18","no","white","no","no","768","legacy","17","17","/Users/keelihatcher/Desktop/Tarleton M.D./Advanced Quantitative Methods & Experimental Design/KH-subject-1.csv","legacy","Lentiform Loewenfeld","3.3.12","0","s","s","NA","NA","NA","s","NA","349","59829","NA","NA","NA","349","NA","NA","NA","2","legacy","1024","2","48000","-16","experiment","SSSSS","1","odd","61790","NA","NA","89137","1942","NA","NA","90214","84060","1801","NA","NA","90218","NA","90323","90673","NA","NA","90323","NA","Flanker Task","13","5884","18","yes","1024"
"73.6842105263158","73.6842105263158","323.63157894736844","323.63157894736844","black","legacy","legacy","legacy","0","incongruent","uniform","1","undefined","1","h","0","0","0","18","0","0","0","18","18","0","18","0","18","0","18","18","NA","NA","18","0","Sun Sep 25 14:32:14 2022","1500","The main experiment item","yes","NA","KH-Subject-1.osexp","/Users/keelihatcher/Desktop/Tarleton M.D./Advanced Quantitative Methods & Experimental Design","no","mono","no","18","no","white","no","no","768","legacy","18","18","/Users/keelihatcher/Desktop/Tarleton M.D./Advanced Quantitative Methods & Experimental Design/KH-subject-1.csv","legacy","Lentiform Loewenfeld","3.3.12","0","h","s","NA","NA","NA","h","NA","265","59829","NA","NA","NA","265","NA","NA","NA","2","legacy","1024","2","48000","-16","experiment","SSHSS","1","odd","61790","NA","NA","90677","1942","NA","NA","91754","84060","1801","NA","NA","91758","NA","91863","92128","NA","NA","91863","NA","Flanker Task","14","6149","19","yes","1024"
"75","75","331.35","331.35","black","legacy","legacy","legacy","0","incongruent","uniform","1","undefined","1","s","0","0","0","19","0","0","0","19","19","0","19","0","19","0","19","19","NA","NA","19","0","Sun Sep 25 14:32:14 2022","1500","The main experiment item","yes","NA","KH-Subject-1.osexp","/Users/keelihatcher/Desktop/Tarleton M.D./Advanced Quantitative Methods & Experimental Design","no","mono","no","18","no","white","no","no","768","legacy","19","19","/Users/keelihatcher/Desktop/Tarleton M.D./Advanced Quantitative Methods & Experimental Design/KH-subject-1.csv","legacy","Lentiform Loewenfeld","3.3.12","0","s","s","NA","NA","NA","s","NA","478","59829","NA","NA","NA","478","NA","NA","NA","2","legacy","1024","2","48000","-16","experiment","HHSHH","1","odd","61790","NA","NA","92133","1942","NA","NA","93211","84060","1801","NA","NA","93215","NA","93321","93800","NA","NA","93321","NA","Flanker Task","15","6627","20","yes","1024"
"76.19047619047619","76.19047619047619","329.95238095238096","329.95238095238096","black","legacy","legacy","legacy","0","incongruent","uniform","1","undefined","1","h","0","0","0","20","0","0","0","20","20","0","20","0","20","0","20","20","NA","NA","20","0","Sun Sep 25 14:32:14 2022","1500","The main experiment item","yes","NA","KH-Subject-1.osexp","/Users/keelihatcher/Desktop/Tarleton M.D./Advanced Quantitative Methods & Experimental Design","no","mono","no","18","no","white","no","no","768","legacy","20","20","/Users/keelihatcher/Desktop/Tarleton M.D./Advanced Quantitative Methods & Experimental Design/KH-subject-1.csv","legacy","Lentiform Loewenfeld","3.3.12","0","h","s","NA","NA","NA","h","NA","302","59829","NA","NA","NA","302","NA","NA","NA","2","legacy","1024","2","48000","-16","experiment","SSHSS","1","odd","61790","NA","NA","93804","1942","NA","NA","94886","84060","1801","NA","NA","94889","NA","94994","95297","NA","NA","94994","NA","Flanker Task","16","6929","21","yes","1024"
"77.27272727272727","77.27272727272727","329.59090909090907","329.59090909090907","black","legacy","legacy","legacy","0","congruent","uniform","1","undefined","1","s","0","0","0","21","0","0","0","21","21","0","21","0","21","0","21","21","NA","NA","21","0","Sun Sep 25 14:32:14 2022","1500","The main experiment item","yes","NA","KH-Subject-1.osexp","/Users/keelihatcher/Desktop/Tarleton M.D./Advanced Quantitative Methods & Experimental Design","no","mono","no","18","no","white","no","no","768","legacy","21","21","/Users/keelihatcher/Desktop/Tarleton M.D./Advanced Quantitative Methods & Experimental Design/KH-subject-1.csv","legacy","Lentiform Loewenfeld","3.3.12","0","s","s","NA","NA","NA","s","NA","322","59829","NA","NA","NA","322","NA","NA","NA","2","legacy","1024","2","48000","-16","experiment","SSSSS","1","odd","61790","NA","NA","95301","1942","NA","NA","96375","84060","1801","NA","NA","96379","NA","96484","96807","NA","NA","96484","NA","Flanker Task","17","7251","22","yes","1024"
"78.26086956521739","78.26086956521739","332.2608695652174","332.2608695652174","black","legacy","legacy","legacy","0","incongruent","uniform","1","undefined","1","s","0","0","0","22","0","0","0","22","22","0","22","0","22","0","22","22","NA","NA","22","0","Sun Sep 25 14:32:14 2022","1500","The main experiment item","yes","NA","KH-Subject-1.osexp","/Users/keelihatcher/Desktop/Tarleton M.D./Advanced Quantitative Methods & Experimental Design","no","mono","no","18","no","white","no","no","768","legacy","22","22","/Users/keelihatcher/Desktop/Tarleton M.D./Advanced Quantitative Methods & Experimental Design/KH-subject-1.csv","legacy","Lentiform Loewenfeld","3.3.12","0","s","s","NA","NA","NA","s","NA","391","59829","NA","NA","NA","391","NA","NA","NA","2","legacy","1024","2","48000","-16","experiment","HHSHH","1","odd","61790","NA","NA","96811","1942","NA","NA","97895","84060","1801","NA","NA","97899","NA","98004","98396","NA","NA","98004","NA","Flanker Task","18","7642","23","yes","1024"
"79.16666666666667","79.16666666666667","330.8333333333333","330.8333333333333","black","legacy","legacy","legacy","0","incongruent","uniform","1","undefined","1","h","0","0","0","23","0","0","0","23","23","0","23","0","23","0","23","23","NA","NA","23","0","Sun Sep 25 14:32:14 2022","1500","The main experiment item","yes","NA","KH-Subject-1.osexp","/Users/keelihatcher/Desktop/Tarleton M.D./Advanced Quantitative Methods & Experimental Design","no","mono","no","18","no","white","no","no","768","legacy","23","23","/Users/keelihatcher/Desktop/Tarleton M.D./Advanced Quantitative Methods & Experimental Design/KH-subject-1.csv","legacy","Lentiform Loewenfeld","3.3.12","0","h","s","NA","NA","NA","h","NA","298","59829","NA","NA","NA","298","NA","NA","NA","2","legacy","1024","2","48000","-16","experiment","SSHSS","1","odd","61790","NA","NA","98400","1942","NA","NA","99482","84060","1801","NA","NA","99486","NA","99591","99889","NA","NA","99591","NA","Flanker Task","19","7940","24","yes","1024"
"80","80","332.6","332.6","black","legacy","legacy","legacy","0","congruent","uniform","1","undefined","1","h","0","0","0","24","0","0","0","24","24","0","24","0","24","0","24","24","NA","NA","24","0","Sun Sep 25 14:32:14 2022","1500","The main experiment item","yes","NA","KH-Subject-1.osexp","/Users/keelihatcher/Desktop/Tarleton M.D./Advanced Quantitative Methods & Experimental Design","no","mono","no","18","no","white","no","no","768","legacy","24","24","/Users/keelihatcher/Desktop/Tarleton M.D./Advanced Quantitative Methods & Experimental Design/KH-subject-1.csv","legacy","Lentiform Loewenfeld","3.3.12","0","h","s","NA","NA","NA","h","NA","375","59829","NA","NA","NA","375","NA","NA","NA","2","legacy","1024","2","48000","-16","experiment","HHHHH","1","odd","61790","NA","NA","99894","1942","NA","NA","100971","84060","1801","NA","NA","100975","NA","101080","101456","NA","NA","101080","NA","Flanker Task","20","8315","25","yes","1024"
"80.76923076923077","80.76923076923077","330.2307692307692","330.2307692307692","black","legacy","legacy","legacy","0","congruent","uniform","1","undefined","1","s","0","0","0","25","0","0","0","25","25","0","25","0","25","0","25","25","NA","NA","25","0","Sun Sep 25 14:32:14 2022","1500","The main experiment item","yes","NA","KH-Subject-1.osexp","/Users/keelihatcher/Desktop/Tarleton M.D./Advanced Quantitative Methods & Experimental Design","no","mono","no","18","no","white","no","no","768","legacy","25","25","/Users/keelihatcher/Desktop/Tarleton M.D./Advanced Quantitative Methods & Experimental Design/KH-subject-1.csv","legacy","Lentiform Loewenfeld","3.3.12","0","s","s","NA","NA","NA","s","NA","271","59829","NA","NA","NA","271","NA","NA","NA","2","legacy","1024","2","48000","-16","experiment","SSSSS","1","odd","61790","NA","NA","101460","1942","NA","NA","102535","84060","1801","NA","NA","102539","NA","102644","102916","NA","NA","102644","NA","Flanker Task","21","8586","26","yes","1024"
"81.48148148148148","81.48148148148148","328.44444444444446","328.44444444444446","black","legacy","legacy","legacy","0","congruent","uniform","1","undefined","1","h","0","0","0","26","0","0","0","26","26","0","26","0","26","0","26","26","NA","NA","26","0","Sun Sep 25 14:32:14 2022","1500","The main experiment item","yes","NA","KH-Subject-1.osexp","/Users/keelihatcher/Desktop/Tarleton M.D./Advanced Quantitative Methods & Experimental Design","no","mono","no","18","no","white","no","no","768","legacy","26","26","/Users/keelihatcher/Desktop/Tarleton M.D./Advanced Quantitative Methods & Experimental Design/KH-subject-1.csv","legacy","Lentiform Loewenfeld","3.3.12","0","h","s","NA","NA","NA","h","NA","282","59829","NA","NA","NA","282","NA","NA","NA","2","legacy","1024","2","48000","-16","experiment","HHHHH","1","odd","61790","NA","NA","102920","1942","NA","NA","104006","84060","1801","NA","NA","104010","NA","104115","104398","NA","NA","104115","NA","Flanker Task","22","8868","27","yes","1024"
"82.14285714285714","82.14285714285714","327.89285714285717","327.89285714285717","black","legacy","legacy","legacy","0","incongruent","uniform","1","undefined","1","s","0","0","0","27","0","0","0","27","27","0","27","0","27","0","27","27","NA","NA","27","0","Sun Sep 25 14:32:14 2022","1500","The main experiment item","yes","NA","KH-Subject-1.osexp","/Users/keelihatcher/Desktop/Tarleton M.D./Advanced Quantitative Methods & Experimental Design","no","mono","no","18","no","white","no","no","768","legacy","27","27","/Users/keelihatcher/Desktop/Tarleton M.D./Advanced Quantitative Methods & Experimental Design/KH-subject-1.csv","legacy","Lentiform Loewenfeld","3.3.12","0","s","s","NA","NA","NA","s","NA","313","59829","NA","NA","NA","313","NA","NA","NA","2","legacy","1024","2","48000","-16","experiment","HHSHH","1","odd","61790","NA","NA","104402","1942","NA","NA","105480","84060","1801","NA","NA","105484","NA","105589","105903","NA","NA","105589","NA","Flanker Task","23","9181","28","yes","1024"
"82.75862068965517","82.75862068965517","329.2758620689655","329.2758620689655","black","legacy","legacy","legacy","0","incongruent","uniform","1","undefined","1","h","0","0","0","28","0","0","0","28","28","0","28","0","28","0","28","28","NA","NA","28","0","Sun Sep 25 14:32:14 2022","1500","The main experiment item","yes","NA","KH-Subject-1.osexp","/Users/keelihatcher/Desktop/Tarleton M.D./Advanced Quantitative Methods & Experimental Design","no","mono","no","18","no","white","no","no","768","legacy","28","28","/Users/keelihatcher/Desktop/Tarleton M.D./Advanced Quantitative Methods & Experimental Design/KH-subject-1.csv","legacy","Lentiform Loewenfeld","3.3.12","0","h","s","NA","NA","NA","h","NA","368","59829","NA","NA","NA","368","NA","NA","NA","2","legacy","1024","2","48000","-16","experiment","SSHSS","1","odd","61790","NA","NA","105907","1942","NA","NA","106985","84060","1801","NA","NA","106989","NA","107093","107462","NA","NA","107093","NA","Flanker Task","24","9549","29","yes","1024"
"83.33333333333333","83.33333333333333","327.43333333333334","327.43333333333334","black","legacy","legacy","legacy","0","congruent","uniform","1","undefined","1","s","0","0","0","29","0","0","0","29","29","0","29","0","29","0","29","29","NA","NA","29","0","Sun Sep 25 14:32:14 2022","1500","The main experiment item","yes","NA","KH-Subject-1.osexp","/Users/keelihatcher/Desktop/Tarleton M.D./Advanced Quantitative Methods & Experimental Design","no","mono","no","18","no","white","no","no","768","legacy","29","29","/Users/keelihatcher/Desktop/Tarleton M.D./Advanced Quantitative Methods & Experimental Design/KH-subject-1.csv","legacy","Lentiform Loewenfeld","3.3.12","0","s","s","NA","NA","NA","s","NA","274","59829","NA","NA","NA","274","NA","NA","NA","2","legacy","1024","2","48000","-16","experiment","SSSSS","1","odd","61790","NA","NA","107466","1942","NA","NA","108542","84060","1801","NA","NA","108553","NA","108658","108932","NA","NA","108658","NA","Flanker Task","25","9823","30","yes","1024"
"83.87096774193549","83.87096774193549","328.06451612903226","328.06451612903226","black","legacy","legacy","legacy","0","congruent","uniform","1","undefined","1","s","0","0","0","30","0","0","0","30","30","0","30","0","30","0","30","30","NA","NA","30","0","Sun Sep 25 14:32:14 2022","1500","The main experiment item","yes","NA","KH-Subject-1.osexp","/Users/keelihatcher/Desktop/Tarleton M.D./Advanced Quantitative Methods & Experimental Design","no","mono","no","18","no","white","no","no","768","legacy","30","30","/Users/keelihatcher/Desktop/Tarleton M.D./Advanced Quantitative Methods & Experimental Design/KH-subject-1.csv","legacy","Lentiform Loewenfeld","3.3.12","0","s","s","NA","NA","NA","s","NA","347","59829","NA","NA","NA","347","NA","NA","NA","2","legacy","1024","2","48000","-16","experiment","SSSSS","1","odd","61790","NA","NA","108937","1942","NA","NA","110015","84060","1801","NA","NA","110019","NA","110123","110471","NA","NA","110123","NA","Flanker Task","26","10170","31","yes","1024"
"84.375","84.375","326.90625","326.90625","black","legacy","legacy","legacy","0","congruent","uniform","1","undefined","1","h","0","0","0","31","0","0","0","31","31","0","31","0","31","0","31","31","NA","NA","31","0","Sun Sep 25 14:32:14 2022","1500","The main experiment item","yes","NA","KH-Subject-1.osexp","/Users/keelihatcher/Desktop/Tarleton M.D./Advanced Quantitative Methods & Experimental Design","no","mono","no","18","no","white","no","no","768","legacy","31","31","/Users/keelihatcher/Desktop/Tarleton M.D./Advanced Quantitative Methods & Experimental Design/KH-subject-1.csv","legacy","Lentiform Loewenfeld","3.3.12","0","h","s","NA","NA","NA","h","NA","291","59829","NA","NA","NA","291","NA","NA","NA","2","legacy","1024","2","48000","-16","experiment","HHHHH","1","odd","61790","NA","NA","110475","1942","NA","NA","111549","84060","1801","NA","NA","111553","NA","111658","111950","NA","NA","111658","NA","Flanker Task","27","10461","32","yes","1024"
"81.81818181818181","81.81818181818181","325.54545454545456","325.54545454545456","black","legacy","legacy","legacy","0","incongruent","uniform","0","undefined","0","h","0","0","0","32","0","0","0","32","32","0","32","0","32","0","32","32","NA","NA","32","0","Sun Sep 25 14:32:14 2022","1500","The main experiment item","yes","NA","KH-Subject-1.osexp","/Users/keelihatcher/Desktop/Tarleton M.D./Advanced Quantitative Methods & Experimental Design","no","mono","no","18","no","white","no","no","768","legacy","32","32","/Users/keelihatcher/Desktop/Tarleton M.D./Advanced Quantitative Methods & Experimental Design/KH-subject-1.csv","legacy","Lentiform Loewenfeld","3.3.12","0","s","s","NA","NA","NA","s","NA","282","59829","NA","NA","NA","282","NA","NA","NA","2","legacy","1024","2","48000","-16","experiment","SSHSS","1","odd","61790","NA","NA","111954","1942","NA","NA","113025","84060","1801","NA","NA","113029","NA","113134","113416","NA","NA","113134","NA","Flanker Task","27","10743","33","yes","1024"
"82.3529411764706","82.3529411764706","325.20588235294116","325.20588235294116","black","legacy","legacy","legacy","0","incongruent","uniform","1","undefined","1","s","0","0","0","33","0","0","0","33","33","0","33","0","33","0","33","33","NA","NA","33","0","Sun Sep 25 14:32:14 2022","1500","The main experiment item","yes","NA","KH-Subject-1.osexp","/Users/keelihatcher/Desktop/Tarleton M.D./Advanced Quantitative Methods & Experimental Design","no","mono","no","18","no","white","no","no","768","legacy","33","33","/Users/keelihatcher/Desktop/Tarleton M.D./Advanced Quantitative Methods & Experimental Design/KH-subject-1.csv","legacy","Lentiform Loewenfeld","3.3.12","0","s","s","NA","NA","NA","s","NA","314","59829","NA","NA","NA","314","NA","NA","NA","2","legacy","1024","2","48000","-16","experiment","HHSHH","1","odd","61790","NA","NA","113929","1942","NA","NA","115007","113420","1801","NA","NA","115011","NA","115116","115430","NA","NA","115116","NA","Flanker Task","28","11057","34","yes","1024"
"82.85714285714286","82.85714285714286","326.9142857142857","326.9142857142857","black","legacy","legacy","legacy","0","congruent","uniform","1","undefined","1","s","0","0","0","34","0","0","0","34","34","0","34","0","34","0","34","34","NA","NA","34","0","Sun Sep 25 14:32:14 2022","1500","The main experiment item","yes","NA","KH-Subject-1.osexp","/Users/keelihatcher/Desktop/Tarleton M.D./Advanced Quantitative Methods & Experimental Design","no","mono","no","18","no","white","no","no","768","legacy","34","34","/Users/keelihatcher/Desktop/Tarleton M.D./Advanced Quantitative Methods & Experimental Design/KH-subject-1.csv","legacy","Lentiform Loewenfeld","3.3.12","0","s","s","NA","NA","NA","s","NA","385","59829","NA","NA","NA","385","NA","NA","NA","2","legacy","1024","2","48000","-16","experiment","SSSSS","1","odd","61790","NA","NA","115434","1942","NA","NA","116517","113420","1801","NA","NA","116521","NA","116626","117012","NA","NA","116626","NA","Flanker Task","29","11442","35","yes","1024"
"80.55555555555556","80.55555555555556","328.30555555555554","328.30555555555554","black","legacy","legacy","legacy","0","incongruent","uniform","0","undefined","0","s","0","0","0","35","0","0","0","35","35","0","35","0","35","0","35","35","NA","NA","35","0","Sun Sep 25 14:32:14 2022","1500","The main experiment item","yes","NA","KH-Subject-1.osexp","/Users/keelihatcher/Desktop/Tarleton M.D./Advanced Quantitative Methods & Experimental Design","no","mono","no","18","no","white","no","no","768","legacy","35","35","/Users/keelihatcher/Desktop/Tarleton M.D./Advanced Quantitative Methods & Experimental Design/KH-subject-1.csv","legacy","Lentiform Loewenfeld","3.3.12","0","h","s","NA","NA","NA","h","NA","377","59829","NA","NA","NA","377","NA","NA","NA","2","legacy","1024","2","48000","-16","experiment","HHSHH","1","odd","61790","NA","NA","117016","1942","NA","NA","118092","113420","1801","NA","NA","118096","NA","118201","118579","NA","NA","118201","NA","Flanker Task","29","11819","36","yes","1024"
"81.08108108108108","81.08108108108108","332.81081081081084","332.81081081081084","black","legacy","legacy","legacy","0","incongruent","uniform","1","undefined","1","h","0","0","0","36","0","0","0","36","36","0","36","0","36","0","36","36","NA","NA","36","0","Sun Sep 25 14:32:14 2022","1500","The main experiment item","yes","NA","KH-Subject-1.osexp","/Users/keelihatcher/Desktop/Tarleton M.D./Advanced Quantitative Methods & Experimental Design","no","mono","no","18","no","white","no","no","768","legacy","36","36","/Users/keelihatcher/Desktop/Tarleton M.D./Advanced Quantitative Methods & Experimental Design/KH-subject-1.csv","legacy","Lentiform Loewenfeld","3.3.12","0","h","s","NA","NA","NA","h","NA","495","59829","NA","NA","NA","495","NA","NA","NA","2","legacy","1024","2","48000","-16","experiment","SSHSS","1","odd","61790","NA","NA","119094","1942","NA","NA","120176","118583","1801","NA","NA","120180","NA","120285","120780","NA","NA","120285","NA","Flanker Task","30","12314","37","yes","1024"
"81.57894736842105","81.57894736842105","330.4736842105263","330.4736842105263","black","legacy","legacy","legacy","0","incongruent","uniform","1","undefined","1","s","0","0","0","37","0","0","0","37","37","0","37","0","37","0","37","37","NA","NA","37","0","Sun Sep 25 14:32:14 2022","1500","The main experiment item","yes","NA","KH-Subject-1.osexp","/Users/keelihatcher/Desktop/Tarleton M.D./Advanced Quantitative Methods & Experimental Design","no","mono","no","18","no","white","no","no","768","legacy","37","37","/Users/keelihatcher/Desktop/Tarleton M.D./Advanced Quantitative Methods & Experimental Design/KH-subject-1.csv","legacy","Lentiform Loewenfeld","3.3.12","0","s","s","NA","NA","NA","s","NA","244","59829","NA","NA","NA","244","NA","NA","NA","2","legacy","1024","2","48000","-16","experiment","HHSHH","1","odd","61790","NA","NA","120785","1942","NA","NA","121863","118583","1801","NA","NA","121867","NA","121973","122217","NA","NA","121973","NA","Flanker Task","31","12558","38","yes","1024"
"82.05128205128206","82.05128205128206","333.3333333333333","333.3333333333333","black","legacy","legacy","legacy","0","congruent","uniform","1","undefined","1","s","0","0","0","38","0","0","0","38","38","0","38","0","38","0","38","38","NA","NA","38","0","Sun Sep 25 14:32:14 2022","1500","The main experiment item","yes","NA","KH-Subject-1.osexp","/Users/keelihatcher/Desktop/Tarleton M.D./Advanced Quantitative Methods & Experimental Design","no","mono","no","18","no","white","no","no","768","legacy","38","38","/Users/keelihatcher/Desktop/Tarleton M.D./Advanced Quantitative Methods & Experimental Design/KH-subject-1.csv","legacy","Lentiform Loewenfeld","3.3.12","0","s","s","NA","NA","NA","s","NA","442","59829","NA","NA","NA","442","NA","NA","NA","2","legacy","1024","2","48000","-16","experiment","SSSSS","1","odd","61790","NA","NA","122221","1942","NA","NA","123302","118583","1801","NA","NA","123306","NA","123411","123854","NA","NA","123410","NA","Flanker Task","32","13000","39","yes","1024"
"80","80","333.975","333.975","black","legacy","legacy","legacy","0","incongruent","uniform","0","undefined","0","s","0","0","0","39","0","0","0","39","39","0","39","0","39","0","39","39","NA","NA","39","0","Sun Sep 25 14:32:14 2022","1500","The main experiment item","yes","NA","KH-Subject-1.osexp","/Users/keelihatcher/Desktop/Tarleton M.D./Advanced Quantitative Methods & Experimental Design","no","mono","no","18","no","white","no","no","768","legacy","39","39","/Users/keelihatcher/Desktop/Tarleton M.D./Advanced Quantitative Methods & Experimental Design/KH-subject-1.csv","legacy","Lentiform Loewenfeld","3.3.12","0","h","s","NA","NA","NA","h","NA","359","59829","NA","NA","NA","359","NA","NA","NA","2","legacy","1024","2","48000","-16","experiment","HHSHH","1","odd","61790","NA","NA","123858","1942","NA","NA","124938","118583","1801","NA","NA","124942","NA","125047","125407","NA","NA","125047","NA","Flanker Task","32","13359","40","yes","1024"
"80.48780487804878","80.48780487804878","333.0487804878049","333.0487804878049","black","legacy","legacy","legacy","0","congruent","uniform","1","undefined","1","h","0","0","0","40","0","0","0","40","40","0","40","0","40","0","40","40","NA","NA","40","0","Sun Sep 25 14:32:14 2022","1500","The main experiment item","yes","NA","KH-Subject-1.osexp","/Users/keelihatcher/Desktop/Tarleton M.D./Advanced Quantitative Methods & Experimental Design","no","mono","no","18","no","white","no","no","768","legacy","40","40","/Users/keelihatcher/Desktop/Tarleton M.D./Advanced Quantitative Methods & Experimental Design/KH-subject-1.csv","legacy","Lentiform Loewenfeld","3.3.12","0","h","s","NA","NA","NA","h","NA","296","59829","NA","NA","NA","296","NA","NA","NA","2","legacy","1024","2","48000","-16","experiment","HHHHH","1","odd","61790","NA","NA","125921","1942","NA","NA","126997","125411","1801","NA","NA","127001","NA","127107","127403","NA","NA","127107","NA","Flanker Task","33","13655","41","yes","1024"
"80.95238095238095","80.95238095238095","332.07142857142856","332.07142857142856","black","legacy","legacy","legacy","0","incongruent","uniform","1","undefined","1","s","0","0","0","41","0","0","0","41","41","0","41","0","41","0","41","41","NA","NA","41","0","Sun Sep 25 14:32:14 2022","1500","The main experiment item","yes","NA","KH-Subject-1.osexp","/Users/keelihatcher/Desktop/Tarleton M.D./Advanced Quantitative Methods & Experimental Design","no","mono","no","18","no","white","no","no","768","legacy","41","41","/Users/keelihatcher/Desktop/Tarleton M.D./Advanced Quantitative Methods & Experimental Design/KH-subject-1.csv","legacy","Lentiform Loewenfeld","3.3.12","0","s","s","NA","NA","NA","s","NA","292","59829","NA","NA","NA","292","NA","NA","NA","2","legacy","1024","2","48000","-16","experiment","HHSHH","1","odd","61790","NA","NA","127408","1942","NA","NA","128489","125411","1801","NA","NA","128492","NA","128598","128891","NA","NA","128597","NA","Flanker Task","34","13947","42","yes","1024"
"79.06976744186046","79.06976744186046","331.93023255813955","331.93023255813955","black","legacy","legacy","legacy","0","incongruent","uniform","0","undefined","0","h","0","0","0","42","0","0","0","42","42","0","42","0","42","0","42","42","NA","NA","42","0","Sun Sep 25 14:32:14 2022","1500","The main experiment item","yes","NA","KH-Subject-1.osexp","/Users/keelihatcher/Desktop/Tarleton M.D./Advanced Quantitative Methods & Experimental Design","no","mono","no","18","no","white","no","no","768","legacy","42","42","/Users/keelihatcher/Desktop/Tarleton M.D./Advanced Quantitative Methods & Experimental Design/KH-subject-1.csv","legacy","Lentiform Loewenfeld","3.3.12","0","s","s","NA","NA","NA","s","NA","326","59829","NA","NA","NA","326","NA","NA","NA","2","legacy","1024","2","48000","-16","experiment","SSHSS","1","odd","61790","NA","NA","128895","1942","NA","NA","129971","125411","1801","NA","NA","129974","NA","130081","130408","NA","NA","130081","NA","Flanker Task","34","14273","43","yes","1024"
"79.54545454545455","79.54545454545455","332.02272727272725","332.02272727272725","black","legacy","legacy","legacy","0","congruent","uniform","1","undefined","1","h","0","0","0","43","0","0","0","43","43","0","43","0","43","0","43","43","NA","NA","43","0","Sun Sep 25 14:32:14 2022","1500","The main experiment item","yes","NA","KH-Subject-1.osexp","/Users/keelihatcher/Desktop/Tarleton M.D./Advanced Quantitative Methods & Experimental Design","no","mono","no","18","no","white","no","no","768","legacy","43","43","/Users/keelihatcher/Desktop/Tarleton M.D./Advanced Quantitative Methods & Experimental Design/KH-subject-1.csv","legacy","Lentiform Loewenfeld","3.3.12","0","h","s","NA","NA","NA","h","NA","336","59829","NA","NA","NA","336","NA","NA","NA","2","legacy","1024","2","48000","-16","experiment","HHHHH","1","odd","61790","NA","NA","130919","1942","NA","NA","131996","130412","1801","NA","NA","132000","NA","132106","132443","NA","NA","132106","NA","Flanker Task","35","14609","44","yes","1024"
"80","80","331.9111111111111","331.9111111111111","black","legacy","legacy","legacy","0","congruent","uniform","1","undefined","1","s","0","0","0","44","0","0","0","44","44","0","44","0","44","0","44","44","NA","NA","44","0","Sun Sep 25 14:32:14 2022","1500","The main experiment item","yes","NA","KH-Subject-1.osexp","/Users/keelihatcher/Desktop/Tarleton M.D./Advanced Quantitative Methods & Experimental Design","no","mono","no","18","no","white","no","no","768","legacy","44","44","/Users/keelihatcher/Desktop/Tarleton M.D./Advanced Quantitative Methods & Experimental Design/KH-subject-1.csv","legacy","Lentiform Loewenfeld","3.3.12","0","s","s","NA","NA","NA","s","NA","327","59829","NA","NA","NA","327","NA","NA","NA","2","legacy","1024","2","48000","-16","experiment","SSSSS","1","odd","61790","NA","NA","132447","1942","NA","NA","133522","130412","1801","NA","NA","133526","NA","133630","133958","NA","NA","133630","NA","Flanker Task","36","14936","45","yes","1024"
"78.26086956521739","78.26086956521739","331.6304347826087","331.6304347826087","black","legacy","legacy","legacy","0","congruent","uniform","0","undefined","0","s","0","0","0","45","0","0","0","45","45","0","45","0","45","0","45","45","NA","NA","45","0","Sun Sep 25 14:32:14 2022","1500","The main experiment item","yes","NA","KH-Subject-1.osexp","/Users/keelihatcher/Desktop/Tarleton M.D./Advanced Quantitative Methods & Experimental Design","no","mono","no","18","no","white","no","no","768","legacy","45","45","/Users/keelihatcher/Desktop/Tarleton M.D./Advanced Quantitative Methods & Experimental Design/KH-subject-1.csv","legacy","Lentiform Loewenfeld","3.3.12","0","h","s","NA","NA","NA","h","NA","319","59829","NA","NA","NA","319","NA","NA","NA","2","legacy","1024","2","48000","-16","experiment","SSSSS","1","odd","61790","NA","NA","133962","1942","NA","NA","135032","130412","1801","NA","NA","135036","NA","135142","135462","NA","NA","135141","NA","Flanker Task","36","15255","46","yes","1024"
"78.72340425531915","78.72340425531915","332.29787234042556","332.29787234042556","black","legacy","legacy","legacy","0","congruent","uniform","1","undefined","1","h","0","0","0","46","0","0","0","46","46","0","46","0","46","0","46","46","NA","NA","46","0","Sun Sep 25 14:32:14 2022","1500","The main experiment item","yes","NA","KH-Subject-1.osexp","/Users/keelihatcher/Desktop/Tarleton M.D./Advanced Quantitative Methods & Experimental Design","no","mono","no","18","no","white","no","no","768","legacy","46","46","/Users/keelihatcher/Desktop/Tarleton M.D./Advanced Quantitative Methods & Experimental Design/KH-subject-1.csv","legacy","Lentiform Loewenfeld","3.3.12","0","h","s","NA","NA","NA","h","NA","363","59829","NA","NA","NA","363","NA","NA","NA","2","legacy","1024","2","48000","-16","experiment","HHHHH","1","odd","61790","NA","NA","135978","1942","NA","NA","137049","135466","1801","NA","NA","137052","NA","137157","137521","NA","NA","137157","NA","Flanker Task","37","15618","47","yes","1024"
"79.16666666666667","79.16666666666667","331.125","331.125","black","legacy","legacy","legacy","0","congruent","uniform","1","undefined","1","s","0","0","0","47","0","0","0","47","47","0","47","0","47","0","47","47","NA","NA","47","0","Sun Sep 25 14:32:14 2022","1500","The main experiment item","yes","NA","KH-Subject-1.osexp","/Users/keelihatcher/Desktop/Tarleton M.D./Advanced Quantitative Methods & Experimental Design","no","mono","no","18","no","white","no","no","768","legacy","47","47","/Users/keelihatcher/Desktop/Tarleton M.D./Advanced Quantitative Methods & Experimental Design/KH-subject-1.csv","legacy","Lentiform Loewenfeld","3.3.12","0","s","s","NA","NA","NA","s","NA","276","59829","NA","NA","NA","276","NA","NA","NA","2","legacy","1024","2","48000","-16","experiment","SSSSS","1","odd","61790","NA","NA","137525","1942","NA","NA","138603","135466","1801","NA","NA","138607","NA","138711","138988","NA","NA","138711","NA","Flanker Task","38","15894","48","yes","1024"
"77.55102040816327","77.55102040816327","331.59183673469386","331.59183673469386","black","legacy","legacy","legacy","0","incongruent","uniform","0","undefined","0","h","0","0","0","48","0","0","0","48","48","0","48","0","48","0","48","48","NA","NA","48","0","Sun Sep 25 14:32:14 2022","1500","The main experiment item","yes","NA","KH-Subject-1.osexp","/Users/keelihatcher/Desktop/Tarleton M.D./Advanced Quantitative Methods & Experimental Design","no","mono","no","18","no","white","no","no","768","legacy","48","48","/Users/keelihatcher/Desktop/Tarleton M.D./Advanced Quantitative Methods & Experimental Design/KH-subject-1.csv","legacy","Lentiform Loewenfeld","3.3.12","0","s","s","NA","NA","NA","s","NA","354","59829","NA","NA","NA","354","NA","NA","NA","2","legacy","1024","2","48000","-16","experiment","SSHSS","1","odd","61790","NA","NA","138992","1942","NA","NA","140068","135466","1801","NA","NA","140072","NA","140177","140531","NA","NA","140177","NA","Flanker Task","38","16248","49","yes","1024"
"78","78","331.86","331.86","black","legacy","legacy","legacy","0","incongruent","uniform","1","undefined","1","h","0","0","0","49","0","0","0","49","49","0","49","0","49","0","49","49","NA","NA","49","0","Sun Sep 25 14:32:14 2022","1500","The main experiment item","yes","NA","KH-Subject-1.osexp","/Users/keelihatcher/Desktop/Tarleton M.D./Advanced Quantitative Methods & Experimental Design","no","mono","no","18","no","white","no","no","768","legacy","49","49","/Users/keelihatcher/Desktop/Tarleton M.D./Advanced Quantitative Methods & Experimental Design/KH-subject-1.csv","legacy","Lentiform Loewenfeld","3.3.12","0","h","s","NA","NA","NA","h","NA","345","59829","NA","NA","NA","345","NA","NA","NA","2","legacy","1024","2","48000","-16","experiment","SSHSS","1","odd","61790","NA","NA","141045","1942","NA","NA","142122","140536","1801","NA","NA","142126","NA","142232","142578","NA","NA","142232","NA","Flanker Task","39","16593","50","yes","1024"
"78.43137254901961","78.43137254901961","335.29411764705884","335.29411764705884","black","legacy","legacy","legacy","0","incongruent","uniform","1","undefined","1","h","0","0","0","50","0","0","0","50","50","0","50","0","50","0","50","50","NA","NA","50","0","Sun Sep 25 14:32:14 2022","1500","The main experiment item","yes","NA","KH-Subject-1.osexp","/Users/keelihatcher/Desktop/Tarleton M.D./Advanced Quantitative Methods & Experimental Design","no","mono","no","18","no","white","no","no","768","legacy","50","50","/Users/keelihatcher/Desktop/Tarleton M.D./Advanced Quantitative Methods & Experimental Design/KH-subject-1.csv","legacy","Lentiform Loewenfeld","3.3.12","0","h","s","NA","NA","NA","h","NA","507","59829","NA","NA","NA","507","NA","NA","NA","2","legacy","1024","2","48000","-16","experiment","SSHSS","1","odd","61790","NA","NA","142582","1942","NA","NA","143655","140536","1801","NA","NA","143659","NA","143764","144272","NA","NA","143764","NA","Flanker Task","40","17100","51","yes","1024"
"78.84615384615384","78.84615384615384","334.7307692307692","334.7307692307692","black","legacy","legacy","legacy","0","congruent","uniform","1","undefined","1","s","0","0","0","51","0","0","0","51","51","0","51","0","51","0","51","51","NA","NA","51","0","Sun Sep 25 14:32:14 2022","1500","The main experiment item","yes","NA","KH-Subject-1.osexp","/Users/keelihatcher/Desktop/Tarleton M.D./Advanced Quantitative Methods & Experimental Design","no","mono","no","18","no","white","no","no","768","legacy","51","51","/Users/keelihatcher/Desktop/Tarleton M.D./Advanced Quantitative Methods & Experimental Design/KH-subject-1.csv","legacy","Lentiform Loewenfeld","3.3.12","0","s","s","NA","NA","NA","s","NA","306","59829","NA","NA","NA","306","NA","NA","NA","2","legacy","1024","2","48000","-16","experiment","SSSSS","1","odd","61790","NA","NA","144276","1942","NA","NA","145353","140536","1801","NA","NA","145357","NA","145462","145769","NA","NA","145462","NA","Flanker Task","41","17406","52","yes","1024"
"79.24528301886792","79.24528301886792","336.24528301886795","336.24528301886795","black","legacy","legacy","legacy","0","incongruent","uniform","1","undefined","1","h","0","0","0","52","0","0","0","52","52","0","52","0","52","0","52","52","NA","NA","52","0","Sun Sep 25 14:32:14 2022","1500","The main experiment item","yes","NA","KH-Subject-1.osexp","/Users/keelihatcher/Desktop/Tarleton M.D./Advanced Quantitative Methods & Experimental Design","no","mono","no","18","no","white","no","no","768","legacy","52","52","/Users/keelihatcher/Desktop/Tarleton M.D./Advanced Quantitative Methods & Experimental Design/KH-subject-1.csv","legacy","Lentiform Loewenfeld","3.3.12","0","h","s","NA","NA","NA","h","NA","415","59829","NA","NA","NA","415","NA","NA","NA","2","legacy","1024","2","48000","-16","experiment","SSHSS","1","odd","61790","NA","NA","145773","1942","NA","NA","146851","140536","1801","NA","NA","146860","NA","146965","147380","NA","NA","146965","NA","Flanker Task","42","17821","53","yes","1024"
"79.62962962962963","79.62962962962963","339.51851851851853","339.51851851851853","black","legacy","legacy","legacy","0","incongruent","uniform","1","undefined","1","s","0","0","0","53","0","0","0","53","53","0","53","0","53","0","53","53","NA","NA","53","0","Sun Sep 25 14:32:14 2022","1500","The main experiment item","yes","NA","KH-Subject-1.osexp","/Users/keelihatcher/Desktop/Tarleton M.D./Advanced Quantitative Methods & Experimental Design","no","mono","no","18","no","white","no","no","768","legacy","53","53","/Users/keelihatcher/Desktop/Tarleton M.D./Advanced Quantitative Methods & Experimental Design/KH-subject-1.csv","legacy","Lentiform Loewenfeld","3.3.12","0","s","s","NA","NA","NA","s","NA","513","59829","NA","NA","NA","513","NA","NA","NA","2","legacy","1024","2","48000","-16","experiment","HHSHH","1","odd","61790","NA","NA","147384","1942","NA","NA","148462","140536","1801","NA","NA","148466","NA","148571","149085","NA","NA","148571","NA","Flanker Task","43","18334","54","yes","1024"
"80","80","339.07272727272726","339.07272727272726","black","legacy","legacy","legacy","0","incongruent","uniform","1","undefined","1","h","0","0","0","54","0","0","0","54","54","0","54","0","54","0","54","54","NA","NA","54","0","Sun Sep 25 14:32:14 2022","1500","The main experiment item","yes","NA","KH-Subject-1.osexp","/Users/keelihatcher/Desktop/Tarleton M.D./Advanced Quantitative Methods & Experimental Design","no","mono","no","18","no","white","no","no","768","legacy","54","54","/Users/keelihatcher/Desktop/Tarleton M.D./Advanced Quantitative Methods & Experimental Design/KH-subject-1.csv","legacy","Lentiform Loewenfeld","3.3.12","0","h","s","NA","NA","NA","h","NA","315","59829","NA","NA","NA","315","NA","NA","NA","2","legacy","1024","2","48000","-16","experiment","SSHSS","1","odd","61790","NA","NA","149089","1942","NA","NA","150168","140536","1801","NA","NA","150172","NA","150278","150594","NA","NA","150278","NA","Flanker Task","44","18649","55","yes","1024"
"78.57142857142857","78.57142857142857","342.10714285714283","342.10714285714283","black","legacy","legacy","legacy","0","congruent","uniform","0","undefined","0","h","0","0","0","55","0","0","0","55","55","0","55","0","55","0","55","55","NA","NA","55","0","Sun Sep 25 14:32:14 2022","1500","The main experiment item","yes","NA","KH-Subject-1.osexp","/Users/keelihatcher/Desktop/Tarleton M.D./Advanced Quantitative Methods & Experimental Design","no","mono","no","18","no","white","no","no","768","legacy","55","55","/Users/keelihatcher/Desktop/Tarleton M.D./Advanced Quantitative Methods & Experimental Design/KH-subject-1.csv","legacy","Lentiform Loewenfeld","3.3.12","0","s","s","NA","NA","NA","s","NA","509","59829","NA","NA","NA","509","NA","NA","NA","2","legacy","1024","2","48000","-16","experiment","HHHHH","1","odd","61790","NA","NA","150598","1942","NA","NA","151671","140536","1801","NA","NA","151675","NA","151780","152290","NA","NA","151780","NA","Flanker Task","44","19158","56","yes","1024"
"77.19298245614036","77.19298245614036","341.57894736842104","341.57894736842104","black","legacy","legacy","legacy","0","incongruent","uniform","0","undefined","0","h","0","0","0","56","0","0","0","56","56","0","56","0","56","0","56","56","NA","NA","56","0","Sun Sep 25 14:32:14 2022","1500","The main experiment item","yes","NA","KH-Subject-1.osexp","/Users/keelihatcher/Desktop/Tarleton M.D./Advanced Quantitative Methods & Experimental Design","no","mono","no","18","no","white","no","no","768","legacy","56","56","/Users/keelihatcher/Desktop/Tarleton M.D./Advanced Quantitative Methods & Experimental Design/KH-subject-1.csv","legacy","Lentiform Loewenfeld","3.3.12","0","s","s","NA","NA","NA","s","NA","312","59829","NA","NA","NA","312","NA","NA","NA","2","legacy","1024","2","48000","-16","experiment","SSHSS","1","odd","61790","NA","NA","152805","1942","NA","NA","153883","152294","1801","NA","NA","153887","NA","153992","154305","NA","NA","153992","NA","Flanker Task","44","19470","57","yes","1024"
"77.58620689655173","77.58620689655173","342.44827586206895","342.44827586206895","black","legacy","legacy","legacy","0","congruent","uniform","1","undefined","1","s","0","0","0","57","0","0","0","57","57","0","57","0","57","0","57","57","NA","NA","57","0","Sun Sep 25 14:32:14 2022","1500","The main experiment item","yes","NA","KH-Subject-1.osexp","/Users/keelihatcher/Desktop/Tarleton M.D./Advanced Quantitative Methods & Experimental Design","no","mono","no","18","no","white","no","no","768","legacy","57","57","/Users/keelihatcher/Desktop/Tarleton M.D./Advanced Quantitative Methods & Experimental Design/KH-subject-1.csv","legacy","Lentiform Loewenfeld","3.3.12","0","s","s","NA","NA","NA","s","NA","392","59829","NA","NA","NA","392","NA","NA","NA","2","legacy","1024","2","48000","-16","experiment","SSSSS","1","odd","61790","NA","NA","154818","1942","NA","NA","155893","154309","1801","NA","NA","155897","NA","156002","156394","NA","NA","156002","NA","Flanker Task","45","19862","58","yes","1024"
"77.96610169491525","77.96610169491525","343.5593220338983","343.5593220338983","black","legacy","legacy","legacy","0","incongruent","uniform","1","undefined","1","s","0","0","0","58","0","0","0","58","58","0","58","0","58","0","58","58","NA","NA","58","0","Sun Sep 25 14:32:14 2022","1500","The main experiment item","yes","NA","KH-Subject-1.osexp","/Users/keelihatcher/Desktop/Tarleton M.D./Advanced Quantitative Methods & Experimental Design","no","mono","no","18","no","white","no","no","768","legacy","58","58","/Users/keelihatcher/Desktop/Tarleton M.D./Advanced Quantitative Methods & Experimental Design/KH-subject-1.csv","legacy","Lentiform Loewenfeld","3.3.12","0","s","s","NA","NA","NA","s","NA","408","59829","NA","NA","NA","408","NA","NA","NA","2","legacy","1024","2","48000","-16","experiment","HHSHH","1","odd","61790","NA","NA","156399","1942","NA","NA","157479","154309","1801","NA","NA","157483","NA","157588","157996","NA","NA","157588","NA","Flanker Task","46","20270","59","yes","1024"
"78.33333333333333","78.33333333333333","343.8333333333333","343.8333333333333","black","legacy","legacy","legacy","0","congruent","uniform","1","undefined","1","s","0","0","0","59","0","0","0","59","59","0","59","0","59","0","59","59","NA","NA","59","0","Sun Sep 25 14:32:14 2022","1500","The main experiment item","yes","NA","KH-Subject-1.osexp","/Users/keelihatcher/Desktop/Tarleton M.D./Advanced Quantitative Methods & Experimental Design","no","mono","no","18","no","white","no","no","768","legacy","59","59","/Users/keelihatcher/Desktop/Tarleton M.D./Advanced Quantitative Methods & Experimental Design/KH-subject-1.csv","legacy","Lentiform Loewenfeld","3.3.12","0","s","s","NA","NA","NA","s","NA","360","59829","NA","NA","NA","360","NA","NA","NA","2","legacy","1024","2","48000","-16","experiment","SSSSS","1","odd","61790","NA","NA","158001","1942","NA","NA","159073","154309","1801","NA","NA","159077","NA","159181","159541","NA","NA","159181","NA","Flanker Task","47","20630","60","yes","1024"
"78.68852459016394","78.68852459016394","345.62295081967216","345.62295081967216","black","legacy","legacy","legacy","0","incongruent","uniform","1","undefined","1","s","0","0","0","60","0","0","0","60","60","0","60","0","60","0","60","60","NA","NA","60","0","Sun Sep 25 14:32:14 2022","1500","The main experiment item","yes","NA","KH-Subject-1.osexp","/Users/keelihatcher/Desktop/Tarleton M.D./Advanced Quantitative Methods & Experimental Design","no","mono","no","18","no","white","no","no","768","legacy","60","60","/Users/keelihatcher/Desktop/Tarleton M.D./Advanced Quantitative Methods & Experimental Design/KH-subject-1.csv","legacy","Lentiform Loewenfeld","3.3.12","0","s","s","NA","NA","NA","s","NA","453","59829","NA","NA","NA","453","NA","NA","NA","2","legacy","1024","2","48000","-16","experiment","HHSHH","1","odd","61790","NA","NA","159546","1942","NA","NA","160624","154309","1801","NA","NA","160628","NA","160733","161187","NA","NA","160733","NA","Flanker Task","48","21083","61","yes","1024"
"79.03225806451613","79.03225806451613","346.2741935483871","346.2741935483871","black","legacy","legacy","legacy","0","incongruent","uniform","1","undefined","1","s","0","0","0","61","0","0","0","61","61","0","61","0","61","0","61","61","NA","NA","61","0","Sun Sep 25 14:32:14 2022","1500","The main experiment item","yes","NA","KH-Subject-1.osexp","/Users/keelihatcher/Desktop/Tarleton M.D./Advanced Quantitative Methods & Experimental Design","no","mono","no","18","no","white","no","no","768","legacy","61","61","/Users/keelihatcher/Desktop/Tarleton M.D./Advanced Quantitative Methods & Experimental Design/KH-subject-1.csv","legacy","Lentiform Loewenfeld","3.3.12","0","s","s","NA","NA","NA","s","NA","386","59829","NA","NA","NA","386","NA","NA","NA","2","legacy","1024","2","48000","-16","experiment","HHSHH","1","odd","61790","NA","NA","161191","1942","NA","NA","162257","154309","1801","NA","NA","162261","NA","162366","162753","NA","NA","162366","NA","Flanker Task","49","21469","62","yes","1024"
"79.36507936507937","79.36507936507937","347.1587301587302","347.1587301587302","black","legacy","legacy","legacy","0","congruent","uniform","1","undefined","1","h","0","0","0","62","0","0","0","62","62","0","62","0","62","0","62","62","NA","NA","62","0","Sun Sep 25 14:32:14 2022","1500","The main experiment item","yes","NA","KH-Subject-1.osexp","/Users/keelihatcher/Desktop/Tarleton M.D./Advanced Quantitative Methods & Experimental Design","no","mono","no","18","no","white","no","no","768","legacy","62","62","/Users/keelihatcher/Desktop/Tarleton M.D./Advanced Quantitative Methods & Experimental Design/KH-subject-1.csv","legacy","Lentiform Loewenfeld","3.3.12","0","h","s","NA","NA","NA","h","NA","402","59829","NA","NA","NA","402","NA","NA","NA","2","legacy","1024","2","48000","-16","experiment","HHHHH","1","odd","61790","NA","NA","162757","1942","NA","NA","163829","154309","1801","NA","NA","163833","NA","163938","164341","NA","NA","163938","NA","Flanker Task","50","21871","63","yes","1024"
"79.6875","79.6875","347.90625","347.90625","black","legacy","legacy","legacy","0","incongruent","uniform","1","undefined","1","h","0","0","0","63","0","0","0","63","63","0","63","0","63","0","63","63","NA","NA","63","0","Sun Sep 25 14:32:14 2022","1500","The main experiment item","yes","NA","KH-Subject-1.osexp","/Users/keelihatcher/Desktop/Tarleton M.D./Advanced Quantitative Methods & Experimental Design","no","mono","no","18","no","white","no","no","768","legacy","63","63","/Users/keelihatcher/Desktop/Tarleton M.D./Advanced Quantitative Methods & Experimental Design/KH-subject-1.csv","legacy","Lentiform Loewenfeld","3.3.12","0","h","s","NA","NA","NA","h","NA","395","59829","NA","NA","NA","395","NA","NA","NA","2","legacy","1024","2","48000","-16","experiment","SSHSS","1","odd","61790","NA","NA","164345","1942","NA","NA","165419","154309","1801","NA","NA","165423","NA","165528","165924","NA","NA","165528","NA","Flanker Task","51","22266","64","yes","1024"
"78.46153846153847","78.46153846153847","347.18461538461537","347.18461538461537","black","legacy","legacy","legacy","0","congruent","uniform","0","undefined","0","h","0","0","0","64","0","0","0","64","64","0","64","0","64","0","64","64","NA","NA","64","0","Sun Sep 25 14:32:14 2022","1500","The main experiment item","yes","NA","KH-Subject-1.osexp","/Users/keelihatcher/Desktop/Tarleton M.D./Advanced Quantitative Methods & Experimental Design","no","mono","no","18","no","white","no","no","768","legacy","64","64","/Users/keelihatcher/Desktop/Tarleton M.D./Advanced Quantitative Methods & Experimental Design/KH-subject-1.csv","legacy","Lentiform Loewenfeld","3.3.12","0","s","s","NA","NA","NA","s","NA","301","59829","NA","NA","NA","301","NA","NA","NA","2","legacy","1024","2","48000","-16","experiment","HHHHH","1","odd","61790","NA","NA","165928","1942","NA","NA","167004","154309","1801","NA","NA","167008","NA","167113","167415","NA","NA","167113","NA","Flanker Task","51","22567","65","yes","1024"
"78.78787878787878","78.78787878787878","347.8333333333333","347.8333333333333","black","legacy","legacy","legacy","0","congruent","uniform","1","undefined","1","h","0","0","0","65","0","0","0","65","65","0","65","0","65","0","65","65","NA","NA","65","0","Sun Sep 25 14:32:14 2022","1500","The main experiment item","yes","NA","KH-Subject-1.osexp","/Users/keelihatcher/Desktop/Tarleton M.D./Advanced Quantitative Methods & Experimental Design","no","mono","no","18","no","white","no","no","768","legacy","65","65","/Users/keelihatcher/Desktop/Tarleton M.D./Advanced Quantitative Methods & Experimental Design/KH-subject-1.csv","legacy","Lentiform Loewenfeld","3.3.12","0","h","s","NA","NA","NA","h","NA","390","59829","NA","NA","NA","390","NA","NA","NA","2","legacy","1024","2","48000","-16","experiment","HHHHH","1","odd","61790","NA","NA","167928","1942","NA","NA","169006","167419","1801","NA","NA","169010","NA","169115","169506","NA","NA","169115","NA","Flanker Task","52","22957","66","yes","1024"
"79.1044776119403","79.1044776119403","347.25373134328356","347.25373134328356","black","legacy","legacy","legacy","0","congruent","uniform","1","undefined","1","s","0","0","0","66","0","0","0","66","66","0","66","0","66","0","66","66","NA","NA","66","0","Sun Sep 25 14:32:14 2022","1500","The main experiment item","yes","NA","KH-Subject-1.osexp","/Users/keelihatcher/Desktop/Tarleton M.D./Advanced Quantitative Methods & Experimental Design","no","mono","no","18","no","white","no","no","768","legacy","66","66","/Users/keelihatcher/Desktop/Tarleton M.D./Advanced Quantitative Methods & Experimental Design/KH-subject-1.csv","legacy","Lentiform Loewenfeld","3.3.12","0","s","s","NA","NA","NA","s","NA","309","59829","NA","NA","NA","309","NA","NA","NA","2","legacy","1024","2","48000","-16","experiment","SSSSS","1","odd","61790","NA","NA","169510","1942","NA","NA","170574","167419","1801","NA","NA","170578","NA","170683","170993","NA","NA","170683","NA","Flanker Task","53","23266","67","yes","1024"
"79.41176470588235","79.41176470588235","347.97058823529414","347.97058823529414","black","legacy","legacy","legacy","0","congruent","uniform","1","undefined","1","s","0","0","0","67","0","0","0","67","67","0","67","0","67","0","67","67","NA","NA","67","0","Sun Sep 25 14:32:14 2022","1500","The main experiment item","yes","NA","KH-Subject-1.osexp","/Users/keelihatcher/Desktop/Tarleton M.D./Advanced Quantitative Methods & Experimental Design","no","mono","no","18","no","white","no","no","768","legacy","67","67","/Users/keelihatcher/Desktop/Tarleton M.D./Advanced Quantitative Methods & Experimental Design/KH-subject-1.csv","legacy","Lentiform Loewenfeld","3.3.12","0","s","s","NA","NA","NA","s","NA","396","59829","NA","NA","NA","396","NA","NA","NA","2","legacy","1024","2","48000","-16","experiment","SSSSS","1","odd","61790","NA","NA","170997","1942","NA","NA","172074","167419","1801","NA","NA","172078","NA","172183","172579","NA","NA","172183","NA","Flanker Task","54","23662","68","yes","1024"
"79.71014492753623","79.71014492753623","347.60869565217394","347.60869565217394","black","legacy","legacy","legacy","0","congruent","uniform","1","undefined","1","h","0","0","0","68","0","0","0","68","68","0","68","0","68","0","68","68","NA","NA","68","0","Sun Sep 25 14:32:14 2022","1500","The main experiment item","yes","NA","KH-Subject-1.osexp","/Users/keelihatcher/Desktop/Tarleton M.D./Advanced Quantitative Methods & Experimental Design","no","mono","no","18","no","white","no","no","768","legacy","68","68","/Users/keelihatcher/Desktop/Tarleton M.D./Advanced Quantitative Methods & Experimental Design/KH-subject-1.csv","legacy","Lentiform Loewenfeld","3.3.12","0","h","s","NA","NA","NA","h","NA","323","59829","NA","NA","NA","323","NA","NA","NA","2","legacy","1024","2","48000","-16","experiment","HHHHH","1","odd","61790","NA","NA","172583","1942","NA","NA","173662","167419","1801","NA","NA","173666","NA","173771","174094","NA","NA","173771","NA","Flanker Task","55","23985","69","yes","1024"
"80","80","346.8857142857143","346.8857142857143","black","legacy","legacy","legacy","0","incongruent","uniform","1","undefined","1","s","0","0","0","69","0","0","0","69","69","0","69","0","69","0","69","69","NA","NA","69","0","Sun Sep 25 14:32:14 2022","1500","The main experiment item","yes","NA","KH-Subject-1.osexp","/Users/keelihatcher/Desktop/Tarleton M.D./Advanced Quantitative Methods & Experimental Design","no","mono","no","18","no","white","no","no","768","legacy","69","69","/Users/keelihatcher/Desktop/Tarleton M.D./Advanced Quantitative Methods & Experimental Design/KH-subject-1.csv","legacy","Lentiform Loewenfeld","3.3.12","0","s","s","NA","NA","NA","s","NA","297","59829","NA","NA","NA","297","NA","NA","NA","2","legacy","1024","2","48000","-16","experiment","HHSHH","1","odd","61790","NA","NA","174099","1942","NA","NA","175178","167419","1801","NA","NA","175182","NA","175288","175586","NA","NA","175288","NA","Flanker Task","56","24282","70","yes","1024"
"80.28169014084507","80.28169014084507","347.2676056338028","347.2676056338028","black","legacy","legacy","legacy","0","congruent","uniform","1","undefined","1","s","0","0","0","70","0","0","0","70","70","0","70","0","70","0","70","70","NA","NA","70","0","Sun Sep 25 14:32:14 2022","1500","The main experiment item","yes","NA","KH-Subject-1.osexp","/Users/keelihatcher/Desktop/Tarleton M.D./Advanced Quantitative Methods & Experimental Design","no","mono","no","18","no","white","no","no","768","legacy","70","70","/Users/keelihatcher/Desktop/Tarleton M.D./Advanced Quantitative Methods & Experimental Design/KH-subject-1.csv","legacy","Lentiform Loewenfeld","3.3.12","0","s","s","NA","NA","NA","s","NA","374","59829","NA","NA","NA","374","NA","NA","NA","2","legacy","1024","2","48000","-16","experiment","SSSSS","1","odd","61790","NA","NA","175590","1942","NA","NA","176659","167419","1801","NA","NA","176663","NA","176769","177144","NA","NA","176769","NA","Flanker Task","57","24656","71","yes","1024"
"79.16666666666667","79.16666666666667","347.94444444444446","347.94444444444446","black","legacy","legacy","legacy","0","incongruent","uniform","0","undefined","0","h","0","0","0","71","0","0","0","71","71","0","71","0","71","0","71","71","NA","NA","71","0","Sun Sep 25 14:32:14 2022","1500","The main experiment item","yes","NA","KH-Subject-1.osexp","/Users/keelihatcher/Desktop/Tarleton M.D./Advanced Quantitative Methods & Experimental Design","no","mono","no","18","no","white","no","no","768","legacy","71","71","/Users/keelihatcher/Desktop/Tarleton M.D./Advanced Quantitative Methods & Experimental Design/KH-subject-1.csv","legacy","Lentiform Loewenfeld","3.3.12","0","s","s","NA","NA","NA","s","NA","396","59829","NA","NA","NA","396","NA","NA","NA","2","legacy","1024","2","48000","-16","experiment","SSHSS","1","odd","61790","NA","NA","177147","1942","NA","NA","178213","167419","1801","NA","NA","178216","NA","178321","178718","NA","NA","178321","NA","Flanker Task","57","25052","72","yes","1024"
"79.45205479452055","79.45205479452055","347.8493150684931","347.8493150684931","black","legacy","legacy","legacy","0","congruent","uniform","1","undefined","1","h","0","0","0","72","0","0","0","72","72","0","72","0","72","0","72","72","NA","NA","72","0","Sun Sep 25 14:32:14 2022","1500","The main experiment item","yes","NA","KH-Subject-1.osexp","/Users/keelihatcher/Desktop/Tarleton M.D./Advanced Quantitative Methods & Experimental Design","no","mono","no","18","no","white","no","no","768","legacy","72","72","/Users/keelihatcher/Desktop/Tarleton M.D./Advanced Quantitative Methods & Experimental Design/KH-subject-1.csv","legacy","Lentiform Loewenfeld","3.3.12","0","h","s","NA","NA","NA","h","NA","341","59829","NA","NA","NA","341","NA","NA","NA","2","legacy","1024","2","48000","-16","experiment","HHHHH","1","odd","61790","NA","NA","179231","1942","NA","NA","180307","178722","1801","NA","NA","180311","NA","180417","180758","NA","NA","180417","NA","Flanker Task","58","25393","73","yes","1024"
"79.72972972972973","79.72972972972973","348.72972972972974","348.72972972972974","black","legacy","legacy","legacy","0","congruent","uniform","1","undefined","1","s","0","0","0","73","0","0","0","73","73","0","73","0","73","0","73","73","NA","NA","73","0","Sun Sep 25 14:32:14 2022","1500","The main experiment item","yes","NA","KH-Subject-1.osexp","/Users/keelihatcher/Desktop/Tarleton M.D./Advanced Quantitative Methods & Experimental Design","no","mono","no","18","no","white","no","no","768","legacy","73","73","/Users/keelihatcher/Desktop/Tarleton M.D./Advanced Quantitative Methods & Experimental Design/KH-subject-1.csv","legacy","Lentiform Loewenfeld","3.3.12","0","s","s","NA","NA","NA","s","NA","413","59829","NA","NA","NA","413","NA","NA","NA","2","legacy","1024","2","48000","-16","experiment","SSSSS","1","odd","61790","NA","NA","180763","1942","NA","NA","181839","178722","1801","NA","NA","181843","NA","181948","182361","NA","NA","181948","NA","Flanker Task","59","25806","74","yes","1024"
"80","80","348.52","348.52","black","legacy","legacy","legacy","0","congruent","uniform","1","undefined","1","h","0","0","0","74","0","0","0","74","74","0","74","0","74","0","74","74","NA","NA","74","0","Sun Sep 25 14:32:14 2022","1500","The main experiment item","yes","NA","KH-Subject-1.osexp","/Users/keelihatcher/Desktop/Tarleton M.D./Advanced Quantitative Methods & Experimental Design","no","mono","no","18","no","white","no","no","768","legacy","74","74","/Users/keelihatcher/Desktop/Tarleton M.D./Advanced Quantitative Methods & Experimental Design/KH-subject-1.csv","legacy","Lentiform Loewenfeld","3.3.12","0","h","s","NA","NA","NA","h","NA","333","59829","NA","NA","NA","333","NA","NA","NA","2","legacy","1024","2","48000","-16","experiment","HHHHH","1","odd","61790","NA","NA","182366","1942","NA","NA","183443","178722","1801","NA","NA","183447","NA","183552","183886","NA","NA","183552","NA","Flanker Task","60","26139","75","yes","1024"
"80.26315789473684","80.26315789473684","348.7763157894737","348.7763157894737","black","legacy","legacy","legacy","0","congruent","uniform","1","undefined","1","h","0","0","0","75","0","0","0","75","75","0","75","0","75","0","75","75","NA","NA","75","0","Sun Sep 25 14:32:14 2022","1500","The main experiment item","yes","NA","KH-Subject-1.osexp","/Users/keelihatcher/Desktop/Tarleton M.D./Advanced Quantitative Methods & Experimental Design","no","mono","no","18","no","white","no","no","768","legacy","75","75","/Users/keelihatcher/Desktop/Tarleton M.D./Advanced Quantitative Methods & Experimental Design/KH-subject-1.csv","legacy","Lentiform Loewenfeld","3.3.12","0","h","s","NA","NA","NA","h","NA","368","59829","NA","NA","NA","368","NA","NA","NA","2","legacy","1024","2","48000","-16","experiment","HHHHH","1","odd","61790","NA","NA","183890","1942","NA","NA","184976","178722","1801","NA","NA","184980","NA","185085","185454","NA","NA","185085","NA","Flanker Task","61","26507","76","yes","1024"
"80.51948051948052","80.51948051948052","349.42857142857144","349.42857142857144","black","legacy","legacy","legacy","0","congruent","uniform","1","undefined","1","h","0","0","0","76","0","0","0","76","76","0","76","0","76","0","76","76","NA","NA","76","0","Sun Sep 25 14:32:14 2022","1500","The main experiment item","yes","NA","KH-Subject-1.osexp","/Users/keelihatcher/Desktop/Tarleton M.D./Advanced Quantitative Methods & Experimental Design","no","mono","no","18","no","white","no","no","768","legacy","76","76","/Users/keelihatcher/Desktop/Tarleton M.D./Advanced Quantitative Methods & Experimental Design/KH-subject-1.csv","legacy","Lentiform Loewenfeld","3.3.12","0","h","s","NA","NA","NA","h","NA","399","59829","NA","NA","NA","399","NA","NA","NA","2","legacy","1024","2","48000","-16","experiment","HHHHH","1","odd","61790","NA","NA","185458","1942","NA","NA","186527","178722","1801","NA","NA","186530","NA","186635","187035","NA","NA","186635","NA","Flanker Task","62","26906","77","yes","1024"
"80.76923076923077","80.76923076923077","352.3076923076923","352.3076923076923","black","legacy","legacy","legacy","0","incongruent","uniform","1","undefined","1","s","0","0","0","77","0","0","0","77","77","0","77","0","77","0","77","77","NA","NA","77","0","Sun Sep 25 14:32:14 2022","1500","The main experiment item","yes","NA","KH-Subject-1.osexp","/Users/keelihatcher/Desktop/Tarleton M.D./Advanced Quantitative Methods & Experimental Design","no","mono","no","18","no","white","no","no","768","legacy","77","77","/Users/keelihatcher/Desktop/Tarleton M.D./Advanced Quantitative Methods & Experimental Design/KH-subject-1.csv","legacy","Lentiform Loewenfeld","3.3.12","0","s","s","NA","NA","NA","s","NA","574","59829","NA","NA","NA","574","NA","NA","NA","2","legacy","1024","2","48000","-16","experiment","HHSHH","1","odd","61790","NA","NA","187039","1942","NA","NA","188115","178722","1801","NA","NA","188119","NA","188224","188799","NA","NA","188224","NA","Flanker Task","63","27480","78","yes","1024"
"79.74683544303798","79.74683544303798","352.253164556962","352.253164556962","black","legacy","legacy","legacy","0","incongruent","uniform","0","undefined","0","s","0","0","0","78","0","0","0","78","78","0","78","0","78","0","78","78","NA","NA","78","0","Sun Sep 25 14:32:14 2022","1500","The main experiment item","yes","NA","KH-Subject-1.osexp","/Users/keelihatcher/Desktop/Tarleton M.D./Advanced Quantitative Methods & Experimental Design","no","mono","no","18","no","white","no","no","768","legacy","78","78","/Users/keelihatcher/Desktop/Tarleton M.D./Advanced Quantitative Methods & Experimental Design/KH-subject-1.csv","legacy","Lentiform Loewenfeld","3.3.12","0","h","s","NA","NA","NA","h","NA","348","59829","NA","NA","NA","348","NA","NA","NA","2","legacy","1024","2","48000","-16","experiment","HHSHH","1","odd","61790","NA","NA","188803","1942","NA","NA","189871","178722","1801","NA","NA","189874","NA","189979","190328","NA","NA","189979","NA","Flanker Task","63","27828","79","yes","1024"
"80","80","352.4375","352.4375","black","legacy","legacy","legacy","0","congruent","uniform","1","undefined","1","h","0","0","0","79","0","0","0","79","79","0","79","0","79","0","79","79","NA","NA","79","0","Sun Sep 25 14:32:14 2022","1500","The main experiment item","yes","NA","KH-Subject-1.osexp","/Users/keelihatcher/Desktop/Tarleton M.D./Advanced Quantitative Methods & Experimental Design","no","mono","no","18","no","white","no","no","768","legacy","79","79","/Users/keelihatcher/Desktop/Tarleton M.D./Advanced Quantitative Methods & Experimental Design/KH-subject-1.csv","legacy","Lentiform Loewenfeld","3.3.12","0","h","s","NA","NA","NA","h","NA","367","59829","NA","NA","NA","367","NA","NA","NA","2","legacy","1024","2","48000","-16","experiment","HHHHH","1","odd","61790","NA","NA","190839","1942","NA","NA","191917","190332","1801","NA","NA","191921","NA","192026","192394","NA","NA","192026","NA","Flanker Task","64","28195","80","yes","1024"
"80.24691358024691","80.24691358024691","353.1358024691358","353.1358024691358","black","legacy","legacy","legacy","0","congruent","uniform","1","undefined","1","h","0","0","0","80","0","0","0","80","80","0","80","0","80","0","80","80","NA","NA","80","0","Sun Sep 25 14:32:14 2022","600","The main experiment item","yes","NA","KH-Subject-1.osexp","/Users/keelihatcher/Desktop/Tarleton M.D./Advanced Quantitative Methods & Experimental Design","no","mono","no","18","no","white","no","no","768","legacy","0","79","/Users/keelihatcher/Desktop/Tarleton M.D./Advanced Quantitative Methods & Experimental Design/KH-subject-1.csv","legacy","Lentiform Loewenfeld","3.3.12","0","h","s","h","NA","NA","h","NA","409","59829","62487","NA","NA","409","NA","NA","NA","2","legacy","1024","2","48000","-16","experiment","HHHHH","1","odd","61790","255923","NA","192398","1942","193435","NA","255963","190332","1801","NA","NA","255966","NA","256070","256480","NA","NA","256070","NA","Flanker Task","65","28604","81","yes","1024"
"80.48780487804878","80.48780487804878","352.5365853658537","352.5365853658537","black","legacy","legacy","legacy","0","incongruent","uniform","1","undefined","1","s","0","0","0","81","0","0","0","81","81","0","81","0","81","0","81","81","NA","NA","81","0","Sun Sep 25 14:32:14 2022","600","The main experiment item","yes","NA","KH-Subject-1.osexp","/Users/keelihatcher/Desktop/Tarleton M.D./Advanced Quantitative Methods & Experimental Design","no","mono","no","18","no","white","no","no","768","legacy","1","79","/Users/keelihatcher/Desktop/Tarleton M.D./Advanced Quantitative Methods & Experimental Design/KH-subject-1.csv","legacy","Lentiform Loewenfeld","3.3.12","0","s","s","h","NA","NA","s","NA","304","59829","62487","NA","NA","304","NA","NA","NA","2","legacy","1024","2","48000","-16","experiment","HHSHH","1","odd","61790","255923","NA","256485","1942","193435","NA","257565","190332","1801","NA","NA","257569","NA","257674","257979","NA","NA","257674","NA","Flanker Task","66","28908","82","yes","1024"
"80.72289156626506","80.72289156626506","352.34939759036143","352.34939759036143","black","legacy","legacy","legacy","0","congruent","uniform","1","undefined","1","h","0","0","0","82","0","0","0","82","82","0","82","0","82","0","82","82","NA","NA","82","0","Sun Sep 25 14:32:14 2022","600","The main experiment item","yes","NA","KH-Subject-1.osexp","/Users/keelihatcher/Desktop/Tarleton M.D./Advanced Quantitative Methods & Experimental Design","no","mono","no","18","no","white","no","no","768","legacy","2","79","/Users/keelihatcher/Desktop/Tarleton M.D./Advanced Quantitative Methods & Experimental Design/KH-subject-1.csv","legacy","Lentiform Loewenfeld","3.3.12","0","h","s","h","NA","NA","h","NA","337","59829","62487","NA","NA","337","NA","NA","NA","2","legacy","1024","2","48000","-16","experiment","HHHHH","1","odd","61790","255923","NA","257984","1942","193435","NA","259063","190332","1801","NA","NA","259067","NA","259171","259509","NA","NA","259171","NA","Flanker Task","67","29245","83","yes","1024"
"80.95238095238095","80.95238095238095","353.3095238095238","353.3095238095238","black","legacy","legacy","legacy","0","incongruent","uniform","1","undefined","1","s","0","0","0","83","0","0","0","83","83","0","83","0","83","0","83","83","NA","NA","83","0","Sun Sep 25 14:32:14 2022","600","The main experiment item","yes","NA","KH-Subject-1.osexp","/Users/keelihatcher/Desktop/Tarleton M.D./Advanced Quantitative Methods & Experimental Design","no","mono","no","18","no","white","no","no","768","legacy","3","79","/Users/keelihatcher/Desktop/Tarleton M.D./Advanced Quantitative Methods & Experimental Design/KH-subject-1.csv","legacy","Lentiform Loewenfeld","3.3.12","0","s","s","h","NA","NA","s","NA","433","59829","62487","NA","NA","433","NA","NA","NA","2","legacy","1024","2","48000","-16","experiment","HHSHH","1","odd","61790","255923","NA","259512","1942","193435","NA","260594","190332","1801","NA","NA","260598","NA","260703","261137","NA","NA","260703","NA","Flanker Task","68","29678","84","yes","1024"
"81.17647058823529","81.17647058823529","354.1764705882353","354.1764705882353","black","legacy","legacy","legacy","0","incongruent","uniform","1","undefined","1","h","0","0","0","84","0","0","0","84","84","0","84","0","84","0","84","84","NA","NA","84","0","Sun Sep 25 14:32:14 2022","600","The main experiment item","yes","NA","KH-Subject-1.osexp","/Users/keelihatcher/Desktop/Tarleton M.D./Advanced Quantitative Methods & Experimental Design","no","mono","no","18","no","white","no","no","768","legacy","4","79","/Users/keelihatcher/Desktop/Tarleton M.D./Advanced Quantitative Methods & Experimental Design/KH-subject-1.csv","legacy","Lentiform Loewenfeld","3.3.12","0","h","s","h","NA","NA","h","NA","427","59829","62487","NA","NA","427","NA","NA","NA","2","legacy","1024","2","48000","-16","experiment","SSHSS","1","odd","61790","255923","NA","261141","1942","193435","NA","262220","190332","1801","NA","NA","262223","NA","262328","262756","NA","NA","262328","NA","Flanker Task","69","30105","85","yes","1024"
"81.3953488372093","81.3953488372093","354.2906976744186","354.2906976744186","black","legacy","legacy","legacy","0","incongruent","uniform","1","undefined","1","h","0","0","0","85","0","0","0","85","85","0","85","0","85","0","85","85","NA","NA","85","0","Sun Sep 25 14:32:14 2022","600","The main experiment item","yes","NA","KH-Subject-1.osexp","/Users/keelihatcher/Desktop/Tarleton M.D./Advanced Quantitative Methods & Experimental Design","no","mono","no","18","no","white","no","no","768","legacy","5","79","/Users/keelihatcher/Desktop/Tarleton M.D./Advanced Quantitative Methods & Experimental Design/KH-subject-1.csv","legacy","Lentiform Loewenfeld","3.3.12","0","h","s","h","NA","NA","h","NA","364","59829","62487","NA","NA","364","NA","NA","NA","2","legacy","1024","2","48000","-16","experiment","SSHSS","1","odd","61790","255923","NA","262760","1942","193435","NA","263842","190332","1801","NA","NA","263846","NA","263951","264316","NA","NA","263951","NA","Flanker Task","70","30469","86","yes","1024"
"81.60919540229885","81.60919540229885","355.42528735632186","355.42528735632186","black","legacy","legacy","legacy","0","incongruent","uniform","1","undefined","1","h","0","0","0","86","0","0","0","86","86","0","86","0","86","0","86","86","NA","NA","86","0","Sun Sep 25 14:32:14 2022","600","The main experiment item","yes","NA","KH-Subject-1.osexp","/Users/keelihatcher/Desktop/Tarleton M.D./Advanced Quantitative Methods & Experimental Design","no","mono","no","18","no","white","no","no","768","legacy","6","79","/Users/keelihatcher/Desktop/Tarleton M.D./Advanced Quantitative Methods & Experimental Design/KH-subject-1.csv","legacy","Lentiform Loewenfeld","3.3.12","0","h","s","h","NA","NA","h","NA","453","59829","62487","NA","NA","453","NA","NA","NA","2","legacy","1024","2","48000","-16","experiment","SSHSS","1","odd","61790","255923","NA","264320","1942","193435","NA","265382","190332","1801","NA","NA","265385","NA","265490","265944","NA","NA","265490","NA","Flanker Task","71","30922","87","yes","1024"
"81.81818181818181","81.81818181818181","355.29545454545456","355.29545454545456","black","legacy","legacy","legacy","0","incongruent","uniform","1","undefined","1","h","0","0","0","87","0","0","0","87","87","0","87","0","87","0","87","87","NA","NA","87","0","Sun Sep 25 14:32:14 2022","600","The main experiment item","yes","NA","KH-Subject-1.osexp","/Users/keelihatcher/Desktop/Tarleton M.D./Advanced Quantitative Methods & Experimental Design","no","mono","no","18","no","white","no","no","768","legacy","7","79","/Users/keelihatcher/Desktop/Tarleton M.D./Advanced Quantitative Methods & Experimental Design/KH-subject-1.csv","legacy","Lentiform Loewenfeld","3.3.12","0","h","s","h","NA","NA","h","NA","344","59829","62487","NA","NA","344","NA","NA","NA","2","legacy","1024","2","48000","-16","experiment","SSHSS","1","odd","61790","255923","NA","265948","1942","193435","NA","267026","190332","1801","NA","NA","267030","NA","267136","267481","NA","NA","267136","NA","Flanker Task","72","31266","88","yes","1024"
"82.02247191011236","82.02247191011236","354.7303370786517","354.7303370786517","black","legacy","legacy","legacy","0","congruent","uniform","1","undefined","1","s","0","0","0","88","0","0","0","88","88","0","88","0","88","0","88","88","NA","NA","88","0","Sun Sep 25 14:32:14 2022","600","The main experiment item","yes","NA","KH-Subject-1.osexp","/Users/keelihatcher/Desktop/Tarleton M.D./Advanced Quantitative Methods & Experimental Design","no","mono","no","18","no","white","no","no","768","legacy","8","79","/Users/keelihatcher/Desktop/Tarleton M.D./Advanced Quantitative Methods & Experimental Design/KH-subject-1.csv","legacy","Lentiform Loewenfeld","3.3.12","0","s","s","h","NA","NA","s","NA","305","59829","62487","NA","NA","305","NA","NA","NA","2","legacy","1024","2","48000","-16","experiment","SSSSS","1","odd","61790","255923","NA","267484","1942","193435","NA","268562","190332","1801","NA","NA","268566","NA","268671","268977","NA","NA","268671","NA","Flanker Task","73","31571","89","yes","1024"
"82.22222222222223","82.22222222222223","354.68888888888887","354.68888888888887","black","legacy","legacy","legacy","0","congruent","uniform","1","undefined","1","h","0","0","0","89","0","0","0","89","89","0","89","0","89","0","89","89","NA","NA","89","0","Sun Sep 25 14:32:14 2022","600","The main experiment item","yes","NA","KH-Subject-1.osexp","/Users/keelihatcher/Desktop/Tarleton M.D./Advanced Quantitative Methods & Experimental Design","no","mono","no","18","no","white","no","no","768","legacy","9","79","/Users/keelihatcher/Desktop/Tarleton M.D./Advanced Quantitative Methods & Experimental Design/KH-subject-1.csv","legacy","Lentiform Loewenfeld","3.3.12","0","h","s","h","NA","NA","h","NA","351","59829","62487","NA","NA","351","NA","NA","NA","2","legacy","1024","2","48000","-16","experiment","HHHHH","1","odd","61790","255923","NA","268981","1942","193435","NA","270063","190332","1801","NA","NA","270067","NA","270173","270524","NA","NA","270173","NA","Flanker Task","74","31922","90","yes","1024"
"82.41758241758242","82.41758241758242","354.8131868131868","354.8131868131868","black","legacy","legacy","legacy","0","incongruent","uniform","1","undefined","1","s","0","0","0","90","0","0","0","90","90","0","90","0","90","0","90","90","NA","NA","90","0","Sun Sep 25 14:32:14 2022","600","The main experiment item","yes","NA","KH-Subject-1.osexp","/Users/keelihatcher/Desktop/Tarleton M.D./Advanced Quantitative Methods & Experimental Design","no","mono","no","18","no","white","no","no","768","legacy","10","79","/Users/keelihatcher/Desktop/Tarleton M.D./Advanced Quantitative Methods & Experimental Design/KH-subject-1.csv","legacy","Lentiform Loewenfeld","3.3.12","0","s","s","h","NA","NA","s","NA","366","59829","62487","NA","NA","366","NA","NA","NA","2","legacy","1024","2","48000","-16","experiment","HHSHH","1","odd","61790","255923","NA","270529","1942","193435","NA","271602","190332","1801","NA","NA","271606","NA","271711","272078","NA","NA","271711","NA","Flanker Task","75","32288","91","yes","1024"
"82.6086956521739","82.6086956521739","355.1195652173913","355.1195652173913","black","legacy","legacy","legacy","0","congruent","uniform","1","undefined","1","s","0","0","0","91","0","0","0","91","91","0","91","0","91","0","91","91","NA","NA","91","0","Sun Sep 25 14:32:14 2022","600","The main experiment item","yes","NA","KH-Subject-1.osexp","/Users/keelihatcher/Desktop/Tarleton M.D./Advanced Quantitative Methods & Experimental Design","no","mono","no","18","no","white","no","no","768","legacy","11","79","/Users/keelihatcher/Desktop/Tarleton M.D./Advanced Quantitative Methods & Experimental Design/KH-subject-1.csv","legacy","Lentiform Loewenfeld","3.3.12","0","s","s","h","NA","NA","s","NA","383","59829","62487","NA","NA","383","NA","NA","NA","2","legacy","1024","2","48000","-16","experiment","SSSSS","1","odd","61790","255923","NA","272082","1942","193435","NA","273162","190332","1801","NA","NA","273166","NA","273271","273655","NA","NA","273271","NA","Flanker Task","76","32671","92","yes","1024"
"82.79569892473118","82.79569892473118","355.13978494623655","355.13978494623655","black","legacy","legacy","legacy","0","incongruent","uniform","1","undefined","1","h","0","0","0","92","0","0","0","92","92","0","92","0","92","0","92","92","NA","NA","92","0","Sun Sep 25 14:32:14 2022","600","The main experiment item","yes","NA","KH-Subject-1.osexp","/Users/keelihatcher/Desktop/Tarleton M.D./Advanced Quantitative Methods & Experimental Design","no","mono","no","18","no","white","no","no","768","legacy","12","79","/Users/keelihatcher/Desktop/Tarleton M.D./Advanced Quantitative Methods & Experimental Design/KH-subject-1.csv","legacy","Lentiform Loewenfeld","3.3.12","0","h","s","h","NA","NA","h","NA","357","59829","62487","NA","NA","357","NA","NA","NA","2","legacy","1024","2","48000","-16","experiment","SSHSS","1","odd","61790","255923","NA","273659","1942","193435","NA","274738","190332","1801","NA","NA","274741","NA","274847","275205","NA","NA","274847","NA","Flanker Task","77","33028","93","yes","1024"
"82.97872340425532","82.97872340425532","354.6914893617021","354.6914893617021","black","legacy","legacy","legacy","0","congruent","uniform","1","undefined","1","s","0","0","0","93","0","0","0","93","93","0","93","0","93","0","93","93","NA","NA","93","0","Sun Sep 25 14:32:14 2022","600","The main experiment item","yes","NA","KH-Subject-1.osexp","/Users/keelihatcher/Desktop/Tarleton M.D./Advanced Quantitative Methods & Experimental Design","no","mono","no","18","no","white","no","no","768","legacy","13","79","/Users/keelihatcher/Desktop/Tarleton M.D./Advanced Quantitative Methods & Experimental Design/KH-subject-1.csv","legacy","Lentiform Loewenfeld","3.3.12","0","s","s","h","NA","NA","s","NA","313","59829","62487","NA","NA","313","NA","NA","NA","2","legacy","1024","2","48000","-16","experiment","SSSSS","1","odd","61790","255923","NA","275209","1942","193435","NA","276284","190332","1801","NA","NA","276288","NA","276393","276707","NA","NA","276393","NA","Flanker Task","78","33341","94","yes","1024"
"83.15789473684211","83.15789473684211","354.3578947368421","354.3578947368421","black","legacy","legacy","legacy","0","congruent","uniform","1","undefined","1","h","0","0","0","94","0","0","0","94","94","0","94","0","94","0","94","94","NA","NA","94","0","Sun Sep 25 14:32:14 2022","600","The main experiment item","yes","NA","KH-Subject-1.osexp","/Users/keelihatcher/Desktop/Tarleton M.D./Advanced Quantitative Methods & Experimental Design","no","mono","no","18","no","white","no","no","768","legacy","14","79","/Users/keelihatcher/Desktop/Tarleton M.D./Advanced Quantitative Methods & Experimental Design/KH-subject-1.csv","legacy","Lentiform Loewenfeld","3.3.12","0","h","s","h","NA","NA","h","NA","323","59829","62487","NA","NA","323","NA","NA","NA","2","legacy","1024","2","48000","-16","experiment","HHHHH","1","odd","61790","255923","NA","276711","1942","193435","NA","277789","190332","1801","NA","NA","277793","NA","277899","278223","NA","NA","277899","NA","Flanker Task","79","33664","95","yes","1024"
"82.29166666666667","82.29166666666667","353.78125","353.78125","black","legacy","legacy","legacy","0","incongruent","uniform","0","undefined","0","h","0","0","0","95","0","0","0","95","95","0","95","0","95","0","95","95","NA","NA","95","0","Sun Sep 25 14:32:14 2022","600","The main experiment item","yes","NA","KH-Subject-1.osexp","/Users/keelihatcher/Desktop/Tarleton M.D./Advanced Quantitative Methods & Experimental Design","no","mono","no","18","no","white","no","no","768","legacy","15","79","/Users/keelihatcher/Desktop/Tarleton M.D./Advanced Quantitative Methods & Experimental Design/KH-subject-1.csv","legacy","Lentiform Loewenfeld","3.3.12","0","s","s","h","NA","NA","s","NA","299","59829","62487","NA","NA","299","NA","NA","NA","2","legacy","1024","2","48000","-16","experiment","SSHSS","1","odd","61790","255923","NA","278227","1942","193435","NA","279304","190332","1801","NA","NA","279308","NA","279414","279714","NA","NA","279414","NA","Flanker Task","79","33963","96","yes","1024"
"82.47422680412372","82.47422680412372","354.4329896907216","354.4329896907216","black","legacy","legacy","legacy","0","incongruent","uniform","1","undefined","1","h","0","0","0","96","0","0","0","96","96","0","96","0","96","0","96","96","NA","NA","96","0","Sun Sep 25 14:32:14 2022","600","The main experiment item","yes","NA","KH-Subject-1.osexp","/Users/keelihatcher/Desktop/Tarleton M.D./Advanced Quantitative Methods & Experimental Design","no","mono","no","18","no","white","no","no","768","legacy","16","79","/Users/keelihatcher/Desktop/Tarleton M.D./Advanced Quantitative Methods & Experimental Design/KH-subject-1.csv","legacy","Lentiform Loewenfeld","3.3.12","0","h","s","h","NA","NA","h","NA","417","59829","62487","NA","NA","417","NA","NA","NA","2","legacy","1024","2","48000","-16","experiment","SSHSS","1","odd","61790","255923","NA","280227","1942","193435","NA","281307","279718","1801","NA","NA","281310","NA","281416","281834","NA","NA","281416","NA","Flanker Task","80","34380","97","yes","1024"
"82.65306122448979","82.65306122448979","354.53061224489795","354.53061224489795","black","legacy","legacy","legacy","0","congruent","uniform","1","undefined","1","s","0","0","0","97","0","0","0","97","97","0","97","0","97","0","97","97","NA","NA","97","0","Sun Sep 25 14:32:14 2022","600","The main experiment item","yes","NA","KH-Subject-1.osexp","/Users/keelihatcher/Desktop/Tarleton M.D./Advanced Quantitative Methods & Experimental Design","no","mono","no","18","no","white","no","no","768","legacy","17","79","/Users/keelihatcher/Desktop/Tarleton M.D./Advanced Quantitative Methods & Experimental Design/KH-subject-1.csv","legacy","Lentiform Loewenfeld","3.3.12","0","s","s","h","NA","NA","s","NA","364","59829","62487","NA","NA","364","NA","NA","NA","2","legacy","1024","2","48000","-16","experiment","SSSSS","1","odd","61790","255923","NA","281838","1942","193435","NA","282917","279718","1801","NA","NA","282921","NA","283026","283391","NA","NA","283026","NA","Flanker Task","81","34744","98","yes","1024"
