"acc","accuracy","average_response_time","avg_rt","background","canvas_backend","clock_backend","color_backend","compensation","condition","coordinates","correct","correct_Instructions1","correct_Keyboard_Response","correct_response","count_ErrorFeedback","count_FasterFeedback","count_Finish","count_Fixation","count_ISI","count_Instructions1","count_Instructions2","count_Instructions3","count_Keyboard_Response","count_Logger","count_Sequence","count_Stimulus","count_block1","count_block2","count_block3","count_experiment","datetime","deadline","description","disable_garbage_collection","experiment_file","experiment_path","font_bold","font_family","font_italic","font_size","font_underline","foreground","form_clicks","fullscreen","height","keyboard_backend","live_row","live_row_block1","logfile","mouse_backend","opensesame_codename","opensesame_version","repeat_cycle","response","response_Finish","response_Instructions1","response_Instructions2","response_Instructions3","response_Keyboard_Response","response_time","response_time_Finish","response_time_Instructions1","response_time_Instructions2","response_time_Instructions3","response_time_Keyboard_Response","round_decimals","sampler_backend","sound_buf_size","sound_channels","sound_freq","sound_sample_size","start","stimulus","subject_nr","subject_parity","time_ErrorFeedback","time_FasterFeedback","time_Finish","time_Fixation","time_ISI","time_Instructions1","time_Instructions2","time_Instructions3","time_Keyboard_Response","time_Logger","time_Sequence","time_Stimulus","time_block1","time_block2","time_block3","time_experiment","title","total_correct","total_response_time","total_responses","uniform_coordinates","width"
"100","100","904","904","black","legacy","legacy","legacy","0","incongruent","uniform","1","undefined","1","h","0","0","0","0","0","0","0","0","0","0","0","0","0","0","0","0","09/25/22 21:22:45","1500","The main experiment item","yes","FlankerTask.osexp","C:/Users/saudm/OneDrive/Desktop","no","mono","no","18","no","white","no","yes","768","legacy","0","0","C:/Users/saudm/OneDrive/Desktop/MK-subject-4.csv","legacy","Lentiform Loewenfeld","3.3.12","0","h","NA","h","NA","NA","h","904","NA","22620","NA","NA","904","2","legacy","1024","2","48000","-16","experiment","SSHSS","4","even","NA","NA","NA","24686","NA","2025","NA","NA","24788","25693","24685","24788","24646","NA","NA","2023","Flanker Task ","1","904","1","yes","1024"
"100","100","674","674","black","legacy","legacy","legacy","0","incongruent","uniform","1","undefined","1","s","1","1","0","1","1","0","0","0","1","1","1","1","0","0","0","0","09/25/22 21:22:45","1500","The main experiment item","yes","FlankerTask.osexp","C:/Users/saudm/OneDrive/Desktop","no","mono","no","18","no","white","no","yes","768","legacy","1","1","C:/Users/saudm/OneDrive/Desktop/MK-subject-4.csv","legacy","Lentiform Loewenfeld","3.3.12","0","s","NA","h","NA","NA","s","444","NA","22620","NA","NA","444","2","legacy","1024","2","48000","-16","experiment","HHSHH","4","even","NA","NA","NA","26744","25707","2025","NA","NA","26846","27291","26742","26846","24646","NA","NA","2023","Flanker Task ","2","1348","2","yes","1024"
"100","100","629.666666667","629.666666667","black","legacy","legacy","legacy","0","incongruent","uniform","1","undefined","1","h","2","2","0","2","2","0","0","0","2","2","2","2","0","0","0","0","09/25/22 21:22:45","1500","The main experiment item","yes","FlankerTask.osexp","C:/Users/saudm/OneDrive/Desktop","no","mono","no","18","no","white","no","yes","768","legacy","2","2","C:/Users/saudm/OneDrive/Desktop/MK-subject-4.csv","legacy","Lentiform Loewenfeld","3.3.12","0","h","NA","h","NA","NA","h","541","NA","22620","NA","NA","541","2","legacy","1024","2","48000","-16","experiment","SSHSS","4","even","NA","NA","NA","28338","27303","2025","NA","NA","28440","28982","28336","28440","24646","NA","NA","2023","Flanker Task ","3","1889","3","yes","1024"
"100","100","605","605","black","legacy","legacy","legacy","0","incongruent","uniform","1","undefined","1","h","3","3","0","3","3","0","0","0","3","3","3","3","0","0","0","0","09/25/22 21:22:45","1500","The main experiment item","yes","FlankerTask.osexp","C:/Users/saudm/OneDrive/Desktop","no","mono","no","18","no","white","no","yes","768","legacy","3","3","C:/Users/saudm/OneDrive/Desktop/MK-subject-4.csv","legacy","Lentiform Loewenfeld","3.3.12","0","h","NA","h","NA","NA","h","531","NA","22620","NA","NA","531","2","legacy","1024","2","48000","-16","experiment","SSHSS","4","even","NA","NA","NA","30040","28994","2025","NA","NA","30142","30673","30039","30142","24646","NA","NA","2023","Flanker Task ","4","2420","4","yes","1024"
"100","100","607.8","607.8","black","legacy","legacy","legacy","0","congruent","uniform","1","undefined","1","h","4","4","0","4","4","0","0","0","4","4","4","4","0","0","0","0","09/25/22 21:22:45","1500","The main experiment item","yes","FlankerTask.osexp","C:/Users/saudm/OneDrive/Desktop","no","mono","no","18","no","white","no","yes","768","legacy","4","4","C:/Users/saudm/OneDrive/Desktop/MK-subject-4.csv","legacy","Lentiform Loewenfeld","3.3.12","0","h","NA","h","NA","NA","h","619","NA","22620","NA","NA","619","2","legacy","1024","2","48000","-16","experiment","HHHHH","4","even","NA","NA","NA","31719","30685","2025","NA","NA","31820","32440","31717","31820","24646","NA","NA","2023","Flanker Task ","5","3039","5","yes","1024"
"100","100","583.166666667","583.166666667","black","legacy","legacy","legacy","0","congruent","uniform","1","undefined","1","h","5","5","0","5","5","0","0","0","5","5","5","5","0","0","0","0","09/25/22 21:22:45","1500","The main experiment item","yes","FlankerTask.osexp","C:/Users/saudm/OneDrive/Desktop","no","mono","no","18","no","white","no","yes","768","legacy","5","5","C:/Users/saudm/OneDrive/Desktop/MK-subject-4.csv","legacy","Lentiform Loewenfeld","3.3.12","0","h","NA","h","NA","NA","h","460","NA","22620","NA","NA","460","2","legacy","1024","2","48000","-16","experiment","HHHHH","4","even","NA","NA","NA","33489","32452","2025","NA","NA","33591","34051","33487","33591","24646","NA","NA","2023","Flanker Task ","6","3499","6","yes","1024"
"100","100","566.571428571","566.571428571","black","legacy","legacy","legacy","0","incongruent","uniform","1","undefined","1","s","6","6","0","6","6","0","0","0","6","6","6","6","0","0","0","0","09/25/22 21:22:45","1500","The main experiment item","yes","FlankerTask.osexp","C:/Users/saudm/OneDrive/Desktop","no","mono","no","18","no","white","no","yes","768","legacy","6","6","C:/Users/saudm/OneDrive/Desktop/MK-subject-4.csv","legacy","Lentiform Loewenfeld","3.3.12","0","s","NA","h","NA","NA","s","467","NA","22620","NA","NA","467","2","legacy","1024","2","48000","-16","experiment","HHSHH","4","even","NA","NA","NA","35099","34064","2025","NA","NA","35201","35669","35098","35201","24646","NA","NA","2023","Flanker Task ","7","3966","7","yes","1024"
"100","100","569.25","569.25","black","legacy","legacy","legacy","0","incongruent","uniform","1","undefined","1","h","7","7","0","7","7","0","0","0","7","7","7","7","0","0","0","0","09/25/22 21:22:45","1500","The main experiment item","yes","FlankerTask.osexp","C:/Users/saudm/OneDrive/Desktop","no","mono","no","18","no","white","no","yes","768","legacy","7","7","C:/Users/saudm/OneDrive/Desktop/MK-subject-4.csv","legacy","Lentiform Loewenfeld","3.3.12","0","h","NA","h","NA","NA","h","588","NA","22620","NA","NA","588","2","legacy","1024","2","48000","-16","experiment","SSHSS","4","even","NA","NA","NA","36718","35682","2025","NA","NA","36820","37408","36716","36820","24646","NA","NA","2023","Flanker Task ","8","4554","8","yes","1024"
"100","100","548.111111111","548.111111111","black","legacy","legacy","legacy","0","congruent","uniform","1","undefined","1","s","8","8","0","8","8","0","0","0","8","8","8","8","0","0","0","0","09/25/22 21:22:45","1500","The main experiment item","yes","FlankerTask.osexp","C:/Users/saudm/OneDrive/Desktop","no","mono","no","18","no","white","no","yes","768","legacy","8","8","C:/Users/saudm/OneDrive/Desktop/MK-subject-4.csv","legacy","Lentiform Loewenfeld","3.3.12","0","s","NA","h","NA","NA","s","379","NA","22620","NA","NA","379","2","legacy","1024","2","48000","-16","experiment","SSSSS","4","even","NA","NA","NA","38455","37420","2025","NA","NA","38556","38936","38452","38556","24646","NA","NA","2023","Flanker Task ","9","4933","9","yes","1024"
"100","100","542.3","542.3","black","legacy","legacy","legacy","0","congruent","uniform","1","undefined","1","s","9","9","0","9","9","0","0","0","9","9","9","9","0","0","0","0","09/25/22 21:22:45","1500","The main experiment item","yes","FlankerTask.osexp","C:/Users/saudm/OneDrive/Desktop","no","mono","no","18","no","white","no","yes","768","legacy","9","9","C:/Users/saudm/OneDrive/Desktop/MK-subject-4.csv","legacy","Lentiform Loewenfeld","3.3.12","0","s","NA","h","NA","NA","s","490","NA","22620","NA","NA","490","2","legacy","1024","2","48000","-16","experiment","SSSSS","4","even","NA","NA","NA","39984","38949","2025","NA","NA","40085","40575","39982","40085","24646","NA","NA","2023","Flanker Task ","10","5423","10","yes","1024"
"100","100","532.545454545","532.545454545","black","legacy","legacy","legacy","0","congruent","uniform","1","undefined","1","h","10","10","0","10","10","0","0","0","10","10","10","10","0","0","0","0","09/25/22 21:22:45","1500","The main experiment item","yes","FlankerTask.osexp","C:/Users/saudm/OneDrive/Desktop","no","mono","no","18","no","white","no","yes","768","legacy","10","10","C:/Users/saudm/OneDrive/Desktop/MK-subject-4.csv","legacy","Lentiform Loewenfeld","3.3.12","0","h","NA","h","NA","NA","h","435","NA","22620","NA","NA","435","2","legacy","1024","2","48000","-16","experiment","HHHHH","4","even","NA","NA","NA","41627","40588","2025","NA","NA","41728","42163","41625","41728","24646","NA","NA","2023","Flanker Task ","11","5858","11","yes","1024"
"100","100","529.083333333","529.083333333","black","legacy","legacy","legacy","0","incongruent","uniform","1","undefined","1","h","11","11","0","11","11","0","0","0","11","11","11","11","0","0","0","0","09/25/22 21:22:45","1500","The main experiment item","yes","FlankerTask.osexp","C:/Users/saudm/OneDrive/Desktop","no","mono","no","18","no","white","no","yes","768","legacy","11","11","C:/Users/saudm/OneDrive/Desktop/MK-subject-4.csv","legacy","Lentiform Loewenfeld","3.3.12","0","h","NA","h","NA","NA","h","491","NA","22620","NA","NA","491","2","legacy","1024","2","48000","-16","experiment","SSHSS","4","even","NA","NA","NA","43211","42176","2025","NA","NA","43312","43803","43209","43312","24646","NA","NA","2023","Flanker Task ","12","6349","12","yes","1024"
"100","100","521.384615385","521.384615385","black","legacy","legacy","legacy","0","congruent","uniform","1","undefined","1","h","12","12","0","12","12","0","0","0","12","12","12","12","0","0","0","0","09/25/22 21:22:45","1500","The main experiment item","yes","FlankerTask.osexp","C:/Users/saudm/OneDrive/Desktop","no","mono","no","18","no","white","no","yes","768","legacy","12","12","C:/Users/saudm/OneDrive/Desktop/MK-subject-4.csv","legacy","Lentiform Loewenfeld","3.3.12","0","h","NA","h","NA","NA","h","429","NA","22620","NA","NA","429","2","legacy","1024","2","48000","-16","experiment","HHHHH","4","even","NA","NA","NA","44850","43815","2025","NA","NA","44952","45381","44848","44952","24646","NA","NA","2023","Flanker Task ","13","6778","13","yes","1024"
"100","100","508","508","black","legacy","legacy","legacy","0","congruent","uniform","1","undefined","1","s","13","13","0","13","13","0","0","0","13","13","13","13","0","0","0","0","09/25/22 21:22:45","1500","The main experiment item","yes","FlankerTask.osexp","C:/Users/saudm/OneDrive/Desktop","no","mono","no","18","no","white","no","yes","768","legacy","13","13","C:/Users/saudm/OneDrive/Desktop/MK-subject-4.csv","legacy","Lentiform Loewenfeld","3.3.12","0","s","NA","h","NA","NA","s","334","NA","22620","NA","NA","334","2","legacy","1024","2","48000","-16","experiment","SSSSS","4","even","NA","NA","NA","46426","45393","2025","NA","NA","46528","46862","46424","46528","24646","NA","NA","2023","Flanker Task ","14","7112","14","yes","1024"
"100","100","502.466666667","502.466666667","black","legacy","legacy","legacy","0","congruent","uniform","1","undefined","1","s","14","14","0","14","14","0","0","0","14","14","14","14","0","0","0","0","09/25/22 21:22:45","1500","The main experiment item","yes","FlankerTask.osexp","C:/Users/saudm/OneDrive/Desktop","no","mono","no","18","no","white","no","yes","768","legacy","14","14","C:/Users/saudm/OneDrive/Desktop/MK-subject-4.csv","legacy","Lentiform Loewenfeld","3.3.12","0","s","NA","h","NA","NA","s","425","NA","22620","NA","NA","425","2","legacy","1024","2","48000","-16","experiment","SSSSS","4","even","NA","NA","NA","47907","46874","2025","NA","NA","48009","48435","47906","48009","24646","NA","NA","2023","Flanker Task ","15","7537","15","yes","1024"
"100","100","497.0625","497.0625","black","legacy","legacy","legacy","0","incongruent","uniform","1","undefined","1","h","15","15","0","15","15","0","0","0","15","15","15","15","0","0","0","0","09/25/22 21:22:45","1500","The main experiment item","yes","FlankerTask.osexp","C:/Users/saudm/OneDrive/Desktop","no","mono","no","18","no","white","no","yes","768","legacy","15","15","C:/Users/saudm/OneDrive/Desktop/MK-subject-4.csv","legacy","Lentiform Loewenfeld","3.3.12","0","h","NA","h","NA","NA","h","416","NA","22620","NA","NA","416","2","legacy","1024","2","48000","-16","experiment","SSHSS","4","even","NA","NA","NA","49482","48448","2025","NA","NA","49583","49999","49481","49583","24646","NA","NA","2023","Flanker Task ","16","7953","16","yes","1024"
"100","100","488.882352941","488.882352941","black","legacy","legacy","legacy","0","congruent","uniform","1","undefined","1","s","16","16","0","16","16","0","0","0","16","16","16","16","0","0","0","0","09/25/22 21:22:45","1500","The main experiment item","yes","FlankerTask.osexp","C:/Users/saudm/OneDrive/Desktop","no","mono","no","18","no","white","no","yes","768","legacy","16","16","C:/Users/saudm/OneDrive/Desktop/MK-subject-4.csv","legacy","Lentiform Loewenfeld","3.3.12","0","s","NA","h","NA","NA","s","358","NA","22620","NA","NA","358","2","legacy","1024","2","48000","-16","experiment","SSSSS","4","even","NA","NA","NA","51036","50001","2025","NA","NA","51137","51496","51035","51137","24646","NA","NA","2023","Flanker Task ","17","8311","17","yes","1024"
"100","100","482.055555556","482.055555556","black","legacy","legacy","legacy","0","congruent","uniform","1","undefined","1","h","17","17","0","17","17","0","0","0","17","17","17","17","0","0","0","0","09/25/22 21:22:45","1500","The main experiment item","yes","FlankerTask.osexp","C:/Users/saudm/OneDrive/Desktop","no","mono","no","18","no","white","no","yes","768","legacy","17","17","C:/Users/saudm/OneDrive/Desktop/MK-subject-4.csv","legacy","Lentiform Loewenfeld","3.3.12","0","h","NA","h","NA","NA","h","366","NA","22620","NA","NA","366","2","legacy","1024","2","48000","-16","experiment","HHHHH","4","even","NA","NA","NA","52543","51509","2025","NA","NA","52645","53012","52541","52645","24646","NA","NA","2023","Flanker Task ","18","8677","18","yes","1024"
"100","100","477.368421053","477.368421053","black","legacy","legacy","legacy","0","congruent","uniform","1","undefined","1","s","18","18","0","18","18","0","0","0","18","18","18","18","0","0","0","0","09/25/22 21:22:45","1500","The main experiment item","yes","FlankerTask.osexp","C:/Users/saudm/OneDrive/Desktop","no","mono","no","18","no","white","no","yes","768","legacy","18","18","C:/Users/saudm/OneDrive/Desktop/MK-subject-4.csv","legacy","Lentiform Loewenfeld","3.3.12","0","s","NA","h","NA","NA","s","393","NA","22620","NA","NA","393","2","legacy","1024","2","48000","-16","experiment","SSSSS","4","even","NA","NA","NA","54058","53024","2025","NA","NA","54159","54552","54056","54159","24646","NA","NA","2023","Flanker Task ","19","9070","19","yes","1024"
"100","100","476.65","476.65","black","legacy","legacy","legacy","0","congruent","uniform","1","undefined","1","s","19","19","0","19","19","0","0","0","19","19","19","19","0","0","0","0","09/25/22 21:22:45","1500","The main experiment item","yes","FlankerTask.osexp","C:/Users/saudm/OneDrive/Desktop","no","mono","no","18","no","white","no","yes","768","legacy","19","19","C:/Users/saudm/OneDrive/Desktop/MK-subject-4.csv","legacy","Lentiform Loewenfeld","3.3.12","0","s","NA","h","NA","NA","s","463","NA","22620","NA","NA","463","2","legacy","1024","2","48000","-16","experiment","SSSSS","4","even","NA","NA","NA","55592","54555","2025","NA","NA","55694","56157","55590","55694","24646","NA","NA","2023","Flanker Task ","20","9533","20","yes","1024"
"100","100","469.761904762","469.761904762","black","legacy","legacy","legacy","0","congruent","uniform","1","undefined","1","h","20","20","0","20","20","0","0","0","20","20","20","20","0","0","0","0","09/25/22 21:22:45","1500","The main experiment item","yes","FlankerTask.osexp","C:/Users/saudm/OneDrive/Desktop","no","mono","no","18","no","white","no","yes","768","legacy","20","20","C:/Users/saudm/OneDrive/Desktop/MK-subject-4.csv","legacy","Lentiform Loewenfeld","3.3.12","0","h","NA","h","NA","NA","h","332","NA","22620","NA","NA","332","2","legacy","1024","2","48000","-16","experiment","HHHHH","4","even","NA","NA","NA","57203","56169","2025","NA","NA","57305","57637","57202","57305","24646","NA","NA","2023","Flanker Task ","21","9865","21","yes","1024"
"95.4545454545","95.4545454545","463.863636364","463.863636364","black","legacy","legacy","legacy","0","incongruent","uniform","0","undefined","0","h","21","21","0","21","21","0","0","0","21","21","21","21","0","0","0","0","09/25/22 21:22:45","1500","The main experiment item","yes","FlankerTask.osexp","C:/Users/saudm/OneDrive/Desktop","no","mono","no","18","no","white","no","yes","768","legacy","21","21","C:/Users/saudm/OneDrive/Desktop/MK-subject-4.csv","legacy","Lentiform Loewenfeld","3.3.12","0","s","NA","h","NA","NA","s","340","NA","22620","NA","NA","340","2","legacy","1024","2","48000","-16","experiment","SSHSS","4","even","NA","NA","NA","58684","57650","2025","NA","NA","58786","59126","58682","58786","24646","NA","NA","2023","Flanker Task ","21","10205","22","yes","1024"
"91.3043478261","91.3043478261","459.565217391","459.565217391","black","legacy","legacy","legacy","0","congruent","uniform","0","undefined","0","s","22","22","0","22","22","0","0","0","22","22","22","22","0","0","0","0","09/25/22 21:22:45","1500","The main experiment item","yes","FlankerTask.osexp","C:/Users/saudm/OneDrive/Desktop","no","mono","no","18","no","white","no","yes","768","legacy","22","22","C:/Users/saudm/OneDrive/Desktop/MK-subject-4.csv","legacy","Lentiform Loewenfeld","3.3.12","0","h","NA","h","NA","NA","h","365","NA","22620","NA","NA","365","2","legacy","1024","2","48000","-16","experiment","SSSSS","4","even","59138","NA","NA","60677","59639","2025","NA","NA","60779","61144","60672","60779","24646","NA","NA","2023","Flanker Task ","21","10570","23","yes","1024"
"91.6666666667","91.6666666667","458.291666667","458.291666667","black","legacy","legacy","legacy","0","congruent","uniform","1","undefined","1","h","23","23","0","23","23","0","0","0","23","23","23","23","0","0","0","0","09/25/22 21:22:45","1500","The main experiment item","yes","FlankerTask.osexp","C:/Users/saudm/OneDrive/Desktop","no","mono","no","18","no","white","no","yes","768","legacy","23","23","C:/Users/saudm/OneDrive/Desktop/MK-subject-4.csv","legacy","Lentiform Loewenfeld","3.3.12","0","h","NA","h","NA","NA","h","429","NA","22620","NA","NA","429","2","legacy","1024","2","48000","-16","experiment","HHHHH","4","even","61157","NA","NA","62691","61658","2025","NA","NA","62792","63221","62690","62792","24646","NA","NA","2023","Flanker Task ","22","10999","24","yes","1024"
"92","92","455.68","455.68","black","legacy","legacy","legacy","0","congruent","uniform","1","undefined","1","h","24","24","0","24","24","0","0","0","24","24","24","24","0","0","0","0","09/25/22 21:22:45","1500","The main experiment item","yes","FlankerTask.osexp","C:/Users/saudm/OneDrive/Desktop","no","mono","no","18","no","white","no","yes","768","legacy","24","24","C:/Users/saudm/OneDrive/Desktop/MK-subject-4.csv","legacy","Lentiform Loewenfeld","3.3.12","0","h","NA","h","NA","NA","h","393","NA","22620","NA","NA","393","2","legacy","1024","2","48000","-16","experiment","HHHHH","4","even","61157","NA","NA","64267","63224","2025","NA","NA","64368","64761","64264","64368","24646","NA","NA","2023","Flanker Task ","23","11392","25","yes","1024"
"92.3076923077","92.3076923077","459.653846154","459.653846154","black","legacy","legacy","legacy","0","incongruent","uniform","1","undefined","1","s","25","25","0","25","25","0","0","0","25","25","25","25","0","0","0","0","09/25/22 21:22:45","1500","The main experiment item","yes","FlankerTask.osexp","C:/Users/saudm/OneDrive/Desktop","no","mono","no","18","no","white","no","yes","768","legacy","25","25","C:/Users/saudm/OneDrive/Desktop/MK-subject-4.csv","legacy","Lentiform Loewenfeld","3.3.12","0","s","NA","h","NA","NA","s","559","NA","22620","NA","NA","559","2","legacy","1024","2","48000","-16","experiment","HHSHH","4","even","61157","NA","NA","65811","64773","2025","NA","NA","65913","66473","65809","65913","24646","NA","NA","2023","Flanker Task ","24","11951","26","yes","1024"
"92.5925925926","92.5925925926","457.185185185","457.185185185","black","legacy","legacy","legacy","0","incongruent","uniform","1","undefined","1","s","26","26","0","26","26","0","0","0","26","26","26","26","0","0","0","0","09/25/22 21:22:45","1500","The main experiment item","yes","FlankerTask.osexp","C:/Users/saudm/OneDrive/Desktop","no","mono","no","18","no","white","no","yes","768","legacy","26","26","C:/Users/saudm/OneDrive/Desktop/MK-subject-4.csv","legacy","Lentiform Loewenfeld","3.3.12","0","s","NA","h","NA","NA","s","393","NA","22620","NA","NA","393","2","legacy","1024","2","48000","-16","experiment","HHSHH","4","even","61157","NA","NA","67508","66474","2025","NA","NA","67610","68004","67507","67610","24646","NA","NA","2023","Flanker Task ","25","12344","27","yes","1024"
"92.8571428571","92.8571428571","457.142857143","457.142857143","black","legacy","legacy","legacy","0","incongruent","uniform","1","undefined","1","s","27","27","0","27","27","0","0","0","27","27","27","27","0","0","0","0","09/25/22 21:22:45","1500","The main experiment item","yes","FlankerTask.osexp","C:/Users/saudm/OneDrive/Desktop","no","mono","no","18","no","white","no","yes","768","legacy","27","27","C:/Users/saudm/OneDrive/Desktop/MK-subject-4.csv","legacy","Lentiform Loewenfeld","3.3.12","0","s","NA","h","NA","NA","s","456","NA","22620","NA","NA","456","2","legacy","1024","2","48000","-16","experiment","HHSHH","4","even","61157","NA","NA","69050","68016","2025","NA","NA","69151","69608","69048","69151","24646","NA","NA","2023","Flanker Task ","26","12800","28","yes","1024"
"93.1034482759","93.1034482759","457.793103448","457.793103448","black","legacy","legacy","legacy","0","congruent","uniform","1","undefined","1","s","28","28","0","28","28","0","0","0","28","28","28","28","0","0","0","0","09/25/22 21:22:45","1500","The main experiment item","yes","FlankerTask.osexp","C:/Users/saudm/OneDrive/Desktop","no","mono","no","18","no","white","no","yes","768","legacy","28","28","C:/Users/saudm/OneDrive/Desktop/MK-subject-4.csv","legacy","Lentiform Loewenfeld","3.3.12","0","s","NA","h","NA","NA","s","476","NA","22620","NA","NA","476","2","legacy","1024","2","48000","-16","experiment","SSSSS","4","even","61157","NA","NA","70645","69610","2025","NA","NA","70746","71223","70643","70746","24646","NA","NA","2023","Flanker Task ","27","13276","29","yes","1024"
"90","90","461.2","461.2","black","legacy","legacy","legacy","0","incongruent","uniform","0","undefined","0","h","29","29","0","29","29","0","0","0","29","29","29","29","0","0","0","0","09/25/22 21:22:45","1500","The main experiment item","yes","FlankerTask.osexp","C:/Users/saudm/OneDrive/Desktop","no","mono","no","18","no","white","no","yes","768","legacy","29","29","C:/Users/saudm/OneDrive/Desktop/MK-subject-4.csv","legacy","Lentiform Loewenfeld","3.3.12","0","s","NA","h","NA","NA","s","560","NA","22620","NA","NA","560","2","legacy","1024","2","48000","-16","experiment","SSHSS","4","even","61157","NA","NA","72270","71234","2025","NA","NA","72371","72931","72269","72371","24646","NA","NA","2023","Flanker Task ","27","13836","30","yes","1024"
"90.3225806452","90.3225806452","460.451612903","460.451612903","black","legacy","legacy","legacy","0","congruent","uniform","1","undefined","1","s","30","30","0","30","30","0","0","0","30","30","30","30","0","0","0","0","09/25/22 21:22:45","1500","The main experiment item","yes","FlankerTask.osexp","C:/Users/saudm/OneDrive/Desktop","no","mono","no","18","no","white","no","yes","768","legacy","30","30","C:/Users/saudm/OneDrive/Desktop/MK-subject-4.csv","legacy","Lentiform Loewenfeld","3.3.12","0","s","NA","h","NA","NA","s","438","NA","22620","NA","NA","438","2","legacy","1024","2","48000","-16","experiment","SSSSS","4","even","72943","NA","NA","74481","73444","2025","NA","NA","74583","75022","74479","74583","24646","NA","NA","2023","Flanker Task ","28","14274","31","yes","1024"
"90.625","90.625","461.5625","461.5625","black","legacy","legacy","legacy","0","incongruent","uniform","1","undefined","1","s","31","31","0","31","31","0","0","0","31","31","31","31","0","0","0","0","09/25/22 21:22:45","1500","The main experiment item","yes","FlankerTask.osexp","C:/Users/saudm/OneDrive/Desktop","no","mono","no","18","no","white","no","yes","768","legacy","31","31","C:/Users/saudm/OneDrive/Desktop/MK-subject-4.csv","legacy","Lentiform Loewenfeld","3.3.12","0","s","NA","h","NA","NA","s","496","NA","22620","NA","NA","496","2","legacy","1024","2","48000","-16","experiment","HHSHH","4","even","72943","NA","NA","76058","75024","2025","NA","NA","76160","76656","76056","76160","24646","NA","NA","2023","Flanker Task ","29","14770","32","yes","1024"
"90.9090909091","90.9090909091","461.575757576","461.575757576","black","legacy","legacy","legacy","0","congruent","uniform","1","undefined","1","s","32","32","0","32","32","0","0","0","32","32","32","32","0","0","0","0","09/25/22 21:22:45","1500","The main experiment item","yes","FlankerTask.osexp","C:/Users/saudm/OneDrive/Desktop","no","mono","no","18","no","white","no","yes","768","legacy","32","32","C:/Users/saudm/OneDrive/Desktop/MK-subject-4.csv","legacy","Lentiform Loewenfeld","3.3.12","0","s","NA","h","NA","NA","s","462","NA","22620","NA","NA","462","2","legacy","1024","2","48000","-16","experiment","SSSSS","4","even","72943","NA","NA","77706","76668","2025","NA","NA","77808","78270","77705","77808","24646","NA","NA","2023","Flanker Task ","30","15232","33","yes","1024"
"91.1764705882","91.1764705882","463.264705882","463.264705882","black","legacy","legacy","legacy","0","incongruent","uniform","1","undefined","1","h","33","33","0","33","33","0","0","0","33","33","33","33","0","0","0","0","09/25/22 21:22:45","1500","The main experiment item","yes","FlankerTask.osexp","C:/Users/saudm/OneDrive/Desktop","no","mono","no","18","no","white","no","yes","768","legacy","33","33","C:/Users/saudm/OneDrive/Desktop/MK-subject-4.csv","legacy","Lentiform Loewenfeld","3.3.12","0","h","NA","h","NA","NA","h","519","NA","22620","NA","NA","519","2","legacy","1024","2","48000","-16","experiment","SSHSS","4","even","72943","NA","NA","79309","78273","2025","NA","NA","79411","79930","79307","79411","24646","NA","NA","2023","Flanker Task ","31","15751","34","yes","1024"
"91.4285714286","91.4285714286","464.114285714","464.114285714","black","legacy","legacy","legacy","0","incongruent","uniform","1","undefined","1","s","34","34","0","34","34","0","0","0","34","34","34","34","0","0","0","0","09/25/22 21:22:45","1500","The main experiment item","yes","FlankerTask.osexp","C:/Users/saudm/OneDrive/Desktop","no","mono","no","18","no","white","no","yes","768","legacy","34","34","C:/Users/saudm/OneDrive/Desktop/MK-subject-4.csv","legacy","Lentiform Loewenfeld","3.3.12","0","s","NA","h","NA","NA","s","493","NA","22620","NA","NA","493","2","legacy","1024","2","48000","-16","experiment","HHSHH","4","even","72943","NA","NA","80979","79943","2025","NA","NA","81081","81575","80976","81081","24646","NA","NA","2023","Flanker Task ","32","16244","35","yes","1024"
"91.6666666667","91.6666666667","464.444444444","464.444444444","black","legacy","legacy","legacy","0","congruent","uniform","1","undefined","1","s","35","35","0","35","35","0","0","0","35","35","35","35","0","0","0","0","09/25/22 21:22:45","1500","The main experiment item","yes","FlankerTask.osexp","C:/Users/saudm/OneDrive/Desktop","no","mono","no","18","no","white","no","yes","768","legacy","35","35","C:/Users/saudm/OneDrive/Desktop/MK-subject-4.csv","legacy","Lentiform Loewenfeld","3.3.12","0","s","NA","h","NA","NA","s","476","NA","22620","NA","NA","476","2","legacy","1024","2","48000","-16","experiment","SSSSS","4","even","72943","NA","NA","82624","81587","2025","NA","NA","82725","83201","82622","82725","24646","NA","NA","2023","Flanker Task ","33","16720","36","yes","1024"
"91.8918918919","91.8918918919","462.648648649","462.648648649","black","legacy","legacy","legacy","0","congruent","uniform","1","undefined","1","s","36","36","0","36","36","0","0","0","36","36","36","36","0","0","0","0","09/25/22 21:22:45","1500","The main experiment item","yes","FlankerTask.osexp","C:/Users/saudm/OneDrive/Desktop","no","mono","no","18","no","white","no","yes","768","legacy","36","36","C:/Users/saudm/OneDrive/Desktop/MK-subject-4.csv","legacy","Lentiform Loewenfeld","3.3.12","0","s","NA","h","NA","NA","s","398","NA","22620","NA","NA","398","2","legacy","1024","2","48000","-16","experiment","SSSSS","4","even","72943","NA","NA","84240","83207","2025","NA","NA","84342","84740","84238","84342","24646","NA","NA","2023","Flanker Task ","34","17118","37","yes","1024"
"92.1052631579","92.1052631579","462.210526316","462.210526316","black","legacy","legacy","legacy","0","congruent","uniform","1","undefined","1","h","37","37","0","37","37","0","0","0","37","37","37","37","0","0","0","0","09/25/22 21:22:45","1500","The main experiment item","yes","FlankerTask.osexp","C:/Users/saudm/OneDrive/Desktop","no","mono","no","18","no","white","no","yes","768","legacy","37","37","C:/Users/saudm/OneDrive/Desktop/MK-subject-4.csv","legacy","Lentiform Loewenfeld","3.3.12","0","h","NA","h","NA","NA","h","446","NA","22620","NA","NA","446","2","legacy","1024","2","48000","-16","experiment","HHHHH","4","even","72943","NA","NA","85785","84752","2025","NA","NA","85887","86333","85783","85887","24646","NA","NA","2023","Flanker Task ","35","17564","38","yes","1024"
"92.3076923077","92.3076923077","461.179487179","461.179487179","black","legacy","legacy","legacy","0","congruent","uniform","1","undefined","1","s","38","38","0","38","38","0","0","0","38","38","38","38","0","0","0","0","09/25/22 21:22:45","1500","The main experiment item","yes","FlankerTask.osexp","C:/Users/saudm/OneDrive/Desktop","no","mono","no","18","no","white","no","yes","768","legacy","38","38","C:/Users/saudm/OneDrive/Desktop/MK-subject-4.csv","legacy","Lentiform Loewenfeld","3.3.12","0","s","NA","h","NA","NA","s","422","NA","22620","NA","NA","422","2","legacy","1024","2","48000","-16","experiment","SSSSS","4","even","72943","NA","NA","87380","86345","2025","NA","NA","87482","87905","87378","87481","24646","NA","NA","2023","Flanker Task ","36","17986","39","yes","1024"
"92.5","92.5","462.275","462.275","black","legacy","legacy","legacy","0","incongruent","uniform","1","undefined","1","h","39","39","0","39","39","0","0","0","39","39","39","39","0","0","0","0","09/25/22 21:22:45","1500","The main experiment item","yes","FlankerTask.osexp","C:/Users/saudm/OneDrive/Desktop","no","mono","no","18","no","white","no","yes","768","legacy","39","39","C:/Users/saudm/OneDrive/Desktop/MK-subject-4.csv","legacy","Lentiform Loewenfeld","3.3.12","0","h","NA","h","NA","NA","h","505","NA","22620","NA","NA","505","2","legacy","1024","2","48000","-16","experiment","SSHSS","4","even","72943","NA","NA","88954","87917","2025","NA","NA","89055","89561","88952","89055","24646","NA","NA","2023","Flanker Task ","37","18491","40","yes","1024"
"92.6829268293","92.6829268293","462.463414634","462.463414634","black","legacy","legacy","legacy","0","incongruent","uniform","1","undefined","1","h","40","40","0","40","40","0","0","0","40","40","40","40","0","0","0","0","09/25/22 21:22:45","1500","The main experiment item","yes","FlankerTask.osexp","C:/Users/saudm/OneDrive/Desktop","no","mono","no","18","no","white","no","yes","768","legacy","40","40","C:/Users/saudm/OneDrive/Desktop/MK-subject-4.csv","legacy","Lentiform Loewenfeld","3.3.12","0","h","NA","h","NA","NA","h","470","NA","22620","NA","NA","470","2","legacy","1024","2","48000","-16","experiment","SSHSS","4","even","72943","NA","NA","90607","89572","2025","NA","NA","90709","91179","90604","90709","24646","NA","NA","2023","Flanker Task ","38","18961","41","yes","1024"
"92.8571428571","92.8571428571","461.642857143","461.642857143","black","legacy","legacy","legacy","0","congruent","uniform","1","undefined","1","h","41","41","0","41","41","0","0","0","41","41","41","41","0","0","0","0","09/25/22 21:22:45","1500","The main experiment item","yes","FlankerTask.osexp","C:/Users/saudm/OneDrive/Desktop","no","mono","no","18","no","white","no","yes","768","legacy","41","41","C:/Users/saudm/OneDrive/Desktop/MK-subject-4.csv","legacy","Lentiform Loewenfeld","3.3.12","0","h","NA","h","NA","NA","h","428","NA","22620","NA","NA","428","2","legacy","1024","2","48000","-16","experiment","HHHHH","4","even","72943","NA","NA","92239","91192","2025","NA","NA","92341","92769","92237","92341","24646","NA","NA","2023","Flanker Task ","39","19389","42","yes","1024"
"93.023255814","93.023255814","461.651162791","461.651162791","black","legacy","legacy","legacy","0","incongruent","uniform","1","undefined","1","s","42","42","0","42","42","0","0","0","42","42","42","42","0","0","0","0","09/25/22 21:22:45","1500","The main experiment item","yes","FlankerTask.osexp","C:/Users/saudm/OneDrive/Desktop","no","mono","no","18","no","white","no","yes","768","legacy","42","42","C:/Users/saudm/OneDrive/Desktop/MK-subject-4.csv","legacy","Lentiform Loewenfeld","3.3.12","0","s","NA","h","NA","NA","s","462","NA","22620","NA","NA","462","2","legacy","1024","2","48000","-16","experiment","HHSHH","4","even","72943","NA","NA","93807","92771","2025","NA","NA","93909","94371","93804","93909","24646","NA","NA","2023","Flanker Task ","40","19851","43","yes","1024"
"93.1818181818","93.1818181818","461.204545455","461.204545455","black","legacy","legacy","legacy","0","congruent","uniform","1","undefined","1","h","43","43","0","43","43","0","0","0","43","43","43","43","0","0","0","0","09/25/22 21:22:45","1500","The main experiment item","yes","FlankerTask.osexp","C:/Users/saudm/OneDrive/Desktop","no","mono","no","18","no","white","no","yes","768","legacy","43","43","C:/Users/saudm/OneDrive/Desktop/MK-subject-4.csv","legacy","Lentiform Loewenfeld","3.3.12","0","h","NA","h","NA","NA","h","442","NA","22620","NA","NA","442","2","legacy","1024","2","48000","-16","experiment","HHHHH","4","even","72943","NA","NA","95425","94384","2025","NA","NA","95528","95970","95423","95527","24646","NA","NA","2023","Flanker Task ","41","20293","44","yes","1024"
"93.3333333333","93.3333333333","461.333333333","461.333333333","black","legacy","legacy","legacy","0","incongruent","uniform","1","undefined","1","h","44","44","0","44","44","0","0","0","44","44","44","44","0","0","0","0","09/25/22 21:22:45","1500","The main experiment item","yes","FlankerTask.osexp","C:/Users/saudm/OneDrive/Desktop","no","mono","no","18","no","white","no","yes","768","legacy","44","44","C:/Users/saudm/OneDrive/Desktop/MK-subject-4.csv","legacy","Lentiform Loewenfeld","3.3.12","0","h","NA","h","NA","NA","h","467","NA","22620","NA","NA","467","2","legacy","1024","2","48000","-16","experiment","SSHSS","4","even","72943","NA","NA","97016","95982","2025","NA","NA","97119","97587","97015","97119","24646","NA","NA","2023","Flanker Task ","42","20760","45","yes","1024"
"93.4782608696","93.4782608696","463.413043478","463.413043478","black","legacy","legacy","legacy","0","incongruent","uniform","1","undefined","1","s","45","45","0","45","45","0","0","0","45","45","45","45","0","0","0","0","09/25/22 21:22:45","1500","The main experiment item","yes","FlankerTask.osexp","C:/Users/saudm/OneDrive/Desktop","no","mono","no","18","no","white","no","yes","768","legacy","45","45","C:/Users/saudm/OneDrive/Desktop/MK-subject-4.csv","legacy","Lentiform Loewenfeld","3.3.12","0","s","NA","h","NA","NA","s","557","NA","22620","NA","NA","557","2","legacy","1024","2","48000","-16","experiment","HHSHH","4","even","72943","NA","NA","98636","97599","2025","NA","NA","98738","99296","98634","98738","24646","NA","NA","2023","Flanker Task ","43","21317","46","yes","1024"
"93.6170212766","93.6170212766","462.723404255","462.723404255","black","legacy","legacy","legacy","0","congruent","uniform","1","undefined","1","s","46","46","0","46","46","0","0","0","46","46","46","46","0","0","0","0","09/25/22 21:22:45","1500","The main experiment item","yes","FlankerTask.osexp","C:/Users/saudm/OneDrive/Desktop","no","mono","no","18","no","white","no","yes","768","legacy","46","46","C:/Users/saudm/OneDrive/Desktop/MK-subject-4.csv","legacy","Lentiform Loewenfeld","3.3.12","0","s","NA","h","NA","NA","s","431","NA","22620","NA","NA","431","2","legacy","1024","2","48000","-16","experiment","SSSSS","4","even","72943","NA","NA","100332","99299","2025","NA","NA","100433","100865","100329","100433","24646","NA","NA","2023","Flanker Task ","44","21748","47","yes","1024"
"91.6666666667","91.6666666667","461.854166667","461.854166667","black","legacy","legacy","legacy","0","incongruent","uniform","0","undefined","0","s","47","47","0","47","47","0","0","0","47","47","47","47","0","0","0","0","09/25/22 21:22:45","1500","The main experiment item","yes","FlankerTask.osexp","C:/Users/saudm/OneDrive/Desktop","no","mono","no","18","no","white","no","yes","768","legacy","47","47","C:/Users/saudm/OneDrive/Desktop/MK-subject-4.csv","legacy","Lentiform Loewenfeld","3.3.12","0","h","NA","h","NA","NA","h","421","NA","22620","NA","NA","421","2","legacy","1024","2","48000","-16","experiment","HHSHH","4","even","72943","NA","NA","101915","100879","2025","NA","NA","102016","102438","101913","102016","24646","NA","NA","2023","Flanker Task ","44","22169","48","yes","1024"
"91.8367346939","91.8367346939","460.857142857","460.857142857","black","legacy","legacy","legacy","0","incongruent","uniform","1","undefined","1","s","48","48","0","48","48","0","0","0","48","48","48","48","0","0","0","0","09/25/22 21:22:45","1500","The main experiment item","yes","FlankerTask.osexp","C:/Users/saudm/OneDrive/Desktop","no","mono","no","18","no","white","no","yes","768","legacy","48","48","C:/Users/saudm/OneDrive/Desktop/MK-subject-4.csv","legacy","Lentiform Loewenfeld","3.3.12","0","s","NA","h","NA","NA","s","413","NA","22620","NA","NA","413","2","legacy","1024","2","48000","-16","experiment","HHSHH","4","even","102441","NA","NA","103983","102942","2025","NA","NA","104086","104499","103981","104086","24646","NA","NA","2023","Flanker Task ","45","22582","49","yes","1024"
"92","92","459.64","459.64","black","legacy","legacy","legacy","0","congruent","uniform","1","undefined","1","s","49","49","0","49","49","0","0","0","49","49","49","49","0","0","0","0","09/25/22 21:22:45","1500","The main experiment item","yes","FlankerTask.osexp","C:/Users/saudm/OneDrive/Desktop","no","mono","no","18","no","white","no","yes","768","legacy","49","49","C:/Users/saudm/OneDrive/Desktop/MK-subject-4.csv","legacy","Lentiform Loewenfeld","3.3.12","0","s","NA","h","NA","NA","s","400","NA","22620","NA","NA","400","2","legacy","1024","2","48000","-16","experiment","SSSSS","4","even","102441","NA","NA","105547","104512","2025","NA","NA","105649","106049","105544","105649","24646","NA","NA","2023","Flanker Task ","46","22982","50","yes","1024"
"92.1568627451","92.1568627451","459.431372549","459.431372549","black","legacy","legacy","legacy","0","incongruent","uniform","1","undefined","1","h","50","50","0","50","50","0","0","0","50","50","50","50","0","0","0","0","09/25/22 21:22:45","1500","The main experiment item","yes","FlankerTask.osexp","C:/Users/saudm/OneDrive/Desktop","no","mono","no","18","no","white","no","yes","768","legacy","50","50","C:/Users/saudm/OneDrive/Desktop/MK-subject-4.csv","legacy","Lentiform Loewenfeld","3.3.12","0","h","NA","h","NA","NA","h","449","NA","22620","NA","NA","449","2","legacy","1024","2","48000","-16","experiment","SSHSS","4","even","102441","NA","NA","107095","106061","2025","NA","NA","107196","107646","107093","107196","24646","NA","NA","2023","Flanker Task ","47","23431","51","yes","1024"
"92.3076923077","92.3076923077","459.211538462","459.211538462","black","legacy","legacy","legacy","0","incongruent","uniform","1","undefined","1","s","51","51","0","51","51","0","0","0","51","51","51","51","0","0","0","0","09/25/22 21:22:45","1500","The main experiment item","yes","FlankerTask.osexp","C:/Users/saudm/OneDrive/Desktop","no","mono","no","18","no","white","no","yes","768","legacy","51","51","C:/Users/saudm/OneDrive/Desktop/MK-subject-4.csv","legacy","Lentiform Loewenfeld","3.3.12","0","s","NA","h","NA","NA","s","448","NA","22620","NA","NA","448","2","legacy","1024","2","48000","-16","experiment","HHSHH","4","even","102441","NA","NA","108692","107658","2025","NA","NA","108793","109242","108691","108793","24646","NA","NA","2023","Flanker Task ","48","23879","52","yes","1024"
"92.4528301887","92.4528301887","458.830188679","458.830188679","black","legacy","legacy","legacy","0","congruent","uniform","1","undefined","1","h","52","52","0","52","52","0","0","0","52","52","52","52","0","0","0","0","09/25/22 21:22:45","1500","The main experiment item","yes","FlankerTask.osexp","C:/Users/saudm/OneDrive/Desktop","no","mono","no","18","no","white","no","yes","768","legacy","52","52","C:/Users/saudm/OneDrive/Desktop/MK-subject-4.csv","legacy","Lentiform Loewenfeld","3.3.12","0","h","NA","h","NA","NA","h","439","NA","22620","NA","NA","439","2","legacy","1024","2","48000","-16","experiment","HHHHH","4","even","102441","NA","NA","110289","109254","2025","NA","NA","110392","110832","110287","110391","24646","NA","NA","2023","Flanker Task ","49","24318","53","yes","1024"
"92.5925925926","92.5925925926","458.148148148","458.148148148","black","legacy","legacy","legacy","0","congruent","uniform","1","undefined","1","h","53","53","0","53","53","0","0","0","53","53","53","53","0","0","0","0","09/25/22 21:22:45","1500","The main experiment item","yes","FlankerTask.osexp","C:/Users/saudm/OneDrive/Desktop","no","mono","no","18","no","white","no","yes","768","legacy","53","53","C:/Users/saudm/OneDrive/Desktop/MK-subject-4.csv","legacy","Lentiform Loewenfeld","3.3.12","0","h","NA","h","NA","NA","h","422","NA","22620","NA","NA","422","2","legacy","1024","2","48000","-16","experiment","HHHHH","4","even","102441","NA","NA","111877","110844","2025","NA","NA","111977","112399","111875","111977","24646","NA","NA","2023","Flanker Task ","50","24740","54","yes","1024"
"92.7272727273","92.7272727273","456.818181818","456.818181818","black","legacy","legacy","legacy","0","congruent","uniform","1","undefined","1","h","54","54","0","54","54","0","0","0","54","54","54","54","0","0","0","0","09/25/22 21:22:45","1500","The main experiment item","yes","FlankerTask.osexp","C:/Users/saudm/OneDrive/Desktop","no","mono","no","18","no","white","no","yes","768","legacy","54","54","C:/Users/saudm/OneDrive/Desktop/MK-subject-4.csv","legacy","Lentiform Loewenfeld","3.3.12","0","h","NA","h","NA","NA","h","385","NA","22620","NA","NA","385","2","legacy","1024","2","48000","-16","experiment","HHHHH","4","even","102441","NA","NA","113444","112411","2025","NA","NA","113545","113931","113443","113545","24646","NA","NA","2023","Flanker Task ","51","25125","55","yes","1024"
"92.8571428571","92.8571428571","455.25","455.25","black","legacy","legacy","legacy","0","congruent","uniform","1","undefined","1","h","55","55","0","55","55","0","0","0","55","55","55","55","0","0","0","0","09/25/22 21:22:45","1500","The main experiment item","yes","FlankerTask.osexp","C:/Users/saudm/OneDrive/Desktop","no","mono","no","18","no","white","no","yes","768","legacy","55","55","C:/Users/saudm/OneDrive/Desktop/MK-subject-4.csv","legacy","Lentiform Loewenfeld","3.3.12","0","h","NA","h","NA","NA","h","369","NA","22620","NA","NA","369","2","legacy","1024","2","48000","-16","experiment","HHHHH","4","even","102441","NA","NA","114976","113943","2025","NA","NA","115078","115448","114974","115078","24646","NA","NA","2023","Flanker Task ","52","25494","56","yes","1024"
"92.9824561404","92.9824561404","455.280701754","455.280701754","black","legacy","legacy","legacy","0","congruent","uniform","1","undefined","1","s","56","56","0","56","56","0","0","0","56","56","56","56","0","0","0","0","09/25/22 21:22:45","1500","The main experiment item","yes","FlankerTask.osexp","C:/Users/saudm/OneDrive/Desktop","no","mono","no","18","no","white","no","yes","768","legacy","56","56","C:/Users/saudm/OneDrive/Desktop/MK-subject-4.csv","legacy","Lentiform Loewenfeld","3.3.12","0","s","NA","h","NA","NA","s","457","NA","22620","NA","NA","457","2","legacy","1024","2","48000","-16","experiment","SSSSS","4","even","102441","NA","NA","116492","115460","2025","NA","NA","116594","117051","116491","116594","24646","NA","NA","2023","Flanker Task ","53","25951","57","yes","1024"
"93.1034482759","93.1034482759","455.896551724","455.896551724","black","legacy","legacy","legacy","0","incongruent","uniform","1","undefined","1","s","57","57","0","57","57","0","0","0","57","57","57","57","0","0","0","0","09/25/22 21:22:45","1500","The main experiment item","yes","FlankerTask.osexp","C:/Users/saudm/OneDrive/Desktop","no","mono","no","18","no","white","no","yes","768","legacy","57","57","C:/Users/saudm/OneDrive/Desktop/MK-subject-4.csv","legacy","Lentiform Loewenfeld","3.3.12","0","s","NA","h","NA","NA","s","491","NA","22620","NA","NA","491","2","legacy","1024","2","48000","-16","experiment","HHSHH","4","even","102441","NA","NA","118097","117064","2025","NA","NA","118199","118691","118096","118199","24646","NA","NA","2023","Flanker Task ","54","26442","58","yes","1024"
"93.2203389831","93.2203389831","454","454","black","legacy","legacy","legacy","0","congruent","uniform","1","undefined","1","s","58","58","0","58","58","0","0","0","58","58","58","58","0","0","0","0","09/25/22 21:22:45","1500","The main experiment item","yes","FlankerTask.osexp","C:/Users/saudm/OneDrive/Desktop","no","mono","no","18","no","white","no","yes","768","legacy","58","58","C:/Users/saudm/OneDrive/Desktop/MK-subject-4.csv","legacy","Lentiform Loewenfeld","3.3.12","0","s","NA","h","NA","NA","s","344","NA","22620","NA","NA","344","2","legacy","1024","2","48000","-16","experiment","SSSSS","4","even","102441","NA","NA","119728","118693","2025","NA","NA","119829","120174","119726","119829","24646","NA","NA","2023","Flanker Task ","55","26786","59","yes","1024"
"93.3333333333","93.3333333333","453.483333333","453.483333333","black","legacy","legacy","legacy","0","incongruent","uniform","1","undefined","1","h","59","59","0","59","59","0","0","0","59","59","59","59","0","0","0","0","09/25/22 21:22:45","1500","The main experiment item","yes","FlankerTask.osexp","C:/Users/saudm/OneDrive/Desktop","no","mono","no","18","no","white","no","yes","768","legacy","59","59","C:/Users/saudm/OneDrive/Desktop/MK-subject-4.csv","legacy","Lentiform Loewenfeld","3.3.12","0","h","NA","h","NA","NA","h","423","NA","22620","NA","NA","423","2","legacy","1024","2","48000","-16","experiment","SSHSS","4","even","102441","NA","NA","121223","120186","2025","NA","NA","121326","121750","121221","121326","24646","NA","NA","2023","Flanker Task ","56","27209","60","yes","1024"
"93.4426229508","93.4426229508","453.672131148","453.672131148","black","legacy","legacy","legacy","0","incongruent","uniform","1","undefined","1","h","60","60","0","60","60","0","0","0","60","60","60","60","0","0","0","0","09/25/22 21:22:45","1500","The main experiment item","yes","FlankerTask.osexp","C:/Users/saudm/OneDrive/Desktop","no","mono","no","18","no","white","no","yes","768","legacy","60","60","C:/Users/saudm/OneDrive/Desktop/MK-subject-4.csv","legacy","Lentiform Loewenfeld","3.3.12","0","h","NA","h","NA","NA","h","465","NA","22620","NA","NA","465","2","legacy","1024","2","48000","-16","experiment","SSHSS","4","even","102441","NA","NA","122794","121761","2025","NA","NA","122896","123361","122793","122896","24646","NA","NA","2023","Flanker Task ","57","27674","61","yes","1024"
"93.5483870968","93.5483870968","453.5","453.5","black","legacy","legacy","legacy","0","incongruent","uniform","1","undefined","1","s","61","61","0","61","61","0","0","0","61","61","61","61","0","0","0","0","09/25/22 21:22:45","1500","The main experiment item","yes","FlankerTask.osexp","C:/Users/saudm/OneDrive/Desktop","no","mono","no","18","no","white","no","yes","768","legacy","61","61","C:/Users/saudm/OneDrive/Desktop/MK-subject-4.csv","legacy","Lentiform Loewenfeld","3.3.12","0","s","NA","h","NA","NA","s","443","NA","22620","NA","NA","443","2","legacy","1024","2","48000","-16","experiment","HHSHH","4","even","102441","NA","NA","124406","123371","2025","NA","NA","124508","124952","124404","124508","24646","NA","NA","2023","Flanker Task ","58","28117","62","yes","1024"
"93.6507936508","93.6507936508","453.206349206","453.206349206","black","legacy","legacy","legacy","0","incongruent","uniform","1","undefined","1","s","62","62","0","62","62","0","0","0","62","62","62","62","0","0","0","0","09/25/22 21:22:45","1500","The main experiment item","yes","FlankerTask.osexp","C:/Users/saudm/OneDrive/Desktop","no","mono","no","18","no","white","no","yes","768","legacy","62","62","C:/Users/saudm/OneDrive/Desktop/MK-subject-4.csv","legacy","Lentiform Loewenfeld","3.3.12","0","s","NA","h","NA","NA","s","435","NA","22620","NA","NA","435","2","legacy","1024","2","48000","-16","experiment","HHSHH","4","even","102441","NA","NA","125997","124963","2025","NA","NA","126099","126535","125995","126099","24646","NA","NA","2023","Flanker Task ","59","28552","63","yes","1024"
"93.75","93.75","453.671875","453.671875","black","legacy","legacy","legacy","0","incongruent","uniform","1","undefined","1","s","63","63","0","63","63","0","0","0","63","63","63","63","0","0","0","0","09/25/22 21:22:45","1500","The main experiment item","yes","FlankerTask.osexp","C:/Users/saudm/OneDrive/Desktop","no","mono","no","18","no","white","no","yes","768","legacy","63","63","C:/Users/saudm/OneDrive/Desktop/MK-subject-4.csv","legacy","Lentiform Loewenfeld","3.3.12","0","s","NA","h","NA","NA","s","483","NA","22620","NA","NA","483","2","legacy","1024","2","48000","-16","experiment","HHSHH","4","even","102441","NA","NA","127587","126547","2025","NA","NA","127688","128171","127585","127688","24646","NA","NA","2023","Flanker Task ","60","29035","64","yes","1024"
"93.8461538462","93.8461538462","454.076923077","454.076923077","black","legacy","legacy","legacy","0","incongruent","uniform","1","undefined","1","h","64","64","0","64","64","0","0","0","64","64","64","64","0","0","0","0","09/25/22 21:22:45","1500","The main experiment item","yes","FlankerTask.osexp","C:/Users/saudm/OneDrive/Desktop","no","mono","no","18","no","white","no","yes","768","legacy","64","64","C:/Users/saudm/OneDrive/Desktop/MK-subject-4.csv","legacy","Lentiform Loewenfeld","3.3.12","0","h","NA","h","NA","NA","h","480","NA","22620","NA","NA","480","2","legacy","1024","2","48000","-16","experiment","SSHSS","4","even","102441","NA","NA","129221","128184","2025","NA","NA","129322","129803","129218","129322","24646","NA","NA","2023","Flanker Task ","61","29515","65","yes","1024"
"92.4242424242","92.4242424242","453.363636364","453.363636364","black","legacy","legacy","legacy","0","congruent","uniform","0","undefined","0","s","65","65","0","65","65","0","0","0","65","65","65","65","0","0","0","0","09/25/22 21:22:45","1500","The main experiment item","yes","FlankerTask.osexp","C:/Users/saudm/OneDrive/Desktop","no","mono","no","18","no","white","no","yes","768","legacy","65","65","C:/Users/saudm/OneDrive/Desktop/MK-subject-4.csv","legacy","Lentiform Loewenfeld","3.3.12","0","h","NA","h","NA","NA","h","407","NA","22620","NA","NA","407","2","legacy","1024","2","48000","-16","experiment","SSSSS","4","even","102441","NA","NA","130850","129815","2025","NA","NA","130951","131359","130849","130950","24646","NA","NA","2023","Flanker Task ","61","29922","66","yes","1024"
"92.5373134328","92.5373134328","453.701492537","453.701492537","black","legacy","legacy","legacy","0","congruent","uniform","1","undefined","1","h","66","66","0","66","66","0","0","0","66","66","66","66","0","0","0","0","09/25/22 21:22:45","1500","The main experiment item","yes","FlankerTask.osexp","C:/Users/saudm/OneDrive/Desktop","no","mono","no","18","no","white","no","yes","768","legacy","66","66","C:/Users/saudm/OneDrive/Desktop/MK-subject-4.csv","legacy","Lentiform Loewenfeld","3.3.12","0","h","NA","h","NA","NA","h","476","NA","22620","NA","NA","476","2","legacy","1024","2","48000","-16","experiment","HHHHH","4","even","131371","NA","NA","132915","131872","2025","NA","NA","133017","133494","132913","133017","24646","NA","NA","2023","Flanker Task ","62","30398","67","yes","1024"
"92.6470588235","92.6470588235","452.867647059","452.867647059","black","legacy","legacy","legacy","0","congruent","uniform","1","undefined","1","h","67","67","0","67","67","0","0","0","67","67","67","67","0","0","0","0","09/25/22 21:22:45","1500","The main experiment item","yes","FlankerTask.osexp","C:/Users/saudm/OneDrive/Desktop","no","mono","no","18","no","white","no","yes","768","legacy","67","67","C:/Users/saudm/OneDrive/Desktop/MK-subject-4.csv","legacy","Lentiform Loewenfeld","3.3.12","0","h","NA","h","NA","NA","h","397","NA","22620","NA","NA","397","2","legacy","1024","2","48000","-16","experiment","HHHHH","4","even","131371","NA","NA","134539","133506","2025","NA","NA","134640","135037","134538","134640","24646","NA","NA","2023","Flanker Task ","63","30795","68","yes","1024"
"92.7536231884","92.7536231884","452.710144928","452.710144928","black","legacy","legacy","legacy","0","incongruent","uniform","1","undefined","1","h","68","68","0","68","68","0","0","0","68","68","68","68","0","0","0","0","09/25/22 21:22:45","1500","The main experiment item","yes","FlankerTask.osexp","C:/Users/saudm/OneDrive/Desktop","no","mono","no","18","no","white","no","yes","768","legacy","68","68","C:/Users/saudm/OneDrive/Desktop/MK-subject-4.csv","legacy","Lentiform Loewenfeld","3.3.12","0","h","NA","h","NA","NA","h","442","NA","22620","NA","NA","442","2","legacy","1024","2","48000","-16","experiment","SSHSS","4","even","131371","NA","NA","136077","135039","2025","NA","NA","136178","136620","136075","136178","24646","NA","NA","2023","Flanker Task ","64","31237","69","yes","1024"
"92.8571428571","92.8571428571","452.242857143","452.242857143","black","legacy","legacy","legacy","0","incongruent","uniform","1","undefined","1","h","69","69","0","69","69","0","0","0","69","69","69","69","0","0","0","0","09/25/22 21:22:45","1500","The main experiment item","yes","FlankerTask.osexp","C:/Users/saudm/OneDrive/Desktop","no","mono","no","18","no","white","no","yes","768","legacy","69","69","C:/Users/saudm/OneDrive/Desktop/MK-subject-4.csv","legacy","Lentiform Loewenfeld","3.3.12","0","h","NA","h","NA","NA","h","420","NA","22620","NA","NA","420","2","legacy","1024","2","48000","-16","experiment","SSHSS","4","even","131371","NA","NA","137669","136633","2025","NA","NA","137770","138190","137667","137770","24646","NA","NA","2023","Flanker Task ","65","31657","70","yes","1024"
"92.9577464789","92.9577464789","455.338028169","455.338028169","black","legacy","legacy","legacy","0","incongruent","uniform","1","undefined","1","s","70","70","0","70","70","0","0","0","70","70","70","70","0","0","0","0","09/25/22 21:22:45","1500","The main experiment item","yes","FlankerTask.osexp","C:/Users/saudm/OneDrive/Desktop","no","mono","no","18","no","white","no","yes","768","legacy","70","70","C:/Users/saudm/OneDrive/Desktop/MK-subject-4.csv","legacy","Lentiform Loewenfeld","3.3.12","0","s","NA","h","NA","NA","s","672","NA","22620","NA","NA","672","2","legacy","1024","2","48000","-16","experiment","HHSHH","4","even","131371","NA","NA","139238","138202","2025","NA","NA","139340","140013","139237","139340","24646","NA","NA","2023","Flanker Task ","66","32329","71","yes","1024"
"93.0555555556","93.0555555556","454.763888889","454.763888889","black","legacy","legacy","legacy","0","incongruent","uniform","1","undefined","1","s","71","71","0","71","71","0","0","0","71","71","71","71","0","0","0","0","09/25/22 21:22:45","1500","The main experiment item","yes","FlankerTask.osexp","C:/Users/saudm/OneDrive/Desktop","no","mono","no","18","no","white","no","yes","768","legacy","71","71","C:/Users/saudm/OneDrive/Desktop/MK-subject-4.csv","legacy","Lentiform Loewenfeld","3.3.12","0","s","NA","h","NA","NA","s","414","NA","22620","NA","NA","414","2","legacy","1024","2","48000","-16","experiment","HHSHH","4","even","131371","NA","NA","141059","140025","2025","NA","NA","141160","141575","141057","141160","24646","NA","NA","2023","Flanker Task ","67","32743","72","yes","1024"
"93.1506849315","93.1506849315","454.452054795","454.452054795","black","legacy","legacy","legacy","0","incongruent","uniform","1","undefined","1","s","72","72","0","72","72","0","0","0","72","72","72","72","0","0","0","0","09/25/22 21:22:45","1500","The main experiment item","yes","FlankerTask.osexp","C:/Users/saudm/OneDrive/Desktop","no","mono","no","18","no","white","no","yes","768","legacy","72","72","C:/Users/saudm/OneDrive/Desktop/MK-subject-4.csv","legacy","Lentiform Loewenfeld","3.3.12","0","s","NA","h","NA","NA","s","432","NA","22620","NA","NA","432","2","legacy","1024","2","48000","-16","experiment","HHSHH","4","even","131371","NA","NA","142622","141587","2025","NA","NA","142723","143156","142621","142723","24646","NA","NA","2023","Flanker Task ","68","33175","73","yes","1024"
"93.2432432432","93.2432432432","454.148648649","454.148648649","black","legacy","legacy","legacy","0","congruent","uniform","1","undefined","1","s","73","73","0","73","73","0","0","0","73","73","73","73","0","0","0","0","09/25/22 21:22:45","1500","The main experiment item","yes","FlankerTask.osexp","C:/Users/saudm/OneDrive/Desktop","no","mono","no","18","no","white","no","yes","768","legacy","73","73","C:/Users/saudm/OneDrive/Desktop/MK-subject-4.csv","legacy","Lentiform Loewenfeld","3.3.12","0","s","NA","h","NA","NA","s","432","NA","22620","NA","NA","432","2","legacy","1024","2","48000","-16","experiment","SSSSS","4","even","131371","NA","NA","144205","143168","2025","NA","NA","144307","144740","144203","144307","24646","NA","NA","2023","Flanker Task ","69","33607","74","yes","1024"
"93.3333333333","93.3333333333","453.906666667","453.906666667","black","legacy","legacy","legacy","0","congruent","uniform","1","undefined","1","h","74","74","0","74","74","0","0","0","74","74","74","74","0","0","0","0","09/25/22 21:22:45","1500","The main experiment item","yes","FlankerTask.osexp","C:/Users/saudm/OneDrive/Desktop","no","mono","no","18","no","white","no","yes","768","legacy","74","74","C:/Users/saudm/OneDrive/Desktop/MK-subject-4.csv","legacy","Lentiform Loewenfeld","3.3.12","0","h","NA","h","NA","NA","h","436","NA","22620","NA","NA","436","2","legacy","1024","2","48000","-16","experiment","HHHHH","4","even","131371","NA","NA","145787","144752","2025","NA","NA","145889","146325","145786","145889","24646","NA","NA","2023","Flanker Task ","70","34043","75","yes","1024"
"93.4210526316","93.4210526316","453.342105263","453.342105263","black","legacy","legacy","legacy","0","congruent","uniform","1","undefined","1","h","75","75","0","75","75","0","0","0","75","75","75","75","0","0","0","0","09/25/22 21:22:45","1500","The main experiment item","yes","FlankerTask.osexp","C:/Users/saudm/OneDrive/Desktop","no","mono","no","18","no","white","no","yes","768","legacy","75","75","C:/Users/saudm/OneDrive/Desktop/MK-subject-4.csv","legacy","Lentiform Loewenfeld","3.3.12","0","h","NA","h","NA","NA","h","411","NA","22620","NA","NA","411","2","legacy","1024","2","48000","-16","experiment","HHHHH","4","even","131371","NA","NA","147371","146337","2025","NA","NA","147472","147883","147369","147472","24646","NA","NA","2023","Flanker Task ","71","34454","76","yes","1024"
"93.5064935065","93.5064935065","452.909090909","452.909090909","black","legacy","legacy","legacy","0","congruent","uniform","1","undefined","1","h","76","76","0","76","76","0","0","0","76","76","76","76","0","0","0","0","09/25/22 21:22:45","1500","The main experiment item","yes","FlankerTask.osexp","C:/Users/saudm/OneDrive/Desktop","no","mono","no","18","no","white","no","yes","768","legacy","76","76","C:/Users/saudm/OneDrive/Desktop/MK-subject-4.csv","legacy","Lentiform Loewenfeld","3.3.12","0","h","NA","h","NA","NA","h","420","NA","22620","NA","NA","420","2","legacy","1024","2","48000","-16","experiment","HHHHH","4","even","131371","NA","NA","148929","147896","2025","NA","NA","149031","149452","148927","149031","24646","NA","NA","2023","Flanker Task ","72","34874","77","yes","1024"
"93.5897435897","93.5897435897","453.487179487","453.487179487","black","legacy","legacy","legacy","0","incongruent","uniform","1","undefined","1","h","77","77","0","77","77","0","0","0","77","77","77","77","0","0","0","0","09/25/22 21:22:45","1500","The main experiment item","yes","FlankerTask.osexp","C:/Users/saudm/OneDrive/Desktop","no","mono","no","18","no","white","no","yes","768","legacy","77","77","C:/Users/saudm/OneDrive/Desktop/MK-subject-4.csv","legacy","Lentiform Loewenfeld","3.3.12","0","h","NA","h","NA","NA","h","498","NA","22620","NA","NA","498","2","legacy","1024","2","48000","-16","experiment","SSHSS","4","even","131371","NA","NA","150501","149464","2025","NA","NA","150602","151100","150500","150602","24646","NA","NA","2023","Flanker Task ","73","35372","78","yes","1024"
"93.6708860759","93.6708860759","453.784810127","453.784810127","black","legacy","legacy","legacy","0","incongruent","uniform","1","undefined","1","s","78","78","0","78","78","0","0","0","78","78","78","78","0","0","0","0","09/25/22 21:22:45","1500","The main experiment item","yes","FlankerTask.osexp","C:/Users/saudm/OneDrive/Desktop","no","mono","no","18","no","white","no","yes","768","legacy","78","78","C:/Users/saudm/OneDrive/Desktop/MK-subject-4.csv","legacy","Lentiform Loewenfeld","3.3.12","0","s","NA","h","NA","NA","s","477","NA","22620","NA","NA","477","2","legacy","1024","2","48000","-16","experiment","HHSHH","4","even","131371","NA","NA","152151","151113","2025","NA","NA","152253","152730","152149","152253","24646","NA","NA","2023","Flanker Task ","74","35849","79","yes","1024"
"92.5","92.5","453.525","453.525","black","legacy","legacy","legacy","0","incongruent","uniform","0","undefined","0","h","79","79","0","79","79","0","0","0","79","79","79","79","0","0","0","0","09/25/22 21:22:45","1500","The main experiment item","yes","FlankerTask.osexp","C:/Users/saudm/OneDrive/Desktop","no","mono","no","18","no","white","no","yes","768","legacy","79","79","C:/Users/saudm/OneDrive/Desktop/MK-subject-4.csv","legacy","Lentiform Loewenfeld","3.3.12","0","s","NA","h","NA","NA","s","433","NA","22620","NA","NA","433","2","legacy","1024","2","48000","-16","experiment","SSHSS","4","even","131371","NA","NA","153771","152732","2025","NA","NA","153873","154307","153769","153873","24646","NA","NA","2023","Flanker Task ","74","36282","80","yes","1024"
"92.5925925926","92.5925925926","460.49382716","460.49382716","black","legacy","legacy","legacy","0","incongruent","uniform","1","undefined","1","h","80","80","0","80","80","0","0","0","80","80","80","80","0","0","0","0","09/25/22 21:22:45","600","The main experiment item","yes","FlankerTask.osexp","C:/Users/saudm/OneDrive/Desktop","no","mono","no","18","no","white","no","yes","768","legacy","0","79","C:/Users/saudm/OneDrive/Desktop/MK-subject-4.csv","legacy","Lentiform Loewenfeld","3.3.12","0","h","NA","h","h","NA","h","1018","NA","22620","55577","NA","1018","2","legacy","1024","2","48000","-16","experiment","SSHSS","4","even","154319","NA","NA","211446","154820","2025","155827","NA","211547","212565","211445","211547","24646","211405","NA","2023","Flanker Task ","75","37300","81","yes","1024"
"92.6829268293","92.6829268293","460.756097561","460.756097561","black","legacy","legacy","legacy","0","congruent","uniform","1","undefined","1","h","81","81","0","81","81","0","0","0","81","81","81","81","0","0","0","0","09/25/22 21:22:45","600","The main experiment item","yes","FlankerTask.osexp","C:/Users/saudm/OneDrive/Desktop","no","mono","no","18","no","white","no","yes","768","legacy","1","79","C:/Users/saudm/OneDrive/Desktop/MK-subject-4.csv","legacy","Lentiform Loewenfeld","3.3.12","0","h","NA","h","h","NA","h","482","NA","22620","55577","NA","482","2","legacy","1024","2","48000","-16","experiment","HHHHH","4","even","154319","212578","NA","214114","213079","2025","155827","NA","214215","214697","214113","214215","24646","211405","NA","2023","Flanker Task ","76","37782","82","yes","1024"
"92.7710843373","92.7710843373","461.421686747","461.421686747","black","legacy","legacy","legacy","0","incongruent","uniform","1","undefined","1","s","82","82","0","82","82","0","0","0","82","82","82","82","0","0","0","0","09/25/22 21:22:45","600","The main experiment item","yes","FlankerTask.osexp","C:/Users/saudm/OneDrive/Desktop","no","mono","no","18","no","white","no","yes","768","legacy","2","79","C:/Users/saudm/OneDrive/Desktop/MK-subject-4.csv","legacy","Lentiform Loewenfeld","3.3.12","0","s","NA","h","h","NA","s","516","NA","22620","55577","NA","516","2","legacy","1024","2","48000","-16","experiment","HHSHH","4","even","154319","212578","NA","215746","214709","2025","155827","NA","215849","216366","215744","215849","24646","211405","NA","2023","Flanker Task ","77","38298","83","yes","1024"
"92.8571428571","92.8571428571","460.333333333","460.333333333","black","legacy","legacy","legacy","0","incongruent","uniform","1","undefined","1","s","83","83","0","83","83","0","0","0","83","83","83","83","0","0","0","0","09/25/22 21:22:45","600","The main experiment item","yes","FlankerTask.osexp","C:/Users/saudm/OneDrive/Desktop","no","mono","no","18","no","white","no","yes","768","legacy","3","79","C:/Users/saudm/OneDrive/Desktop/MK-subject-4.csv","legacy","Lentiform Loewenfeld","3.3.12","0","s","NA","h","h","NA","s","370","NA","22620","55577","NA","370","2","legacy","1024","2","48000","-16","experiment","HHSHH","4","even","154319","212578","NA","217413","216378","2025","155827","NA","217513","217884","217412","217513","24646","211405","NA","2023","Flanker Task ","78","38668","84","yes","1024"
"92.9411764706","92.9411764706","460.023529412","460.023529412","black","legacy","legacy","legacy","0","incongruent","uniform","1","undefined","1","h","84","84","0","84","84","0","0","0","84","84","84","84","0","0","0","0","09/25/22 21:22:45","600","The main experiment item","yes","FlankerTask.osexp","C:/Users/saudm/OneDrive/Desktop","no","mono","no","18","no","white","no","yes","768","legacy","4","79","C:/Users/saudm/OneDrive/Desktop/MK-subject-4.csv","legacy","Lentiform Loewenfeld","3.3.12","0","h","NA","h","h","NA","h","434","NA","22620","55577","NA","434","2","legacy","1024","2","48000","-16","experiment","SSHSS","4","even","154319","212578","NA","218928","217896","2025","155827","NA","219029","219463","218927","219029","24646","211405","NA","2023","Flanker Task ","79","39102","85","yes","1024"
"93.023255814","93.023255814","459.662790698","459.662790698","black","legacy","legacy","legacy","0","congruent","uniform","1","undefined","1","h","85","85","0","85","85","0","0","0","85","85","85","85","0","0","0","0","09/25/22 21:22:45","600","The main experiment item","yes","FlankerTask.osexp","C:/Users/saudm/OneDrive/Desktop","no","mono","no","18","no","white","no","yes","768","legacy","5","79","C:/Users/saudm/OneDrive/Desktop/MK-subject-4.csv","legacy","Lentiform Loewenfeld","3.3.12","0","h","NA","h","h","NA","h","429","NA","22620","55577","NA","429","2","legacy","1024","2","48000","-16","experiment","HHHHH","4","even","154319","212578","NA","220500","219465","2025","155827","NA","220601","221030","220498","220601","24646","211405","NA","2023","Flanker Task ","80","39531","86","yes","1024"
"93.1034482759","93.1034482759","459.724137931","459.724137931","black","legacy","legacy","legacy","0","incongruent","uniform","1","undefined","1","s","86","86","0","86","86","0","0","0","86","86","86","86","0","0","0","0","09/25/22 21:22:45","600","The main experiment item","yes","FlankerTask.osexp","C:/Users/saudm/OneDrive/Desktop","no","mono","no","18","no","white","no","yes","768","legacy","6","79","C:/Users/saudm/OneDrive/Desktop/MK-subject-4.csv","legacy","Lentiform Loewenfeld","3.3.12","0","s","NA","h","h","NA","s","465","NA","22620","55577","NA","465","2","legacy","1024","2","48000","-16","experiment","HHSHH","4","even","154319","212578","NA","222079","221042","2025","155827","NA","222179","222645","222075","222179","24646","211405","NA","2023","Flanker Task ","81","39996","87","yes","1024"
"93.1818181818","93.1818181818","458.102272727","458.102272727","black","legacy","legacy","legacy","0","congruent","uniform","1","undefined","1","s","87","87","0","87","87","0","0","0","87","87","87","87","0","0","0","0","09/25/22 21:22:45","600","The main experiment item","yes","FlankerTask.osexp","C:/Users/saudm/OneDrive/Desktop","no","mono","no","18","no","white","no","yes","768","legacy","7","79","C:/Users/saudm/OneDrive/Desktop/MK-subject-4.csv","legacy","Lentiform Loewenfeld","3.3.12","0","s","NA","h","h","NA","s","317","NA","22620","55577","NA","317","2","legacy","1024","2","48000","-16","experiment","SSSSS","4","even","154319","212578","NA","223702","222657","2025","155827","NA","223802","224119","223699","223802","24646","211405","NA","2023","Flanker Task ","82","40313","88","yes","1024"
"93.2584269663","93.2584269663","457.865168539","457.865168539","black","legacy","legacy","legacy","0","congruent","uniform","1","undefined","1","h","88","88","0","88","88","0","0","0","88","88","88","88","0","0","0","0","09/25/22 21:22:45","600","The main experiment item","yes","FlankerTask.osexp","C:/Users/saudm/OneDrive/Desktop","no","mono","no","18","no","white","no","yes","768","legacy","8","79","C:/Users/saudm/OneDrive/Desktop/MK-subject-4.csv","legacy","Lentiform Loewenfeld","3.3.12","0","h","NA","h","h","NA","h","437","NA","22620","55577","NA","437","2","legacy","1024","2","48000","-16","experiment","HHHHH","4","even","154319","212578","NA","225164","224131","2025","155827","NA","225265","225703","225162","225265","24646","211405","NA","2023","Flanker Task ","83","40750","89","yes","1024"
"93.3333333333","93.3333333333","457.288888889","457.288888889","black","legacy","legacy","legacy","0","congruent","uniform","1","undefined","1","h","89","89","0","89","89","0","0","0","89","89","89","89","0","0","0","0","09/25/22 21:22:45","600","The main experiment item","yes","FlankerTask.osexp","C:/Users/saudm/OneDrive/Desktop","no","mono","no","18","no","white","no","yes","768","legacy","9","79","C:/Users/saudm/OneDrive/Desktop/MK-subject-4.csv","legacy","Lentiform Loewenfeld","3.3.12","0","h","NA","h","h","NA","h","406","NA","22620","55577","NA","406","2","legacy","1024","2","48000","-16","experiment","HHHHH","4","even","154319","212578","NA","226752","225716","2025","155827","NA","226853","227259","226750","226853","24646","211405","NA","2023","Flanker Task ","84","41156","90","yes","1024"
"93.4065934066","93.4065934066","455.956043956","455.956043956","black","legacy","legacy","legacy","0","congruent","uniform","1","undefined","1","s","90","90","0","90","90","0","0","0","90","90","90","90","0","0","0","0","09/25/22 21:22:45","600","The main experiment item","yes","FlankerTask.osexp","C:/Users/saudm/OneDrive/Desktop","no","mono","no","18","no","white","no","yes","768","legacy","10","79","C:/Users/saudm/OneDrive/Desktop/MK-subject-4.csv","legacy","Lentiform Loewenfeld","3.3.12","0","s","NA","h","h","NA","s","336","NA","22620","55577","NA","336","2","legacy","1024","2","48000","-16","experiment","SSSSS","4","even","154319","212578","NA","228306","227271","2025","155827","NA","228407","228744","228305","228407","24646","211405","NA","2023","Flanker Task ","85","41492","91","yes","1024"
"93.4782608696","93.4782608696","456.108695652","456.108695652","black","legacy","legacy","legacy","0","incongruent","uniform","1","undefined","1","s","91","91","0","91","91","0","0","0","91","91","91","91","0","0","0","0","09/25/22 21:22:45","600","The main experiment item","yes","FlankerTask.osexp","C:/Users/saudm/OneDrive/Desktop","no","mono","no","18","no","white","no","yes","768","legacy","11","79","C:/Users/saudm/OneDrive/Desktop/MK-subject-4.csv","legacy","Lentiform Loewenfeld","3.3.12","0","s","NA","h","h","NA","s","470","NA","22620","55577","NA","470","2","legacy","1024","2","48000","-16","experiment","HHSHH","4","even","154319","212578","NA","229794","228756","2025","155827","NA","229896","230367","229792","229895","24646","211405","NA","2023","Flanker Task ","86","41962","92","yes","1024"
"93.5483870968","93.5483870968","455.731182796","455.731182796","black","legacy","legacy","legacy","0","incongruent","uniform","1","undefined","1","s","92","92","0","92","92","0","0","0","92","92","92","92","0","0","0","0","09/25/22 21:22:45","600","The main experiment item","yes","FlankerTask.osexp","C:/Users/saudm/OneDrive/Desktop","no","mono","no","18","no","white","no","yes","768","legacy","12","79","C:/Users/saudm/OneDrive/Desktop/MK-subject-4.csv","legacy","Lentiform Loewenfeld","3.3.12","0","s","NA","h","h","NA","s","421","NA","22620","55577","NA","421","2","legacy","1024","2","48000","-16","experiment","HHSHH","4","even","154319","212578","NA","231414","230380","2025","155827","NA","231515","231936","231412","231515","24646","211405","NA","2023","Flanker Task ","87","42383","93","yes","1024"
"92.5531914894","92.5531914894","455.180851064","455.180851064","black","legacy","legacy","legacy","0","congruent","uniform","0","undefined","0","h","93","93","0","93","93","0","0","0","93","93","93","93","0","0","0","0","09/25/22 21:22:45","600","The main experiment item","yes","FlankerTask.osexp","C:/Users/saudm/OneDrive/Desktop","no","mono","no","18","no","white","no","yes","768","legacy","13","79","C:/Users/saudm/OneDrive/Desktop/MK-subject-4.csv","legacy","Lentiform Loewenfeld","3.3.12","0","s","NA","h","h","NA","s","404","NA","22620","55577","NA","404","2","legacy","1024","2","48000","-16","experiment","HHHHH","4","even","154319","212578","NA","232983","231949","2025","155827","NA","233084","233489","232981","233084","24646","211405","NA","2023","Flanker Task ","87","42787","94","yes","1024"
"92.6315789474","92.6315789474","454.368421053","454.368421053","black","legacy","legacy","legacy","0","congruent","uniform","1","undefined","1","s","94","94","0","94","94","0","0","0","94","94","94","94","0","0","0","0","09/25/22 21:22:45","600","The main experiment item","yes","FlankerTask.osexp","C:/Users/saudm/OneDrive/Desktop","no","mono","no","18","no","white","no","yes","768","legacy","14","79","C:/Users/saudm/OneDrive/Desktop/MK-subject-4.csv","legacy","Lentiform Loewenfeld","3.3.12","0","s","NA","h","h","NA","s","378","NA","22620","55577","NA","378","2","legacy","1024","2","48000","-16","experiment","SSSSS","4","even","233501","212578","NA","235049","234002","2025","155827","NA","235151","235530","235047","235151","24646","211405","NA","2023","Flanker Task ","88","43165","95","yes","1024"
"92.7083333333","92.7083333333","454.375","454.375","black","legacy","legacy","legacy","0","incongruent","uniform","1","undefined","1","h","95","95","0","95","95","0","0","0","95","95","95","95","0","0","0","0","09/25/22 21:22:45","600","The main experiment item","yes","FlankerTask.osexp","C:/Users/saudm/OneDrive/Desktop","no","mono","no","18","no","white","no","yes","768","legacy","15","79","C:/Users/saudm/OneDrive/Desktop/MK-subject-4.csv","legacy","Lentiform Loewenfeld","3.3.12","0","h","NA","h","h","NA","h","455","NA","22620","55577","NA","455","2","legacy","1024","2","48000","-16","experiment","SSHSS","4","even","233501","212578","NA","236567","235532","2025","155827","NA","236669","237124","236566","236669","24646","211405","NA","2023","Flanker Task ","89","43620","96","yes","1024"
"92.7835051546","92.7835051546","453.391752577","453.391752577","black","legacy","legacy","legacy","0","congruent","uniform","1","undefined","1","s","96","96","0","96","96","0","0","0","96","96","96","96","0","0","0","0","09/25/22 21:22:45","600","The main experiment item","yes","FlankerTask.osexp","C:/Users/saudm/OneDrive/Desktop","no","mono","no","18","no","white","no","yes","768","legacy","16","79","C:/Users/saudm/OneDrive/Desktop/MK-subject-4.csv","legacy","Lentiform Loewenfeld","3.3.12","0","s","NA","h","h","NA","s","359","NA","22620","55577","NA","359","2","legacy","1024","2","48000","-16","experiment","SSSSS","4","even","233501","212578","NA","238172","237136","2025","155827","NA","238273","238633","238170","238273","24646","211405","NA","2023","Flanker Task ","90","43979","97","yes","1024"
"92.8571428571","92.8571428571","454.132653061","454.132653061","black","legacy","legacy","legacy","0","congruent","uniform","1","undefined","1","h","97","97","0","97","97","0","0","0","97","97","97","97","0","0","0","0","09/25/22 21:22:45","600","The main experiment item","yes","FlankerTask.osexp","C:/Users/saudm/OneDrive/Desktop","no","mono","no","18","no","white","no","yes","768","legacy","17","79","C:/Users/saudm/OneDrive/Desktop/MK-subject-4.csv","legacy","Lentiform Loewenfeld","3.3.12","0","h","NA","h","h","NA","h","526","NA","22620","55577","NA","526","2","legacy","1024","2","48000","-16","experiment","HHHHH","4","even","233501","212578","NA","239674","238635","2025","155827","NA","239776","240303","239673","239776","24646","211405","NA","2023","Flanker Task ","91","44505","98","yes","1024"
"91.9191919192","91.9191919192","452.95959596","452.95959596","black","legacy","legacy","legacy","0","incongruent","uniform","0","undefined","0","h","98","98","0","98","98","0","0","0","98","98","98","98","0","0","0","0","09/25/22 21:22:45","600","The main experiment item","yes","FlankerTask.osexp","C:/Users/saudm/OneDrive/Desktop","no","mono","no","18","no","white","no","yes","768","legacy","18","79","C:/Users/saudm/OneDrive/Desktop/MK-subject-4.csv","legacy","Lentiform Loewenfeld","3.3.12","0","s","NA","h","h","NA","s","338","NA","22620","55577","NA","338","2","legacy","1024","2","48000","-16","experiment","SSHSS","4","even","233501","212578","NA","241339","240305","2025","155827","NA","241441","241780","241338","241441","24646","211405","NA","2023","Flanker Task ","91","44843","99","yes","1024"
"92","92","453.19","453.19","black","legacy","legacy","legacy","0","incongruent","uniform","1","undefined","1","s","99","99","0","99","99","0","0","0","99","99","99","99","0","0","0","0","09/25/22 21:22:45","600","The main experiment item","yes","FlankerTask.osexp","C:/Users/saudm/OneDrive/Desktop","no","mono","no","18","no","white","no","yes","768","legacy","19","79","C:/Users/saudm/OneDrive/Desktop/MK-subject-4.csv","legacy","Lentiform Loewenfeld","3.3.12","0","s","NA","h","h","NA","s","476","NA","22620","55577","NA","476","2","legacy","1024","2","48000","-16","experiment","HHSHH","4","even","241792","212578","NA","243327","242293","2025","155827","NA","243429","243906","243325","243429","24646","211405","NA","2023","Flanker Task ","92","45319","100","yes","1024"
"92.0792079208","92.0792079208","453.297029703","453.297029703","black","legacy","legacy","legacy","0","congruent","uniform","1","undefined","1","s","100","100","0","100","100","0","0","0","100","100","100","100","0","0","0","0","09/25/22 21:22:45","600","The main experiment item","yes","FlankerTask.osexp","C:/Users/saudm/OneDrive/Desktop","no","mono","no","18","no","white","no","yes","768","legacy","20","79","C:/Users/saudm/OneDrive/Desktop/MK-subject-4.csv","legacy","Lentiform Loewenfeld","3.3.12","0","s","NA","h","h","NA","s","464","NA","22620","55577","NA","464","2","legacy","1024","2","48000","-16","experiment","SSSSS","4","even","241792","212578","NA","244955","243918","2025","155827","NA","245057","245522","244953","245057","24646","211405","NA","2023","Flanker Task ","93","45783","101","yes","1024"
"92.1568627451","92.1568627451","453.078431373","453.078431373","black","legacy","legacy","legacy","0","congruent","uniform","1","undefined","1","s","101","101","0","101","101","0","0","0","101","101","101","101","0","0","0","0","09/25/22 21:22:45","600","The main experiment item","yes","FlankerTask.osexp","C:/Users/saudm/OneDrive/Desktop","no","mono","no","18","no","white","no","yes","768","legacy","21","79","C:/Users/saudm/OneDrive/Desktop/MK-subject-4.csv","legacy","Lentiform Loewenfeld","3.3.12","0","s","NA","h","h","NA","s","431","NA","22620","55577","NA","431","2","legacy","1024","2","48000","-16","experiment","SSSSS","4","even","241792","212578","NA","246573","245534","2025","155827","NA","246674","247106","246571","246674","24646","211405","NA","2023","Flanker Task ","94","46214","102","yes","1024"
"92.2330097087","92.2330097087","452.815533981","452.815533981","black","legacy","legacy","legacy","0","congruent","uniform","1","undefined","1","s","102","102","0","102","102","0","0","0","102","102","102","102","0","0","0","0","09/25/22 21:22:45","600","The main experiment item","yes","FlankerTask.osexp","C:/Users/saudm/OneDrive/Desktop","no","mono","no","18","no","white","no","yes","768","legacy","22","79","C:/Users/saudm/OneDrive/Desktop/MK-subject-4.csv","legacy","Lentiform Loewenfeld","3.3.12","0","s","NA","h","h","NA","s","426","NA","22620","55577","NA","426","2","legacy","1024","2","48000","-16","experiment","SSSSS","4","even","241792","212578","NA","248161","247118","2025","155827","NA","248262","248689","248159","248262","24646","211405","NA","2023","Flanker Task ","95","46640","103","yes","1024"
"92.3076923077","92.3076923077","452.461538462","452.461538462","black","legacy","legacy","legacy","0","congruent","uniform","1","undefined","1","s","103","103","0","103","103","0","0","0","103","103","103","103","0","0","0","0","09/25/22 21:22:45","600","The main experiment item","yes","FlankerTask.osexp","C:/Users/saudm/OneDrive/Desktop","no","mono","no","18","no","white","no","yes","768","legacy","23","79","C:/Users/saudm/OneDrive/Desktop/MK-subject-4.csv","legacy","Lentiform Loewenfeld","3.3.12","0","s","NA","h","h","NA","s","416","NA","22620","55577","NA","416","2","legacy","1024","2","48000","-16","experiment","SSSSS","4","even","241792","212578","NA","249723","248691","2025","155827","NA","249824","250241","249722","249824","24646","211405","NA","2023","Flanker Task ","96","47056","104","yes","1024"
"92.380952381","92.380952381","452.980952381","452.980952381","black","legacy","legacy","legacy","0","incongruent","uniform","1","undefined","1","h","104","104","0","104","104","0","0","0","104","104","104","104","0","0","0","0","09/25/22 21:22:45","600","The main experiment item","yes","FlankerTask.osexp","C:/Users/saudm/OneDrive/Desktop","no","mono","no","18","no","white","no","yes","768","legacy","24","79","C:/Users/saudm/OneDrive/Desktop/MK-subject-4.csv","legacy","Lentiform Loewenfeld","3.3.12","0","h","NA","h","h","NA","h","507","NA","22620","55577","NA","507","2","legacy","1024","2","48000","-16","experiment","SSHSS","4","even","241792","212578","NA","251298","250253","2025","155827","NA","251401","251909","251297","251401","24646","211405","NA","2023","Flanker Task ","97","47563","105","yes","1024"
"92.4528301887","92.4528301887","452.896226415","452.896226415","black","legacy","legacy","legacy","0","congruent","uniform","1","undefined","1","s","105","105","0","105","105","0","0","0","105","105","105","105","0","0","0","0","09/25/22 21:22:45","600","The main experiment item","yes","FlankerTask.osexp","C:/Users/saudm/OneDrive/Desktop","no","mono","no","18","no","white","no","yes","768","legacy","25","79","C:/Users/saudm/OneDrive/Desktop/MK-subject-4.csv","legacy","Lentiform Loewenfeld","3.3.12","0","s","NA","h","h","NA","s","444","NA","22620","55577","NA","444","2","legacy","1024","2","48000","-16","experiment","SSSSS","4","even","241792","212578","NA","252955","251921","2025","155827","NA","253056","253500","252952","253056","24646","211405","NA","2023","Flanker Task ","98","48007","106","yes","1024"
"92.523364486","92.523364486","453.186915888","453.186915888","black","legacy","legacy","legacy","0","incongruent","uniform","1","undefined","1","h","106","106","0","106","106","0","0","0","106","106","106","106","0","0","0","0","09/25/22 21:22:45","600","The main experiment item","yes","FlankerTask.osexp","C:/Users/saudm/OneDrive/Desktop","no","mono","no","18","no","white","no","yes","768","legacy","26","79","C:/Users/saudm/OneDrive/Desktop/MK-subject-4.csv","legacy","Lentiform Loewenfeld","3.3.12","0","h","NA","h","h","NA","h","484","NA","22620","55577","NA","484","2","legacy","1024","2","48000","-16","experiment","SSHSS","4","even","241792","212578","NA","254546","253512","2025","155827","NA","254647","255132","254544","254647","24646","211405","NA","2023","Flanker Task ","99","48491","107","yes","1024"
"92.5925925926","92.5925925926","452.935185185","452.935185185","black","legacy","legacy","legacy","0","congruent","uniform","1","undefined","1","s","107","107","0","107","107","0","0","0","107","107","107","107","0","0","0","0","09/25/22 21:22:45","600","The main experiment item","yes","FlankerTask.osexp","C:/Users/saudm/OneDrive/Desktop","no","mono","no","18","no","white","no","yes","768","legacy","27","79","C:/Users/saudm/OneDrive/Desktop/MK-subject-4.csv","legacy","Lentiform Loewenfeld","3.3.12","0","s","NA","h","h","NA","s","426","NA","22620","55577","NA","426","2","legacy","1024","2","48000","-16","experiment","SSSSS","4","even","241792","212578","NA","256179","255144","2025","155827","NA","256280","256707","256177","256280","24646","211405","NA","2023","Flanker Task ","100","48917","108","yes","1024"
"92.6605504587","92.6605504587","453.027522936","453.027522936","black","legacy","legacy","legacy","0","congruent","uniform","1","undefined","1","h","108","108","0","108","108","0","0","0","108","108","108","108","0","0","0","0","09/25/22 21:22:45","600","The main experiment item","yes","FlankerTask.osexp","C:/Users/saudm/OneDrive/Desktop","no","mono","no","18","no","white","no","yes","768","legacy","28","79","C:/Users/saudm/OneDrive/Desktop/MK-subject-4.csv","legacy","Lentiform Loewenfeld","3.3.12","0","h","NA","h","h","NA","h","463","NA","22620","55577","NA","463","2","legacy","1024","2","48000","-16","experiment","HHHHH","4","even","241792","212578","NA","257755","256719","2025","155827","NA","257856","258320","257754","257856","24646","211405","NA","2023","Flanker Task ","101","49380","109","yes","1024"
"92.7272727273","92.7272727273","452.672727273","452.672727273","black","legacy","legacy","legacy","0","congruent","uniform","1","undefined","1","s","109","109","0","109","109","0","0","0","109","109","109","109","0","0","0","0","09/25/22 21:22:45","600","The main experiment item","yes","FlankerTask.osexp","C:/Users/saudm/OneDrive/Desktop","no","mono","no","18","no","white","no","yes","768","legacy","29","79","C:/Users/saudm/OneDrive/Desktop/MK-subject-4.csv","legacy","Lentiform Loewenfeld","3.3.12","0","s","NA","h","h","NA","s","414","NA","22620","55577","NA","414","2","legacy","1024","2","48000","-16","experiment","SSSSS","4","even","241792","212578","NA","259367","258332","2025","155827","NA","259468","259882","259365","259468","24646","211405","NA","2023","Flanker Task ","102","49794","110","yes","1024"
"92.7927927928","92.7927927928","451.972972973","451.972972973","black","legacy","legacy","legacy","0","congruent","uniform","1","undefined","1","h","110","110","0","110","110","0","0","0","110","110","110","110","0","0","0","0","09/25/22 21:22:45","600","The main experiment item","yes","FlankerTask.osexp","C:/Users/saudm/OneDrive/Desktop","no","mono","no","18","no","white","no","yes","768","legacy","30","79","C:/Users/saudm/OneDrive/Desktop/MK-subject-4.csv","legacy","Lentiform Loewenfeld","3.3.12","0","h","NA","h","h","NA","h","375","NA","22620","55577","NA","375","2","legacy","1024","2","48000","-16","experiment","HHHHH","4","even","241792","212578","NA","260944","259894","2025","155827","NA","261046","261422","260942","261045","24646","211405","NA","2023","Flanker Task ","103","50169","111","yes","1024"
"92.8571428571","92.8571428571","451.571428571","451.571428571","black","legacy","legacy","legacy","0","congruent","uniform","1","undefined","1","s","111","111","0","111","111","0","0","0","111","111","111","111","0","0","0","0","09/25/22 21:22:45","600","The main experiment item","yes","FlankerTask.osexp","C:/Users/saudm/OneDrive/Desktop","no","mono","no","18","no","white","no","yes","768","legacy","31","79","C:/Users/saudm/OneDrive/Desktop/MK-subject-4.csv","legacy","Lentiform Loewenfeld","3.3.12","0","s","NA","h","h","NA","s","407","NA","22620","55577","NA","407","2","legacy","1024","2","48000","-16","experiment","SSSSS","4","even","241792","212578","NA","262467","261434","2025","155827","NA","262568","262976","262465","262568","24646","211405","NA","2023","Flanker Task ","104","50576","112","yes","1024"
"92.9203539823","92.9203539823","452.026548673","452.026548673","black","legacy","legacy","legacy","0","incongruent","uniform","1","undefined","1","s","112","112","0","112","112","0","0","0","112","112","112","112","0","0","0","0","09/25/22 21:22:45","600","The main experiment item","yes","FlankerTask.osexp","C:/Users/saudm/OneDrive/Desktop","no","mono","no","18","no","white","no","yes","768","legacy","32","79","C:/Users/saudm/OneDrive/Desktop/MK-subject-4.csv","legacy","Lentiform Loewenfeld","3.3.12","0","s","NA","h","h","NA","s","503","NA","22620","55577","NA","503","2","legacy","1024","2","48000","-16","experiment","HHSHH","4","even","241792","212578","NA","264025","262989","2025","155827","NA","264126","264630","264024","264126","24646","211405","NA","2023","Flanker Task ","105","51079","113","yes","1024"
"92.9824561404","92.9824561404","451.868421053","451.868421053","black","legacy","legacy","legacy","0","congruent","uniform","1","undefined","1","h","113","113","0","113","113","0","0","0","113","113","113","113","0","0","0","0","09/25/22 21:22:45","600","The main experiment item","yes","FlankerTask.osexp","C:/Users/saudm/OneDrive/Desktop","no","mono","no","18","no","white","no","yes","768","legacy","33","79","C:/Users/saudm/OneDrive/Desktop/MK-subject-4.csv","legacy","Lentiform Loewenfeld","3.3.12","0","h","NA","h","h","NA","h","434","NA","22620","55577","NA","434","2","legacy","1024","2","48000","-16","experiment","HHHHH","4","even","241792","212578","NA","265676","264642","2025","155827","NA","265777","266212","265675","265777","24646","211405","NA","2023","Flanker Task ","106","51513","114","yes","1024"
"93.0434782609","93.0434782609","451.582608696","451.582608696","black","legacy","legacy","legacy","0","congruent","uniform","1","undefined","1","h","114","114","0","114","114","0","0","0","114","114","114","114","0","0","0","0","09/25/22 21:22:45","600","The main experiment item","yes","FlankerTask.osexp","C:/Users/saudm/OneDrive/Desktop","no","mono","no","18","no","white","no","yes","768","legacy","34","79","C:/Users/saudm/OneDrive/Desktop/MK-subject-4.csv","legacy","Lentiform Loewenfeld","3.3.12","0","h","NA","h","h","NA","h","419","NA","22620","55577","NA","419","2","legacy","1024","2","48000","-16","experiment","HHHHH","4","even","241792","212578","NA","267257","266224","2025","155827","NA","267358","267778","267256","267357","24646","211405","NA","2023","Flanker Task ","107","51932","115","yes","1024"
"93.1034482759","93.1034482759","451.49137931","451.49137931","black","legacy","legacy","legacy","0","incongruent","uniform","1","undefined","1","h","115","115","0","115","115","0","0","0","115","115","115","115","0","0","0","0","09/25/22 21:22:45","600","The main experiment item","yes","FlankerTask.osexp","C:/Users/saudm/OneDrive/Desktop","no","mono","no","18","no","white","no","yes","768","legacy","35","79","C:/Users/saudm/OneDrive/Desktop/MK-subject-4.csv","legacy","Lentiform Loewenfeld","3.3.12","0","h","NA","h","h","NA","h","441","NA","22620","55577","NA","441","2","legacy","1024","2","48000","-16","experiment","SSHSS","4","even","241792","212578","NA","268825","267790","2025","155827","NA","268926","269367","268823","268925","24646","211405","NA","2023","Flanker Task ","108","52373","116","yes","1024"
"93.1623931624","93.1623931624","451.230769231","451.230769231","black","legacy","legacy","legacy","0","incongruent","uniform","1","undefined","1","s","116","116","0","116","116","0","0","0","116","116","116","116","0","0","0","0","09/25/22 21:22:45","600","The main experiment item","yes","FlankerTask.osexp","C:/Users/saudm/OneDrive/Desktop","no","mono","no","18","no","white","no","yes","768","legacy","36","79","C:/Users/saudm/OneDrive/Desktop/MK-subject-4.csv","legacy","Lentiform Loewenfeld","3.3.12","0","s","NA","h","h","NA","s","421","NA","22620","55577","NA","421","2","legacy","1024","2","48000","-16","experiment","HHSHH","4","even","241792","212578","NA","270414","269379","2025","155827","NA","270515","270937","270413","270515","24646","211405","NA","2023","Flanker Task ","109","52794","117","yes","1024"
"93.2203389831","93.2203389831","450.940677966","450.940677966","black","legacy","legacy","legacy","0","incongruent","uniform","1","undefined","1","s","117","117","0","117","117","0","0","0","117","117","117","117","0","0","0","0","09/25/22 21:22:45","600","The main experiment item","yes","FlankerTask.osexp","C:/Users/saudm/OneDrive/Desktop","no","mono","no","18","no","white","no","yes","768","legacy","37","79","C:/Users/saudm/OneDrive/Desktop/MK-subject-4.csv","legacy","Lentiform Loewenfeld","3.3.12","0","s","NA","h","h","NA","s","417","NA","22620","55577","NA","417","2","legacy","1024","2","48000","-16","experiment","HHSHH","4","even","241792","212578","NA","271983","270949","2025","155827","NA","272084","272502","271981","272084","24646","211405","NA","2023","Flanker Task ","110","53211","118","yes","1024"
"93.2773109244","93.2773109244","450.521008403","450.521008403","black","legacy","legacy","legacy","0","congruent","uniform","1","undefined","1","h","118","118","0","118","118","0","0","0","118","118","118","118","0","0","0","0","09/25/22 21:22:45","600","The main experiment item","yes","FlankerTask.osexp","C:/Users/saudm/OneDrive/Desktop","no","mono","no","18","no","white","no","yes","768","legacy","38","79","C:/Users/saudm/OneDrive/Desktop/MK-subject-4.csv","legacy","Lentiform Loewenfeld","3.3.12","0","h","NA","h","h","NA","h","401","NA","22620","55577","NA","401","2","legacy","1024","2","48000","-16","experiment","HHHHH","4","even","241792","212578","NA","273542","272504","2025","155827","NA","273643","274045","273540","273643","24646","211405","NA","2023","Flanker Task ","111","53612","119","yes","1024"
"92.5","92.5","450.233333333","450.233333333","black","legacy","legacy","legacy","0","incongruent","uniform","0","undefined","0","s","119","119","0","119","119","0","0","0","119","119","119","119","0","0","0","0","09/25/22 21:22:45","600","The main experiment item","yes","FlankerTask.osexp","C:/Users/saudm/OneDrive/Desktop","no","mono","no","18","no","white","no","yes","768","legacy","39","79","C:/Users/saudm/OneDrive/Desktop/MK-subject-4.csv","legacy","Lentiform Loewenfeld","3.3.12","0","h","NA","h","h","NA","h","416","NA","22620","55577","NA","416","2","legacy","1024","2","48000","-16","experiment","HHSHH","4","even","241792","212578","NA","275095","274057","2025","155827","NA","275196","275613","275093","275196","24646","211405","NA","2023","Flanker Task ","111","54028","120","yes","1024"
"92.5619834711","92.5619834711","450","450","black","legacy","legacy","legacy","0","congruent","uniform","1","undefined","1","h","120","120","0","120","120","0","0","0","120","120","120","120","0","0","0","0","09/25/22 21:22:45","600","The main experiment item","yes","FlankerTask.osexp","C:/Users/saudm/OneDrive/Desktop","no","mono","no","18","no","white","no","yes","768","legacy","40","79","C:/Users/saudm/OneDrive/Desktop/MK-subject-4.csv","legacy","Lentiform Loewenfeld","3.3.12","0","h","NA","h","h","NA","h","422","NA","22620","55577","NA","422","2","legacy","1024","2","48000","-16","experiment","HHHHH","4","even","275625","212578","NA","277169","276126","2025","155827","NA","277271","277694","277166","277271","24646","211405","NA","2023","Flanker Task ","112","54450","121","yes","1024"
"91.8032786885","91.8032786885","449.56557377","449.56557377","black","legacy","legacy","legacy","0","congruent","uniform","0","undefined","0","s","121","121","0","121","121","0","0","0","121","121","121","121","0","0","0","0","09/25/22 21:22:45","600","The main experiment item","yes","FlankerTask.osexp","C:/Users/saudm/OneDrive/Desktop","no","mono","no","18","no","white","no","yes","768","legacy","41","79","C:/Users/saudm/OneDrive/Desktop/MK-subject-4.csv","legacy","Lentiform Loewenfeld","3.3.12","0","h","NA","h","h","NA","h","397","NA","22620","55577","NA","397","2","legacy","1024","2","48000","-16","experiment","SSSSS","4","even","275625","212578","NA","278744","277706","2025","155827","NA","278846","279244","278742","278846","24646","211405","NA","2023","Flanker Task ","112","54847","122","yes","1024"
"91.8699186992","91.8699186992","449.382113821","449.382113821","black","legacy","legacy","legacy","0","congruent","uniform","1","undefined","1","s","122","122","0","122","122","0","0","0","122","122","122","122","0","0","0","0","09/25/22 21:22:45","600","The main experiment item","yes","FlankerTask.osexp","C:/Users/saudm/OneDrive/Desktop","no","mono","no","18","no","white","no","yes","768","legacy","42","79","C:/Users/saudm/OneDrive/Desktop/MK-subject-4.csv","legacy","Lentiform Loewenfeld","3.3.12","0","s","NA","h","h","NA","s","427","NA","22620","55577","NA","427","2","legacy","1024","2","48000","-16","experiment","SSSSS","4","even","279257","212578","NA","280802","279758","2025","155827","NA","280903","281331","280800","280903","24646","211405","NA","2023","Flanker Task ","113","55274","123","yes","1024"
"91.935483871","91.935483871","449.25","449.25","black","legacy","legacy","legacy","0","incongruent","uniform","1","undefined","1","h","123","123","0","123","123","0","0","0","123","123","123","123","0","0","0","0","09/25/22 21:22:45","600","The main experiment item","yes","FlankerTask.osexp","C:/Users/saudm/OneDrive/Desktop","no","mono","no","18","no","white","no","yes","768","legacy","43","79","C:/Users/saudm/OneDrive/Desktop/MK-subject-4.csv","legacy","Lentiform Loewenfeld","3.3.12","0","h","NA","h","h","NA","h","433","NA","22620","55577","NA","433","2","legacy","1024","2","48000","-16","experiment","SSHSS","4","even","279257","212578","NA","282378","281343","2025","155827","NA","282479","282913","282375","282479","24646","211405","NA","2023","Flanker Task ","114","55707","124","yes","1024"
