"acc","accuracy","average_response_time","avg_rt","background","canvas_backend","clock_backend","color_backend","compensation","condition","coordinates","correct","correct_instructions1","correct_keyboard_response","correct_response","count_Block1","count_Block2","count_Block3","count_ISI","count_errorfeedback","count_experiment","count_faster","count_finish","count_fixation","count_instructions1","count_instructions2","count_instructions3","count_keyboard_response","count_logger","count_sequence","count_stimulus","datetime","deadline","description","disable_garbage_collection","experiment_file","experiment_path","font_bold","font_family","font_italic","font_size","font_underline","foreground","form_clicks","fullscreen","height","keyboard_backend","live_row","live_row_Block1","logfile","mouse_backend","opensesame_codename","opensesame_version","repeat_cycle","response","response_finish","response_instructions1","response_instructions2","response_instructions3","response_keyboard_response","response_time","response_time_finish","response_time_instructions1","response_time_instructions2","response_time_instructions3","response_time_keyboard_response","round_decimals","sampler_backend","sound_buf_size","sound_channels","sound_freq","sound_sample_size","start","stimulus","subject_nr","subject_parity","time_Block1","time_Block2","time_Block3","time_ISI","time_errorfeedback","time_experiment","time_faster","time_finish","time_fixation","time_instructions1","time_instructions2","time_instructions3","time_keyboard_response","time_logger","time_sequence","time_stimulus","title","total_correct","total_response_time","total_responses","uniform_coordinates","width"
"100","100","878","878","black","legacy","legacy","legacy","0","congruent","uniform","1","undefined","1","s","0","0","0","0","0","0","0","0","0","0","0","0","0","0","0","0","Mon Sep 19 18:26:10 2022","1500","The main experiment item","yes","FlankerTask.osexp","C:/Users/lil_p/OneDrive/Documents/School/Advanced Quantitative Analysis/Lab 2.1","no","mono","no","18","no","white","no","yes","768","legacy","0","0","C:/Users/lil_p/OneDrive/Documents/School/Advanced Quantitative Analysis/Lab 2.1/CP-subject-2.csv","legacy","Lentiform Loewenfeld","3.3.12","0","s","NA","s","NA","NA","s","878","NA","32902","NA","NA","878","2","legacy","1024","2","48000","-16","experiment","SSSSS","2","even","37019","NA","NA","NA","NA","4103","NA","NA","37157","4115","NA","NA","37260","38139","37154","37259","Flanker Task","1","878","1","yes","1024"
"100","100","783","783","black","legacy","legacy","legacy","0","congruent","uniform","1","undefined","1","h","0","0","0","1","1","0","1","0","1","0","0","0","1","1","1","1","Mon Sep 19 18:26:10 2022","1500","The main experiment item","yes","FlankerTask.osexp","C:/Users/lil_p/OneDrive/Documents/School/Advanced Quantitative Analysis/Lab 2.1","no","mono","no","18","no","white","no","yes","768","legacy","1","1","C:/Users/lil_p/OneDrive/Documents/School/Advanced Quantitative Analysis/Lab 2.1/CP-subject-2.csv","legacy","Lentiform Loewenfeld","3.3.12","0","h","NA","s","NA","NA","h","688","NA","32902","NA","NA","688","2","legacy","1024","2","48000","-16","experiment","HHHHH","2","even","37019","NA","NA","38152","NA","4103","NA","NA","39301","4115","NA","NA","39403","40092","39297","39403","Flanker Task","2","1566","2","yes","1024"
"100","100","743.3333333333334","743.3333333333334","black","legacy","legacy","legacy","0","incongruent","uniform","1","undefined","1","h","0","0","0","2","2","0","2","0","2","0","0","0","2","2","2","2","Mon Sep 19 18:26:10 2022","1500","The main experiment item","yes","FlankerTask.osexp","C:/Users/lil_p/OneDrive/Documents/School/Advanced Quantitative Analysis/Lab 2.1","no","mono","no","18","no","white","no","yes","768","legacy","2","2","C:/Users/lil_p/OneDrive/Documents/School/Advanced Quantitative Analysis/Lab 2.1/CP-subject-2.csv","legacy","Lentiform Loewenfeld","3.3.12","0","h","NA","s","NA","NA","h","664","NA","32902","NA","NA","664","2","legacy","1024","2","48000","-16","experiment","SSHSS","2","even","37019","NA","NA","40100","NA","4103","NA","NA","41250","4115","NA","NA","41352","42017","41247","41352","Flanker Task","3","2230","3","yes","1024"
"100","100","712.75","712.75","black","legacy","legacy","legacy","0","congruent","uniform","1","undefined","1","h","0","0","0","3","3","0","3","0","3","0","0","0","3","3","3","3","Mon Sep 19 18:26:10 2022","1500","The main experiment item","yes","FlankerTask.osexp","C:/Users/lil_p/OneDrive/Documents/School/Advanced Quantitative Analysis/Lab 2.1","no","mono","no","18","no","white","no","yes","768","legacy","3","3","C:/Users/lil_p/OneDrive/Documents/School/Advanced Quantitative Analysis/Lab 2.1/CP-subject-2.csv","legacy","Lentiform Loewenfeld","3.3.12","0","h","NA","s","NA","NA","h","621","NA","32902","NA","NA","621","2","legacy","1024","2","48000","-16","experiment","HHHHH","2","even","37019","NA","NA","42024","NA","4103","NA","NA","43171","4115","NA","NA","43274","43896","43167","43274","Flanker Task","4","2851","4","yes","1024"
"100","100","725","725","black","legacy","legacy","legacy","0","inconguent","uniform","1","undefined","1","s","0","0","0","4","4","0","4","0","4","0","0","0","4","4","4","4","Mon Sep 19 18:26:10 2022","1500","The main experiment item","yes","FlankerTask.osexp","C:/Users/lil_p/OneDrive/Documents/School/Advanced Quantitative Analysis/Lab 2.1","no","mono","no","18","no","white","no","yes","768","legacy","4","4","C:/Users/lil_p/OneDrive/Documents/School/Advanced Quantitative Analysis/Lab 2.1/CP-subject-2.csv","legacy","Lentiform Loewenfeld","3.3.12","0","s","NA","s","NA","NA","s","774","NA","32902","NA","NA","774","2","legacy","1024","2","48000","-16","experiment","HHSHH","2","even","37019","NA","NA","43902","NA","4103","NA","NA","45051","4115","NA","NA","45153","45928","45048","45153","Flanker Task","5","3625","5","yes","1024"
"100","100","707","707","black","legacy","legacy","legacy","0","inconguent","uniform","1","undefined","1","s","0","0","0","5","5","0","5","0","5","0","0","0","5","5","5","5","Mon Sep 19 18:26:10 2022","1500","The main experiment item","yes","FlankerTask.osexp","C:/Users/lil_p/OneDrive/Documents/School/Advanced Quantitative Analysis/Lab 2.1","no","mono","no","18","no","white","no","yes","768","legacy","5","5","C:/Users/lil_p/OneDrive/Documents/School/Advanced Quantitative Analysis/Lab 2.1/CP-subject-2.csv","legacy","Lentiform Loewenfeld","3.3.12","0","s","NA","s","NA","NA","s","617","NA","32902","NA","NA","617","2","legacy","1024","2","48000","-16","experiment","HHSHH","2","even","37019","NA","NA","45935","NA","4103","NA","NA","47088","4115","NA","NA","47190","47810","47084","47190","Flanker Task","6","4242","6","yes","1024"
"100","100","713","713","black","legacy","legacy","legacy","0","incongruent","uniform","1","undefined","1","h","0","0","0","6","6","0","6","0","6","0","0","0","6","6","6","6","Mon Sep 19 18:26:10 2022","1500","The main experiment item","yes","FlankerTask.osexp","C:/Users/lil_p/OneDrive/Documents/School/Advanced Quantitative Analysis/Lab 2.1","no","mono","no","18","no","white","no","yes","768","legacy","6","6","C:/Users/lil_p/OneDrive/Documents/School/Advanced Quantitative Analysis/Lab 2.1/CP-subject-2.csv","legacy","Lentiform Loewenfeld","3.3.12","0","h","NA","s","NA","NA","h","749","NA","32902","NA","NA","749","2","legacy","1024","2","48000","-16","experiment","SSHSS","2","even","37019","NA","NA","47817","NA","4103","NA","NA","48966","4115","NA","NA","49068","49818","48963","49068","Flanker Task","7","4991","7","yes","1024"
"100","100","708.5","708.5","black","legacy","legacy","legacy","0","inconguent","uniform","1","undefined","1","s","0","0","0","7","7","0","7","0","7","0","0","0","7","7","7","7","Mon Sep 19 18:26:10 2022","1500","The main experiment item","yes","FlankerTask.osexp","C:/Users/lil_p/OneDrive/Documents/School/Advanced Quantitative Analysis/Lab 2.1","no","mono","no","18","no","white","no","yes","768","legacy","7","7","C:/Users/lil_p/OneDrive/Documents/School/Advanced Quantitative Analysis/Lab 2.1/CP-subject-2.csv","legacy","Lentiform Loewenfeld","3.3.12","0","s","NA","s","NA","NA","s","677","NA","32902","NA","NA","677","2","legacy","1024","2","48000","-16","experiment","HHSHH","2","even","37019","NA","NA","49825","NA","4103","NA","NA","51034","4115","NA","NA","51137","51816","51029","51136","Flanker Task","8","5668","8","yes","1024"
"100","100","695.5555555555555","695.5555555555555","black","legacy","legacy","legacy","0","congruent","uniform","1","undefined","1","h","0","0","0","8","8","0","8","0","8","0","0","0","8","8","8","8","Mon Sep 19 18:26:10 2022","1500","The main experiment item","yes","FlankerTask.osexp","C:/Users/lil_p/OneDrive/Documents/School/Advanced Quantitative Analysis/Lab 2.1","no","mono","no","18","no","white","no","yes","768","legacy","8","8","C:/Users/lil_p/OneDrive/Documents/School/Advanced Quantitative Analysis/Lab 2.1/CP-subject-2.csv","legacy","Lentiform Loewenfeld","3.3.12","0","h","NA","s","NA","NA","h","592","NA","32902","NA","NA","592","2","legacy","1024","2","48000","-16","experiment","HHHHH","2","even","37019","NA","NA","51824","NA","4103","NA","NA","52984","4115","NA","NA","53087","53680","52981","53087","Flanker Task","9","6260","9","yes","1024"
"100","100","706.1","706.1","black","legacy","legacy","legacy","0","inconguent","uniform","1","undefined","1","s","0","0","0","9","9","0","9","0","9","0","0","0","9","9","9","9","Mon Sep 19 18:26:10 2022","1500","The main experiment item","yes","FlankerTask.osexp","C:/Users/lil_p/OneDrive/Documents/School/Advanced Quantitative Analysis/Lab 2.1","no","mono","no","18","no","white","no","yes","768","legacy","9","9","C:/Users/lil_p/OneDrive/Documents/School/Advanced Quantitative Analysis/Lab 2.1/CP-subject-2.csv","legacy","Lentiform Loewenfeld","3.3.12","0","s","NA","s","NA","NA","s","801","NA","32902","NA","NA","801","2","legacy","1024","2","48000","-16","experiment","HHSHH","2","even","37019","NA","NA","53689","NA","4103","NA","NA","54844","4115","NA","NA","54946","55748","54840","54946","Flanker Task","10","7061","10","yes","1024"
"100","100","697.2727272727273","697.2727272727273","black","legacy","legacy","legacy","0","incongruent","uniform","1","undefined","1","h","0","0","0","10","10","0","10","0","10","0","0","0","10","10","10","10","Mon Sep 19 18:26:10 2022","1500","The main experiment item","yes","FlankerTask.osexp","C:/Users/lil_p/OneDrive/Documents/School/Advanced Quantitative Analysis/Lab 2.1","no","mono","no","18","no","white","no","yes","768","legacy","10","10","C:/Users/lil_p/OneDrive/Documents/School/Advanced Quantitative Analysis/Lab 2.1/CP-subject-2.csv","legacy","Lentiform Loewenfeld","3.3.12","0","h","NA","s","NA","NA","h","609","NA","32902","NA","NA","609","2","legacy","1024","2","48000","-16","experiment","SSHSS","2","even","37019","NA","NA","55755","NA","4103","NA","NA","56910","4115","NA","NA","57012","57622","56905","57012","Flanker Task","11","7670","11","yes","1024"
"100","100","692","692","black","legacy","legacy","legacy","0","congruent","uniform","1","undefined","1","h","0","0","0","11","11","0","11","0","11","0","0","0","11","11","11","11","Mon Sep 19 18:26:10 2022","1500","The main experiment item","yes","FlankerTask.osexp","C:/Users/lil_p/OneDrive/Documents/School/Advanced Quantitative Analysis/Lab 2.1","no","mono","no","18","no","white","no","yes","768","legacy","11","11","C:/Users/lil_p/OneDrive/Documents/School/Advanced Quantitative Analysis/Lab 2.1/CP-subject-2.csv","legacy","Lentiform Loewenfeld","3.3.12","0","h","NA","s","NA","NA","h","634","NA","32902","NA","NA","634","2","legacy","1024","2","48000","-16","experiment","HHHHH","2","even","37019","NA","NA","57628","NA","4103","NA","NA","58777","4115","NA","NA","58879","59514","58774","58879","Flanker Task","12","8304","12","yes","1024"
"100","100","691.2307692307693","691.2307692307693","black","legacy","legacy","legacy","0","inconguent","uniform","1","undefined","1","s","0","0","0","12","12","0","12","0","12","0","0","0","12","12","12","12","Mon Sep 19 18:26:10 2022","1500","The main experiment item","yes","FlankerTask.osexp","C:/Users/lil_p/OneDrive/Documents/School/Advanced Quantitative Analysis/Lab 2.1","no","mono","no","18","no","white","no","yes","768","legacy","12","12","C:/Users/lil_p/OneDrive/Documents/School/Advanced Quantitative Analysis/Lab 2.1/CP-subject-2.csv","legacy","Lentiform Loewenfeld","3.3.12","0","s","NA","s","NA","NA","s","682","NA","32902","NA","NA","682","2","legacy","1024","2","48000","-16","experiment","HHSHH","2","even","37019","NA","NA","59521","NA","4103","NA","NA","60669","4115","NA","NA","60771","61454","60665","60771","Flanker Task","13","8986","13","yes","1024"
"100","100","680.2857142857143","680.2857142857143","black","legacy","legacy","legacy","0","congruent","uniform","1","undefined","1","h","0","0","0","13","13","0","13","0","13","0","0","0","13","13","13","13","Mon Sep 19 18:26:10 2022","1500","The main experiment item","yes","FlankerTask.osexp","C:/Users/lil_p/OneDrive/Documents/School/Advanced Quantitative Analysis/Lab 2.1","no","mono","no","18","no","white","no","yes","768","legacy","13","13","C:/Users/lil_p/OneDrive/Documents/School/Advanced Quantitative Analysis/Lab 2.1/CP-subject-2.csv","legacy","Lentiform Loewenfeld","3.3.12","0","h","NA","s","NA","NA","h","538","NA","32902","NA","NA","538","2","legacy","1024","2","48000","-16","experiment","HHHHH","2","even","37019","NA","NA","61462","NA","4103","NA","NA","62614","4115","NA","NA","62716","63255","62610","62716","Flanker Task","14","9524","14","yes","1024"
"100","100","674.5333333333333","674.5333333333333","black","legacy","legacy","legacy","0","congruent","uniform","1","undefined","1","s","0","0","0","14","14","0","14","0","14","0","0","0","14","14","14","14","Mon Sep 19 18:26:10 2022","1500","The main experiment item","yes","FlankerTask.osexp","C:/Users/lil_p/OneDrive/Documents/School/Advanced Quantitative Analysis/Lab 2.1","no","mono","no","18","no","white","no","yes","768","legacy","14","14","C:/Users/lil_p/OneDrive/Documents/School/Advanced Quantitative Analysis/Lab 2.1/CP-subject-2.csv","legacy","Lentiform Loewenfeld","3.3.12","0","s","NA","s","NA","NA","s","594","NA","32902","NA","NA","594","2","legacy","1024","2","48000","-16","experiment","SSSSS","2","even","37019","NA","NA","63262","NA","4103","NA","NA","64412","4115","NA","NA","64514","65109","64408","64514","Flanker Task","15","10118","15","yes","1024"
"100","100","678.0625","678.0625","black","legacy","legacy","legacy","0","inconguent","uniform","1","undefined","1","s","0","0","0","15","15","0","15","0","15","0","0","0","15","15","15","15","Mon Sep 19 18:26:10 2022","1500","The main experiment item","yes","FlankerTask.osexp","C:/Users/lil_p/OneDrive/Documents/School/Advanced Quantitative Analysis/Lab 2.1","no","mono","no","18","no","white","no","yes","768","legacy","15","15","C:/Users/lil_p/OneDrive/Documents/School/Advanced Quantitative Analysis/Lab 2.1/CP-subject-2.csv","legacy","Lentiform Loewenfeld","3.3.12","0","s","NA","s","NA","NA","s","731","NA","32902","NA","NA","731","2","legacy","1024","2","48000","-16","experiment","HHSHH","2","even","37019","NA","NA","65116","NA","4103","NA","NA","66287","4115","NA","NA","66390","67122","66282","66390","Flanker Task","16","10849","16","yes","1024"
"100","100","672.3529411764706","672.3529411764706","black","legacy","legacy","legacy","0","incongruent","uniform","1","undefined","1","h","0","0","0","16","16","0","16","0","16","0","0","0","16","16","16","16","Mon Sep 19 18:26:10 2022","1500","The main experiment item","yes","FlankerTask.osexp","C:/Users/lil_p/OneDrive/Documents/School/Advanced Quantitative Analysis/Lab 2.1","no","mono","no","18","no","white","no","yes","768","legacy","16","16","C:/Users/lil_p/OneDrive/Documents/School/Advanced Quantitative Analysis/Lab 2.1/CP-subject-2.csv","legacy","Lentiform Loewenfeld","3.3.12","0","h","NA","s","NA","NA","h","581","NA","32902","NA","NA","581","2","legacy","1024","2","48000","-16","experiment","SSHSS","2","even","37019","NA","NA","67129","NA","4103","NA","NA","68283","4115","NA","NA","68386","68968","68278","68385","Flanker Task","17","11430","17","yes","1024"
"100","100","669.9444444444445","669.9444444444445","black","legacy","legacy","legacy","0","incongruent","uniform","1","undefined","1","h","0","0","0","17","17","0","17","0","17","0","0","0","17","17","17","17","Mon Sep 19 18:26:10 2022","1500","The main experiment item","yes","FlankerTask.osexp","C:/Users/lil_p/OneDrive/Documents/School/Advanced Quantitative Analysis/Lab 2.1","no","mono","no","18","no","white","no","yes","768","legacy","17","17","C:/Users/lil_p/OneDrive/Documents/School/Advanced Quantitative Analysis/Lab 2.1/CP-subject-2.csv","legacy","Lentiform Loewenfeld","3.3.12","0","h","NA","s","NA","NA","h","629","NA","32902","NA","NA","629","2","legacy","1024","2","48000","-16","experiment","SSHSS","2","even","37019","NA","NA","68975","NA","4103","NA","NA","70125","4115","NA","NA","70228","70858","70121","70228","Flanker Task","18","12059","18","yes","1024"
"100","100","664.1052631578947","664.1052631578947","black","legacy","legacy","legacy","0","inconguent","uniform","1","undefined","1","s","0","0","0","18","18","0","18","0","18","0","0","0","18","18","18","18","Mon Sep 19 18:26:10 2022","1500","The main experiment item","yes","FlankerTask.osexp","C:/Users/lil_p/OneDrive/Documents/School/Advanced Quantitative Analysis/Lab 2.1","no","mono","no","18","no","white","no","yes","768","legacy","18","18","C:/Users/lil_p/OneDrive/Documents/School/Advanced Quantitative Analysis/Lab 2.1/CP-subject-2.csv","legacy","Lentiform Loewenfeld","3.3.12","0","s","NA","s","NA","NA","s","559","NA","32902","NA","NA","559","2","legacy","1024","2","48000","-16","experiment","HHSHH","2","even","37019","NA","NA","70866","NA","4103","NA","NA","72011","4115","NA","NA","72114","72674","72007","72114","Flanker Task","19","12618","19","yes","1024"
"100","100","661.2","661.2","black","legacy","legacy","legacy","0","congruent","uniform","1","undefined","1","s","0","0","0","19","19","0","19","0","19","0","0","0","19","19","19","19","Mon Sep 19 18:26:10 2022","1500","The main experiment item","yes","FlankerTask.osexp","C:/Users/lil_p/OneDrive/Documents/School/Advanced Quantitative Analysis/Lab 2.1","no","mono","no","18","no","white","no","yes","768","legacy","19","19","C:/Users/lil_p/OneDrive/Documents/School/Advanced Quantitative Analysis/Lab 2.1/CP-subject-2.csv","legacy","Lentiform Loewenfeld","3.3.12","0","s","NA","s","NA","NA","s","606","NA","32902","NA","NA","606","2","legacy","1024","2","48000","-16","experiment","SSSSS","2","even","37019","NA","NA","72683","NA","4103","NA","NA","73828","4115","NA","NA","73931","74539","73824","73931","Flanker Task","20","13224","20","yes","1024"
"100","100","655.8571428571429","655.8571428571429","black","legacy","legacy","legacy","0","incongruent","uniform","1","undefined","1","h","0","0","0","20","20","0","20","0","20","0","0","0","20","20","20","20","Mon Sep 19 18:26:10 2022","1500","The main experiment item","yes","FlankerTask.osexp","C:/Users/lil_p/OneDrive/Documents/School/Advanced Quantitative Analysis/Lab 2.1","no","mono","no","18","no","white","no","yes","768","legacy","20","20","C:/Users/lil_p/OneDrive/Documents/School/Advanced Quantitative Analysis/Lab 2.1/CP-subject-2.csv","legacy","Lentiform Loewenfeld","3.3.12","0","h","NA","s","NA","NA","h","549","NA","32902","NA","NA","549","2","legacy","1024","2","48000","-16","experiment","SSHSS","2","even","37019","NA","NA","74546","NA","4103","NA","NA","75742","4115","NA","NA","75845","76395","75737","75845","Flanker Task","21","13773","21","yes","1024"
"100","100","658","658","black","legacy","legacy","legacy","0","congruent","uniform","1","undefined","1","s","0","0","0","21","21","0","21","0","21","0","0","0","21","21","21","21","Mon Sep 19 18:26:10 2022","1500","The main experiment item","yes","FlankerTask.osexp","C:/Users/lil_p/OneDrive/Documents/School/Advanced Quantitative Analysis/Lab 2.1","no","mono","no","18","no","white","no","yes","768","legacy","21","21","C:/Users/lil_p/OneDrive/Documents/School/Advanced Quantitative Analysis/Lab 2.1/CP-subject-2.csv","legacy","Lentiform Loewenfeld","3.3.12","0","s","NA","s","NA","NA","s","703","NA","32902","NA","NA","703","2","legacy","1024","2","48000","-16","experiment","SSSSS","2","even","37019","NA","NA","76402","NA","4103","NA","NA","77551","4115","NA","NA","77654","78358","77547","77654","Flanker Task","22","14476","22","yes","1024"
"100","100","654.5217391304348","654.5217391304348","black","legacy","legacy","legacy","0","congruent","uniform","1","undefined","1","s","0","0","0","22","22","0","22","0","22","0","0","0","22","22","22","22","Mon Sep 19 18:26:10 2022","1500","The main experiment item","yes","FlankerTask.osexp","C:/Users/lil_p/OneDrive/Documents/School/Advanced Quantitative Analysis/Lab 2.1","no","mono","no","18","no","white","no","yes","768","legacy","22","22","C:/Users/lil_p/OneDrive/Documents/School/Advanced Quantitative Analysis/Lab 2.1/CP-subject-2.csv","legacy","Lentiform Loewenfeld","3.3.12","0","s","NA","s","NA","NA","s","578","NA","32902","NA","NA","578","2","legacy","1024","2","48000","-16","experiment","SSSSS","2","even","37019","NA","NA","78364","NA","4103","NA","NA","79509","4115","NA","NA","79612","80191","79505","79612","Flanker Task","23","15054","23","yes","1024"
"100","100","651.75","651.75","black","legacy","legacy","legacy","0","congruent","uniform","1","undefined","1","h","0","0","0","23","23","0","23","0","23","0","0","0","23","23","23","23","Mon Sep 19 18:26:10 2022","1500","The main experiment item","yes","FlankerTask.osexp","C:/Users/lil_p/OneDrive/Documents/School/Advanced Quantitative Analysis/Lab 2.1","no","mono","no","18","no","white","no","yes","768","legacy","23","23","C:/Users/lil_p/OneDrive/Documents/School/Advanced Quantitative Analysis/Lab 2.1/CP-subject-2.csv","legacy","Lentiform Loewenfeld","3.3.12","0","h","NA","s","NA","NA","h","588","NA","32902","NA","NA","588","2","legacy","1024","2","48000","-16","experiment","HHHHH","2","even","37019","NA","NA","80198","NA","4103","NA","NA","81341","4115","NA","NA","81444","82034","81337","81444","Flanker Task","24","15642","24","yes","1024"
"100","100","649.28","649.28","black","legacy","legacy","legacy","0","congruent","uniform","1","undefined","1","s","0","0","0","24","24","0","24","0","24","0","0","0","24","24","24","24","Mon Sep 19 18:26:10 2022","1500","The main experiment item","yes","FlankerTask.osexp","C:/Users/lil_p/OneDrive/Documents/School/Advanced Quantitative Analysis/Lab 2.1","no","mono","no","18","no","white","no","yes","768","legacy","24","24","C:/Users/lil_p/OneDrive/Documents/School/Advanced Quantitative Analysis/Lab 2.1/CP-subject-2.csv","legacy","Lentiform Loewenfeld","3.3.12","0","s","NA","s","NA","NA","s","590","NA","32902","NA","NA","590","2","legacy","1024","2","48000","-16","experiment","SSSSS","2","even","37019","NA","NA","82042","NA","4103","NA","NA","83192","4115","NA","NA","83295","83887","83188","83295","Flanker Task","25","16232","25","yes","1024"
"100","100","647.4615384615385","647.4615384615385","black","legacy","legacy","legacy","0","congruent","uniform","1","undefined","1","h","0","0","0","25","25","0","25","0","25","0","0","0","25","25","25","25","Mon Sep 19 18:26:10 2022","1500","The main experiment item","yes","FlankerTask.osexp","C:/Users/lil_p/OneDrive/Documents/School/Advanced Quantitative Analysis/Lab 2.1","no","mono","no","18","no","white","no","yes","768","legacy","25","25","C:/Users/lil_p/OneDrive/Documents/School/Advanced Quantitative Analysis/Lab 2.1/CP-subject-2.csv","legacy","Lentiform Loewenfeld","3.3.12","0","h","NA","s","NA","NA","h","602","NA","32902","NA","NA","602","2","legacy","1024","2","48000","-16","experiment","HHHHH","2","even","37019","NA","NA","83894","NA","4103","NA","NA","85040","4115","NA","NA","85144","85747","85037","85144","Flanker Task","26","16834","26","yes","1024"
"100","100","645.0370370370371","645.0370370370371","black","legacy","legacy","legacy","0","inconguent","uniform","1","undefined","1","s","0","0","0","26","26","0","26","0","26","0","0","0","26","26","26","26","Mon Sep 19 18:26:10 2022","1500","The main experiment item","yes","FlankerTask.osexp","C:/Users/lil_p/OneDrive/Documents/School/Advanced Quantitative Analysis/Lab 2.1","no","mono","no","18","no","white","no","yes","768","legacy","26","26","C:/Users/lil_p/OneDrive/Documents/School/Advanced Quantitative Analysis/Lab 2.1/CP-subject-2.csv","legacy","Lentiform Loewenfeld","3.3.12","0","s","NA","s","NA","NA","s","582","NA","32902","NA","NA","582","2","legacy","1024","2","48000","-16","experiment","HHSHH","2","even","37019","NA","NA","85755","NA","4103","NA","NA","86900","4115","NA","NA","87003","87587","86897","87003","Flanker Task","27","17416","27","yes","1024"
"100","100","646.1071428571429","646.1071428571429","black","legacy","legacy","legacy","0","congruent","uniform","1","undefined","1","s","0","0","0","27","27","0","27","0","27","0","0","0","27","27","27","27","Mon Sep 19 18:26:10 2022","1500","The main experiment item","yes","FlankerTask.osexp","C:/Users/lil_p/OneDrive/Documents/School/Advanced Quantitative Analysis/Lab 2.1","no","mono","no","18","no","white","no","yes","768","legacy","27","27","C:/Users/lil_p/OneDrive/Documents/School/Advanced Quantitative Analysis/Lab 2.1/CP-subject-2.csv","legacy","Lentiform Loewenfeld","3.3.12","0","s","NA","s","NA","NA","s","675","NA","32902","NA","NA","675","2","legacy","1024","2","48000","-16","experiment","SSSSS","2","even","37019","NA","NA","87595","NA","4103","NA","NA","88743","4115","NA","NA","88846","89522","88739","88846","Flanker Task","28","18091","28","yes","1024"
"100","100","640.7931034482758","640.7931034482758","black","legacy","legacy","legacy","0","congruent","uniform","1","undefined","1","s","0","0","0","28","28","0","28","0","28","0","0","0","28","28","28","28","Mon Sep 19 18:26:10 2022","1500","The main experiment item","yes","FlankerTask.osexp","C:/Users/lil_p/OneDrive/Documents/School/Advanced Quantitative Analysis/Lab 2.1","no","mono","no","18","no","white","no","yes","768","legacy","28","28","C:/Users/lil_p/OneDrive/Documents/School/Advanced Quantitative Analysis/Lab 2.1/CP-subject-2.csv","legacy","Lentiform Loewenfeld","3.3.12","0","s","NA","s","NA","NA","s","492","NA","32902","NA","NA","492","2","legacy","1024","2","48000","-16","experiment","SSSSS","2","even","37019","NA","NA","89530","NA","4103","NA","NA","90673","4115","NA","NA","90776","91269","90669","90776","Flanker Task","29","18583","29","yes","1024"
"100","100","637.1666666666666","637.1666666666666","black","legacy","legacy","legacy","0","incongruent","uniform","1","undefined","1","h","0","0","0","29","29","0","29","0","29","0","0","0","29","29","29","29","Mon Sep 19 18:26:10 2022","1500","The main experiment item","yes","FlankerTask.osexp","C:/Users/lil_p/OneDrive/Documents/School/Advanced Quantitative Analysis/Lab 2.1","no","mono","no","18","no","white","no","yes","768","legacy","29","29","C:/Users/lil_p/OneDrive/Documents/School/Advanced Quantitative Analysis/Lab 2.1/CP-subject-2.csv","legacy","Lentiform Loewenfeld","3.3.12","0","h","NA","s","NA","NA","h","532","NA","32902","NA","NA","532","2","legacy","1024","2","48000","-16","experiment","SSHSS","2","even","37019","NA","NA","91278","NA","4103","NA","NA","92421","4115","NA","NA","92525","93059","92418","92525","Flanker Task","30","19115","30","yes","1024"
"100","100","635.4516129032259","635.4516129032259","black","legacy","legacy","legacy","0","incongruent","uniform","1","undefined","1","h","0","0","0","30","30","0","30","0","30","0","0","0","30","30","30","30","Mon Sep 19 18:26:10 2022","1500","The main experiment item","yes","FlankerTask.osexp","C:/Users/lil_p/OneDrive/Documents/School/Advanced Quantitative Analysis/Lab 2.1","no","mono","no","18","no","white","no","yes","768","legacy","30","30","C:/Users/lil_p/OneDrive/Documents/School/Advanced Quantitative Analysis/Lab 2.1/CP-subject-2.csv","legacy","Lentiform Loewenfeld","3.3.12","0","h","NA","s","NA","NA","h","584","NA","32902","NA","NA","584","2","legacy","1024","2","48000","-16","experiment","SSHSS","2","even","37019","NA","NA","93067","NA","4103","NA","NA","94210","4115","NA","NA","94313","94899","94205","94313","Flanker Task","31","19699","31","yes","1024"
"100","100","634.46875","634.46875","black","legacy","legacy","legacy","0","congruent","uniform","1","undefined","1","h","0","0","0","31","31","0","31","0","31","0","0","0","31","31","31","31","Mon Sep 19 18:26:10 2022","1500","The main experiment item","yes","FlankerTask.osexp","C:/Users/lil_p/OneDrive/Documents/School/Advanced Quantitative Analysis/Lab 2.1","no","mono","no","18","no","white","no","yes","768","legacy","31","31","C:/Users/lil_p/OneDrive/Documents/School/Advanced Quantitative Analysis/Lab 2.1/CP-subject-2.csv","legacy","Lentiform Loewenfeld","3.3.12","0","h","NA","s","NA","NA","h","604","NA","32902","NA","NA","604","2","legacy","1024","2","48000","-16","experiment","HHHHH","2","even","37019","NA","NA","94904","NA","4103","NA","NA","96055","4115","NA","NA","96158","96764","96050","96158","Flanker Task","32","20303","32","yes","1024"
"100","100","631.5151515151515","631.5151515151515","black","legacy","legacy","legacy","0","inconguent","uniform","1","undefined","1","s","0","0","0","32","32","0","32","0","32","0","0","0","32","32","32","32","Mon Sep 19 18:26:10 2022","1500","The main experiment item","yes","FlankerTask.osexp","C:/Users/lil_p/OneDrive/Documents/School/Advanced Quantitative Analysis/Lab 2.1","no","mono","no","18","no","white","no","yes","768","legacy","32","32","C:/Users/lil_p/OneDrive/Documents/School/Advanced Quantitative Analysis/Lab 2.1/CP-subject-2.csv","legacy","Lentiform Loewenfeld","3.3.12","0","s","NA","s","NA","NA","s","537","NA","32902","NA","NA","537","2","legacy","1024","2","48000","-16","experiment","HHSHH","2","even","37019","NA","NA","96772","NA","4103","NA","NA","97919","4115","NA","NA","98022","98560","97914","98022","Flanker Task","33","20840","33","yes","1024"
"100","100","633.5882352941177","633.5882352941177","black","legacy","legacy","legacy","0","inconguent","uniform","1","undefined","1","s","0","0","0","33","33","0","33","0","33","0","0","0","33","33","33","33","Mon Sep 19 18:26:10 2022","1500","The main experiment item","yes","FlankerTask.osexp","C:/Users/lil_p/OneDrive/Documents/School/Advanced Quantitative Analysis/Lab 2.1","no","mono","no","18","no","white","no","yes","768","legacy","33","33","C:/Users/lil_p/OneDrive/Documents/School/Advanced Quantitative Analysis/Lab 2.1/CP-subject-2.csv","legacy","Lentiform Loewenfeld","3.3.12","0","s","NA","s","NA","NA","s","702","NA","32902","NA","NA","702","2","legacy","1024","2","48000","-16","experiment","HHSHH","2","even","37019","NA","NA","98567","NA","4103","NA","NA","99724","4115","NA","NA","99828","100531","99721","99828","Flanker Task","34","21542","34","yes","1024"
"100","100","630.8857142857142","630.8857142857142","black","legacy","legacy","legacy","0","incongruent","uniform","1","undefined","1","h","0","0","0","34","34","0","34","0","34","0","0","0","34","34","34","34","Mon Sep 19 18:26:10 2022","1500","The main experiment item","yes","FlankerTask.osexp","C:/Users/lil_p/OneDrive/Documents/School/Advanced Quantitative Analysis/Lab 2.1","no","mono","no","18","no","white","no","yes","768","legacy","34","34","C:/Users/lil_p/OneDrive/Documents/School/Advanced Quantitative Analysis/Lab 2.1/CP-subject-2.csv","legacy","Lentiform Loewenfeld","3.3.12","0","h","NA","s","NA","NA","h","539","NA","32902","NA","NA","539","2","legacy","1024","2","48000","-16","experiment","SSHSS","2","even","37019","NA","NA","100540","NA","4103","NA","NA","101692","4115","NA","NA","101795","102336","101688","101795","Flanker Task","35","22081","35","yes","1024"
"100","100","631","631","black","legacy","legacy","legacy","0","congruent","uniform","1","undefined","1","s","0","0","0","35","35","0","35","0","35","0","0","0","35","35","35","35","Mon Sep 19 18:26:10 2022","1500","The main experiment item","yes","FlankerTask.osexp","C:/Users/lil_p/OneDrive/Documents/School/Advanced Quantitative Analysis/Lab 2.1","no","mono","no","18","no","white","no","yes","768","legacy","35","35","C:/Users/lil_p/OneDrive/Documents/School/Advanced Quantitative Analysis/Lab 2.1/CP-subject-2.csv","legacy","Lentiform Loewenfeld","3.3.12","0","s","NA","s","NA","NA","s","635","NA","32902","NA","NA","635","2","legacy","1024","2","48000","-16","experiment","SSSSS","2","even","37019","NA","NA","102345","NA","4103","NA","NA","103490","4115","NA","NA","103593","104230","103485","103593","Flanker Task","36","22716","36","yes","1024"
"100","100","635.918918918919","635.918918918919","black","legacy","legacy","legacy","0","inconguent","uniform","1","undefined","1","s","0","0","0","36","36","0","36","0","36","0","0","0","36","36","36","36","Mon Sep 19 18:26:10 2022","1500","The main experiment item","yes","FlankerTask.osexp","C:/Users/lil_p/OneDrive/Documents/School/Advanced Quantitative Analysis/Lab 2.1","no","mono","no","18","no","white","no","yes","768","legacy","36","36","C:/Users/lil_p/OneDrive/Documents/School/Advanced Quantitative Analysis/Lab 2.1/CP-subject-2.csv","legacy","Lentiform Loewenfeld","3.3.12","0","s","NA","s","NA","NA","s","813","NA","32902","NA","NA","813","2","legacy","1024","2","48000","-16","experiment","HHSHH","2","even","37019","NA","NA","104236","NA","4103","NA","NA","105388","4115","NA","NA","105492","106306","105385","105492","Flanker Task","37","23529","37","yes","1024"
"100","100","634.5526315789474","634.5526315789474","black","legacy","legacy","legacy","0","congruent","uniform","1","undefined","1","s","0","0","0","37","37","0","37","0","37","0","0","0","37","37","37","37","Mon Sep 19 18:26:10 2022","1500","The main experiment item","yes","FlankerTask.osexp","C:/Users/lil_p/OneDrive/Documents/School/Advanced Quantitative Analysis/Lab 2.1","no","mono","no","18","no","white","no","yes","768","legacy","37","37","C:/Users/lil_p/OneDrive/Documents/School/Advanced Quantitative Analysis/Lab 2.1/CP-subject-2.csv","legacy","Lentiform Loewenfeld","3.3.12","0","s","NA","s","NA","NA","s","584","NA","32902","NA","NA","584","2","legacy","1024","2","48000","-16","experiment","SSSSS","2","even","37019","NA","NA","106314","NA","4103","NA","NA","107459","4115","NA","NA","107562","108147","107455","107562","Flanker Task","38","24113","38","yes","1024"
"100","100","629.6153846153846","629.6153846153846","black","legacy","legacy","legacy","0","congruent","uniform","1","undefined","1","h","0","0","0","38","38","0","38","0","38","0","0","0","38","38","38","38","Mon Sep 19 18:26:10 2022","1500","The main experiment item","yes","FlankerTask.osexp","C:/Users/lil_p/OneDrive/Documents/School/Advanced Quantitative Analysis/Lab 2.1","no","mono","no","18","no","white","no","yes","768","legacy","38","38","C:/Users/lil_p/OneDrive/Documents/School/Advanced Quantitative Analysis/Lab 2.1/CP-subject-2.csv","legacy","Lentiform Loewenfeld","3.3.12","0","h","NA","s","NA","NA","h","442","NA","32902","NA","NA","442","2","legacy","1024","2","48000","-16","experiment","HHHHH","2","even","37019","NA","NA","108155","NA","4103","NA","NA","109298","4115","NA","NA","109401","109844","109293","109401","Flanker Task","39","24555","39","yes","1024"
"100","100","626.9","626.9","black","legacy","legacy","legacy","0","incongruent","uniform","1","undefined","1","h","0","0","0","39","39","0","39","0","39","0","0","0","39","39","39","39","Mon Sep 19 18:26:10 2022","1500","The main experiment item","yes","FlankerTask.osexp","C:/Users/lil_p/OneDrive/Documents/School/Advanced Quantitative Analysis/Lab 2.1","no","mono","no","18","no","white","no","yes","768","legacy","39","39","C:/Users/lil_p/OneDrive/Documents/School/Advanced Quantitative Analysis/Lab 2.1/CP-subject-2.csv","legacy","Lentiform Loewenfeld","3.3.12","0","h","NA","s","NA","NA","h","521","NA","32902","NA","NA","521","2","legacy","1024","2","48000","-16","experiment","SSHSS","2","even","37019","NA","NA","109853","NA","4103","NA","NA","110998","4115","NA","NA","111101","111623","110993","111101","Flanker Task","40","25076","40","yes","1024"
"100","100","624.9268292682926","624.9268292682926","black","legacy","legacy","legacy","0","congruent","uniform","1","undefined","1","s","0","0","0","40","40","0","40","0","40","0","0","0","40","40","40","40","Mon Sep 19 18:26:10 2022","1500","The main experiment item","yes","FlankerTask.osexp","C:/Users/lil_p/OneDrive/Documents/School/Advanced Quantitative Analysis/Lab 2.1","no","mono","no","18","no","white","no","yes","768","legacy","40","40","C:/Users/lil_p/OneDrive/Documents/School/Advanced Quantitative Analysis/Lab 2.1/CP-subject-2.csv","legacy","Lentiform Loewenfeld","3.3.12","0","s","NA","s","NA","NA","s","546","NA","32902","NA","NA","546","2","legacy","1024","2","48000","-16","experiment","SSSSS","2","even","37019","NA","NA","111630","NA","4103","NA","NA","112771","4115","NA","NA","112874","113422","112767","112874","Flanker Task","41","25622","41","yes","1024"
"100","100","624.5714285714286","624.5714285714286","black","legacy","legacy","legacy","0","incongruent","uniform","1","undefined","1","h","0","0","0","41","41","0","41","0","41","0","0","0","41","41","41","41","Mon Sep 19 18:26:10 2022","1500","The main experiment item","yes","FlankerTask.osexp","C:/Users/lil_p/OneDrive/Documents/School/Advanced Quantitative Analysis/Lab 2.1","no","mono","no","18","no","white","no","yes","768","legacy","41","41","C:/Users/lil_p/OneDrive/Documents/School/Advanced Quantitative Analysis/Lab 2.1/CP-subject-2.csv","legacy","Lentiform Loewenfeld","3.3.12","0","h","NA","s","NA","NA","h","610","NA","32902","NA","NA","610","2","legacy","1024","2","48000","-16","experiment","SSHSS","2","even","37019","NA","NA","113429","NA","4103","NA","NA","114570","4115","NA","NA","114673","115285","114566","114673","Flanker Task","42","26232","42","yes","1024"
"100","100","624.5813953488372","624.5813953488372","black","legacy","legacy","legacy","0","congruent","uniform","1","undefined","1","h","0","0","0","42","42","0","42","0","42","0","0","0","42","42","42","42","Mon Sep 19 18:26:10 2022","1500","The main experiment item","yes","FlankerTask.osexp","C:/Users/lil_p/OneDrive/Documents/School/Advanced Quantitative Analysis/Lab 2.1","no","mono","no","18","no","white","no","yes","768","legacy","42","42","C:/Users/lil_p/OneDrive/Documents/School/Advanced Quantitative Analysis/Lab 2.1/CP-subject-2.csv","legacy","Lentiform Loewenfeld","3.3.12","0","h","NA","s","NA","NA","h","625","NA","32902","NA","NA","625","2","legacy","1024","2","48000","-16","experiment","HHHHH","2","even","37019","NA","NA","115295","NA","4103","NA","NA","116443","4115","NA","NA","116546","117173","116438","116546","Flanker Task","43","26857","43","yes","1024"
"100","100","623.4090909090909","623.4090909090909","black","legacy","legacy","legacy","0","congruent","uniform","1","undefined","1","s","0","0","0","43","43","0","43","0","43","0","0","0","43","43","43","43","Mon Sep 19 18:26:10 2022","1500","The main experiment item","yes","FlankerTask.osexp","C:/Users/lil_p/OneDrive/Documents/School/Advanced Quantitative Analysis/Lab 2.1","no","mono","no","18","no","white","no","yes","768","legacy","43","43","C:/Users/lil_p/OneDrive/Documents/School/Advanced Quantitative Analysis/Lab 2.1/CP-subject-2.csv","legacy","Lentiform Loewenfeld","3.3.12","0","s","NA","s","NA","NA","s","573","NA","32902","NA","NA","573","2","legacy","1024","2","48000","-16","experiment","SSSSS","2","even","37019","NA","NA","117180","NA","4103","NA","NA","118321","4115","NA","NA","118424","118999","118317","118424","Flanker Task","44","27430","44","yes","1024"
"100","100","621.4888888888889","621.4888888888889","black","legacy","legacy","legacy","0","congruent","uniform","1","undefined","1","s","0","0","0","44","44","0","44","0","44","0","0","0","44","44","44","44","Mon Sep 19 18:26:10 2022","1500","The main experiment item","yes","FlankerTask.osexp","C:/Users/lil_p/OneDrive/Documents/School/Advanced Quantitative Analysis/Lab 2.1","no","mono","no","18","no","white","no","yes","768","legacy","44","44","C:/Users/lil_p/OneDrive/Documents/School/Advanced Quantitative Analysis/Lab 2.1/CP-subject-2.csv","legacy","Lentiform Loewenfeld","3.3.12","0","s","NA","s","NA","NA","s","537","NA","32902","NA","NA","537","2","legacy","1024","2","48000","-16","experiment","SSSSS","2","even","37019","NA","NA","119007","NA","4103","NA","NA","120150","4115","NA","NA","120253","120791","120146","120253","Flanker Task","45","27967","45","yes","1024"
"100","100","618.4347826086956","618.4347826086956","black","legacy","legacy","legacy","0","congruent","uniform","1","undefined","1","h","0","0","0","45","45","0","45","0","45","0","0","0","45","45","45","45","Mon Sep 19 18:26:10 2022","1500","The main experiment item","yes","FlankerTask.osexp","C:/Users/lil_p/OneDrive/Documents/School/Advanced Quantitative Analysis/Lab 2.1","no","mono","no","18","no","white","no","yes","768","legacy","45","45","C:/Users/lil_p/OneDrive/Documents/School/Advanced Quantitative Analysis/Lab 2.1/CP-subject-2.csv","legacy","Lentiform Loewenfeld","3.3.12","0","h","NA","s","NA","NA","h","481","NA","32902","NA","NA","481","2","legacy","1024","2","48000","-16","experiment","HHHHH","2","even","37019","NA","NA","120799","NA","4103","NA","NA","121963","4115","NA","NA","122065","122548","121959","122065","Flanker Task","46","28448","46","yes","1024"
"100","100","615.2340425531914","615.2340425531914","black","legacy","legacy","legacy","0","inconguent","uniform","1","undefined","1","s","0","0","0","46","46","0","46","0","46","0","0","0","46","46","46","46","Mon Sep 19 18:26:10 2022","1500","The main experiment item","yes","FlankerTask.osexp","C:/Users/lil_p/OneDrive/Documents/School/Advanced Quantitative Analysis/Lab 2.1","no","mono","no","18","no","white","no","yes","768","legacy","46","46","C:/Users/lil_p/OneDrive/Documents/School/Advanced Quantitative Analysis/Lab 2.1/CP-subject-2.csv","legacy","Lentiform Loewenfeld","3.3.12","0","s","NA","s","NA","NA","s","468","NA","32902","NA","NA","468","2","legacy","1024","2","48000","-16","experiment","HHSHH","2","even","37019","NA","NA","122555","NA","4103","NA","NA","123696","4115","NA","NA","123799","124269","123692","123799","Flanker Task","47","28916","47","yes","1024"
"100","100","614.125","614.125","black","legacy","legacy","legacy","0","incongruent","uniform","1","undefined","1","h","0","0","0","47","47","0","47","0","47","0","0","0","47","47","47","47","Mon Sep 19 18:26:10 2022","1500","The main experiment item","yes","FlankerTask.osexp","C:/Users/lil_p/OneDrive/Documents/School/Advanced Quantitative Analysis/Lab 2.1","no","mono","no","18","no","white","no","yes","768","legacy","47","47","C:/Users/lil_p/OneDrive/Documents/School/Advanced Quantitative Analysis/Lab 2.1/CP-subject-2.csv","legacy","Lentiform Loewenfeld","3.3.12","0","h","NA","s","NA","NA","h","562","NA","32902","NA","NA","562","2","legacy","1024","2","48000","-16","experiment","SSHSS","2","even","37019","NA","NA","124277","NA","4103","NA","NA","125423","4115","NA","NA","125526","126090","125418","125526","Flanker Task","48","29478","48","yes","1024"
"100","100","615.0408163265306","615.0408163265306","black","legacy","legacy","legacy","0","inconguent","uniform","1","undefined","1","s","0","0","0","48","48","0","48","0","48","0","0","0","48","48","48","48","Mon Sep 19 18:26:10 2022","1500","The main experiment item","yes","FlankerTask.osexp","C:/Users/lil_p/OneDrive/Documents/School/Advanced Quantitative Analysis/Lab 2.1","no","mono","no","18","no","white","no","yes","768","legacy","48","48","C:/Users/lil_p/OneDrive/Documents/School/Advanced Quantitative Analysis/Lab 2.1/CP-subject-2.csv","legacy","Lentiform Loewenfeld","3.3.12","0","s","NA","s","NA","NA","s","659","NA","32902","NA","NA","659","2","legacy","1024","2","48000","-16","experiment","HHSHH","2","even","37019","NA","NA","126097","NA","4103","NA","NA","127240","4115","NA","NA","127343","128004","127236","127343","Flanker Task","49","30137","49","yes","1024"
"100","100","614.9","614.9","black","legacy","legacy","legacy","0","incongruent","uniform","1","undefined","1","h","0","0","0","49","49","0","49","0","49","0","0","0","49","49","49","49","Mon Sep 19 18:26:10 2022","1500","The main experiment item","yes","FlankerTask.osexp","C:/Users/lil_p/OneDrive/Documents/School/Advanced Quantitative Analysis/Lab 2.1","no","mono","no","18","no","white","no","yes","768","legacy","49","49","C:/Users/lil_p/OneDrive/Documents/School/Advanced Quantitative Analysis/Lab 2.1/CP-subject-2.csv","legacy","Lentiform Loewenfeld","3.3.12","0","h","NA","s","NA","NA","h","608","NA","32902","NA","NA","608","2","legacy","1024","2","48000","-16","experiment","SSHSS","2","even","37019","NA","NA","128011","NA","4103","NA","NA","129155","4115","NA","NA","129258","129868","129150","129258","Flanker Task","50","30745","50","yes","1024"
"100","100","620.4901960784314","620.4901960784314","black","legacy","legacy","legacy","0","inconguent","uniform","1","undefined","1","s","0","0","0","50","50","0","50","0","50","0","0","0","50","50","50","50","Mon Sep 19 18:26:10 2022","1500","The main experiment item","yes","FlankerTask.osexp","C:/Users/lil_p/OneDrive/Documents/School/Advanced Quantitative Analysis/Lab 2.1","no","mono","no","18","no","white","no","yes","768","legacy","50","50","C:/Users/lil_p/OneDrive/Documents/School/Advanced Quantitative Analysis/Lab 2.1/CP-subject-2.csv","legacy","Lentiform Loewenfeld","3.3.12","0","s","NA","s","NA","NA","s","900","NA","32902","NA","NA","900","2","legacy","1024","2","48000","-16","experiment","HHSHH","2","even","37019","NA","NA","129876","NA","4103","NA","NA","131025","4115","NA","NA","131128","132030","131020","131128","Flanker Task","51","31645","51","yes","1024"
"100","100","620.1538461538462","620.1538461538462","black","legacy","legacy","legacy","0","congruent","uniform","1","undefined","1","h","0","0","0","51","51","0","51","0","51","0","0","0","51","51","51","51","Mon Sep 19 18:26:10 2022","1500","The main experiment item","yes","FlankerTask.osexp","C:/Users/lil_p/OneDrive/Documents/School/Advanced Quantitative Analysis/Lab 2.1","no","mono","no","18","no","white","no","yes","768","legacy","51","51","C:/Users/lil_p/OneDrive/Documents/School/Advanced Quantitative Analysis/Lab 2.1/CP-subject-2.csv","legacy","Lentiform Loewenfeld","3.3.12","0","h","NA","s","NA","NA","h","603","NA","32902","NA","NA","603","2","legacy","1024","2","48000","-16","experiment","HHHHH","2","even","37019","NA","NA","132038","NA","4103","NA","NA","133184","4115","NA","NA","133287","133891","133179","133287","Flanker Task","52","32248","52","yes","1024"
"100","100","620.9622641509434","620.9622641509434","black","legacy","legacy","legacy","0","inconguent","uniform","1","undefined","1","s","0","0","0","52","52","0","52","0","52","0","0","0","52","52","52","52","Mon Sep 19 18:26:10 2022","1500","The main experiment item","yes","FlankerTask.osexp","C:/Users/lil_p/OneDrive/Documents/School/Advanced Quantitative Analysis/Lab 2.1","no","mono","no","18","no","white","no","yes","768","legacy","52","52","C:/Users/lil_p/OneDrive/Documents/School/Advanced Quantitative Analysis/Lab 2.1/CP-subject-2.csv","legacy","Lentiform Loewenfeld","3.3.12","0","s","NA","s","NA","NA","s","663","NA","32902","NA","NA","663","2","legacy","1024","2","48000","-16","experiment","HHSHH","2","even","37019","NA","NA","133898","NA","4103","NA","NA","135045","4115","NA","NA","135148","135813","135041","135148","Flanker Task","53","32911","53","yes","1024"
"100","100","620.425925925926","620.425925925926","black","legacy","legacy","legacy","0","inconguent","uniform","1","undefined","1","s","0","0","0","53","53","0","53","0","53","0","0","0","53","53","53","53","Mon Sep 19 18:26:10 2022","1500","The main experiment item","yes","FlankerTask.osexp","C:/Users/lil_p/OneDrive/Documents/School/Advanced Quantitative Analysis/Lab 2.1","no","mono","no","18","no","white","no","yes","768","legacy","53","53","C:/Users/lil_p/OneDrive/Documents/School/Advanced Quantitative Analysis/Lab 2.1/CP-subject-2.csv","legacy","Lentiform Loewenfeld","3.3.12","0","s","NA","s","NA","NA","s","592","NA","32902","NA","NA","592","2","legacy","1024","2","48000","-16","experiment","HHSHH","2","even","37019","NA","NA","135820","NA","4103","NA","NA","136964","4115","NA","NA","137068","137662","136960","137068","Flanker Task","54","33503","54","yes","1024"
"100","100","621.3454545454546","621.3454545454546","black","legacy","legacy","legacy","0","congruent","uniform","1","undefined","1","h","0","0","0","54","54","0","54","0","54","0","0","0","54","54","54","54","Mon Sep 19 18:26:10 2022","1500","The main experiment item","yes","FlankerTask.osexp","C:/Users/lil_p/OneDrive/Documents/School/Advanced Quantitative Analysis/Lab 2.1","no","mono","no","18","no","white","no","yes","768","legacy","54","54","C:/Users/lil_p/OneDrive/Documents/School/Advanced Quantitative Analysis/Lab 2.1/CP-subject-2.csv","legacy","Lentiform Loewenfeld","3.3.12","0","h","NA","s","NA","NA","h","671","NA","32902","NA","NA","671","2","legacy","1024","2","48000","-16","experiment","HHHHH","2","even","37019","NA","NA","137669","NA","4103","NA","NA","138812","4115","NA","NA","138915","139588","138808","138915","Flanker Task","55","34174","55","yes","1024"
"100","100","618.25","618.25","black","legacy","legacy","legacy","0","congruent","uniform","1","undefined","1","s","0","0","0","55","55","0","55","0","55","0","0","0","55","55","55","55","Mon Sep 19 18:26:10 2022","1500","The main experiment item","yes","FlankerTask.osexp","C:/Users/lil_p/OneDrive/Documents/School/Advanced Quantitative Analysis/Lab 2.1","no","mono","no","18","no","white","no","yes","768","legacy","55","55","C:/Users/lil_p/OneDrive/Documents/School/Advanced Quantitative Analysis/Lab 2.1/CP-subject-2.csv","legacy","Lentiform Loewenfeld","3.3.12","0","s","NA","s","NA","NA","s","448","NA","32902","NA","NA","448","2","legacy","1024","2","48000","-16","experiment","SSSSS","2","even","37019","NA","NA","139596","NA","4103","NA","NA","140739","4115","NA","NA","140843","141294","140736","140843","Flanker Task","56","34622","56","yes","1024"
"100","100","618.9122807017544","618.9122807017544","black","legacy","legacy","legacy","0","congruent","uniform","1","undefined","1","h","0","0","0","56","56","0","56","0","56","0","0","0","56","56","56","56","Mon Sep 19 18:26:10 2022","1500","The main experiment item","yes","FlankerTask.osexp","C:/Users/lil_p/OneDrive/Documents/School/Advanced Quantitative Analysis/Lab 2.1","no","mono","no","18","no","white","no","yes","768","legacy","56","56","C:/Users/lil_p/OneDrive/Documents/School/Advanced Quantitative Analysis/Lab 2.1/CP-subject-2.csv","legacy","Lentiform Loewenfeld","3.3.12","0","h","NA","s","NA","NA","h","656","NA","32902","NA","NA","656","2","legacy","1024","2","48000","-16","experiment","HHHHH","2","even","37019","NA","NA","141302","NA","4103","NA","NA","142445","4115","NA","NA","142548","143206","142441","142548","Flanker Task","57","35278","57","yes","1024"
"100","100","623.6206896551724","623.6206896551724","black","legacy","legacy","legacy","0","incongruent","uniform","1","undefined","1","h","0","0","0","57","57","0","57","0","57","0","0","0","57","57","57","57","Mon Sep 19 18:26:10 2022","1500","The main experiment item","yes","FlankerTask.osexp","C:/Users/lil_p/OneDrive/Documents/School/Advanced Quantitative Analysis/Lab 2.1","no","mono","no","18","no","white","no","yes","768","legacy","57","57","C:/Users/lil_p/OneDrive/Documents/School/Advanced Quantitative Analysis/Lab 2.1/CP-subject-2.csv","legacy","Lentiform Loewenfeld","3.3.12","0","h","NA","s","NA","NA","h","892","NA","32902","NA","NA","892","2","legacy","1024","2","48000","-16","experiment","SSHSS","2","even","37019","NA","NA","143214","NA","4103","NA","NA","144361","4115","NA","NA","144464","145358","144356","144464","Flanker Task","58","36170","58","yes","1024"
"100","100","621.8135593220339","621.8135593220339","black","legacy","legacy","legacy","0","congruent","uniform","1","undefined","1","s","0","0","0","58","58","0","58","0","58","0","0","0","58","58","58","58","Mon Sep 19 18:26:10 2022","1500","The main experiment item","yes","FlankerTask.osexp","C:/Users/lil_p/OneDrive/Documents/School/Advanced Quantitative Analysis/Lab 2.1","no","mono","no","18","no","white","no","yes","768","legacy","58","58","C:/Users/lil_p/OneDrive/Documents/School/Advanced Quantitative Analysis/Lab 2.1/CP-subject-2.csv","legacy","Lentiform Loewenfeld","3.3.12","0","s","NA","s","NA","NA","s","517","NA","32902","NA","NA","517","2","legacy","1024","2","48000","-16","experiment","SSSSS","2","even","37019","NA","NA","145367","NA","4103","NA","NA","146512","4115","NA","NA","146615","147134","146508","146615","Flanker Task","59","36687","59","yes","1024"
"100","100","619.1333333333333","619.1333333333333","black","legacy","legacy","legacy","0","congruent","uniform","1","undefined","1","s","0","0","0","59","59","0","59","0","59","0","0","0","59","59","59","59","Mon Sep 19 18:26:10 2022","1500","The main experiment item","yes","FlankerTask.osexp","C:/Users/lil_p/OneDrive/Documents/School/Advanced Quantitative Analysis/Lab 2.1","no","mono","no","18","no","white","no","yes","768","legacy","59","59","C:/Users/lil_p/OneDrive/Documents/School/Advanced Quantitative Analysis/Lab 2.1/CP-subject-2.csv","legacy","Lentiform Loewenfeld","3.3.12","0","s","NA","s","NA","NA","s","461","NA","32902","NA","NA","461","2","legacy","1024","2","48000","-16","experiment","SSSSS","2","even","37019","NA","NA","147142","NA","4103","NA","NA","148306","4115","NA","NA","148408","148871","148302","148408","Flanker Task","60","37148","60","yes","1024"
"98.36065573770492","98.36065573770492","618.2131147540983","618.2131147540983","black","legacy","legacy","legacy","0","inconguent","uniform","0","undefined","0","s","0","0","0","60","60","0","60","0","60","0","0","0","60","60","60","60","Mon Sep 19 18:26:10 2022","1500","The main experiment item","yes","FlankerTask.osexp","C:/Users/lil_p/OneDrive/Documents/School/Advanced Quantitative Analysis/Lab 2.1","no","mono","no","18","no","white","no","yes","768","legacy","60","60","C:/Users/lil_p/OneDrive/Documents/School/Advanced Quantitative Analysis/Lab 2.1/CP-subject-2.csv","legacy","Lentiform Loewenfeld","3.3.12","0","h","NA","s","NA","NA","h","563","NA","32902","NA","NA","563","2","legacy","1024","2","48000","-16","experiment","HHSHH","2","even","37019","NA","NA","148880","150703","4103","NA","NA","150033","4115","NA","NA","150136","151203","150028","150136","Flanker Task","60","37711","61","yes","1024"
"98.38709677419355","98.38709677419355","619.8225806451613","619.8225806451613","black","legacy","legacy","legacy","0","incongruent","uniform","1","undefined","1","h","0","0","0","61","61","0","61","0","61","0","0","0","61","61","61","61","Mon Sep 19 18:26:10 2022","1500","The main experiment item","yes","FlankerTask.osexp","C:/Users/lil_p/OneDrive/Documents/School/Advanced Quantitative Analysis/Lab 2.1","no","mono","no","18","no","white","no","yes","768","legacy","61","61","C:/Users/lil_p/OneDrive/Documents/School/Advanced Quantitative Analysis/Lab 2.1/CP-subject-2.csv","legacy","Lentiform Loewenfeld","3.3.12","0","h","NA","s","NA","NA","h","718","NA","32902","NA","NA","718","2","legacy","1024","2","48000","-16","experiment","SSHSS","2","even","37019","NA","NA","151212","150703","4103","NA","NA","152376","4115","NA","NA","152479","153198","152372","152479","Flanker Task","61","38429","62","yes","1024"
"98.41269841269842","98.41269841269842","623.8571428571429","623.8571428571429","black","legacy","legacy","legacy","0","congruent","uniform","1","undefined","1","h","0","0","0","62","62","0","62","0","62","0","0","0","62","62","62","62","Mon Sep 19 18:26:10 2022","1500","The main experiment item","yes","FlankerTask.osexp","C:/Users/lil_p/OneDrive/Documents/School/Advanced Quantitative Analysis/Lab 2.1","no","mono","no","18","no","white","no","yes","768","legacy","62","62","C:/Users/lil_p/OneDrive/Documents/School/Advanced Quantitative Analysis/Lab 2.1/CP-subject-2.csv","legacy","Lentiform Loewenfeld","3.3.12","0","h","NA","s","NA","NA","h","874","NA","32902","NA","NA","874","2","legacy","1024","2","48000","-16","experiment","HHHHH","2","even","37019","NA","NA","153204","150703","4103","NA","NA","154357","4115","NA","NA","154461","155337","154354","154461","Flanker Task","62","39303","63","yes","1024"
"98.4375","98.4375","627.21875","627.21875","black","legacy","legacy","legacy","0","inconguent","uniform","1","undefined","1","s","0","0","0","63","63","0","63","0","63","0","0","0","63","63","63","63","Mon Sep 19 18:26:10 2022","1500","The main experiment item","yes","FlankerTask.osexp","C:/Users/lil_p/OneDrive/Documents/School/Advanced Quantitative Analysis/Lab 2.1","no","mono","no","18","no","white","no","yes","768","legacy","63","63","C:/Users/lil_p/OneDrive/Documents/School/Advanced Quantitative Analysis/Lab 2.1/CP-subject-2.csv","legacy","Lentiform Loewenfeld","3.3.12","0","s","NA","s","NA","NA","s","839","NA","32902","NA","NA","839","2","legacy","1024","2","48000","-16","experiment","HHSHH","2","even","37019","NA","NA","155344","150703","4103","NA","NA","156490","4115","NA","NA","156593","157434","156486","156593","Flanker Task","63","40142","64","yes","1024"
"98.46153846153847","98.46153846153847","628.1538461538462","628.1538461538462","black","legacy","legacy","legacy","0","congruent","uniform","1","undefined","1","h","0","0","0","64","64","0","64","0","64","0","0","0","64","64","64","64","Mon Sep 19 18:26:10 2022","1500","The main experiment item","yes","FlankerTask.osexp","C:/Users/lil_p/OneDrive/Documents/School/Advanced Quantitative Analysis/Lab 2.1","no","mono","no","18","no","white","no","yes","768","legacy","64","64","C:/Users/lil_p/OneDrive/Documents/School/Advanced Quantitative Analysis/Lab 2.1/CP-subject-2.csv","legacy","Lentiform Loewenfeld","3.3.12","0","h","NA","s","NA","NA","h","688","NA","32902","NA","NA","688","2","legacy","1024","2","48000","-16","experiment","HHHHH","2","even","37019","NA","NA","157442","150703","4103","NA","NA","158588","4115","NA","NA","158691","159381","158580","158691","Flanker Task","64","40830","65","yes","1024"
"98.48484848484848","98.48484848484848","626.8787878787879","626.8787878787879","black","legacy","legacy","legacy","0","incongruent","uniform","1","undefined","1","h","0","0","0","65","65","0","65","0","65","0","0","0","65","65","65","65","Mon Sep 19 18:26:10 2022","1500","The main experiment item","yes","FlankerTask.osexp","C:/Users/lil_p/OneDrive/Documents/School/Advanced Quantitative Analysis/Lab 2.1","no","mono","no","18","no","white","no","yes","768","legacy","65","65","C:/Users/lil_p/OneDrive/Documents/School/Advanced Quantitative Analysis/Lab 2.1/CP-subject-2.csv","legacy","Lentiform Loewenfeld","3.3.12","0","h","NA","s","NA","NA","h","544","NA","32902","NA","NA","544","2","legacy","1024","2","48000","-16","experiment","SSHSS","2","even","37019","NA","NA","159386","150703","4103","NA","NA","160531","4115","NA","NA","160634","161180","160526","160634","Flanker Task","65","41374","66","yes","1024"
"98.50746268656717","98.50746268656717","626.5522388059702","626.5522388059702","black","legacy","legacy","legacy","0","incongruent","uniform","1","undefined","1","h","0","0","0","66","66","0","66","0","66","0","0","0","66","66","66","66","Mon Sep 19 18:26:10 2022","1500","The main experiment item","yes","FlankerTask.osexp","C:/Users/lil_p/OneDrive/Documents/School/Advanced Quantitative Analysis/Lab 2.1","no","mono","no","18","no","white","no","yes","768","legacy","66","66","C:/Users/lil_p/OneDrive/Documents/School/Advanced Quantitative Analysis/Lab 2.1/CP-subject-2.csv","legacy","Lentiform Loewenfeld","3.3.12","0","h","NA","s","NA","NA","h","605","NA","32902","NA","NA","605","2","legacy","1024","2","48000","-16","experiment","SSHSS","2","even","37019","NA","NA","161187","150703","4103","NA","NA","162331","4115","NA","NA","162434","163041","162326","162434","Flanker Task","66","41979","67","yes","1024"
"98.52941176470588","98.52941176470588","625.4852941176471","625.4852941176471","black","legacy","legacy","legacy","0","congruent","uniform","1","undefined","1","h","0","0","0","67","67","0","67","0","67","0","0","0","67","67","67","67","Mon Sep 19 18:26:10 2022","1500","The main experiment item","yes","FlankerTask.osexp","C:/Users/lil_p/OneDrive/Documents/School/Advanced Quantitative Analysis/Lab 2.1","no","mono","no","18","no","white","no","yes","768","legacy","67","67","C:/Users/lil_p/OneDrive/Documents/School/Advanced Quantitative Analysis/Lab 2.1/CP-subject-2.csv","legacy","Lentiform Loewenfeld","3.3.12","0","h","NA","s","NA","NA","h","554","NA","32902","NA","NA","554","2","legacy","1024","2","48000","-16","experiment","HHHHH","2","even","37019","NA","NA","163049","150703","4103","NA","NA","164216","4115","NA","NA","164319","164875","164213","164319","Flanker Task","67","42533","68","yes","1024"
"98.55072463768116","98.55072463768116","624.9130434782609","624.9130434782609","black","legacy","legacy","legacy","0","inconguent","uniform","1","undefined","1","s","0","0","0","68","68","0","68","0","68","0","0","0","68","68","68","68","Mon Sep 19 18:26:10 2022","1500","The main experiment item","yes","FlankerTask.osexp","C:/Users/lil_p/OneDrive/Documents/School/Advanced Quantitative Analysis/Lab 2.1","no","mono","no","18","no","white","no","yes","768","legacy","68","68","C:/Users/lil_p/OneDrive/Documents/School/Advanced Quantitative Analysis/Lab 2.1/CP-subject-2.csv","legacy","Lentiform Loewenfeld","3.3.12","0","s","NA","s","NA","NA","s","586","NA","32902","NA","NA","586","2","legacy","1024","2","48000","-16","experiment","HHSHH","2","even","37019","NA","NA","164883","150703","4103","NA","NA","166029","4115","NA","NA","166132","166720","166024","166132","Flanker Task","68","43119","69","yes","1024"
"98.57142857142857","98.57142857142857","625.4428571428572","625.4428571428572","black","legacy","legacy","legacy","0","incongruent","uniform","1","undefined","1","h","0","0","0","69","69","0","69","0","69","0","0","0","69","69","69","69","Mon Sep 19 18:26:10 2022","1500","The main experiment item","yes","FlankerTask.osexp","C:/Users/lil_p/OneDrive/Documents/School/Advanced Quantitative Analysis/Lab 2.1","no","mono","no","18","no","white","no","yes","768","legacy","69","69","C:/Users/lil_p/OneDrive/Documents/School/Advanced Quantitative Analysis/Lab 2.1/CP-subject-2.csv","legacy","Lentiform Loewenfeld","3.3.12","0","h","NA","s","NA","NA","h","662","NA","32902","NA","NA","662","2","legacy","1024","2","48000","-16","experiment","SSHSS","2","even","37019","NA","NA","166727","150703","4103","NA","NA","167898","4115","NA","NA","168001","168665","167894","168001","Flanker Task","69","43781","70","yes","1024"
"98.59154929577464","98.59154929577464","628.8732394366198","628.8732394366198","black","legacy","legacy","legacy","0","congruent","uniform","1","undefined","1","s","0","0","0","70","70","0","70","0","70","0","0","0","70","70","70","70","Mon Sep 19 18:26:10 2022","1500","The main experiment item","yes","FlankerTask.osexp","C:/Users/lil_p/OneDrive/Documents/School/Advanced Quantitative Analysis/Lab 2.1","no","mono","no","18","no","white","no","yes","768","legacy","70","70","C:/Users/lil_p/OneDrive/Documents/School/Advanced Quantitative Analysis/Lab 2.1/CP-subject-2.csv","legacy","Lentiform Loewenfeld","3.3.12","0","s","NA","s","NA","NA","s","869","NA","32902","NA","NA","869","2","legacy","1024","2","48000","-16","experiment","SSSSS","2","even","37019","NA","NA","168674","150703","4103","NA","NA","169827","4115","NA","NA","169930","170801","169823","169930","Flanker Task","70","44650","71","yes","1024"
"98.61111111111111","98.61111111111111","629.9861111111111","629.9861111111111","black","legacy","legacy","legacy","0","inconguent","uniform","1","undefined","1","s","0","0","0","71","71","0","71","0","71","0","0","0","71","71","71","71","Mon Sep 19 18:26:10 2022","1500","The main experiment item","yes","FlankerTask.osexp","C:/Users/lil_p/OneDrive/Documents/School/Advanced Quantitative Analysis/Lab 2.1","no","mono","no","18","no","white","no","yes","768","legacy","71","71","C:/Users/lil_p/OneDrive/Documents/School/Advanced Quantitative Analysis/Lab 2.1/CP-subject-2.csv","legacy","Lentiform Loewenfeld","3.3.12","0","s","NA","s","NA","NA","s","709","NA","32902","NA","NA","709","2","legacy","1024","2","48000","-16","experiment","HHSHH","2","even","37019","NA","NA","170809","150703","4103","NA","NA","171959","4115","NA","NA","172062","172774","171955","172062","Flanker Task","71","45359","72","yes","1024"
"98.63013698630137","98.63013698630137","629.6575342465753","629.6575342465753","black","legacy","legacy","legacy","0","congruent","uniform","1","undefined","1","s","0","0","0","72","72","0","72","0","72","0","0","0","72","72","72","72","Mon Sep 19 18:26:10 2022","1500","The main experiment item","yes","FlankerTask.osexp","C:/Users/lil_p/OneDrive/Documents/School/Advanced Quantitative Analysis/Lab 2.1","no","mono","no","18","no","white","no","yes","768","legacy","72","72","C:/Users/lil_p/OneDrive/Documents/School/Advanced Quantitative Analysis/Lab 2.1/CP-subject-2.csv","legacy","Lentiform Loewenfeld","3.3.12","0","s","NA","s","NA","NA","s","606","NA","32902","NA","NA","606","2","legacy","1024","2","48000","-16","experiment","SSSSS","2","even","37019","NA","NA","172782","150703","4103","NA","NA","173935","4115","NA","NA","174038","174646","173931","174038","Flanker Task","72","45965","73","yes","1024"
"98.64864864864865","98.64864864864865","629","629","black","legacy","legacy","legacy","0","incongruent","uniform","1","undefined","1","h","0","0","0","73","73","0","73","0","73","0","0","0","73","73","73","73","Mon Sep 19 18:26:10 2022","1500","The main experiment item","yes","FlankerTask.osexp","C:/Users/lil_p/OneDrive/Documents/School/Advanced Quantitative Analysis/Lab 2.1","no","mono","no","18","no","white","no","yes","768","legacy","73","73","C:/Users/lil_p/OneDrive/Documents/School/Advanced Quantitative Analysis/Lab 2.1/CP-subject-2.csv","legacy","Lentiform Loewenfeld","3.3.12","0","h","NA","s","NA","NA","h","581","NA","32902","NA","NA","581","2","legacy","1024","2","48000","-16","experiment","SSHSS","2","even","37019","NA","NA","174653","150703","4103","NA","NA","175801","4115","NA","NA","175903","176487","175796","175903","Flanker Task","73","46546","74","yes","1024"
"98.66666666666667","98.66666666666667","627.44","627.44","black","legacy","legacy","legacy","0","congruent","uniform","1","undefined","1","h","0","0","0","74","74","0","74","0","74","0","0","0","74","74","74","74","Mon Sep 19 18:26:10 2022","1500","The main experiment item","yes","FlankerTask.osexp","C:/Users/lil_p/OneDrive/Documents/School/Advanced Quantitative Analysis/Lab 2.1","no","mono","no","18","no","white","no","yes","768","legacy","74","74","C:/Users/lil_p/OneDrive/Documents/School/Advanced Quantitative Analysis/Lab 2.1/CP-subject-2.csv","legacy","Lentiform Loewenfeld","3.3.12","0","h","NA","s","NA","NA","h","512","NA","32902","NA","NA","512","2","legacy","1024","2","48000","-16","experiment","HHHHH","2","even","37019","NA","NA","176493","150703","4103","NA","NA","177633","4115","NA","NA","177736","178250","177629","177736","Flanker Task","74","47058","75","yes","1024"
"98.6842105263158","98.6842105263158","625.6973684210526","625.6973684210526","black","legacy","legacy","legacy","0","congruent","uniform","1","undefined","1","s","0","0","0","75","75","0","75","0","75","0","0","0","75","75","75","75","Mon Sep 19 18:26:10 2022","1500","The main experiment item","yes","FlankerTask.osexp","C:/Users/lil_p/OneDrive/Documents/School/Advanced Quantitative Analysis/Lab 2.1","no","mono","no","18","no","white","no","yes","768","legacy","75","75","C:/Users/lil_p/OneDrive/Documents/School/Advanced Quantitative Analysis/Lab 2.1/CP-subject-2.csv","legacy","Lentiform Loewenfeld","3.3.12","0","s","NA","s","NA","NA","s","495","NA","32902","NA","NA","495","2","legacy","1024","2","48000","-16","experiment","SSSSS","2","even","37019","NA","NA","178258","150703","4103","NA","NA","179401","4115","NA","NA","179504","180002","179397","179504","Flanker Task","75","47553","76","yes","1024"
"98.7012987012987","98.7012987012987","627.2207792207793","627.2207792207793","black","legacy","legacy","legacy","0","incongruent","uniform","1","undefined","1","h","0","0","0","76","76","0","76","0","76","0","0","0","76","76","76","76","Mon Sep 19 18:26:10 2022","1500","The main experiment item","yes","FlankerTask.osexp","C:/Users/lil_p/OneDrive/Documents/School/Advanced Quantitative Analysis/Lab 2.1","no","mono","no","18","no","white","no","yes","768","legacy","76","76","C:/Users/lil_p/OneDrive/Documents/School/Advanced Quantitative Analysis/Lab 2.1/CP-subject-2.csv","legacy","Lentiform Loewenfeld","3.3.12","0","h","NA","s","NA","NA","h","743","NA","32902","NA","NA","743","2","legacy","1024","2","48000","-16","experiment","SSHSS","2","even","37019","NA","NA","180010","150703","4103","NA","NA","181154","4115","NA","NA","181257","182002","181150","181257","Flanker Task","76","48296","77","yes","1024"
"98.71794871794872","98.71794871794872","626.6538461538462","626.6538461538462","black","legacy","legacy","legacy","0","congruent","uniform","1","undefined","1","h","0","0","0","77","77","0","77","0","77","0","0","0","77","77","77","77","Mon Sep 19 18:26:10 2022","1500","The main experiment item","yes","FlankerTask.osexp","C:/Users/lil_p/OneDrive/Documents/School/Advanced Quantitative Analysis/Lab 2.1","no","mono","no","18","no","white","no","yes","768","legacy","77","77","C:/Users/lil_p/OneDrive/Documents/School/Advanced Quantitative Analysis/Lab 2.1/CP-subject-2.csv","legacy","Lentiform Loewenfeld","3.3.12","0","h","NA","s","NA","NA","h","583","NA","32902","NA","NA","583","2","legacy","1024","2","48000","-16","experiment","HHHHH","2","even","37019","NA","NA","182011","150703","4103","NA","NA","183153","4115","NA","NA","183256","183841","183148","183256","Flanker Task","77","48879","78","yes","1024"
"98.73417721518987","98.73417721518987","624.8987341772151","624.8987341772151","black","legacy","legacy","legacy","0","congruent","uniform","1","undefined","1","h","0","0","0","78","78","0","78","0","78","0","0","0","78","78","78","78","Mon Sep 19 18:26:10 2022","1500","The main experiment item","yes","FlankerTask.osexp","C:/Users/lil_p/OneDrive/Documents/School/Advanced Quantitative Analysis/Lab 2.1","no","mono","no","18","no","white","no","yes","768","legacy","78","78","C:/Users/lil_p/OneDrive/Documents/School/Advanced Quantitative Analysis/Lab 2.1/CP-subject-2.csv","legacy","Lentiform Loewenfeld","3.3.12","0","h","NA","s","NA","NA","h","488","NA","32902","NA","NA","488","2","legacy","1024","2","48000","-16","experiment","HHHHH","2","even","37019","NA","NA","183849","150703","4103","NA","NA","184997","4115","NA","NA","185100","185590","184993","185100","Flanker Task","78","49367","79","yes","1024"
"98.75","98.75","623.475","623.475","black","legacy","legacy","legacy","0","congruent","uniform","1","undefined","1","s","0","0","0","79","79","0","79","0","79","0","0","0","79","79","79","79","Mon Sep 19 18:26:10 2022","1500","The main experiment item","yes","FlankerTask.osexp","C:/Users/lil_p/OneDrive/Documents/School/Advanced Quantitative Analysis/Lab 2.1","no","mono","no","18","no","white","no","yes","768","legacy","79","79","C:/Users/lil_p/OneDrive/Documents/School/Advanced Quantitative Analysis/Lab 2.1/CP-subject-2.csv","legacy","Lentiform Loewenfeld","3.3.12","0","s","NA","s","NA","NA","s","511","NA","32902","NA","NA","511","2","legacy","1024","2","48000","-16","experiment","SSSSS","2","even","37019","NA","NA","185597","150703","4103","NA","NA","186752","4115","NA","NA","186855","187369","186748","186855","Flanker Task","79","49878","80","yes","1024"
"98.76543209876543","98.76543209876543","624.1728395061729","624.1728395061729","black","legacy","legacy","legacy","0","congruent","uniform","1","undefined","1","s","0","0","0","80","80","0","80","0","80","0","0","0","80","80","80","80","Mon Sep 19 18:26:10 2022","600","The main experiment item","yes","FlankerTask.osexp","C:/Users/lil_p/OneDrive/Documents/School/Advanced Quantitative Analysis/Lab 2.1","no","mono","no","18","no","white","no","yes","768","legacy","0","79","C:/Users/lil_p/OneDrive/Documents/School/Advanced Quantitative Analysis/Lab 2.1/CP-subject-2.csv","legacy","Lentiform Loewenfeld","3.3.12","0","s","NA","s","h","NA","s","680","NA","32902","15838","NA","680","2","legacy","1024","2","48000","-16","experiment","SSSSS","2","even","37019","204265","NA","187376","150703","4103","NA","NA","204394","4115","188424","NA","204497","205180","204392","204497","Flanker Task","80","50558","81","yes","1024"
"98.78048780487805","98.78048780487805","623.560975609756","623.560975609756","black","legacy","legacy","legacy","0","incongruent","uniform","1","undefined","1","h","0","0","0","81","81","0","81","0","81","0","0","0","81","81","81","81","Mon Sep 19 18:26:10 2022","600","The main experiment item","yes","FlankerTask.osexp","C:/Users/lil_p/OneDrive/Documents/School/Advanced Quantitative Analysis/Lab 2.1","no","mono","no","18","no","white","no","yes","768","legacy","1","79","C:/Users/lil_p/OneDrive/Documents/School/Advanced Quantitative Analysis/Lab 2.1/CP-subject-2.csv","legacy","Lentiform Loewenfeld","3.3.12","0","h","NA","s","h","NA","h","574","NA","32902","15838","NA","574","2","legacy","1024","2","48000","-16","experiment","SSHSS","2","even","37019","204265","NA","205187","150703","4103","NA","NA","206335","4115","188424","NA","206438","207015","206331","206438","Flanker Task","81","51132","82","yes","1024"
"98.79518072289157","98.79518072289157","624.0240963855422","624.0240963855422","black","legacy","legacy","legacy","0","congruent","uniform","1","undefined","1","h","0","0","0","82","82","0","82","0","82","0","0","0","82","82","82","82","Mon Sep 19 18:26:10 2022","600","The main experiment item","yes","FlankerTask.osexp","C:/Users/lil_p/OneDrive/Documents/School/Advanced Quantitative Analysis/Lab 2.1","no","mono","no","18","no","white","no","yes","768","legacy","2","79","C:/Users/lil_p/OneDrive/Documents/School/Advanced Quantitative Analysis/Lab 2.1/CP-subject-2.csv","legacy","Lentiform Loewenfeld","3.3.12","0","h","NA","s","h","NA","h","662","NA","32902","15838","NA","662","2","legacy","1024","2","48000","-16","experiment","HHHHH","2","even","37019","204265","NA","207023","150703","4103","NA","NA","208171","4115","188424","NA","208274","208938","208166","208274","Flanker Task","82","51794","83","yes","1024"
"98.80952380952381","98.80952380952381","622.9404761904761","622.9404761904761","black","legacy","legacy","legacy","0","inconguent","uniform","1","undefined","1","s","0","0","0","83","83","0","83","0","83","0","0","0","83","83","83","83","Mon Sep 19 18:26:10 2022","600","The main experiment item","yes","FlankerTask.osexp","C:/Users/lil_p/OneDrive/Documents/School/Advanced Quantitative Analysis/Lab 2.1","no","mono","no","18","no","white","no","yes","768","legacy","3","79","C:/Users/lil_p/OneDrive/Documents/School/Advanced Quantitative Analysis/Lab 2.1/CP-subject-2.csv","legacy","Lentiform Loewenfeld","3.3.12","0","s","NA","s","h","NA","s","533","NA","32902","15838","NA","533","2","legacy","1024","2","48000","-16","experiment","HHSHH","2","even","37019","204265","NA","208945","150703","4103","NA","NA","210089","4115","188424","NA","210192","210727","210084","210192","Flanker Task","83","52327","84","yes","1024"
"98.82352941176471","98.82352941176471","622.7764705882353","622.7764705882353","black","legacy","legacy","legacy","0","inconguent","uniform","1","undefined","1","s","0","0","0","84","84","0","84","0","84","0","0","0","84","84","84","84","Mon Sep 19 18:26:10 2022","600","The main experiment item","yes","FlankerTask.osexp","C:/Users/lil_p/OneDrive/Documents/School/Advanced Quantitative Analysis/Lab 2.1","no","mono","no","18","no","white","no","yes","768","legacy","4","79","C:/Users/lil_p/OneDrive/Documents/School/Advanced Quantitative Analysis/Lab 2.1/CP-subject-2.csv","legacy","Lentiform Loewenfeld","3.3.12","0","s","NA","s","h","NA","s","609","NA","32902","15838","NA","609","2","legacy","1024","2","48000","-16","experiment","HHSHH","2","even","37019","204265","NA","210736","150703","4103","NA","NA","211883","4115","188424","NA","211986","212598","211878","211986","Flanker Task","84","52936","85","yes","1024"
"98.83720930232558","98.83720930232558","621.3837209302326","621.3837209302326","black","legacy","legacy","legacy","0","congruent","uniform","1","undefined","1","s","0","0","0","85","85","0","85","0","85","0","0","0","85","85","85","85","Mon Sep 19 18:26:10 2022","600","The main experiment item","yes","FlankerTask.osexp","C:/Users/lil_p/OneDrive/Documents/School/Advanced Quantitative Analysis/Lab 2.1","no","mono","no","18","no","white","no","yes","768","legacy","5","79","C:/Users/lil_p/OneDrive/Documents/School/Advanced Quantitative Analysis/Lab 2.1/CP-subject-2.csv","legacy","Lentiform Loewenfeld","3.3.12","0","s","NA","s","h","NA","s","503","NA","32902","15838","NA","503","2","legacy","1024","2","48000","-16","experiment","SSSSS","2","even","37019","204265","NA","212607","150703","4103","NA","NA","213749","4115","188424","NA","213853","214359","213745","213853","Flanker Task","85","53439","86","yes","1024"
"98.85057471264368","98.85057471264368","621.7471264367816","621.7471264367816","black","legacy","legacy","legacy","0","incongruent","uniform","1","undefined","1","h","0","0","0","86","86","0","86","0","86","0","0","0","86","86","86","86","Mon Sep 19 18:26:10 2022","600","The main experiment item","yes","FlankerTask.osexp","C:/Users/lil_p/OneDrive/Documents/School/Advanced Quantitative Analysis/Lab 2.1","no","mono","no","18","no","white","no","yes","768","legacy","6","79","C:/Users/lil_p/OneDrive/Documents/School/Advanced Quantitative Analysis/Lab 2.1/CP-subject-2.csv","legacy","Lentiform Loewenfeld","3.3.12","0","h","NA","s","h","NA","h","653","NA","32902","15838","NA","653","2","legacy","1024","2","48000","-16","experiment","SSHSS","2","even","37019","204265","NA","214367","150703","4103","NA","NA","215518","4115","188424","NA","215621","216277","215513","215621","Flanker Task","86","54092","87","yes","1024"
"98.86363636363636","98.86363636363636","620.5568181818181","620.5568181818181","black","legacy","legacy","legacy","0","incongruent","uniform","1","undefined","1","h","0","0","0","87","87","0","87","0","87","0","0","0","87","87","87","87","Mon Sep 19 18:26:10 2022","600","The main experiment item","yes","FlankerTask.osexp","C:/Users/lil_p/OneDrive/Documents/School/Advanced Quantitative Analysis/Lab 2.1","no","mono","no","18","no","white","no","yes","768","legacy","7","79","C:/Users/lil_p/OneDrive/Documents/School/Advanced Quantitative Analysis/Lab 2.1/CP-subject-2.csv","legacy","Lentiform Loewenfeld","3.3.12","0","h","NA","s","h","NA","h","517","NA","32902","15838","NA","517","2","legacy","1024","2","48000","-16","experiment","SSHSS","2","even","37019","204265","NA","216285","150703","4103","NA","NA","217429","4115","188424","NA","217533","218052","217425","217533","Flanker Task","87","54609","88","yes","1024"
"98.87640449438203","98.87640449438203","618.8988764044943","618.8988764044943","black","legacy","legacy","legacy","0","congruent","uniform","1","undefined","1","h","0","0","0","88","88","0","88","0","88","0","0","0","88","88","88","88","Mon Sep 19 18:26:10 2022","600","The main experiment item","yes","FlankerTask.osexp","C:/Users/lil_p/OneDrive/Documents/School/Advanced Quantitative Analysis/Lab 2.1","no","mono","no","18","no","white","no","yes","768","legacy","8","79","C:/Users/lil_p/OneDrive/Documents/School/Advanced Quantitative Analysis/Lab 2.1/CP-subject-2.csv","legacy","Lentiform Loewenfeld","3.3.12","0","h","NA","s","h","NA","h","473","NA","32902","15838","NA","473","2","legacy","1024","2","48000","-16","experiment","HHHHH","2","even","37019","204265","NA","218061","150703","4103","NA","NA","219218","4115","188424","NA","219321","219796","219214","219321","Flanker Task","88","55082","89","yes","1024"
"98.88888888888889","98.88888888888889","618.9444444444445","618.9444444444445","black","legacy","legacy","legacy","0","inconguent","uniform","1","undefined","1","s","0","0","0","89","89","0","89","0","89","0","0","0","89","89","89","89","Mon Sep 19 18:26:10 2022","600","The main experiment item","yes","FlankerTask.osexp","C:/Users/lil_p/OneDrive/Documents/School/Advanced Quantitative Analysis/Lab 2.1","no","mono","no","18","no","white","no","yes","768","legacy","9","79","C:/Users/lil_p/OneDrive/Documents/School/Advanced Quantitative Analysis/Lab 2.1/CP-subject-2.csv","legacy","Lentiform Loewenfeld","3.3.12","0","s","NA","s","h","NA","s","623","NA","32902","15838","NA","623","2","legacy","1024","2","48000","-16","experiment","HHSHH","2","even","37019","204265","NA","219803","150703","4103","NA","NA","220948","4115","188424","NA","221051","221677","220944","221051","Flanker Task","89","55705","90","yes","1024"
"98.9010989010989","98.9010989010989","617.4285714285714","617.4285714285714","black","legacy","legacy","legacy","0","congruent","uniform","1","undefined","1","h","0","0","0","90","90","0","90","0","90","0","0","0","90","90","90","90","Mon Sep 19 18:26:10 2022","600","The main experiment item","yes","FlankerTask.osexp","C:/Users/lil_p/OneDrive/Documents/School/Advanced Quantitative Analysis/Lab 2.1","no","mono","no","18","no","white","no","yes","768","legacy","10","79","C:/Users/lil_p/OneDrive/Documents/School/Advanced Quantitative Analysis/Lab 2.1/CP-subject-2.csv","legacy","Lentiform Loewenfeld","3.3.12","0","h","NA","s","h","NA","h","481","NA","32902","15838","NA","481","2","legacy","1024","2","48000","-16","experiment","HHHHH","2","even","37019","204265","NA","221684","150703","4103","NA","NA","222829","4115","188424","NA","222932","223415","222825","222932","Flanker Task","90","56186","91","yes","1024"
"98.91304347826087","98.91304347826087","616.1847826086956","616.1847826086956","black","legacy","legacy","legacy","0","congruent","uniform","1","undefined","1","h","0","0","0","91","91","0","91","0","91","0","0","0","91","91","91","91","Mon Sep 19 18:26:10 2022","600","The main experiment item","yes","FlankerTask.osexp","C:/Users/lil_p/OneDrive/Documents/School/Advanced Quantitative Analysis/Lab 2.1","no","mono","no","18","no","white","no","yes","768","legacy","11","79","C:/Users/lil_p/OneDrive/Documents/School/Advanced Quantitative Analysis/Lab 2.1/CP-subject-2.csv","legacy","Lentiform Loewenfeld","3.3.12","0","h","NA","s","h","NA","h","503","NA","32902","15838","NA","503","2","legacy","1024","2","48000","-16","experiment","HHHHH","2","even","37019","204265","NA","223424","150703","4103","NA","NA","224572","4115","188424","NA","224675","225180","224567","224675","Flanker Task","91","56689","92","yes","1024"
"98.9247311827957","98.9247311827957","614.6236559139785","614.6236559139785","black","legacy","legacy","legacy","0","congruent","uniform","1","undefined","1","h","0","0","0","92","92","0","92","0","92","0","0","0","92","92","92","92","Mon Sep 19 18:26:10 2022","600","The main experiment item","yes","FlankerTask.osexp","C:/Users/lil_p/OneDrive/Documents/School/Advanced Quantitative Analysis/Lab 2.1","no","mono","no","18","no","white","no","yes","768","legacy","12","79","C:/Users/lil_p/OneDrive/Documents/School/Advanced Quantitative Analysis/Lab 2.1/CP-subject-2.csv","legacy","Lentiform Loewenfeld","3.3.12","0","h","NA","s","h","NA","h","471","NA","32902","15838","NA","471","2","legacy","1024","2","48000","-16","experiment","HHHHH","2","even","37019","204265","NA","225188","150703","4103","NA","NA","226332","4115","188424","NA","226435","226909","226327","226435","Flanker Task","92","57160","93","yes","1024"
"98.93617021276596","98.93617021276596","614.1914893617021","614.1914893617021","black","legacy","legacy","legacy","0","congruent","uniform","1","undefined","1","s","0","0","0","93","93","0","93","0","93","0","0","0","93","93","93","93","Mon Sep 19 18:26:10 2022","600","The main experiment item","yes","FlankerTask.osexp","C:/Users/lil_p/OneDrive/Documents/School/Advanced Quantitative Analysis/Lab 2.1","no","mono","no","18","no","white","no","yes","768","legacy","13","79","C:/Users/lil_p/OneDrive/Documents/School/Advanced Quantitative Analysis/Lab 2.1/CP-subject-2.csv","legacy","Lentiform Loewenfeld","3.3.12","0","s","NA","s","h","NA","s","574","NA","32902","15838","NA","574","2","legacy","1024","2","48000","-16","experiment","SSSSS","2","even","37019","204265","NA","226916","150703","4103","NA","NA","228062","4115","188424","NA","228165","228742","228057","228165","Flanker Task","93","57734","94","yes","1024"
"98.94736842105263","98.94736842105263","613.2","613.2","black","legacy","legacy","legacy","0","congruent","uniform","1","undefined","1","s","0","0","0","94","94","0","94","0","94","0","0","0","94","94","94","94","Mon Sep 19 18:26:10 2022","600","The main experiment item","yes","FlankerTask.osexp","C:/Users/lil_p/OneDrive/Documents/School/Advanced Quantitative Analysis/Lab 2.1","no","mono","no","18","no","white","no","yes","768","legacy","14","79","C:/Users/lil_p/OneDrive/Documents/School/Advanced Quantitative Analysis/Lab 2.1/CP-subject-2.csv","legacy","Lentiform Loewenfeld","3.3.12","0","s","NA","s","h","NA","s","520","NA","32902","15838","NA","520","2","legacy","1024","2","48000","-16","experiment","SSSSS","2","even","37019","204265","NA","228751","150703","4103","NA","NA","229901","4115","188424","NA","230003","230525","229898","230003","Flanker Task","94","58254","95","yes","1024"
"98.95833333333333","98.95833333333333","613.4270833333334","613.4270833333334","black","legacy","legacy","legacy","0","incongruent","uniform","1","undefined","1","h","0","0","0","95","95","0","95","0","95","0","0","0","95","95","95","95","Mon Sep 19 18:26:10 2022","600","The main experiment item","yes","FlankerTask.osexp","C:/Users/lil_p/OneDrive/Documents/School/Advanced Quantitative Analysis/Lab 2.1","no","mono","no","18","no","white","no","yes","768","legacy","15","79","C:/Users/lil_p/OneDrive/Documents/School/Advanced Quantitative Analysis/Lab 2.1/CP-subject-2.csv","legacy","Lentiform Loewenfeld","3.3.12","0","h","NA","s","h","NA","h","635","NA","32902","15838","NA","635","2","legacy","1024","2","48000","-16","experiment","SSHSS","2","even","37019","204265","NA","230532","150703","4103","NA","NA","231680","4115","188424","NA","231783","232420","231676","231783","Flanker Task","95","58889","96","yes","1024"
"98.96907216494846","98.96907216494846","614.3505154639175","614.3505154639175","black","legacy","legacy","legacy","0","congruent","uniform","1","undefined","1","h","0","0","0","96","96","0","96","0","96","0","0","0","96","96","96","96","Mon Sep 19 18:26:10 2022","600","The main experiment item","yes","FlankerTask.osexp","C:/Users/lil_p/OneDrive/Documents/School/Advanced Quantitative Analysis/Lab 2.1","no","mono","no","18","no","white","no","yes","768","legacy","16","79","C:/Users/lil_p/OneDrive/Documents/School/Advanced Quantitative Analysis/Lab 2.1/CP-subject-2.csv","legacy","Lentiform Loewenfeld","3.3.12","0","h","NA","s","h","NA","h","703","NA","32902","15838","NA","703","2","legacy","1024","2","48000","-16","experiment","HHHHH","2","even","37019","204265","NA","232427","150703","4103","NA","NA","233572","4115","188424","NA","233676","234382","233567","233676","Flanker Task","96","59592","97","yes","1024"
"98.9795918367347","98.9795918367347","612.9183673469388","612.9183673469388","black","legacy","legacy","legacy","0","congruent","uniform","1","undefined","1","s","0","0","0","97","97","0","97","0","97","0","0","0","97","97","97","97","Mon Sep 19 18:26:10 2022","600","The main experiment item","yes","FlankerTask.osexp","C:/Users/lil_p/OneDrive/Documents/School/Advanced Quantitative Analysis/Lab 2.1","no","mono","no","18","no","white","no","yes","768","legacy","17","79","C:/Users/lil_p/OneDrive/Documents/School/Advanced Quantitative Analysis/Lab 2.1/CP-subject-2.csv","legacy","Lentiform Loewenfeld","3.3.12","0","s","NA","s","h","NA","s","474","NA","32902","15838","NA","474","2","legacy","1024","2","48000","-16","experiment","SSSSS","2","even","37019","204265","NA","234390","150703","4103","NA","NA","235533","4115","188424","NA","235636","236113","235529","235636","Flanker Task","97","60066","98","yes","1024"
"98.98989898989899","98.98989898989899","611.8383838383838","611.8383838383838","black","legacy","legacy","legacy","0","congruent","uniform","1","undefined","1","h","0","0","0","98","98","0","98","0","98","0","0","0","98","98","98","98","Mon Sep 19 18:26:10 2022","600","The main experiment item","yes","FlankerTask.osexp","C:/Users/lil_p/OneDrive/Documents/School/Advanced Quantitative Analysis/Lab 2.1","no","mono","no","18","no","white","no","yes","768","legacy","18","79","C:/Users/lil_p/OneDrive/Documents/School/Advanced Quantitative Analysis/Lab 2.1/CP-subject-2.csv","legacy","Lentiform Loewenfeld","3.3.12","0","h","NA","s","h","NA","h","506","NA","32902","15838","NA","506","2","legacy","1024","2","48000","-16","experiment","HHHHH","2","even","37019","204265","NA","236122","150703","4103","NA","NA","237271","4115","188424","NA","237374","237883","237266","237374","Flanker Task","98","60572","99","yes","1024"
"99","99","610.79","610.79","black","legacy","legacy","legacy","0","congruent","uniform","1","undefined","1","s","0","0","0","99","99","0","99","0","99","0","0","0","99","99","99","99","Mon Sep 19 18:26:10 2022","600","The main experiment item","yes","FlankerTask.osexp","C:/Users/lil_p/OneDrive/Documents/School/Advanced Quantitative Analysis/Lab 2.1","no","mono","no","18","no","white","no","yes","768","legacy","19","79","C:/Users/lil_p/OneDrive/Documents/School/Advanced Quantitative Analysis/Lab 2.1/CP-subject-2.csv","legacy","Lentiform Loewenfeld","3.3.12","0","s","NA","s","h","NA","s","507","NA","32902","15838","NA","507","2","legacy","1024","2","48000","-16","experiment","SSSSS","2","even","37019","204265","NA","237890","150703","4103","NA","NA","239036","4115","188424","NA","239140","239650","239032","239140","Flanker Task","99","61079","100","yes","1024"
"99.00990099009901","99.00990099009901","609.7524752475248","609.7524752475248","black","legacy","legacy","legacy","0","congruent","uniform","1","undefined","1","s","0","0","0","100","100","0","100","0","100","0","0","0","100","100","100","100","Mon Sep 19 18:26:10 2022","600","The main experiment item","yes","FlankerTask.osexp","C:/Users/lil_p/OneDrive/Documents/School/Advanced Quantitative Analysis/Lab 2.1","no","mono","no","18","no","white","no","yes","768","legacy","20","79","C:/Users/lil_p/OneDrive/Documents/School/Advanced Quantitative Analysis/Lab 2.1/CP-subject-2.csv","legacy","Lentiform Loewenfeld","3.3.12","0","s","NA","s","h","NA","s","506","NA","32902","15838","NA","506","2","legacy","1024","2","48000","-16","experiment","SSSSS","2","even","37019","204265","NA","239658","150703","4103","NA","NA","240817","4115","188424","NA","240920","241429","240813","240920","Flanker Task","100","61585","101","yes","1024"
"99.01960784313725","99.01960784313725","608.6470588235294","608.6470588235294","black","legacy","legacy","legacy","0","congruent","uniform","1","undefined","1","h","0","0","0","101","101","0","101","0","101","0","0","0","101","101","101","101","Mon Sep 19 18:26:10 2022","600","The main experiment item","yes","FlankerTask.osexp","C:/Users/lil_p/OneDrive/Documents/School/Advanced Quantitative Analysis/Lab 2.1","no","mono","no","18","no","white","no","yes","768","legacy","21","79","C:/Users/lil_p/OneDrive/Documents/School/Advanced Quantitative Analysis/Lab 2.1/CP-subject-2.csv","legacy","Lentiform Loewenfeld","3.3.12","0","h","NA","s","h","NA","h","497","NA","32902","15838","NA","497","2","legacy","1024","2","48000","-16","experiment","HHHHH","2","even","37019","204265","NA","241434","150703","4103","NA","NA","242582","4115","188424","NA","242685","243184","242578","242685","Flanker Task","101","62082","102","yes","1024"
"99.02912621359224","99.02912621359224","610.3300970873786","610.3300970873786","black","legacy","legacy","legacy","0","inconguent","uniform","1","undefined","1","s","0","0","0","102","102","0","102","0","102","0","0","0","102","102","102","102","Mon Sep 19 18:26:10 2022","600","The main experiment item","yes","FlankerTask.osexp","C:/Users/lil_p/OneDrive/Documents/School/Advanced Quantitative Analysis/Lab 2.1","no","mono","no","18","no","white","no","yes","768","legacy","22","79","C:/Users/lil_p/OneDrive/Documents/School/Advanced Quantitative Analysis/Lab 2.1/CP-subject-2.csv","legacy","Lentiform Loewenfeld","3.3.12","0","s","NA","s","h","NA","s","782","NA","32902","15838","NA","782","2","legacy","1024","2","48000","-16","experiment","HHSHH","2","even","37019","204265","NA","243191","150703","4103","NA","NA","244338","4115","188424","NA","244441","245226","244333","244441","Flanker Task","102","62864","103","yes","1024"
"99.03846153846153","99.03846153846153","609.9615384615385","609.9615384615385","black","legacy","legacy","legacy","0","congruent","uniform","1","undefined","1","s","0","0","0","103","103","0","103","0","103","0","0","0","103","103","103","103","Mon Sep 19 18:26:10 2022","600","The main experiment item","yes","FlankerTask.osexp","C:/Users/lil_p/OneDrive/Documents/School/Advanced Quantitative Analysis/Lab 2.1","no","mono","no","18","no","white","no","yes","768","legacy","23","79","C:/Users/lil_p/OneDrive/Documents/School/Advanced Quantitative Analysis/Lab 2.1/CP-subject-2.csv","legacy","Lentiform Loewenfeld","3.3.12","0","s","NA","s","h","NA","s","572","NA","32902","15838","NA","572","2","legacy","1024","2","48000","-16","experiment","SSSSS","2","even","37019","204265","NA","245233","150703","4103","NA","NA","246383","4115","188424","NA","246486","247060","246379","246486","Flanker Task","103","63436","104","yes","1024"
"99.04761904761905","99.04761904761905","609.2380952380952","609.2380952380952","black","legacy","legacy","legacy","0","inconguent","uniform","1","undefined","1","s","0","0","0","104","104","0","104","0","104","0","0","0","104","104","104","104","Mon Sep 19 18:26:10 2022","600","The main experiment item","yes","FlankerTask.osexp","C:/Users/lil_p/OneDrive/Documents/School/Advanced Quantitative Analysis/Lab 2.1","no","mono","no","18","no","white","no","yes","768","legacy","24","79","C:/Users/lil_p/OneDrive/Documents/School/Advanced Quantitative Analysis/Lab 2.1/CP-subject-2.csv","legacy","Lentiform Loewenfeld","3.3.12","0","s","NA","s","h","NA","s","534","NA","32902","15838","NA","534","2","legacy","1024","2","48000","-16","experiment","HHSHH","2","even","37019","204265","NA","247067","150703","4103","NA","NA","248216","4115","188424","NA","248319","248856","248210","248319","Flanker Task","104","63970","105","yes","1024"
"99.05660377358491","99.05660377358491","608.0094339622641","608.0094339622641","black","legacy","legacy","legacy","0","congruent","uniform","1","undefined","1","h","0","0","0","105","105","0","105","0","105","0","0","0","105","105","105","105","Mon Sep 19 18:26:10 2022","600","The main experiment item","yes","FlankerTask.osexp","C:/Users/lil_p/OneDrive/Documents/School/Advanced Quantitative Analysis/Lab 2.1","no","mono","no","18","no","white","no","yes","768","legacy","25","79","C:/Users/lil_p/OneDrive/Documents/School/Advanced Quantitative Analysis/Lab 2.1/CP-subject-2.csv","legacy","Lentiform Loewenfeld","3.3.12","0","h","NA","s","h","NA","h","479","NA","32902","15838","NA","479","2","legacy","1024","2","48000","-16","experiment","HHHHH","2","even","37019","204265","NA","248864","150703","4103","NA","NA","250025","4115","188424","NA","250128","250609","250021","250128","Flanker Task","105","64449","106","yes","1024"
"98.13084112149532","98.13084112149532","606.803738317757","606.803738317757","black","legacy","legacy","legacy","0","incongruent","uniform","0","undefined","0","h","0","0","0","106","106","0","106","0","106","0","0","0","106","106","106","106","Mon Sep 19 18:26:10 2022","600","The main experiment item","yes","FlankerTask.osexp","C:/Users/lil_p/OneDrive/Documents/School/Advanced Quantitative Analysis/Lab 2.1","no","mono","no","18","no","white","no","yes","768","legacy","26","79","C:/Users/lil_p/OneDrive/Documents/School/Advanced Quantitative Analysis/Lab 2.1/CP-subject-2.csv","legacy","Lentiform Loewenfeld","3.3.12","0","s","NA","s","h","NA","s","479","NA","32902","15838","NA","479","2","legacy","1024","2","48000","-16","experiment","SSHSS","2","even","37019","204265","NA","250616","252353","4103","NA","NA","251765","4115","188424","NA","251868","252853","251761","251868","Flanker Task","105","64928","107","yes","1024"
"98.14814814814815","98.14814814814815","606.5277777777778","606.5277777777778","black","legacy","legacy","legacy","0","incongruent","uniform","1","undefined","1","h","0","0","0","107","107","0","107","0","107","0","0","0","107","107","107","107","Mon Sep 19 18:26:10 2022","600","The main experiment item","yes","FlankerTask.osexp","C:/Users/lil_p/OneDrive/Documents/School/Advanced Quantitative Analysis/Lab 2.1","no","mono","no","18","no","white","no","yes","768","legacy","27","79","C:/Users/lil_p/OneDrive/Documents/School/Advanced Quantitative Analysis/Lab 2.1/CP-subject-2.csv","legacy","Lentiform Loewenfeld","3.3.12","0","h","NA","s","h","NA","h","577","NA","32902","15838","NA","577","2","legacy","1024","2","48000","-16","experiment","SSHSS","2","even","37019","204265","NA","252860","252353","4103","NA","NA","254006","4115","188424","NA","254109","254689","254001","254109","Flanker Task","106","65505","108","yes","1024"
"98.1651376146789","98.1651376146789","607.1284403669724","607.1284403669724","black","legacy","legacy","legacy","0","congruent","uniform","1","undefined","1","s","0","0","0","108","108","0","108","0","108","0","0","0","108","108","108","108","Mon Sep 19 18:26:10 2022","600","The main experiment item","yes","FlankerTask.osexp","C:/Users/lil_p/OneDrive/Documents/School/Advanced Quantitative Analysis/Lab 2.1","no","mono","no","18","no","white","no","yes","768","legacy","28","79","C:/Users/lil_p/OneDrive/Documents/School/Advanced Quantitative Analysis/Lab 2.1/CP-subject-2.csv","legacy","Lentiform Loewenfeld","3.3.12","0","s","NA","s","h","NA","s","672","NA","32902","15838","NA","672","2","legacy","1024","2","48000","-16","experiment","SSSSS","2","even","37019","204265","NA","254696","252353","4103","NA","NA","255843","4115","188424","NA","255946","256621","255838","255946","Flanker Task","107","66177","109","yes","1024"
"98.18181818181819","98.18181818181819","606.1909090909091","606.1909090909091","black","legacy","legacy","legacy","0","congruent","uniform","1","undefined","1","s","0","0","0","109","109","0","109","0","109","0","0","0","109","109","109","109","Mon Sep 19 18:26:10 2022","600","The main experiment item","yes","FlankerTask.osexp","C:/Users/lil_p/OneDrive/Documents/School/Advanced Quantitative Analysis/Lab 2.1","no","mono","no","18","no","white","no","yes","768","legacy","29","79","C:/Users/lil_p/OneDrive/Documents/School/Advanced Quantitative Analysis/Lab 2.1/CP-subject-2.csv","legacy","Lentiform Loewenfeld","3.3.12","0","s","NA","s","h","NA","s","504","NA","32902","15838","NA","504","2","legacy","1024","2","48000","-16","experiment","SSSSS","2","even","37019","204265","NA","256630","252353","4103","NA","NA","257776","4115","188424","NA","257879","258385","257771","257879","Flanker Task","108","66681","110","yes","1024"
