"acc","accuracy","average_response_time","avg_rt","background","canvas_backend","clock_backend","color_backend","compensation","condition","coordinates","correct","correct_instructions1","correct_keyboard_response","correct_response","count_Block1","count_Block2","count_Block3","count_errorFeedback","count_experiment","count_faster","count_finish","count_fixation","count_instructions1","count_instructions2","count_instructions3","count_isi","count_keyboard_response","count_logger","count_sequence","count_stimulus","datetime","deadline","description","disable_garbage_collection","experiment_file","experiment_path","font_bold","font_family","font_italic","font_size","font_underline","foreground","form_clicks","fullscreen","height","keyboard_backend","live_row","live_row_Block1","logfile","mouse_backend","opensesame_codename","opensesame_version","repeat_cycle","response","response_finish","response_instructions1","response_instructions2","response_instructions3","response_keyboard_response","response_time","response_time_finish","response_time_instructions1","response_time_instructions2","response_time_instructions3","response_time_keyboard_response","round_decimals","sampler_backend","sound_buf_size","sound_channels","sound_freq","sound_sample_size","start","stimulus","subject_nr","subject_parity","time_Block1","time_Block2","time_Block3","time_errorFeedback","time_experiment","time_faster","time_finish","time_fixation","time_instructions1","time_instructions2","time_instructions3","time_isi","time_keyboard_response","time_logger","time_sequence","time_stimulus","title","total_correct","total_response_time","total_responses","uniform_coordinates","width"
"100","100","1005","1005","black","legacy","legacy","legacy","0","incongruent","uniform","1","undefined","1","s","0","0","0","0","0","0","0","0","0","0","0","0","0","0","0","0","Thu Sep 22 10:11:24 2022","1500","The main experiment item","yes","FlankerTask.osexp","/Users/keelyn/Library/CloudStorage/OneDrive-Personal","no","mono","no","18","no","white","no","yes","768","legacy","0","0","/Users/keelyn/Library/CloudStorage/OneDrive-Personal/subject-3.csv","legacy","Lentiform Loewenfeld","3.3.12","0","s","NA","space","NA","NA","s","1005","NA","49757","NA","NA","1005","2","legacy","1024","2","48000","-16","experiment","HHSHH","3","odd","50642","NA","NA","NA","868","NA","NA","50671","879","NA","NA","NA","50778","51784","50667","50778","Flanker Task","1","1005","1","yes","1024"
"100","100","737","737","black","legacy","legacy","legacy","0","incongruent","uniform","1","undefined","1","h","0","0","0","1","0","1","0","1","0","0","0","1","1","1","1","1","Thu Sep 22 10:11:24 2022","1500","The main experiment item","yes","FlankerTask.osexp","/Users/keelyn/Library/CloudStorage/OneDrive-Personal","no","mono","no","18","no","white","no","yes","768","legacy","1","1","/Users/keelyn/Library/CloudStorage/OneDrive-Personal/subject-3.csv","legacy","Lentiform Loewenfeld","3.3.12","0","h","NA","space","NA","NA","h","469","NA","49757","NA","NA","469","2","legacy","1024","2","48000","-16","experiment","SSHSS","3","odd","50642","NA","NA","NA","868","NA","NA","52863","879","NA","NA","51790","52971","53440","52857","52971","Flanker Task","2","1474","2","yes","1024"
"100","100","675.6666666666666","675.6666666666666","black","legacy","legacy","legacy","0","congruent","uniform","1","undefined","1","s","0","0","0","2","0","2","0","2","0","0","0","2","2","2","2","2","Thu Sep 22 10:11:24 2022","1500","The main experiment item","yes","FlankerTask.osexp","/Users/keelyn/Library/CloudStorage/OneDrive-Personal","no","mono","no","18","no","white","no","yes","768","legacy","2","2","/Users/keelyn/Library/CloudStorage/OneDrive-Personal/subject-3.csv","legacy","Lentiform Loewenfeld","3.3.12","0","s","NA","space","NA","NA","s","553","NA","49757","NA","NA","553","2","legacy","1024","2","48000","-16","experiment","SSSSS","3","odd","50642","NA","NA","NA","868","NA","NA","54512","879","NA","NA","53446","54620","55173","54506","54620","Flanker Task","3","2027","3","yes","1024"
"100","100","615.75","615.75","black","legacy","legacy","legacy","0","congruent","uniform","1","undefined","1","s","0","0","0","3","0","3","0","3","0","0","0","3","3","3","3","3","Thu Sep 22 10:11:24 2022","1500","The main experiment item","yes","FlankerTask.osexp","/Users/keelyn/Library/CloudStorage/OneDrive-Personal","no","mono","no","18","no","white","no","yes","768","legacy","3","3","/Users/keelyn/Library/CloudStorage/OneDrive-Personal/subject-3.csv","legacy","Lentiform Loewenfeld","3.3.12","0","s","NA","space","NA","NA","s","436","NA","49757","NA","NA","436","2","legacy","1024","2","48000","-16","experiment","SSSSS","3","odd","50642","NA","NA","NA","868","NA","NA","56243","879","NA","NA","55179","56351","56792","56237","56351","Flanker Task","4","2463","4","yes","1024"
"100","100","590.2","590.2","black","legacy","legacy","legacy","0","congruent","uniform","1","undefined","1","h","0","0","0","4","0","4","0","4","0","0","0","4","4","4","4","4","Thu Sep 22 10:11:24 2022","1500","The main experiment item","yes","FlankerTask.osexp","/Users/keelyn/Library/CloudStorage/OneDrive-Personal","no","mono","no","18","no","white","no","yes","768","legacy","4","4","/Users/keelyn/Library/CloudStorage/OneDrive-Personal/subject-3.csv","legacy","Lentiform Loewenfeld","3.3.12","0","h","NA","space","NA","NA","h","488","NA","49757","NA","NA","488","2","legacy","1024","2","48000","-16","experiment","HHHHH","3","odd","50642","NA","NA","NA","868","NA","NA","57859","879","NA","NA","56797","57968","58457","57853","57968","Flanker Task","5","2951","5","yes","1024"
"83.33333333333333","83.33333333333333","544.1666666666666","544.1666666666666","black","legacy","legacy","legacy","0","incongruent","uniform","0","undefined","0","h","0","0","0","5","0","5","0","5","0","0","0","5","5","5","5","5","Thu Sep 22 10:11:24 2022","1500","The main experiment item","yes","FlankerTask.osexp","/Users/keelyn/Library/CloudStorage/OneDrive-Personal","no","mono","no","18","no","white","no","yes","768","legacy","5","5","/Users/keelyn/Library/CloudStorage/OneDrive-Personal/subject-3.csv","legacy","Lentiform Loewenfeld","3.3.12","0","s","NA","space","NA","NA","s","314","NA","49757","NA","NA","314","2","legacy","1024","2","48000","-16","experiment","SSHSS","3","odd","50642","NA","NA","NA","868","NA","NA","59522","879","NA","NA","58462","59631","59946","59516","59631","Flanker Task","5","3265","6","yes","1024"
"85.71428571428571","85.71428571428571","550.5714285714286","550.5714285714286","black","legacy","legacy","legacy","0","incongruent","uniform","1","undefined","1","h","0","0","0","6","0","6","0","6","0","0","0","6","6","6","6","6","Thu Sep 22 10:11:24 2022","1500","The main experiment item","yes","FlankerTask.osexp","/Users/keelyn/Library/CloudStorage/OneDrive-Personal","no","mono","no","18","no","white","no","yes","768","legacy","6","6","/Users/keelyn/Library/CloudStorage/OneDrive-Personal/subject-3.csv","legacy","Lentiform Loewenfeld","3.3.12","0","h","NA","space","NA","NA","h","589","NA","49757","NA","NA","589","2","legacy","1024","2","48000","-16","experiment","SSHSS","3","odd","50642","NA","NA","59951","868","NA","NA","61524","879","NA","NA","60464","61633","62222","61518","61633","Flanker Task","6","3854","7","yes","1024"
"87.5","87.5","558.875","558.875","black","legacy","legacy","legacy","0","congruent","uniform","1","undefined","1","h","0","0","0","7","0","7","0","7","0","0","0","7","7","7","7","7","Thu Sep 22 10:11:24 2022","1500","The main experiment item","yes","FlankerTask.osexp","/Users/keelyn/Library/CloudStorage/OneDrive-Personal","no","mono","no","18","no","white","no","yes","768","legacy","7","7","/Users/keelyn/Library/CloudStorage/OneDrive-Personal/subject-3.csv","legacy","Lentiform Loewenfeld","3.3.12","0","h","NA","space","NA","NA","h","617","NA","49757","NA","NA","617","2","legacy","1024","2","48000","-16","experiment","HHHHH","3","odd","50642","NA","NA","59951","868","NA","NA","63294","879","NA","NA","62227","63402","64020","63288","63402","Flanker Task","7","4471","8","yes","1024"
"88.88888888888889","88.88888888888889","542.4444444444445","542.4444444444445","black","legacy","legacy","legacy","0","incongruent","uniform","1","undefined","1","h","0","0","0","8","0","8","0","8","0","0","0","8","8","8","8","8","Thu Sep 22 10:11:24 2022","1500","The main experiment item","yes","FlankerTask.osexp","/Users/keelyn/Library/CloudStorage/OneDrive-Personal","no","mono","no","18","no","white","no","yes","768","legacy","8","8","/Users/keelyn/Library/CloudStorage/OneDrive-Personal/subject-3.csv","legacy","Lentiform Loewenfeld","3.3.12","0","h","NA","space","NA","NA","h","411","NA","49757","NA","NA","411","2","legacy","1024","2","48000","-16","experiment","SSHSS","3","odd","50642","NA","NA","59951","868","NA","NA","65086","879","NA","NA","64025","65194","65606","65079","65194","Flanker Task","8","4882","9","yes","1024"
"90","90","539.3","539.3","black","legacy","legacy","legacy","0","incongruent","uniform","1","undefined","1","s","0","0","0","9","0","9","0","9","0","0","0","9","9","9","9","9","Thu Sep 22 10:11:24 2022","1500","The main experiment item","yes","FlankerTask.osexp","/Users/keelyn/Library/CloudStorage/OneDrive-Personal","no","mono","no","18","no","white","no","yes","768","legacy","9","9","/Users/keelyn/Library/CloudStorage/OneDrive-Personal/subject-3.csv","legacy","Lentiform Loewenfeld","3.3.12","0","s","NA","space","NA","NA","s","511","NA","49757","NA","NA","511","2","legacy","1024","2","48000","-16","experiment","HHSHH","3","odd","50642","NA","NA","59951","868","NA","NA","66671","879","NA","NA","65611","66780","67291","66665","66780","Flanker Task","9","5393","10","yes","1024"
"90.9090909090909","90.9090909090909","525.9090909090909","525.9090909090909","black","legacy","legacy","legacy","0","incongruent","uniform","1","undefined","1","s","0","0","0","10","0","10","0","10","0","0","0","10","10","10","10","10","Thu Sep 22 10:11:24 2022","1500","The main experiment item","yes","FlankerTask.osexp","/Users/keelyn/Library/CloudStorage/OneDrive-Personal","no","mono","no","18","no","white","no","yes","768","legacy","10","10","/Users/keelyn/Library/CloudStorage/OneDrive-Personal/subject-3.csv","legacy","Lentiform Loewenfeld","3.3.12","0","s","NA","space","NA","NA","s","392","NA","49757","NA","NA","392","2","legacy","1024","2","48000","-16","experiment","HHSHH","3","odd","50642","NA","NA","59951","868","NA","NA","68359","879","NA","NA","67296","68468","68861","68353","68468","Flanker Task","10","5785","11","yes","1024"
"91.66666666666667","91.66666666666667","522.6666666666666","522.6666666666666","black","legacy","legacy","legacy","0","congruent","uniform","1","undefined","1","h","0","0","0","11","0","11","0","11","0","0","0","11","11","11","11","11","Thu Sep 22 10:11:24 2022","1500","The main experiment item","yes","FlankerTask.osexp","/Users/keelyn/Library/CloudStorage/OneDrive-Personal","no","mono","no","18","no","white","no","yes","768","legacy","11","11","/Users/keelyn/Library/CloudStorage/OneDrive-Personal/subject-3.csv","legacy","Lentiform Loewenfeld","3.3.12","0","h","NA","space","NA","NA","h","487","NA","49757","NA","NA","487","2","legacy","1024","2","48000","-16","experiment","HHHHH","3","odd","50642","NA","NA","59951","868","NA","NA","69930","879","NA","NA","68866","70039","70526","69924","70039","Flanker Task","11","6272","12","yes","1024"
"84.61538461538461","84.61538461538461","516.1538461538462","516.1538461538462","black","legacy","legacy","legacy","0","congruent","uniform","0","undefined","0","s","0","0","0","12","0","12","0","12","0","0","0","12","12","12","12","12","Thu Sep 22 10:11:24 2022","1500","The main experiment item","yes","FlankerTask.osexp","/Users/keelyn/Library/CloudStorage/OneDrive-Personal","no","mono","no","18","no","white","no","yes","768","legacy","12","12","/Users/keelyn/Library/CloudStorage/OneDrive-Personal/subject-3.csv","legacy","Lentiform Loewenfeld","3.3.12","0","h","NA","space","NA","NA","h","438","NA","49757","NA","NA","438","2","legacy","1024","2","48000","-16","experiment","SSSSS","3","odd","50642","NA","NA","59951","868","NA","NA","71593","879","NA","NA","70531","71702","72140","71587","71702","Flanker Task","11","6710","13","yes","1024"
"85.71428571428571","85.71428571428571","506.5","506.5","black","legacy","legacy","legacy","0","congruent","uniform","1","undefined","1","s","0","0","0","13","0","13","0","13","0","0","0","13","13","13","13","13","Thu Sep 22 10:11:24 2022","1500","The main experiment item","yes","FlankerTask.osexp","/Users/keelyn/Library/CloudStorage/OneDrive-Personal","no","mono","no","18","no","white","no","yes","768","legacy","13","13","/Users/keelyn/Library/CloudStorage/OneDrive-Personal/subject-3.csv","legacy","Lentiform Loewenfeld","3.3.12","0","s","NA","space","NA","NA","s","381","NA","49757","NA","NA","381","2","legacy","1024","2","48000","-16","experiment","SSSSS","3","odd","50642","NA","NA","72146","868","NA","NA","73721","879","NA","NA","72658","73830","74212","73715","73830","Flanker Task","12","7091","14","yes","1024"
"86.66666666666667","86.66666666666667","502.1333333333333","502.1333333333333","black","legacy","legacy","legacy","0","incongruent","uniform","1","undefined","1","s","0","0","0","14","0","14","0","14","0","0","0","14","14","14","14","14","Thu Sep 22 10:11:24 2022","1500","The main experiment item","yes","FlankerTask.osexp","/Users/keelyn/Library/CloudStorage/OneDrive-Personal","no","mono","no","18","no","white","no","yes","768","legacy","14","14","/Users/keelyn/Library/CloudStorage/OneDrive-Personal/subject-3.csv","legacy","Lentiform Loewenfeld","3.3.12","0","s","NA","space","NA","NA","s","441","NA","49757","NA","NA","441","2","legacy","1024","2","48000","-16","experiment","HHSHH","3","odd","50642","NA","NA","72146","868","NA","NA","75279","879","NA","NA","74217","75388","75829","75272","75388","Flanker Task","13","7532","15","yes","1024"
"87.5","87.5","504.75","504.75","black","legacy","legacy","legacy","0","incongruent","uniform","1","undefined","1","h","0","0","0","15","0","15","0","15","0","0","0","15","15","15","15","15","Thu Sep 22 10:11:24 2022","1500","The main experiment item","yes","FlankerTask.osexp","/Users/keelyn/Library/CloudStorage/OneDrive-Personal","no","mono","no","18","no","white","no","yes","768","legacy","15","15","/Users/keelyn/Library/CloudStorage/OneDrive-Personal/subject-3.csv","legacy","Lentiform Loewenfeld","3.3.12","0","h","NA","space","NA","NA","h","544","NA","49757","NA","NA","544","2","legacy","1024","2","48000","-16","experiment","SSHSS","3","odd","50642","NA","NA","72146","868","NA","NA","76897","879","NA","NA","75835","77006","77551","76891","77006","Flanker Task","14","8076","16","yes","1024"
"88.23529411764706","88.23529411764706","503.05882352941177","503.05882352941177","black","legacy","legacy","legacy","0","congruent","uniform","1","undefined","1","h","0","0","0","16","0","16","0","16","0","0","0","16","16","16","16","16","Thu Sep 22 10:11:24 2022","1500","The main experiment item","yes","FlankerTask.osexp","/Users/keelyn/Library/CloudStorage/OneDrive-Personal","no","mono","no","18","no","white","no","yes","768","legacy","16","16","/Users/keelyn/Library/CloudStorage/OneDrive-Personal/subject-3.csv","legacy","Lentiform Loewenfeld","3.3.12","0","h","NA","space","NA","NA","h","476","NA","49757","NA","NA","476","2","legacy","1024","2","48000","-16","experiment","HHHHH","3","odd","50642","NA","NA","72146","868","NA","NA","78619","879","NA","NA","77556","78728","79205","78613","78728","Flanker Task","15","8552","17","yes","1024"
"88.88888888888889","88.88888888888889","496.6666666666667","496.6666666666667","black","legacy","legacy","legacy","0","congruent","uniform","1","undefined","1","s","0","0","0","17","0","17","0","17","0","0","0","17","17","17","17","17","Thu Sep 22 10:11:24 2022","1500","The main experiment item","yes","FlankerTask.osexp","/Users/keelyn/Library/CloudStorage/OneDrive-Personal","no","mono","no","18","no","white","no","yes","768","legacy","17","17","/Users/keelyn/Library/CloudStorage/OneDrive-Personal/subject-3.csv","legacy","Lentiform Loewenfeld","3.3.12","0","s","NA","space","NA","NA","s","388","NA","49757","NA","NA","388","2","legacy","1024","2","48000","-16","experiment","SSSSS","3","odd","50642","NA","NA","72146","868","NA","NA","80271","879","NA","NA","79210","80380","80768","80265","80380","Flanker Task","16","8940","18","yes","1024"
"89.47368421052632","89.47368421052632","490.05263157894734","490.05263157894734","black","legacy","legacy","legacy","0","congruent","uniform","1","undefined","1","s","0","0","0","18","0","18","0","18","0","0","0","18","18","18","18","18","Thu Sep 22 10:11:24 2022","1500","The main experiment item","yes","FlankerTask.osexp","/Users/keelyn/Library/CloudStorage/OneDrive-Personal","no","mono","no","18","no","white","no","yes","768","legacy","18","18","/Users/keelyn/Library/CloudStorage/OneDrive-Personal/subject-3.csv","legacy","Lentiform Loewenfeld","3.3.12","0","s","NA","space","NA","NA","s","371","NA","49757","NA","NA","371","2","legacy","1024","2","48000","-16","experiment","SSSSS","3","odd","50642","NA","NA","72146","868","NA","NA","81830","879","NA","NA","80773","81938","82310","81824","81938","Flanker Task","17","9311","19","yes","1024"
"90","90","484.4","484.4","black","legacy","legacy","legacy","0","congruent","uniform","1","undefined","1","s","0","0","0","19","0","19","0","19","0","0","0","19","19","19","19","19","Thu Sep 22 10:11:24 2022","1500","The main experiment item","yes","FlankerTask.osexp","/Users/keelyn/Library/CloudStorage/OneDrive-Personal","no","mono","no","18","no","white","no","yes","768","legacy","19","19","/Users/keelyn/Library/CloudStorage/OneDrive-Personal/subject-3.csv","legacy","Lentiform Loewenfeld","3.3.12","0","s","NA","space","NA","NA","s","377","NA","49757","NA","NA","377","2","legacy","1024","2","48000","-16","experiment","SSSSS","3","odd","50642","NA","NA","72146","868","NA","NA","83374","879","NA","NA","82315","83483","83860","83368","83483","Flanker Task","18","9688","20","yes","1024"
"90.47619047619048","90.47619047619048","477","477","black","legacy","legacy","legacy","0","congruent","uniform","1","undefined","1","s","0","0","0","20","0","20","0","20","0","0","0","20","20","20","20","20","Thu Sep 22 10:11:24 2022","1500","The main experiment item","yes","FlankerTask.osexp","/Users/keelyn/Library/CloudStorage/OneDrive-Personal","no","mono","no","18","no","white","no","yes","768","legacy","20","20","/Users/keelyn/Library/CloudStorage/OneDrive-Personal/subject-3.csv","legacy","Lentiform Loewenfeld","3.3.12","0","s","NA","space","NA","NA","s","329","NA","49757","NA","NA","329","2","legacy","1024","2","48000","-16","experiment","SSSSS","3","odd","50642","NA","NA","72146","868","NA","NA","84927","879","NA","NA","83865","85036","85366","84921","85036","Flanker Task","19","10017","21","yes","1024"
"90.9090909090909","90.9090909090909","475.90909090909093","475.90909090909093","black","legacy","legacy","legacy","0","incongruent","uniform","1","undefined","1","s","0","0","0","21","0","21","0","21","0","0","0","21","21","21","21","21","Thu Sep 22 10:11:24 2022","1500","The main experiment item","yes","FlankerTask.osexp","/Users/keelyn/Library/CloudStorage/OneDrive-Personal","no","mono","no","18","no","white","no","yes","768","legacy","21","21","/Users/keelyn/Library/CloudStorage/OneDrive-Personal/subject-3.csv","legacy","Lentiform Loewenfeld","3.3.12","0","s","NA","space","NA","NA","s","453","NA","49757","NA","NA","453","2","legacy","1024","2","48000","-16","experiment","HHSHH","3","odd","50642","NA","NA","72146","868","NA","NA","86428","879","NA","NA","85371","86536","86989","86422","86536","Flanker Task","20","10470","22","yes","1024"
"91.30434782608695","91.30434782608695","477.30434782608694","477.30434782608694","black","legacy","legacy","legacy","0","incongruent","uniform","1","undefined","1","s","0","0","0","22","0","22","0","22","0","0","0","22","22","22","22","22","Thu Sep 22 10:11:24 2022","1500","The main experiment item","yes","FlankerTask.osexp","/Users/keelyn/Library/CloudStorage/OneDrive-Personal","no","mono","no","18","no","white","no","yes","768","legacy","22","22","/Users/keelyn/Library/CloudStorage/OneDrive-Personal/subject-3.csv","legacy","Lentiform Loewenfeld","3.3.12","0","s","NA","space","NA","NA","s","508","NA","49757","NA","NA","508","2","legacy","1024","2","48000","-16","experiment","HHSHH","3","odd","50642","NA","NA","72146","868","NA","NA","88061","879","NA","NA","86994","88170","88679","88054","88170","Flanker Task","21","10978","23","yes","1024"
"91.66666666666667","91.66666666666667","471.0416666666667","471.0416666666667","black","legacy","legacy","legacy","0","incongruent","uniform","1","undefined","1","s","0","0","0","23","0","23","0","23","0","0","0","23","23","23","23","23","Thu Sep 22 10:11:24 2022","1500","The main experiment item","yes","FlankerTask.osexp","/Users/keelyn/Library/CloudStorage/OneDrive-Personal","no","mono","no","18","no","white","no","yes","768","legacy","23","23","/Users/keelyn/Library/CloudStorage/OneDrive-Personal/subject-3.csv","legacy","Lentiform Loewenfeld","3.3.12","0","s","NA","space","NA","NA","s","327","NA","49757","NA","NA","327","2","legacy","1024","2","48000","-16","experiment","HHSHH","3","odd","50642","NA","NA","72146","868","NA","NA","89747","879","NA","NA","88684","89856","90184","89741","89856","Flanker Task","22","11305","24","yes","1024"
"92","92","465.4","465.4","black","legacy","legacy","legacy","0","incongruent","uniform","1","undefined","1","s","0","0","0","24","0","24","0","24","0","0","0","24","24","24","24","24","Thu Sep 22 10:11:24 2022","1500","The main experiment item","yes","FlankerTask.osexp","/Users/keelyn/Library/CloudStorage/OneDrive-Personal","no","mono","no","18","no","white","no","yes","768","legacy","24","24","/Users/keelyn/Library/CloudStorage/OneDrive-Personal/subject-3.csv","legacy","Lentiform Loewenfeld","3.3.12","0","s","NA","space","NA","NA","s","330","NA","49757","NA","NA","330","2","legacy","1024","2","48000","-16","experiment","HHSHH","3","odd","50642","NA","NA","72146","868","NA","NA","91251","879","NA","NA","90189","91360","91690","91244","91359","Flanker Task","23","11635","25","yes","1024"
"88.46153846153847","88.46153846153847","461.15384615384613","461.15384615384613","black","legacy","legacy","legacy","0","incongruent","uniform","0","undefined","0","h","0","0","0","25","0","25","0","25","0","0","0","25","25","25","25","25","Thu Sep 22 10:11:24 2022","1500","The main experiment item","yes","FlankerTask.osexp","/Users/keelyn/Library/CloudStorage/OneDrive-Personal","no","mono","no","18","no","white","no","yes","768","legacy","25","25","/Users/keelyn/Library/CloudStorage/OneDrive-Personal/subject-3.csv","legacy","Lentiform Loewenfeld","3.3.12","0","s","NA","space","NA","NA","s","355","NA","49757","NA","NA","355","2","legacy","1024","2","48000","-16","experiment","SSHSS","3","odd","50642","NA","NA","72146","868","NA","NA","92758","879","NA","NA","91695","92867","93223","92752","92867","Flanker Task","23","11990","26","yes","1024"
"88.88888888888889","88.88888888888889","459.14814814814815","459.14814814814815","black","legacy","legacy","legacy","0","congruent","uniform","1","undefined","1","s","0","0","0","26","0","26","0","26","0","0","0","26","26","26","26","26","Thu Sep 22 10:11:24 2022","1500","The main experiment item","yes","FlankerTask.osexp","/Users/keelyn/Library/CloudStorage/OneDrive-Personal","no","mono","no","18","no","white","no","yes","768","legacy","26","26","/Users/keelyn/Library/CloudStorage/OneDrive-Personal/subject-3.csv","legacy","Lentiform Loewenfeld","3.3.12","0","s","NA","space","NA","NA","s","407","NA","49757","NA","NA","407","2","legacy","1024","2","48000","-16","experiment","SSSSS","3","odd","50642","NA","NA","93228","868","NA","NA","94802","879","NA","NA","93739","94911","95319","94796","94911","Flanker Task","24","12397","27","yes","1024"
"89.28571428571429","89.28571428571429","460.7142857142857","460.7142857142857","black","legacy","legacy","legacy","0","incongruent","uniform","1","undefined","1","h","0","0","0","27","0","27","0","27","0","0","0","27","27","27","27","27","Thu Sep 22 10:11:24 2022","1500","The main experiment item","yes","FlankerTask.osexp","/Users/keelyn/Library/CloudStorage/OneDrive-Personal","no","mono","no","18","no","white","no","yes","768","legacy","27","27","/Users/keelyn/Library/CloudStorage/OneDrive-Personal/subject-3.csv","legacy","Lentiform Loewenfeld","3.3.12","0","h","NA","space","NA","NA","h","503","NA","49757","NA","NA","503","2","legacy","1024","2","48000","-16","experiment","SSHSS","3","odd","50642","NA","NA","93228","868","NA","NA","96380","879","NA","NA","95324","96488","96991","96374","96488","Flanker Task","25","12900","28","yes","1024"
"89.65517241379311","89.65517241379311","458.0689655172414","458.0689655172414","black","legacy","legacy","legacy","0","congruent","uniform","1","undefined","1","s","0","0","0","28","0","28","0","28","0","0","0","28","28","28","28","28","Thu Sep 22 10:11:24 2022","1500","The main experiment item","yes","FlankerTask.osexp","/Users/keelyn/Library/CloudStorage/OneDrive-Personal","no","mono","no","18","no","white","no","yes","768","legacy","28","28","/Users/keelyn/Library/CloudStorage/OneDrive-Personal/subject-3.csv","legacy","Lentiform Loewenfeld","3.3.12","0","s","NA","space","NA","NA","s","384","NA","49757","NA","NA","384","2","legacy","1024","2","48000","-16","experiment","SSSSS","3","odd","50642","NA","NA","93228","868","NA","NA","98057","879","NA","NA","96996","98166","98551","98051","98166","Flanker Task","26","13284","29","yes","1024"
"90","90","456.43333333333334","456.43333333333334","black","legacy","legacy","legacy","0","incongruent","uniform","1","undefined","1","s","0","0","0","29","0","29","0","29","0","0","0","29","29","29","29","29","Thu Sep 22 10:11:24 2022","1500","The main experiment item","yes","FlankerTask.osexp","/Users/keelyn/Library/CloudStorage/OneDrive-Personal","no","mono","no","18","no","white","no","yes","768","legacy","29","29","/Users/keelyn/Library/CloudStorage/OneDrive-Personal/subject-3.csv","legacy","Lentiform Loewenfeld","3.3.12","0","s","NA","space","NA","NA","s","409","NA","49757","NA","NA","409","2","legacy","1024","2","48000","-16","experiment","HHSHH","3","odd","50642","NA","NA","93228","868","NA","NA","99619","879","NA","NA","98556","99728","100138","99612","99727","Flanker Task","27","13693","30","yes","1024"
"90.3225806451613","90.3225806451613","456.51612903225805","456.51612903225805","black","legacy","legacy","legacy","0","congruent","uniform","1","undefined","1","h","0","0","0","30","0","30","0","30","0","0","0","30","30","30","30","30","Thu Sep 22 10:11:24 2022","1500","The main experiment item","yes","FlankerTask.osexp","/Users/keelyn/Library/CloudStorage/OneDrive-Personal","no","mono","no","18","no","white","no","yes","768","legacy","30","30","/Users/keelyn/Library/CloudStorage/OneDrive-Personal/subject-3.csv","legacy","Lentiform Loewenfeld","3.3.12","0","h","NA","space","NA","NA","h","459","NA","49757","NA","NA","459","2","legacy","1024","2","48000","-16","experiment","HHHHH","3","odd","50642","NA","NA","93228","868","NA","NA","101204","879","NA","NA","100143","101312","101772","101198","101312","Flanker Task","28","14152","31","yes","1024"
"90.625","90.625","454.375","454.375","black","legacy","legacy","legacy","0","congruent","uniform","1","undefined","1","s","0","0","0","31","0","31","0","31","0","0","0","31","31","31","31","31","Thu Sep 22 10:11:24 2022","1500","The main experiment item","yes","FlankerTask.osexp","/Users/keelyn/Library/CloudStorage/OneDrive-Personal","no","mono","no","18","no","white","no","yes","768","legacy","31","31","/Users/keelyn/Library/CloudStorage/OneDrive-Personal/subject-3.csv","legacy","Lentiform Loewenfeld","3.3.12","0","s","NA","space","NA","NA","s","388","NA","49757","NA","NA","388","2","legacy","1024","2","48000","-16","experiment","SSSSS","3","odd","50642","NA","NA","93228","868","NA","NA","102835","879","NA","NA","101777","102943","103332","102829","102943","Flanker Task","29","14540","32","yes","1024"
"90.9090909090909","90.9090909090909","453.75757575757575","453.75757575757575","black","legacy","legacy","legacy","0","congruent","uniform","1","undefined","1","h","0","0","0","32","0","32","0","32","0","0","0","32","32","32","32","32","Thu Sep 22 10:11:24 2022","1500","The main experiment item","yes","FlankerTask.osexp","/Users/keelyn/Library/CloudStorage/OneDrive-Personal","no","mono","no","18","no","white","no","yes","768","legacy","32","32","/Users/keelyn/Library/CloudStorage/OneDrive-Personal/subject-3.csv","legacy","Lentiform Loewenfeld","3.3.12","0","h","NA","space","NA","NA","h","434","NA","49757","NA","NA","434","2","legacy","1024","2","48000","-16","experiment","HHHHH","3","odd","50642","NA","NA","93228","868","NA","NA","104403","879","NA","NA","103337","104512","104947","104396","104512","Flanker Task","30","14974","33","yes","1024"
"91.17647058823529","91.17647058823529","455.1764705882353","455.1764705882353","black","legacy","legacy","legacy","0","incongruent","uniform","1","undefined","1","h","0","0","0","33","0","33","0","33","0","0","0","33","33","33","33","33","Thu Sep 22 10:11:24 2022","1500","The main experiment item","yes","FlankerTask.osexp","/Users/keelyn/Library/CloudStorage/OneDrive-Personal","no","mono","no","18","no","white","no","yes","768","legacy","33","33","/Users/keelyn/Library/CloudStorage/OneDrive-Personal/subject-3.csv","legacy","Lentiform Loewenfeld","3.3.12","0","h","NA","space","NA","NA","h","502","NA","49757","NA","NA","502","2","legacy","1024","2","48000","-16","experiment","SSHSS","3","odd","50642","NA","NA","93228","868","NA","NA","106011","879","NA","NA","104952","106120","106623","106005","106120","Flanker Task","31","15476","34","yes","1024"
"91.42857142857143","91.42857142857143","452.48571428571427","452.48571428571427","black","legacy","legacy","legacy","0","congruent","uniform","1","undefined","1","s","0","0","0","34","0","34","0","34","0","0","0","34","34","34","34","34","Thu Sep 22 10:11:24 2022","1500","The main experiment item","yes","FlankerTask.osexp","/Users/keelyn/Library/CloudStorage/OneDrive-Personal","no","mono","no","18","no","white","no","yes","768","legacy","34","34","/Users/keelyn/Library/CloudStorage/OneDrive-Personal/subject-3.csv","legacy","Lentiform Loewenfeld","3.3.12","0","s","NA","space","NA","NA","s","361","NA","49757","NA","NA","361","2","legacy","1024","2","48000","-16","experiment","SSSSS","3","odd","50642","NA","NA","93228","868","NA","NA","107689","879","NA","NA","106628","107798","108160","107683","107798","Flanker Task","32","15837","35","yes","1024"
"91.66666666666667","91.66666666666667","452.8333333333333","452.8333333333333","black","legacy","legacy","legacy","0","incongruent","uniform","1","undefined","1","s","0","0","0","35","0","35","0","35","0","0","0","35","35","35","35","35","Thu Sep 22 10:11:24 2022","1500","The main experiment item","yes","FlankerTask.osexp","/Users/keelyn/Library/CloudStorage/OneDrive-Personal","no","mono","no","18","no","white","no","yes","768","legacy","35","35","/Users/keelyn/Library/CloudStorage/OneDrive-Personal/subject-3.csv","legacy","Lentiform Loewenfeld","3.3.12","0","s","NA","space","NA","NA","s","465","NA","49757","NA","NA","465","2","legacy","1024","2","48000","-16","experiment","HHSHH","3","odd","50642","NA","NA","93228","868","NA","NA","109226","879","NA","NA","108165","109335","109800","109220","109335","Flanker Task","33","16302","36","yes","1024"
"91.89189189189189","91.89189189189189","451.5135135135135","451.5135135135135","black","legacy","legacy","legacy","0","incongruent","uniform","1","undefined","1","s","0","0","0","36","0","36","0","36","0","0","0","36","36","36","36","36","Thu Sep 22 10:11:24 2022","1500","The main experiment item","yes","FlankerTask.osexp","/Users/keelyn/Library/CloudStorage/OneDrive-Personal","no","mono","no","18","no","white","no","yes","768","legacy","36","36","/Users/keelyn/Library/CloudStorage/OneDrive-Personal/subject-3.csv","legacy","Lentiform Loewenfeld","3.3.12","0","s","NA","space","NA","NA","s","404","NA","49757","NA","NA","404","2","legacy","1024","2","48000","-16","experiment","HHSHH","3","odd","50642","NA","NA","93228","868","NA","NA","110867","879","NA","NA","109805","110976","111381","110861","110975","Flanker Task","34","16706","37","yes","1024"
"92.10526315789474","92.10526315789474","453.1842105263158","453.1842105263158","black","legacy","legacy","legacy","0","incongruent","uniform","1","undefined","1","h","0","0","0","37","0","37","0","37","0","0","0","37","37","37","37","37","Thu Sep 22 10:11:24 2022","1500","The main experiment item","yes","FlankerTask.osexp","/Users/keelyn/Library/CloudStorage/OneDrive-Personal","no","mono","no","18","no","white","no","yes","768","legacy","37","37","/Users/keelyn/Library/CloudStorage/OneDrive-Personal/subject-3.csv","legacy","Lentiform Loewenfeld","3.3.12","0","h","NA","space","NA","NA","h","515","NA","49757","NA","NA","515","2","legacy","1024","2","48000","-16","experiment","SSHSS","3","odd","50642","NA","NA","93228","868","NA","NA","112447","879","NA","NA","111386","112556","113072","112441","112556","Flanker Task","35","17221","38","yes","1024"
"92.3076923076923","92.3076923076923","452.28205128205127","452.28205128205127","black","legacy","legacy","legacy","0","incongruent","uniform","1","undefined","1","h","0","0","0","38","0","38","0","38","0","0","0","38","38","38","38","38","Thu Sep 22 10:11:24 2022","1500","The main experiment item","yes","FlankerTask.osexp","/Users/keelyn/Library/CloudStorage/OneDrive-Personal","no","mono","no","18","no","white","no","yes","768","legacy","38","38","/Users/keelyn/Library/CloudStorage/OneDrive-Personal/subject-3.csv","legacy","Lentiform Loewenfeld","3.3.12","0","h","NA","space","NA","NA","h","418","NA","49757","NA","NA","418","2","legacy","1024","2","48000","-16","experiment","SSHSS","3","odd","50642","NA","NA","93228","868","NA","NA","114131","879","NA","NA","113077","114239","114658","114126","114239","Flanker Task","36","17639","39","yes","1024"
"92.5","92.5","452.3","452.3","black","legacy","legacy","legacy","0","congruent","uniform","1","undefined","1","h","0","0","0","39","0","39","0","39","0","0","0","39","39","39","39","39","Thu Sep 22 10:11:24 2022","1500","The main experiment item","yes","FlankerTask.osexp","/Users/keelyn/Library/CloudStorage/OneDrive-Personal","no","mono","no","18","no","white","no","yes","768","legacy","39","39","/Users/keelyn/Library/CloudStorage/OneDrive-Personal/subject-3.csv","legacy","Lentiform Loewenfeld","3.3.12","0","h","NA","space","NA","NA","h","453","NA","49757","NA","NA","453","2","legacy","1024","2","48000","-16","experiment","HHHHH","3","odd","50642","NA","NA","93228","868","NA","NA","115722","879","NA","NA","114663","115830","116284","115716","115830","Flanker Task","37","18092","40","yes","1024"
"92.6829268292683","92.6829268292683","451.9024390243902","451.9024390243902","black","legacy","legacy","legacy","0","congruent","uniform","1","undefined","1","h","0","0","0","40","0","40","0","40","0","0","0","40","40","40","40","40","Thu Sep 22 10:11:24 2022","1500","The main experiment item","yes","FlankerTask.osexp","/Users/keelyn/Library/CloudStorage/OneDrive-Personal","no","mono","no","18","no","white","no","yes","768","legacy","40","40","/Users/keelyn/Library/CloudStorage/OneDrive-Personal/subject-3.csv","legacy","Lentiform Loewenfeld","3.3.12","0","h","NA","space","NA","NA","h","436","NA","49757","NA","NA","436","2","legacy","1024","2","48000","-16","experiment","HHHHH","3","odd","50642","NA","NA","93228","868","NA","NA","117349","879","NA","NA","116289","117458","117895","117343","117458","Flanker Task","38","18528","41","yes","1024"
"92.85714285714286","92.85714285714286","452.76190476190476","452.76190476190476","black","legacy","legacy","legacy","0","congruent","uniform","1","undefined","1","s","0","0","0","41","0","41","0","41","0","0","0","41","41","41","41","41","Thu Sep 22 10:11:24 2022","1500","The main experiment item","yes","FlankerTask.osexp","/Users/keelyn/Library/CloudStorage/OneDrive-Personal","no","mono","no","18","no","white","no","yes","768","legacy","41","41","/Users/keelyn/Library/CloudStorage/OneDrive-Personal/subject-3.csv","legacy","Lentiform Loewenfeld","3.3.12","0","s","NA","space","NA","NA","s","488","NA","49757","NA","NA","488","2","legacy","1024","2","48000","-16","experiment","SSSSS","3","odd","50642","NA","NA","93228","868","NA","NA","118962","879","NA","NA","117899","119071","119560","118956","119071","Flanker Task","39","19016","42","yes","1024"
"93.02325581395348","93.02325581395348","455.4651162790698","455.4651162790698","black","legacy","legacy","legacy","0","incongruent","uniform","1","undefined","1","h","0","0","0","42","0","42","0","42","0","0","0","42","42","42","42","42","Thu Sep 22 10:11:24 2022","1500","The main experiment item","yes","FlankerTask.osexp","/Users/keelyn/Library/CloudStorage/OneDrive-Personal","no","mono","no","18","no","white","no","yes","768","legacy","42","42","/Users/keelyn/Library/CloudStorage/OneDrive-Personal/subject-3.csv","legacy","Lentiform Loewenfeld","3.3.12","0","h","NA","space","NA","NA","h","569","NA","49757","NA","NA","569","2","legacy","1024","2","48000","-16","experiment","SSHSS","3","odd","50642","NA","NA","93228","868","NA","NA","120626","879","NA","NA","119565","120734","121304","120620","120734","Flanker Task","40","19585","43","yes","1024"
"93.18181818181819","93.18181818181819","459.1818181818182","459.1818181818182","black","legacy","legacy","legacy","0","congruent","uniform","1","undefined","1","s","0","0","0","43","0","43","0","43","0","0","0","43","43","43","43","43","Thu Sep 22 10:11:24 2022","1500","The main experiment item","yes","FlankerTask.osexp","/Users/keelyn/Library/CloudStorage/OneDrive-Personal","no","mono","no","18","no","white","no","yes","768","legacy","43","43","/Users/keelyn/Library/CloudStorage/OneDrive-Personal/subject-3.csv","legacy","Lentiform Loewenfeld","3.3.12","0","s","NA","space","NA","NA","s","619","NA","49757","NA","NA","619","2","legacy","1024","2","48000","-16","experiment","SSSSS","3","odd","50642","NA","NA","93228","868","NA","NA","122370","879","NA","NA","121309","122479","123099","122363","122479","Flanker Task","41","20204","44","yes","1024"
"93.33333333333333","93.33333333333333","462.26666666666665","462.26666666666665","black","legacy","legacy","legacy","0","incongruent","uniform","1","undefined","1","h","0","0","0","44","0","44","0","44","0","0","0","44","44","44","44","44","Thu Sep 22 10:11:24 2022","1500","The main experiment item","yes","FlankerTask.osexp","/Users/keelyn/Library/CloudStorage/OneDrive-Personal","no","mono","no","18","no","white","no","yes","768","legacy","44","44","/Users/keelyn/Library/CloudStorage/OneDrive-Personal/subject-3.csv","legacy","Lentiform Loewenfeld","3.3.12","0","h","NA","space","NA","NA","h","598","NA","49757","NA","NA","598","2","legacy","1024","2","48000","-16","experiment","SSHSS","3","odd","50642","NA","NA","93228","868","NA","NA","124166","879","NA","NA","123104","124276","124874","124160","124276","Flanker Task","42","20802","45","yes","1024"
"93.47826086956522","93.47826086956522","462.54347826086956","462.54347826086956","black","legacy","legacy","legacy","0","congruent","uniform","1","undefined","1","h","0","0","0","45","0","45","0","45","0","0","0","45","45","45","45","45","Thu Sep 22 10:11:24 2022","1500","The main experiment item","yes","FlankerTask.osexp","/Users/keelyn/Library/CloudStorage/OneDrive-Personal","no","mono","no","18","no","white","no","yes","768","legacy","45","45","/Users/keelyn/Library/CloudStorage/OneDrive-Personal/subject-3.csv","legacy","Lentiform Loewenfeld","3.3.12","0","h","NA","space","NA","NA","h","475","NA","49757","NA","NA","475","2","legacy","1024","2","48000","-16","experiment","HHHHH","3","odd","50642","NA","NA","93228","868","NA","NA","125940","879","NA","NA","124879","126049","126525","125934","126049","Flanker Task","43","21277","46","yes","1024"
"93.61702127659575","93.61702127659575","463.0425531914894","463.0425531914894","black","legacy","legacy","legacy","0","incongruent","uniform","1","undefined","1","h","0","0","0","46","0","46","0","46","0","0","0","46","46","46","46","46","Thu Sep 22 10:11:24 2022","1500","The main experiment item","yes","FlankerTask.osexp","/Users/keelyn/Library/CloudStorage/OneDrive-Personal","no","mono","no","18","no","white","no","yes","768","legacy","46","46","/Users/keelyn/Library/CloudStorage/OneDrive-Personal/subject-3.csv","legacy","Lentiform Loewenfeld","3.3.12","0","h","NA","space","NA","NA","h","486","NA","49757","NA","NA","486","2","legacy","1024","2","48000","-16","experiment","SSHSS","3","odd","50642","NA","NA","93228","868","NA","NA","127591","879","NA","NA","126530","127699","128186","127585","127699","Flanker Task","44","21763","47","yes","1024"
"93.75","93.75","465.0208333333333","465.0208333333333","black","legacy","legacy","legacy","0","incongruent","uniform","1","undefined","1","s","0","0","0","47","0","47","0","47","0","0","0","47","47","47","47","47","Thu Sep 22 10:11:24 2022","1500","The main experiment item","yes","FlankerTask.osexp","/Users/keelyn/Library/CloudStorage/OneDrive-Personal","no","mono","no","18","no","white","no","yes","768","legacy","47","47","/Users/keelyn/Library/CloudStorage/OneDrive-Personal/subject-3.csv","legacy","Lentiform Loewenfeld","3.3.12","0","s","NA","space","NA","NA","s","558","NA","49757","NA","NA","558","2","legacy","1024","2","48000","-16","experiment","HHSHH","3","odd","50642","NA","NA","93228","868","NA","NA","129252","879","NA","NA","128191","129361","129920","129246","129360","Flanker Task","45","22321","48","yes","1024"
"93.87755102040816","93.87755102040816","465.3265306122449","465.3265306122449","black","legacy","legacy","legacy","0","incongruent","uniform","1","undefined","1","h","0","0","0","48","0","48","0","48","0","0","0","48","48","48","48","48","Thu Sep 22 10:11:24 2022","1500","The main experiment item","yes","FlankerTask.osexp","/Users/keelyn/Library/CloudStorage/OneDrive-Personal","no","mono","no","18","no","white","no","yes","768","legacy","48","48","/Users/keelyn/Library/CloudStorage/OneDrive-Personal/subject-3.csv","legacy","Lentiform Loewenfeld","3.3.12","0","h","NA","space","NA","NA","h","480","NA","49757","NA","NA","480","2","legacy","1024","2","48000","-16","experiment","SSHSS","3","odd","50642","NA","NA","93228","868","NA","NA","130978","879","NA","NA","129925","131086","131567","130972","131086","Flanker Task","46","22801","49","yes","1024"
"94","94","464.88","464.88","black","legacy","legacy","legacy","0","incongruent","uniform","1","undefined","1","h","0","0","0","49","0","49","0","49","0","0","0","49","49","49","49","49","Thu Sep 22 10:11:24 2022","1500","The main experiment item","yes","FlankerTask.osexp","/Users/keelyn/Library/CloudStorage/OneDrive-Personal","no","mono","no","18","no","white","no","yes","768","legacy","49","49","/Users/keelyn/Library/CloudStorage/OneDrive-Personal/subject-3.csv","legacy","Lentiform Loewenfeld","3.3.12","0","h","NA","space","NA","NA","h","443","NA","49757","NA","NA","443","2","legacy","1024","2","48000","-16","experiment","SSHSS","3","odd","50642","NA","NA","93228","868","NA","NA","132635","879","NA","NA","131572","132744","133187","132629","132744","Flanker Task","47","23244","50","yes","1024"
"94.11764705882354","94.11764705882354","464.9019607843137","464.9019607843137","black","legacy","legacy","legacy","0","incongruent","uniform","1","undefined","1","s","0","0","0","50","0","50","0","50","0","0","0","50","50","50","50","50","Thu Sep 22 10:11:24 2022","1500","The main experiment item","yes","FlankerTask.osexp","/Users/keelyn/Library/CloudStorage/OneDrive-Personal","no","mono","no","18","no","white","no","yes","768","legacy","50","50","/Users/keelyn/Library/CloudStorage/OneDrive-Personal/subject-3.csv","legacy","Lentiform Loewenfeld","3.3.12","0","s","NA","space","NA","NA","s","466","NA","49757","NA","NA","466","2","legacy","1024","2","48000","-16","experiment","HHSHH","3","odd","50642","NA","NA","93228","868","NA","NA","134257","879","NA","NA","133192","134366","134832","134251","134366","Flanker Task","48","23710","51","yes","1024"
"94.23076923076923","94.23076923076923","465.65384615384613","465.65384615384613","black","legacy","legacy","legacy","0","incongruent","uniform","1","undefined","1","h","0","0","0","51","0","51","0","51","0","0","0","51","51","51","51","51","Thu Sep 22 10:11:24 2022","1500","The main experiment item","yes","FlankerTask.osexp","/Users/keelyn/Library/CloudStorage/OneDrive-Personal","no","mono","no","18","no","white","no","yes","768","legacy","51","51","/Users/keelyn/Library/CloudStorage/OneDrive-Personal/subject-3.csv","legacy","Lentiform Loewenfeld","3.3.12","0","h","NA","space","NA","NA","h","504","NA","49757","NA","NA","504","2","legacy","1024","2","48000","-16","experiment","SSHSS","3","odd","50642","NA","NA","93228","868","NA","NA","135895","879","NA","NA","134837","136004","136508","135889","136003","Flanker Task","49","24214","52","yes","1024"
"94.33962264150944","94.33962264150944","467.1698113207547","467.1698113207547","black","legacy","legacy","legacy","0","congruent","uniform","1","undefined","1","s","0","0","0","52","0","52","0","52","0","0","0","52","52","52","52","52","Thu Sep 22 10:11:24 2022","1500","The main experiment item","yes","FlankerTask.osexp","/Users/keelyn/Library/CloudStorage/OneDrive-Personal","no","mono","no","18","no","white","no","yes","768","legacy","52","52","/Users/keelyn/Library/CloudStorage/OneDrive-Personal/subject-3.csv","legacy","Lentiform Loewenfeld","3.3.12","0","s","NA","space","NA","NA","s","546","NA","49757","NA","NA","546","2","legacy","1024","2","48000","-16","experiment","SSSSS","3","odd","50642","NA","NA","93228","868","NA","NA","137572","879","NA","NA","136514","137681","138228","137566","137680","Flanker Task","50","24760","53","yes","1024"
"94.44444444444444","94.44444444444444","465.51851851851853","465.51851851851853","black","legacy","legacy","legacy","0","congruent","uniform","1","undefined","1","s","0","0","0","53","0","53","0","53","0","0","0","53","53","53","53","53","Thu Sep 22 10:11:24 2022","1500","The main experiment item","yes","FlankerTask.osexp","/Users/keelyn/Library/CloudStorage/OneDrive-Personal","no","mono","no","18","no","white","no","yes","768","legacy","53","53","/Users/keelyn/Library/CloudStorage/OneDrive-Personal/subject-3.csv","legacy","Lentiform Loewenfeld","3.3.12","0","s","NA","space","NA","NA","s","378","NA","49757","NA","NA","378","2","legacy","1024","2","48000","-16","experiment","SSSSS","3","odd","50642","NA","NA","93228","868","NA","NA","139297","879","NA","NA","138233","139406","139784","139290","139406","Flanker Task","51","25138","54","yes","1024"
"94.54545454545455","94.54545454545455","464.3454545454546","464.3454545454546","black","legacy","legacy","legacy","0","congruent","uniform","1","undefined","1","s","0","0","0","54","0","54","0","54","0","0","0","54","54","54","54","54","Thu Sep 22 10:11:24 2022","1500","The main experiment item","yes","FlankerTask.osexp","/Users/keelyn/Library/CloudStorage/OneDrive-Personal","no","mono","no","18","no","white","no","yes","768","legacy","54","54","/Users/keelyn/Library/CloudStorage/OneDrive-Personal/subject-3.csv","legacy","Lentiform Loewenfeld","3.3.12","0","s","NA","space","NA","NA","s","401","NA","49757","NA","NA","401","2","legacy","1024","2","48000","-16","experiment","SSSSS","3","odd","50642","NA","NA","93228","868","NA","NA","140850","879","NA","NA","139789","140959","141361","140844","140959","Flanker Task","52","25539","55","yes","1024"
"94.64285714285714","94.64285714285714","464.0892857142857","464.0892857142857","black","legacy","legacy","legacy","0","incongruent","uniform","1","undefined","1","h","0","0","0","55","0","55","0","55","0","0","0","55","55","55","55","55","Thu Sep 22 10:11:24 2022","1500","The main experiment item","yes","FlankerTask.osexp","/Users/keelyn/Library/CloudStorage/OneDrive-Personal","no","mono","no","18","no","white","no","yes","768","legacy","55","55","/Users/keelyn/Library/CloudStorage/OneDrive-Personal/subject-3.csv","legacy","Lentiform Loewenfeld","3.3.12","0","h","NA","space","NA","NA","h","450","NA","49757","NA","NA","450","2","legacy","1024","2","48000","-16","experiment","SSHSS","3","odd","50642","NA","NA","93228","868","NA","NA","142427","879","NA","NA","141366","142536","142986","142421","142536","Flanker Task","53","25989","56","yes","1024"
"94.73684210526316","94.73684210526316","462.4035087719298","462.4035087719298","black","legacy","legacy","legacy","0","incongruent","uniform","1","undefined","1","s","0","0","0","56","0","56","0","56","0","0","0","56","56","56","56","56","Thu Sep 22 10:11:24 2022","1500","The main experiment item","yes","FlankerTask.osexp","/Users/keelyn/Library/CloudStorage/OneDrive-Personal","no","mono","no","18","no","white","no","yes","768","legacy","56","56","/Users/keelyn/Library/CloudStorage/OneDrive-Personal/subject-3.csv","legacy","Lentiform Loewenfeld","3.3.12","0","s","NA","space","NA","NA","s","368","NA","49757","NA","NA","368","2","legacy","1024","2","48000","-16","experiment","HHSHH","3","odd","50642","NA","NA","93228","868","NA","NA","144053","879","NA","NA","142991","144161","144530","144046","144161","Flanker Task","54","26357","57","yes","1024"
"94.82758620689656","94.82758620689656","461.6034482758621","461.6034482758621","black","legacy","legacy","legacy","0","congruent","uniform","1","undefined","1","h","0","0","0","57","0","57","0","57","0","0","0","57","57","57","57","57","Thu Sep 22 10:11:24 2022","1500","The main experiment item","yes","FlankerTask.osexp","/Users/keelyn/Library/CloudStorage/OneDrive-Personal","no","mono","no","18","no","white","no","yes","768","legacy","57","57","/Users/keelyn/Library/CloudStorage/OneDrive-Personal/subject-3.csv","legacy","Lentiform Loewenfeld","3.3.12","0","h","NA","space","NA","NA","h","416","NA","49757","NA","NA","416","2","legacy","1024","2","48000","-16","experiment","HHHHH","3","odd","50642","NA","NA","93228","868","NA","NA","145593","879","NA","NA","144535","145701","146118","145587","145701","Flanker Task","55","26773","58","yes","1024"
"94.91525423728814","94.91525423728814","461.8813559322034","461.8813559322034","black","legacy","legacy","legacy","0","congruent","uniform","1","undefined","1","h","0","0","0","58","0","58","0","58","0","0","0","58","58","58","58","58","Thu Sep 22 10:11:24 2022","1500","The main experiment item","yes","FlankerTask.osexp","/Users/keelyn/Library/CloudStorage/OneDrive-Personal","no","mono","no","18","no","white","no","yes","768","legacy","58","58","/Users/keelyn/Library/CloudStorage/OneDrive-Personal/subject-3.csv","legacy","Lentiform Loewenfeld","3.3.12","0","h","NA","space","NA","NA","h","478","NA","49757","NA","NA","478","2","legacy","1024","2","48000","-16","experiment","HHHHH","3","odd","50642","NA","NA","93228","868","NA","NA","147184","879","NA","NA","146123","147293","147772","147178","147293","Flanker Task","56","27251","59","yes","1024"
"93.33333333333333","93.33333333333333","460.8833333333333","460.8833333333333","black","legacy","legacy","legacy","0","incongruent","uniform","0","undefined","0","h","0","0","0","59","0","59","0","59","0","0","0","59","59","59","59","59","Thu Sep 22 10:11:24 2022","1500","The main experiment item","yes","FlankerTask.osexp","/Users/keelyn/Library/CloudStorage/OneDrive-Personal","no","mono","no","18","no","white","no","yes","768","legacy","59","59","/Users/keelyn/Library/CloudStorage/OneDrive-Personal/subject-3.csv","legacy","Lentiform Loewenfeld","3.3.12","0","s","NA","space","NA","NA","s","402","NA","49757","NA","NA","402","2","legacy","1024","2","48000","-16","experiment","SSHSS","3","odd","50642","NA","NA","93228","868","NA","NA","148839","879","NA","NA","147777","148948","149351","148833","148948","Flanker Task","56","27653","60","yes","1024"
"93.44262295081967","93.44262295081967","460.344262295082","460.344262295082","black","legacy","legacy","legacy","0","congruent","uniform","1","undefined","1","h","0","0","0","60","0","60","0","60","0","0","0","60","60","60","60","60","Thu Sep 22 10:11:24 2022","1500","The main experiment item","yes","FlankerTask.osexp","/Users/keelyn/Library/CloudStorage/OneDrive-Personal","no","mono","no","18","no","white","no","yes","768","legacy","60","60","/Users/keelyn/Library/CloudStorage/OneDrive-Personal/subject-3.csv","legacy","Lentiform Loewenfeld","3.3.12","0","h","NA","space","NA","NA","h","428","NA","49757","NA","NA","428","2","legacy","1024","2","48000","-16","experiment","HHHHH","3","odd","50642","NA","NA","149356","868","NA","NA","150929","879","NA","NA","149867","151038","151467","150923","151038","Flanker Task","57","28081","61","yes","1024"
"93.54838709677419","93.54838709677419","460.5483870967742","460.5483870967742","black","legacy","legacy","legacy","0","incongruent","uniform","1","undefined","1","s","0","0","0","61","0","61","0","61","0","0","0","61","61","61","61","61","Thu Sep 22 10:11:24 2022","1500","The main experiment item","yes","FlankerTask.osexp","/Users/keelyn/Library/CloudStorage/OneDrive-Personal","no","mono","no","18","no","white","no","yes","768","legacy","61","61","/Users/keelyn/Library/CloudStorage/OneDrive-Personal/subject-3.csv","legacy","Lentiform Loewenfeld","3.3.12","0","s","NA","space","NA","NA","s","473","NA","49757","NA","NA","473","2","legacy","1024","2","48000","-16","experiment","HHSHH","3","odd","50642","NA","NA","149356","868","NA","NA","152533","879","NA","NA","151471","152642","153115","152527","152641","Flanker Task","58","28554","62","yes","1024"
"93.65079365079364","93.65079365079364","461.4920634920635","461.4920634920635","black","legacy","legacy","legacy","0","congruent","uniform","1","undefined","1","h","0","0","0","62","0","62","0","62","0","0","0","62","62","62","62","62","Thu Sep 22 10:11:24 2022","1500","The main experiment item","yes","FlankerTask.osexp","/Users/keelyn/Library/CloudStorage/OneDrive-Personal","no","mono","no","18","no","white","no","yes","768","legacy","62","62","/Users/keelyn/Library/CloudStorage/OneDrive-Personal/subject-3.csv","legacy","Lentiform Loewenfeld","3.3.12","0","h","NA","space","NA","NA","h","520","NA","49757","NA","NA","520","2","legacy","1024","2","48000","-16","experiment","HHHHH","3","odd","50642","NA","NA","149356","868","NA","NA","154180","879","NA","NA","153120","154289","154810","154173","154289","Flanker Task","59","29074","63","yes","1024"
"93.75","93.75","463","463","black","legacy","legacy","legacy","0","incongruent","uniform","1","undefined","1","s","0","0","0","63","0","63","0","63","0","0","0","63","63","63","63","63","Thu Sep 22 10:11:24 2022","1500","The main experiment item","yes","FlankerTask.osexp","/Users/keelyn/Library/CloudStorage/OneDrive-Personal","no","mono","no","18","no","white","no","yes","768","legacy","63","63","/Users/keelyn/Library/CloudStorage/OneDrive-Personal/subject-3.csv","legacy","Lentiform Loewenfeld","3.3.12","0","s","NA","space","NA","NA","s","558","NA","49757","NA","NA","558","2","legacy","1024","2","48000","-16","experiment","HHSHH","3","odd","50642","NA","NA","149356","868","NA","NA","155875","879","NA","NA","154815","155983","156541","155869","155983","Flanker Task","60","29632","64","yes","1024"
"93.84615384615384","93.84615384615384","466.32307692307694","466.32307692307694","black","legacy","legacy","legacy","0","incongruent","uniform","1","undefined","1","s","0","0","0","64","0","64","0","64","0","0","0","64","64","64","64","64","Thu Sep 22 10:11:24 2022","1500","The main experiment item","yes","FlankerTask.osexp","/Users/keelyn/Library/CloudStorage/OneDrive-Personal","no","mono","no","18","no","white","no","yes","768","legacy","64","64","/Users/keelyn/Library/CloudStorage/OneDrive-Personal/subject-3.csv","legacy","Lentiform Loewenfeld","3.3.12","0","s","NA","space","NA","NA","s","679","NA","49757","NA","NA","679","2","legacy","1024","2","48000","-16","experiment","HHSHH","3","odd","50642","NA","NA","149356","868","NA","NA","157609","879","NA","NA","156546","157718","158398","157603","157718","Flanker Task","61","30311","65","yes","1024"
"93.93939393939394","93.93939393939394","465.59090909090907","465.59090909090907","black","legacy","legacy","legacy","0","congruent","uniform","1","undefined","1","h","0","0","0","65","0","65","0","65","0","0","0","65","65","65","65","65","Thu Sep 22 10:11:24 2022","1500","The main experiment item","yes","FlankerTask.osexp","/Users/keelyn/Library/CloudStorage/OneDrive-Personal","no","mono","no","18","no","white","no","yes","768","legacy","65","65","/Users/keelyn/Library/CloudStorage/OneDrive-Personal/subject-3.csv","legacy","Lentiform Loewenfeld","3.3.12","0","h","NA","space","NA","NA","h","418","NA","49757","NA","NA","418","2","legacy","1024","2","48000","-16","experiment","HHHHH","3","odd","50642","NA","NA","149356","868","NA","NA","159464","879","NA","NA","158403","159573","159992","159458","159573","Flanker Task","62","30729","66","yes","1024"
"94.02985074626865","94.02985074626865","472.04477611940297","472.04477611940297","black","legacy","legacy","legacy","0","congruent","uniform","1","undefined","1","s","0","0","0","66","0","66","0","66","0","0","0","66","66","66","66","66","Thu Sep 22 10:11:24 2022","1500","The main experiment item","yes","FlankerTask.osexp","/Users/keelyn/Library/CloudStorage/OneDrive-Personal","no","mono","no","18","no","white","no","yes","768","legacy","66","66","/Users/keelyn/Library/CloudStorage/OneDrive-Personal/subject-3.csv","legacy","Lentiform Loewenfeld","3.3.12","0","s","NA","space","NA","NA","s","898","NA","49757","NA","NA","898","2","legacy","1024","2","48000","-16","experiment","SSSSS","3","odd","50642","NA","NA","149356","868","NA","NA","161060","879","NA","NA","159997","161169","162068","161054","161169","Flanker Task","63","31627","67","yes","1024"
"94.11764705882354","94.11764705882354","471.7647058823529","471.7647058823529","black","legacy","legacy","legacy","0","congruent","uniform","1","undefined","1","h","0","0","0","67","0","67","0","67","0","0","0","67","67","67","67","67","Thu Sep 22 10:11:24 2022","1500","The main experiment item","yes","FlankerTask.osexp","/Users/keelyn/Library/CloudStorage/OneDrive-Personal","no","mono","no","18","no","white","no","yes","768","legacy","67","67","/Users/keelyn/Library/CloudStorage/OneDrive-Personal/subject-3.csv","legacy","Lentiform Loewenfeld","3.3.12","0","h","NA","space","NA","NA","h","453","NA","49757","NA","NA","453","2","legacy","1024","2","48000","-16","experiment","HHHHH","3","odd","50642","NA","NA","149356","868","NA","NA","163133","879","NA","NA","162072","163242","163696","163127","163242","Flanker Task","64","32080","68","yes","1024"
"94.20289855072464","94.20289855072464","473.2463768115942","473.2463768115942","black","legacy","legacy","legacy","0","congruent","uniform","1","undefined","1","h","0","0","0","68","0","68","0","68","0","0","0","68","68","68","68","68","Thu Sep 22 10:11:24 2022","1500","The main experiment item","yes","FlankerTask.osexp","/Users/keelyn/Library/CloudStorage/OneDrive-Personal","no","mono","no","18","no","white","no","yes","768","legacy","68","68","/Users/keelyn/Library/CloudStorage/OneDrive-Personal/subject-3.csv","legacy","Lentiform Loewenfeld","3.3.12","0","h","NA","space","NA","NA","h","574","NA","49757","NA","NA","574","2","legacy","1024","2","48000","-16","experiment","HHHHH","3","odd","50642","NA","NA","149356","868","NA","NA","164760","879","NA","NA","163700","164869","165444","164754","164868","Flanker Task","65","32654","69","yes","1024"
"94.28571428571429","94.28571428571429","474.0857142857143","474.0857142857143","black","legacy","legacy","legacy","0","incongruent","uniform","1","undefined","1","s","0","0","0","69","0","69","0","69","0","0","0","69","69","69","69","69","Thu Sep 22 10:11:24 2022","1500","The main experiment item","yes","FlankerTask.osexp","/Users/keelyn/Library/CloudStorage/OneDrive-Personal","no","mono","no","18","no","white","no","yes","768","legacy","69","69","/Users/keelyn/Library/CloudStorage/OneDrive-Personal/subject-3.csv","legacy","Lentiform Loewenfeld","3.3.12","0","s","NA","space","NA","NA","s","532","NA","49757","NA","NA","532","2","legacy","1024","2","48000","-16","experiment","HHSHH","3","odd","50642","NA","NA","149356","868","NA","NA","166511","879","NA","NA","165449","166621","167154","166505","166621","Flanker Task","66","33186","70","yes","1024"
"94.36619718309859","94.36619718309859","474.15492957746477","474.15492957746477","black","legacy","legacy","legacy","0","congruent","uniform","1","undefined","1","h","0","0","0","70","0","70","0","70","0","0","0","70","70","70","70","70","Thu Sep 22 10:11:24 2022","1500","The main experiment item","yes","FlankerTask.osexp","/Users/keelyn/Library/CloudStorage/OneDrive-Personal","no","mono","no","18","no","white","no","yes","768","legacy","70","70","/Users/keelyn/Library/CloudStorage/OneDrive-Personal/subject-3.csv","legacy","Lentiform Loewenfeld","3.3.12","0","h","NA","space","NA","NA","h","479","NA","49757","NA","NA","479","2","legacy","1024","2","48000","-16","experiment","HHHHH","3","odd","50642","NA","NA","149356","868","NA","NA","168219","879","NA","NA","167159","168329","168809","168213","168329","Flanker Task","67","33665","71","yes","1024"
"94.44444444444444","94.44444444444444","474.9583333333333","474.9583333333333","black","legacy","legacy","legacy","0","incongruent","uniform","1","undefined","1","h","0","0","0","71","0","71","0","71","0","0","0","71","71","71","71","71","Thu Sep 22 10:11:24 2022","1500","The main experiment item","yes","FlankerTask.osexp","/Users/keelyn/Library/CloudStorage/OneDrive-Personal","no","mono","no","18","no","white","no","yes","768","legacy","71","71","/Users/keelyn/Library/CloudStorage/OneDrive-Personal/subject-3.csv","legacy","Lentiform Loewenfeld","3.3.12","0","h","NA","space","NA","NA","h","532","NA","49757","NA","NA","532","2","legacy","1024","2","48000","-16","experiment","SSHSS","3","odd","50642","NA","NA","149356","868","NA","NA","169873","879","NA","NA","168814","169982","170515","169867","169982","Flanker Task","68","34197","72","yes","1024"
"94.52054794520548","94.52054794520548","475.1506849315069","475.1506849315069","black","legacy","legacy","legacy","0","incongruent","uniform","1","undefined","1","s","0","0","0","72","0","72","0","72","0","0","0","72","72","72","72","72","Thu Sep 22 10:11:24 2022","1500","The main experiment item","yes","FlankerTask.osexp","/Users/keelyn/Library/CloudStorage/OneDrive-Personal","no","mono","no","18","no","white","no","yes","768","legacy","72","72","/Users/keelyn/Library/CloudStorage/OneDrive-Personal/subject-3.csv","legacy","Lentiform Loewenfeld","3.3.12","0","s","NA","space","NA","NA","s","489","NA","49757","NA","NA","489","2","legacy","1024","2","48000","-16","experiment","HHSHH","3","odd","50642","NA","NA","149356","868","NA","NA","171581","879","NA","NA","170520","171690","172180","171575","171690","Flanker Task","69","34686","73","yes","1024"
"94.5945945945946","94.5945945945946","475.02702702702703","475.02702702702703","black","legacy","legacy","legacy","0","congruent","uniform","1","undefined","1","s","0","0","0","73","0","73","0","73","0","0","0","73","73","73","73","73","Thu Sep 22 10:11:24 2022","1500","The main experiment item","yes","FlankerTask.osexp","/Users/keelyn/Library/CloudStorage/OneDrive-Personal","no","mono","no","18","no","white","no","yes","768","legacy","73","73","/Users/keelyn/Library/CloudStorage/OneDrive-Personal/subject-3.csv","legacy","Lentiform Loewenfeld","3.3.12","0","s","NA","space","NA","NA","s","466","NA","49757","NA","NA","466","2","legacy","1024","2","48000","-16","experiment","SSSSS","3","odd","50642","NA","NA","149356","868","NA","NA","173247","879","NA","NA","172185","173355","173822","173241","173355","Flanker Task","70","35152","74","yes","1024"
"94.66666666666667","94.66666666666667","474.08","474.08","black","legacy","legacy","legacy","0","congruent","uniform","1","undefined","1","h","0","0","0","74","0","74","0","74","0","0","0","74","74","74","74","74","Thu Sep 22 10:11:24 2022","1500","The main experiment item","yes","FlankerTask.osexp","/Users/keelyn/Library/CloudStorage/OneDrive-Personal","no","mono","no","18","no","white","no","yes","768","legacy","74","74","/Users/keelyn/Library/CloudStorage/OneDrive-Personal/subject-3.csv","legacy","Lentiform Loewenfeld","3.3.12","0","h","NA","space","NA","NA","h","404","NA","49757","NA","NA","404","2","legacy","1024","2","48000","-16","experiment","HHHHH","3","odd","50642","NA","NA","149356","868","NA","NA","174889","879","NA","NA","173827","174999","175404","174883","174999","Flanker Task","71","35556","75","yes","1024"
"94.73684210526316","94.73684210526316","474.4605263157895","474.4605263157895","black","legacy","legacy","legacy","0","incongruent","uniform","1","undefined","1","h","0","0","0","75","0","75","0","75","0","0","0","75","75","75","75","75","Thu Sep 22 10:11:24 2022","1500","The main experiment item","yes","FlankerTask.osexp","/Users/keelyn/Library/CloudStorage/OneDrive-Personal","no","mono","no","18","no","white","no","yes","768","legacy","75","75","/Users/keelyn/Library/CloudStorage/OneDrive-Personal/subject-3.csv","legacy","Lentiform Loewenfeld","3.3.12","0","h","NA","space","NA","NA","h","503","NA","49757","NA","NA","503","2","legacy","1024","2","48000","-16","experiment","SSHSS","3","odd","50642","NA","NA","149356","868","NA","NA","176471","879","NA","NA","175409","176580","177084","176464","176580","Flanker Task","72","36059","76","yes","1024"
"94.8051948051948","94.8051948051948","473.84415584415586","473.84415584415586","black","legacy","legacy","legacy","0","congruent","uniform","1","undefined","1","h","0","0","0","76","0","76","0","76","0","0","0","76","76","76","76","76","Thu Sep 22 10:11:24 2022","1500","The main experiment item","yes","FlankerTask.osexp","/Users/keelyn/Library/CloudStorage/OneDrive-Personal","no","mono","no","18","no","white","no","yes","768","legacy","76","76","/Users/keelyn/Library/CloudStorage/OneDrive-Personal/subject-3.csv","legacy","Lentiform Loewenfeld","3.3.12","0","h","NA","space","NA","NA","h","427","NA","49757","NA","NA","427","2","legacy","1024","2","48000","-16","experiment","HHHHH","3","odd","50642","NA","NA","149356","868","NA","NA","178150","879","NA","NA","177089","178259","178687","178144","178258","Flanker Task","73","36486","77","yes","1024"
"94.87179487179488","94.87179487179488","472.35897435897436","472.35897435897436","black","legacy","legacy","legacy","0","congruent","uniform","1","undefined","1","h","0","0","0","77","0","77","0","77","0","0","0","77","77","77","77","77","Thu Sep 22 10:11:24 2022","1500","The main experiment item","yes","FlankerTask.osexp","/Users/keelyn/Library/CloudStorage/OneDrive-Personal","no","mono","no","18","no","white","no","yes","768","legacy","77","77","/Users/keelyn/Library/CloudStorage/OneDrive-Personal/subject-3.csv","legacy","Lentiform Loewenfeld","3.3.12","0","h","NA","space","NA","NA","h","358","NA","49757","NA","NA","358","2","legacy","1024","2","48000","-16","experiment","HHHHH","3","odd","50642","NA","NA","149356","868","NA","NA","179753","879","NA","NA","178692","179862","180221","179746","179862","Flanker Task","74","36844","78","yes","1024"
"94.9367088607595","94.9367088607595","472.49367088607596","472.49367088607596","black","legacy","legacy","legacy","0","incongruent","uniform","1","undefined","1","s","0","0","0","78","0","78","0","78","0","0","0","78","78","78","78","78","Thu Sep 22 10:11:24 2022","1500","The main experiment item","yes","FlankerTask.osexp","/Users/keelyn/Library/CloudStorage/OneDrive-Personal","no","mono","no","18","no","white","no","yes","768","legacy","78","78","/Users/keelyn/Library/CloudStorage/OneDrive-Personal/subject-3.csv","legacy","Lentiform Loewenfeld","3.3.12","0","s","NA","space","NA","NA","s","483","NA","49757","NA","NA","483","2","legacy","1024","2","48000","-16","experiment","HHSHH","3","odd","50642","NA","NA","149356","868","NA","NA","181286","879","NA","NA","180226","181395","181879","181280","181395","Flanker Task","75","37327","79","yes","1024"
"93.75","93.75","472.6","472.6","black","legacy","legacy","legacy","0","congruent","uniform","0","undefined","0","s","0","0","0","79","0","79","0","79","0","0","0","79","79","79","79","79","Thu Sep 22 10:11:24 2022","1500","The main experiment item","yes","FlankerTask.osexp","/Users/keelyn/Library/CloudStorage/OneDrive-Personal","no","mono","no","18","no","white","no","yes","768","legacy","79","79","/Users/keelyn/Library/CloudStorage/OneDrive-Personal/subject-3.csv","legacy","Lentiform Loewenfeld","3.3.12","0","h","NA","space","NA","NA","h","481","NA","49757","NA","NA","481","2","legacy","1024","2","48000","-16","experiment","SSSSS","3","odd","50642","NA","NA","149356","868","NA","NA","182966","879","NA","NA","181904","183075","183557","182960","183075","Flanker Task","75","37808","80","yes","1024"
"93.82716049382717","93.82716049382717","477.58024691358025","477.58024691358025","black","legacy","legacy","legacy","0","congruent","uniform","1","undefined","1","s","0","0","0","80","0","80","0","80","0","0","0","80","80","80","80","80","Thu Sep 22 10:11:24 2022","600","The main experiment item","yes","FlankerTask.osexp","/Users/keelyn/Library/CloudStorage/OneDrive-Personal","no","mono","no","18","no","white","no","yes","768","legacy","0","79","/Users/keelyn/Library/CloudStorage/OneDrive-Personal/subject-3.csv","legacy","Lentiform Loewenfeld","3.3.12","0","s","NA","space","s","NA","s","876","NA","49757","76947","NA","876","2","legacy","1024","2","48000","-16","experiment","SSSSS","3","odd","50642","262063","NA","183562","868","NA","NA","262088","879","185115","NA","184074","262195","263072","262084","262195","Flanker Task","76","38684","81","yes","1024"
"93.90243902439025","93.90243902439025","478.3536585365854","478.3536585365854","black","legacy","legacy","legacy","0","incongruent","uniform","1","undefined","1","h","0","0","0","81","0","81","0","81","0","0","0","81","81","81","81","81","Thu Sep 22 10:11:24 2022","600","The main experiment item","yes","FlankerTask.osexp","/Users/keelyn/Library/CloudStorage/OneDrive-Personal","no","mono","no","18","no","white","no","yes","768","legacy","1","79","/Users/keelyn/Library/CloudStorage/OneDrive-Personal/subject-3.csv","legacy","Lentiform Loewenfeld","3.3.12","0","h","NA","space","s","NA","h","541","NA","49757","76947","NA","541","2","legacy","1024","2","48000","-16","experiment","SSHSS","3","odd","50642","262063","NA","183562","868","263077","NA","264649","879","185115","NA","263589","264758","265300","264643","264758","Flanker Task","77","39225","82","yes","1024"
"93.97590361445783","93.97590361445783","477.5903614457831","477.5903614457831","black","legacy","legacy","legacy","0","congruent","uniform","1","undefined","1","h","0","0","0","82","0","82","0","82","0","0","0","82","82","82","82","82","Thu Sep 22 10:11:24 2022","600","The main experiment item","yes","FlankerTask.osexp","/Users/keelyn/Library/CloudStorage/OneDrive-Personal","no","mono","no","18","no","white","no","yes","768","legacy","2","79","/Users/keelyn/Library/CloudStorage/OneDrive-Personal/subject-3.csv","legacy","Lentiform Loewenfeld","3.3.12","0","h","NA","space","s","NA","h","415","NA","49757","76947","NA","415","2","legacy","1024","2","48000","-16","experiment","HHHHH","3","odd","50642","262063","NA","183562","868","263077","NA","266366","879","185115","NA","265305","266476","266892","266360","266476","Flanker Task","78","39640","83","yes","1024"
"94.04761904761905","94.04761904761905","476.51190476190476","476.51190476190476","black","legacy","legacy","legacy","0","congruent","uniform","1","undefined","1","h","0","0","0","83","0","83","0","83","0","0","0","83","83","83","83","83","Thu Sep 22 10:11:24 2022","600","The main experiment item","yes","FlankerTask.osexp","/Users/keelyn/Library/CloudStorage/OneDrive-Personal","no","mono","no","18","no","white","no","yes","768","legacy","3","79","/Users/keelyn/Library/CloudStorage/OneDrive-Personal/subject-3.csv","legacy","Lentiform Loewenfeld","3.3.12","0","h","NA","space","s","NA","h","387","NA","49757","76947","NA","387","2","legacy","1024","2","48000","-16","experiment","HHHHH","3","odd","50642","262063","NA","183562","868","263077","NA","267957","879","185115","NA","266897","268066","268454","267951","268066","Flanker Task","79","40027","84","yes","1024"
"94.11764705882354","94.11764705882354","477.3764705882353","477.3764705882353","black","legacy","legacy","legacy","0","incongruent","uniform","1","undefined","1","h","0","0","0","84","0","84","0","84","0","0","0","84","84","84","84","84","Thu Sep 22 10:11:24 2022","600","The main experiment item","yes","FlankerTask.osexp","/Users/keelyn/Library/CloudStorage/OneDrive-Personal","no","mono","no","18","no","white","no","yes","768","legacy","4","79","/Users/keelyn/Library/CloudStorage/OneDrive-Personal/subject-3.csv","legacy","Lentiform Loewenfeld","3.3.12","0","h","NA","space","s","NA","h","550","NA","49757","76947","NA","550","2","legacy","1024","2","48000","-16","experiment","SSHSS","3","odd","50642","262063","NA","183562","868","263077","NA","269517","879","185115","NA","268459","269625","270176","269511","269625","Flanker Task","80","40577","85","yes","1024"
"94.18604651162791","94.18604651162791","477","477","black","legacy","legacy","legacy","0","congruent","uniform","1","undefined","1","s","0","0","0","85","0","85","0","85","0","0","0","85","85","85","85","85","Thu Sep 22 10:11:24 2022","600","The main experiment item","yes","FlankerTask.osexp","/Users/keelyn/Library/CloudStorage/OneDrive-Personal","no","mono","no","18","no","white","no","yes","768","legacy","5","79","/Users/keelyn/Library/CloudStorage/OneDrive-Personal/subject-3.csv","legacy","Lentiform Loewenfeld","3.3.12","0","s","NA","space","s","NA","s","445","NA","49757","76947","NA","445","2","legacy","1024","2","48000","-16","experiment","SSSSS","3","odd","50642","262063","NA","183562","868","263077","NA","271243","879","185115","NA","270182","271352","271797","271237","271351","Flanker Task","81","41022","86","yes","1024"
"94.25287356321839","94.25287356321839","475.85057471264366","475.85057471264366","black","legacy","legacy","legacy","0","incongruent","uniform","1","undefined","1","s","0","0","0","86","0","86","0","86","0","0","0","86","86","86","86","86","Thu Sep 22 10:11:24 2022","600","The main experiment item","yes","FlankerTask.osexp","/Users/keelyn/Library/CloudStorage/OneDrive-Personal","no","mono","no","18","no","white","no","yes","768","legacy","6","79","/Users/keelyn/Library/CloudStorage/OneDrive-Personal/subject-3.csv","legacy","Lentiform Loewenfeld","3.3.12","0","s","NA","space","s","NA","s","377","NA","49757","76947","NA","377","2","legacy","1024","2","48000","-16","experiment","HHSHH","3","odd","50642","262063","NA","183562","868","263077","NA","272864","879","185115","NA","271803","272972","273350","272858","272972","Flanker Task","82","41399","87","yes","1024"
"94.31818181818181","94.31818181818181","475.2386363636364","475.2386363636364","black","legacy","legacy","legacy","0","incongruent","uniform","1","undefined","1","h","0","0","0","87","0","87","0","87","0","0","0","87","87","87","87","87","Thu Sep 22 10:11:24 2022","600","The main experiment item","yes","FlankerTask.osexp","/Users/keelyn/Library/CloudStorage/OneDrive-Personal","no","mono","no","18","no","white","no","yes","768","legacy","7","79","/Users/keelyn/Library/CloudStorage/OneDrive-Personal/subject-3.csv","legacy","Lentiform Loewenfeld","3.3.12","0","h","NA","space","s","NA","h","422","NA","49757","76947","NA","422","2","legacy","1024","2","48000","-16","experiment","SSHSS","3","odd","50642","262063","NA","183562","868","263077","NA","274412","879","185115","NA","273355","274520","274943","274406","274520","Flanker Task","83","41821","88","yes","1024"
"94.38202247191012","94.38202247191012","474.69662921348316","474.69662921348316","black","legacy","legacy","legacy","0","congruent","uniform","1","undefined","1","s","0","0","0","88","0","88","0","88","0","0","0","88","88","88","88","88","Thu Sep 22 10:11:24 2022","600","The main experiment item","yes","FlankerTask.osexp","/Users/keelyn/Library/CloudStorage/OneDrive-Personal","no","mono","no","18","no","white","no","yes","768","legacy","8","79","/Users/keelyn/Library/CloudStorage/OneDrive-Personal/subject-3.csv","legacy","Lentiform Loewenfeld","3.3.12","0","s","NA","space","s","NA","s","427","NA","49757","76947","NA","427","2","legacy","1024","2","48000","-16","experiment","SSSSS","3","odd","50642","262063","NA","183562","868","263077","NA","276008","879","185115","NA","274948","276116","276544","276002","276116","Flanker Task","84","42248","89","yes","1024"
"94.44444444444444","94.44444444444444","473.8888888888889","473.8888888888889","black","legacy","legacy","legacy","0","incongruent","uniform","1","undefined","1","h","0","0","0","89","0","89","0","89","0","0","0","89","89","89","89","89","Thu Sep 22 10:11:24 2022","600","The main experiment item","yes","FlankerTask.osexp","/Users/keelyn/Library/CloudStorage/OneDrive-Personal","no","mono","no","18","no","white","no","yes","768","legacy","9","79","/Users/keelyn/Library/CloudStorage/OneDrive-Personal/subject-3.csv","legacy","Lentiform Loewenfeld","3.3.12","0","h","NA","space","s","NA","h","402","NA","49757","76947","NA","402","2","legacy","1024","2","48000","-16","experiment","SSHSS","3","odd","50642","262063","NA","183562","868","263077","NA","277611","879","185115","NA","276549","277720","278123","277604","277719","Flanker Task","85","42650","90","yes","1024"
"94.50549450549451","94.50549450549451","472.989010989011","472.989010989011","black","legacy","legacy","legacy","0","congruent","uniform","1","undefined","1","h","0","0","0","90","0","90","0","90","0","0","0","90","90","90","90","90","Thu Sep 22 10:11:24 2022","600","The main experiment item","yes","FlankerTask.osexp","/Users/keelyn/Library/CloudStorage/OneDrive-Personal","no","mono","no","18","no","white","no","yes","768","legacy","10","79","/Users/keelyn/Library/CloudStorage/OneDrive-Personal/subject-3.csv","legacy","Lentiform Loewenfeld","3.3.12","0","h","NA","space","s","NA","h","392","NA","49757","76947","NA","392","2","legacy","1024","2","48000","-16","experiment","HHHHH","3","odd","50642","262063","NA","183562","868","263077","NA","279190","879","185115","NA","278128","279299","279692","279184","279299","Flanker Task","86","43042","91","yes","1024"
"93.47826086956522","93.47826086956522","472","472","black","legacy","legacy","legacy","0","incongruent","uniform","0","undefined","0","h","0","0","0","91","0","91","0","91","0","0","0","91","91","91","91","91","Thu Sep 22 10:11:24 2022","600","The main experiment item","yes","FlankerTask.osexp","/Users/keelyn/Library/CloudStorage/OneDrive-Personal","no","mono","no","18","no","white","no","yes","768","legacy","11","79","/Users/keelyn/Library/CloudStorage/OneDrive-Personal/subject-3.csv","legacy","Lentiform Loewenfeld","3.3.12","0","s","NA","space","s","NA","s","382","NA","49757","76947","NA","382","2","legacy","1024","2","48000","-16","experiment","SSHSS","3","odd","50642","262063","NA","183562","868","263077","NA","280758","879","185115","NA","279697","280867","281250","280751","280867","Flanker Task","86","43424","92","yes","1024"
"93.54838709677419","93.54838709677419","470.93548387096774","470.93548387096774","black","legacy","legacy","legacy","0","congruent","uniform","1","undefined","1","s","0","0","0","92","0","92","0","92","0","0","0","92","92","92","92","92","Thu Sep 22 10:11:24 2022","600","The main experiment item","yes","FlankerTask.osexp","/Users/keelyn/Library/CloudStorage/OneDrive-Personal","no","mono","no","18","no","white","no","yes","768","legacy","12","79","/Users/keelyn/Library/CloudStorage/OneDrive-Personal/subject-3.csv","legacy","Lentiform Loewenfeld","3.3.12","0","s","NA","space","s","NA","s","373","NA","49757","76947","NA","373","2","legacy","1024","2","48000","-16","experiment","SSSSS","3","odd","50642","262063","NA","281255","868","263077","NA","282828","879","185115","NA","281767","282937","283311","282822","282936","Flanker Task","87","43797","93","yes","1024"
"93.61702127659575","93.61702127659575","470.22340425531917","470.22340425531917","black","legacy","legacy","legacy","0","congruent","uniform","1","undefined","1","s","0","0","0","93","0","93","0","93","0","0","0","93","93","93","93","93","Thu Sep 22 10:11:24 2022","600","The main experiment item","yes","FlankerTask.osexp","/Users/keelyn/Library/CloudStorage/OneDrive-Personal","no","mono","no","18","no","white","no","yes","768","legacy","13","79","/Users/keelyn/Library/CloudStorage/OneDrive-Personal/subject-3.csv","legacy","Lentiform Loewenfeld","3.3.12","0","s","NA","space","s","NA","s","404","NA","49757","76947","NA","404","2","legacy","1024","2","48000","-16","experiment","SSSSS","3","odd","50642","262063","NA","281255","868","263077","NA","284379","879","185115","NA","283316","284488","284893","284373","284488","Flanker Task","88","44201","94","yes","1024"
"93.6842105263158","93.6842105263158","470.10526315789474","470.10526315789474","black","legacy","legacy","legacy","0","incongruent","uniform","1","undefined","1","h","0","0","0","94","0","94","0","94","0","0","0","94","94","94","94","94","Thu Sep 22 10:11:24 2022","600","The main experiment item","yes","FlankerTask.osexp","/Users/keelyn/Library/CloudStorage/OneDrive-Personal","no","mono","no","18","no","white","no","yes","768","legacy","14","79","/Users/keelyn/Library/CloudStorage/OneDrive-Personal/subject-3.csv","legacy","Lentiform Loewenfeld","3.3.12","0","h","NA","space","s","NA","h","459","NA","49757","76947","NA","459","2","legacy","1024","2","48000","-16","experiment","SSHSS","3","odd","50642","262063","NA","281255","868","263077","NA","285960","879","185115","NA","284898","286069","286529","285954","286068","Flanker Task","89","44660","95","yes","1024"
"93.75","93.75","470.3541666666667","470.3541666666667","black","legacy","legacy","legacy","0","incongruent","uniform","1","undefined","1","h","0","0","0","95","0","95","0","95","0","0","0","95","95","95","95","95","Thu Sep 22 10:11:24 2022","600","The main experiment item","yes","FlankerTask.osexp","/Users/keelyn/Library/CloudStorage/OneDrive-Personal","no","mono","no","18","no","white","no","yes","768","legacy","15","79","/Users/keelyn/Library/CloudStorage/OneDrive-Personal/subject-3.csv","legacy","Lentiform Loewenfeld","3.3.12","0","h","NA","space","s","NA","h","494","NA","49757","76947","NA","494","2","legacy","1024","2","48000","-16","experiment","SSHSS","3","odd","50642","262063","NA","281255","868","263077","NA","287596","879","185115","NA","286534","287705","288200","287590","287705","Flanker Task","90","45154","96","yes","1024"
"93.81443298969072","93.81443298969072","470.4742268041237","470.4742268041237","black","legacy","legacy","legacy","0","congruent","uniform","1","undefined","1","h","0","0","0","96","0","96","0","96","0","0","0","96","96","96","96","96","Thu Sep 22 10:11:24 2022","600","The main experiment item","yes","FlankerTask.osexp","/Users/keelyn/Library/CloudStorage/OneDrive-Personal","no","mono","no","18","no","white","no","yes","768","legacy","16","79","/Users/keelyn/Library/CloudStorage/OneDrive-Personal/subject-3.csv","legacy","Lentiform Loewenfeld","3.3.12","0","h","NA","space","s","NA","h","482","NA","49757","76947","NA","482","2","legacy","1024","2","48000","-16","experiment","HHHHH","3","odd","50642","262063","NA","281255","868","263077","NA","289266","879","185115","NA","288205","289375","289858","289260","289375","Flanker Task","91","45636","97","yes","1024"
"93.87755102040816","93.87755102040816","469.33673469387753","469.33673469387753","black","legacy","legacy","legacy","0","congruent","uniform","1","undefined","1","h","0","0","0","97","0","97","0","97","0","0","0","97","97","97","97","97","Thu Sep 22 10:11:24 2022","600","The main experiment item","yes","FlankerTask.osexp","/Users/keelyn/Library/CloudStorage/OneDrive-Personal","no","mono","no","18","no","white","no","yes","768","legacy","17","79","/Users/keelyn/Library/CloudStorage/OneDrive-Personal/subject-3.csv","legacy","Lentiform Loewenfeld","3.3.12","0","h","NA","space","s","NA","h","359","NA","49757","76947","NA","359","2","legacy","1024","2","48000","-16","experiment","HHHHH","3","odd","50642","262063","NA","281255","868","263077","NA","290925","879","185115","NA","289863","291033","291393","290919","291033","Flanker Task","92","45995","98","yes","1024"
"93.93939393939394","93.93939393939394","469.04040404040404","469.04040404040404","black","legacy","legacy","legacy","0","incongruent","uniform","1","undefined","1","s","0","0","0","98","0","98","0","98","0","0","0","98","98","98","98","98","Thu Sep 22 10:11:24 2022","600","The main experiment item","yes","FlankerTask.osexp","/Users/keelyn/Library/CloudStorage/OneDrive-Personal","no","mono","no","18","no","white","no","yes","768","legacy","18","79","/Users/keelyn/Library/CloudStorage/OneDrive-Personal/subject-3.csv","legacy","Lentiform Loewenfeld","3.3.12","0","s","NA","space","s","NA","s","440","NA","49757","76947","NA","440","2","legacy","1024","2","48000","-16","experiment","HHSHH","3","odd","50642","262063","NA","281255","868","263077","NA","292460","879","185115","NA","291398","292568","293009","292453","292568","Flanker Task","93","46435","99","yes","1024"
"94","94","468.27","468.27","black","legacy","legacy","legacy","0","congruent","uniform","1","undefined","1","s","0","0","0","99","0","99","0","99","0","0","0","99","99","99","99","99","Thu Sep 22 10:11:24 2022","600","The main experiment item","yes","FlankerTask.osexp","/Users/keelyn/Library/CloudStorage/OneDrive-Personal","no","mono","no","18","no","white","no","yes","768","legacy","19","79","/Users/keelyn/Library/CloudStorage/OneDrive-Personal/subject-3.csv","legacy","Lentiform Loewenfeld","3.3.12","0","s","NA","space","s","NA","s","392","NA","49757","76947","NA","392","2","legacy","1024","2","48000","-16","experiment","SSSSS","3","odd","50642","262063","NA","281255","868","263077","NA","294074","879","185115","NA","293014","294182","294575","294068","294182","Flanker Task","94","46827","100","yes","1024"
"94.05940594059406","94.05940594059406","468.0693069306931","468.0693069306931","black","legacy","legacy","legacy","0","incongruent","uniform","1","undefined","1","h","0","0","0","100","0","100","0","100","0","0","0","100","100","100","100","100","Thu Sep 22 10:11:24 2022","600","The main experiment item","yes","FlankerTask.osexp","/Users/keelyn/Library/CloudStorage/OneDrive-Personal","no","mono","no","18","no","white","no","yes","768","legacy","20","79","/Users/keelyn/Library/CloudStorage/OneDrive-Personal/subject-3.csv","legacy","Lentiform Loewenfeld","3.3.12","0","h","NA","space","s","NA","h","448","NA","49757","76947","NA","448","2","legacy","1024","2","48000","-16","experiment","SSHSS","3","odd","50642","262063","NA","281255","868","263077","NA","295641","879","185115","NA","294580","295751","296200","295635","295751","Flanker Task","95","47275","101","yes","1024"
"94.11764705882354","94.11764705882354","467.4117647058824","467.4117647058824","black","legacy","legacy","legacy","0","incongruent","uniform","1","undefined","1","h","0","0","0","101","0","101","0","101","0","0","0","101","101","101","101","101","Thu Sep 22 10:11:24 2022","600","The main experiment item","yes","FlankerTask.osexp","/Users/keelyn/Library/CloudStorage/OneDrive-Personal","no","mono","no","18","no","white","no","yes","768","legacy","21","79","/Users/keelyn/Library/CloudStorage/OneDrive-Personal/subject-3.csv","legacy","Lentiform Loewenfeld","3.3.12","0","h","NA","space","s","NA","h","401","NA","49757","76947","NA","401","2","legacy","1024","2","48000","-16","experiment","SSHSS","3","odd","50642","262063","NA","281255","868","263077","NA","297267","879","185115","NA","296205","297376","297778","297261","297376","Flanker Task","96","47676","102","yes","1024"
"94.1747572815534","94.1747572815534","467.126213592233","467.126213592233","black","legacy","legacy","legacy","0","congruent","uniform","1","undefined","1","h","0","0","0","102","0","102","0","102","0","0","0","102","102","102","102","102","Thu Sep 22 10:11:24 2022","600","The main experiment item","yes","FlankerTask.osexp","/Users/keelyn/Library/CloudStorage/OneDrive-Personal","no","mono","no","18","no","white","no","yes","768","legacy","22","79","/Users/keelyn/Library/CloudStorage/OneDrive-Personal/subject-3.csv","legacy","Lentiform Loewenfeld","3.3.12","0","h","NA","space","s","NA","h","438","NA","49757","76947","NA","438","2","legacy","1024","2","48000","-16","experiment","HHHHH","3","odd","50642","262063","NA","281255","868","263077","NA","298846","879","185115","NA","297783","298955","299394","298840","298955","Flanker Task","97","48114","103","yes","1024"
"94.23076923076923","94.23076923076923","466.7307692307692","466.7307692307692","black","legacy","legacy","legacy","0","incongruent","uniform","1","undefined","1","s","0","0","0","103","0","103","0","103","0","0","0","103","103","103","103","103","Thu Sep 22 10:11:24 2022","600","The main experiment item","yes","FlankerTask.osexp","/Users/keelyn/Library/CloudStorage/OneDrive-Personal","no","mono","no","18","no","white","no","yes","768","legacy","23","79","/Users/keelyn/Library/CloudStorage/OneDrive-Personal/subject-3.csv","legacy","Lentiform Loewenfeld","3.3.12","0","s","NA","space","s","NA","s","426","NA","49757","76947","NA","426","2","legacy","1024","2","48000","-16","experiment","HHSHH","3","odd","50642","262063","NA","281255","868","263077","NA","300459","879","185115","NA","299399","300567","300993","300453","300567","Flanker Task","98","48540","104","yes","1024"
"94.28571428571429","94.28571428571429","466.2","466.2","black","legacy","legacy","legacy","0","congruent","uniform","1","undefined","1","s","0","0","0","104","0","104","0","104","0","0","0","104","104","104","104","104","Thu Sep 22 10:11:24 2022","600","The main experiment item","yes","FlankerTask.osexp","/Users/keelyn/Library/CloudStorage/OneDrive-Personal","no","mono","no","18","no","white","no","yes","768","legacy","24","79","/Users/keelyn/Library/CloudStorage/OneDrive-Personal/subject-3.csv","legacy","Lentiform Loewenfeld","3.3.12","0","s","NA","space","s","NA","s","411","NA","49757","76947","NA","411","2","legacy","1024","2","48000","-16","experiment","SSSSS","3","odd","50642","262063","NA","281255","868","263077","NA","302060","879","185115","NA","300998","302168","302580","302053","302168","Flanker Task","99","48951","105","yes","1024"
"94.33962264150944","94.33962264150944","465.7641509433962","465.7641509433962","black","legacy","legacy","legacy","0","incongruent","uniform","1","undefined","1","h","0","0","0","105","0","105","0","105","0","0","0","105","105","105","105","105","Thu Sep 22 10:11:24 2022","600","The main experiment item","yes","FlankerTask.osexp","/Users/keelyn/Library/CloudStorage/OneDrive-Personal","no","mono","no","18","no","white","no","yes","768","legacy","25","79","/Users/keelyn/Library/CloudStorage/OneDrive-Personal/subject-3.csv","legacy","Lentiform Loewenfeld","3.3.12","0","h","NA","space","s","NA","h","420","NA","49757","76947","NA","420","2","legacy","1024","2","48000","-16","experiment","SSHSS","3","odd","50642","262063","NA","281255","868","263077","NA","303648","879","185115","NA","302585","303757","304178","303641","303757","Flanker Task","100","49371","106","yes","1024"
"94.39252336448598","94.39252336448598","464.6542056074766","464.6542056074766","black","legacy","legacy","legacy","0","congruent","uniform","1","undefined","1","s","0","0","0","106","0","106","0","106","0","0","0","106","106","106","106","106","Thu Sep 22 10:11:24 2022","600","The main experiment item","yes","FlankerTask.osexp","/Users/keelyn/Library/CloudStorage/OneDrive-Personal","no","mono","no","18","no","white","no","yes","768","legacy","26","79","/Users/keelyn/Library/CloudStorage/OneDrive-Personal/subject-3.csv","legacy","Lentiform Loewenfeld","3.3.12","0","s","NA","space","s","NA","s","347","NA","49757","76947","NA","347","2","legacy","1024","2","48000","-16","experiment","SSSSS","3","odd","50642","262063","NA","281255","868","263077","NA","305242","879","185115","NA","304183","305351","305699","305236","305351","Flanker Task","101","49718","107","yes","1024"
"94.44444444444444","94.44444444444444","464.01851851851853","464.01851851851853","black","legacy","legacy","legacy","0","incongruent","uniform","1","undefined","1","s","0","0","0","107","0","107","0","107","0","0","0","107","107","107","107","107","Thu Sep 22 10:11:24 2022","600","The main experiment item","yes","FlankerTask.osexp","/Users/keelyn/Library/CloudStorage/OneDrive-Personal","no","mono","no","18","no","white","no","yes","768","legacy","27","79","/Users/keelyn/Library/CloudStorage/OneDrive-Personal/subject-3.csv","legacy","Lentiform Loewenfeld","3.3.12","0","s","NA","space","s","NA","s","396","NA","49757","76947","NA","396","2","legacy","1024","2","48000","-16","experiment","HHSHH","3","odd","50642","262063","NA","281255","868","263077","NA","306765","879","185115","NA","305704","306874","307271","306758","306874","Flanker Task","102","50114","108","yes","1024"
"94.4954128440367","94.4954128440367","463.11009174311926","463.11009174311926","black","legacy","legacy","legacy","0","congruent","uniform","1","undefined","1","s","0","0","0","108","0","108","0","108","0","0","0","108","108","108","108","108","Thu Sep 22 10:11:24 2022","600","The main experiment item","yes","FlankerTask.osexp","/Users/keelyn/Library/CloudStorage/OneDrive-Personal","no","mono","no","18","no","white","no","yes","768","legacy","28","79","/Users/keelyn/Library/CloudStorage/OneDrive-Personal/subject-3.csv","legacy","Lentiform Loewenfeld","3.3.12","0","s","NA","space","s","NA","s","365","NA","49757","76947","NA","365","2","legacy","1024","2","48000","-16","experiment","SSSSS","3","odd","50642","262063","NA","281255","868","263077","NA","308336","879","185115","NA","307276","308445","308811","308330","308445","Flanker Task","103","50479","109","yes","1024"
"94.54545454545455","94.54545454545455","462.8181818181818","462.8181818181818","black","legacy","legacy","legacy","0","congruent","uniform","1","undefined","1","h","0","0","0","109","0","109","0","109","0","0","0","109","109","109","109","109","Thu Sep 22 10:11:24 2022","600","The main experiment item","yes","FlankerTask.osexp","/Users/keelyn/Library/CloudStorage/OneDrive-Personal","no","mono","no","18","no","white","no","yes","768","legacy","29","79","/Users/keelyn/Library/CloudStorage/OneDrive-Personal/subject-3.csv","legacy","Lentiform Loewenfeld","3.3.12","0","h","NA","space","s","NA","h","431","NA","49757","76947","NA","431","2","legacy","1024","2","48000","-16","experiment","HHHHH","3","odd","50642","262063","NA","281255","868","263077","NA","309879","879","185115","NA","308816","309988","310420","309873","309988","Flanker Task","104","50910","110","yes","1024"
"94.5945945945946","94.5945945945946","463.009009009009","463.009009009009","black","legacy","legacy","legacy","0","incongruent","uniform","1","undefined","1","s","0","0","0","110","0","110","0","110","0","0","0","110","110","110","110","110","Thu Sep 22 10:11:24 2022","600","The main experiment item","yes","FlankerTask.osexp","/Users/keelyn/Library/CloudStorage/OneDrive-Personal","no","mono","no","18","no","white","no","yes","768","legacy","30","79","/Users/keelyn/Library/CloudStorage/OneDrive-Personal/subject-3.csv","legacy","Lentiform Loewenfeld","3.3.12","0","s","NA","space","s","NA","s","484","NA","49757","76947","NA","484","2","legacy","1024","2","48000","-16","experiment","HHSHH","3","odd","50642","262063","NA","281255","868","263077","NA","311484","879","185115","NA","310425","311592","312077","311478","311592","Flanker Task","105","51394","111","yes","1024"
"94.64285714285714","94.64285714285714","462.6875","462.6875","black","legacy","legacy","legacy","0","congruent","uniform","1","undefined","1","h","0","0","0","111","0","111","0","111","0","0","0","111","111","111","111","111","Thu Sep 22 10:11:24 2022","600","The main experiment item","yes","FlankerTask.osexp","/Users/keelyn/Library/CloudStorage/OneDrive-Personal","no","mono","no","18","no","white","no","yes","768","legacy","31","79","/Users/keelyn/Library/CloudStorage/OneDrive-Personal/subject-3.csv","legacy","Lentiform Loewenfeld","3.3.12","0","h","NA","space","s","NA","h","427","NA","49757","76947","NA","427","2","legacy","1024","2","48000","-16","experiment","HHHHH","3","odd","50642","262063","NA","281255","868","263077","NA","313143","879","185115","NA","312082","313252","313680","313137","313252","Flanker Task","106","51821","112","yes","1024"
"94.69026548672566","94.69026548672566","461.87610619469024","461.87610619469024","black","legacy","legacy","legacy","0","congruent","uniform","1","undefined","1","s","0","0","0","112","0","112","0","112","0","0","0","112","112","112","112","112","Thu Sep 22 10:11:24 2022","600","The main experiment item","yes","FlankerTask.osexp","/Users/keelyn/Library/CloudStorage/OneDrive-Personal","no","mono","no","18","no","white","no","yes","768","legacy","32","79","/Users/keelyn/Library/CloudStorage/OneDrive-Personal/subject-3.csv","legacy","Lentiform Loewenfeld","3.3.12","0","s","NA","space","s","NA","s","371","NA","49757","76947","NA","371","2","legacy","1024","2","48000","-16","experiment","SSSSS","3","odd","50642","262063","NA","281255","868","263077","NA","314745","879","185115","NA","313685","314854","315226","314739","314854","Flanker Task","107","52192","113","yes","1024"
"94.73684210526316","94.73684210526316","461.9736842105263","461.9736842105263","black","legacy","legacy","legacy","0","incongruent","uniform","1","undefined","1","s","0","0","0","113","0","113","0","113","0","0","0","113","113","113","113","113","Thu Sep 22 10:11:24 2022","600","The main experiment item","yes","FlankerTask.osexp","/Users/keelyn/Library/CloudStorage/OneDrive-Personal","no","mono","no","18","no","white","no","yes","768","legacy","33","79","/Users/keelyn/Library/CloudStorage/OneDrive-Personal/subject-3.csv","legacy","Lentiform Loewenfeld","3.3.12","0","s","NA","space","s","NA","s","473","NA","49757","76947","NA","473","2","legacy","1024","2","48000","-16","experiment","HHSHH","3","odd","50642","262063","NA","281255","868","263077","NA","316293","879","185115","NA","315231","316402","316876","316287","316402","Flanker Task","108","52665","114","yes","1024"
"94.78260869565217","94.78260869565217","461.4782608695652","461.4782608695652","black","legacy","legacy","legacy","0","congruent","uniform","1","undefined","1","h","0","0","0","114","0","114","0","114","0","0","0","114","114","114","114","114","Thu Sep 22 10:11:24 2022","600","The main experiment item","yes","FlankerTask.osexp","/Users/keelyn/Library/CloudStorage/OneDrive-Personal","no","mono","no","18","no","white","no","yes","768","legacy","34","79","/Users/keelyn/Library/CloudStorage/OneDrive-Personal/subject-3.csv","legacy","Lentiform Loewenfeld","3.3.12","0","h","NA","space","s","NA","h","405","NA","49757","76947","NA","405","2","legacy","1024","2","48000","-16","experiment","HHHHH","3","odd","50642","262063","NA","281255","868","263077","NA","317944","879","185115","NA","316881","318053","318459","317938","318053","Flanker Task","109","53070","115","yes","1024"
