"acc","accuracy","average_response_time","avg_rt","background","bidi","canvas_backend","clock_backend","color_backend","compensation","condition","coordinates","correct","correct_Intructions1","correct_keyboardResponse","correct_response","count_Block1","count_Block2","count_Block3","count_ErrorFeedback","count_Fnish","count_ISI","count_Instructions2","count_Instructions3","count_Intructions1","count_Logger","count_Sequence","count_experiment","count_faster","count_fixation","count_keyboardResponse","count_stimulus","datetime","deadline","description","disable_garbage_collection","experiment_file","experiment_path","font_bold","font_family","font_italic","font_size","font_underline","foreground","form_clicks","fullscreen","height","keyboard_backend","live_row","live_row_Block1","logfile","mouse_backend","opensesame_codename","opensesame_version","repeat_cycle","response","response_Fnish","response_Instructions2","response_Instructions3","response_Intructions1","response_keyboardResponse","response_time","response_time_Fnish","response_time_Instructions2","response_time_Instructions3","response_time_Intructions1","response_time_keyboardResponse","round_decimals","sampler_backend","sound_buf_size","sound_channels","sound_freq","sound_sample_size","start","stimulus","subject_nr","subject_parity","time_Block1","time_Block2","time_Block3","time_ErrorFeedback","time_Fnish","time_ISI","time_Instructions2","time_Instructions3","time_Intructions1","time_Logger","time_Sequence","time_experiment","time_faster","time_fixation","time_keyboardResponse","time_stimulus","title","total_correct","total_response_time","total_responses","uniform_coordinates","width"
"100","100","586","586","black","no","legacy","legacy","legacy","0","congruent","uniform","1","undefined","1","h","0","0","0","0","0","0","0","0","0","0","0","0","0","0","0","0","Sat Sep  8 20:10:14 2018","1500","The main experiment item","yes","Lab 1 PYSCH 5316.osexp","/Users/danieldalton/Desktop","no","mono","no","18","no","white","no","yes","768","legacy","0","0","/Users/danieldalton/Desktop/DD Subject 1.csv","legacy","Jazzy James","3.1.9","0","h","NA","NA","NA","s","h","586","NA","NA","NA","4963","586","2","legacy","1024","2","48000","-16","experiment","HHHHH","1","odd","6443","NA","NA","NA","NA","NA","NA","NA","1468","7195","6481","1430","NA","6492","6607","6607","Flanker Task","1","586","1","yes","1024"
"100","100","612","612","black","no","legacy","legacy","legacy","0","incongurent","uniform","1","undefined","1","h","0","0","0","1","0","1","0","0","0","1","1","0","1","1","1","1","Sat Sep  8 20:10:14 2018","1500","The main experiment item","yes","Lab 1 PYSCH 5316.osexp","/Users/danieldalton/Desktop","no","mono","no","18","no","white","no","yes","768","legacy","1","1","/Users/danieldalton/Desktop/DD Subject 1.csv","legacy","Jazzy James","3.1.9","0","h","NA","NA","NA","s","h","638","NA","NA","NA","4963","638","2","legacy","1024","2","48000","-16","experiment","SSHSS","1","odd","6443","NA","NA","NA","NA","7215","NA","NA","1468","9019","8254","1430","NA","8265","8380","8380","Flanker Task","2","1224","2","yes","1024"
"100","100","592.666666667","592.666666667","black","no","legacy","legacy","legacy","0","incongruent","uniform","1","undefined","1","s","0","0","0","2","0","2","0","0","0","2","2","0","2","2","2","2","Sat Sep  8 20:10:14 2018","1500","The main experiment item","yes","Lab 1 PYSCH 5316.osexp","/Users/danieldalton/Desktop","no","mono","no","18","no","white","no","yes","768","legacy","2","2","/Users/danieldalton/Desktop/DD Subject 1.csv","legacy","Jazzy James","3.1.9","0","s","NA","NA","NA","s","s","554","NA","NA","NA","4963","554","2","legacy","1024","2","48000","-16","experiment","HHSHH","1","odd","6443","NA","NA","NA","NA","9033","NA","NA","1468","10756","10071","1430","NA","10082","10200","10200","Flanker Task","3","1778","3","yes","1024"
"100","100","577","577","black","no","legacy","legacy","legacy","0","incongurent","uniform","1","undefined","1","h","0","0","0","3","0","3","0","0","0","3","3","0","3","3","3","3","Sat Sep  8 20:10:14 2018","1500","The main experiment item","yes","Lab 1 PYSCH 5316.osexp","/Users/danieldalton/Desktop","no","mono","no","18","no","white","no","yes","768","legacy","3","3","/Users/danieldalton/Desktop/DD Subject 1.csv","legacy","Jazzy James","3.1.9","0","h","NA","NA","NA","s","h","530","NA","NA","NA","4963","530","2","legacy","1024","2","48000","-16","experiment","SSHSS","1","odd","6443","NA","NA","NA","NA","10770","NA","NA","1468","12459","11802","1430","NA","11813","11927","11927","Flanker Task","4","2308","4","yes","1024"
"100","100","563.4","563.4","black","no","legacy","legacy","legacy","0","conguent","uniform","1","undefined","1","s","0","0","0","4","0","4","0","0","0","4","4","0","4","4","4","4","Sat Sep  8 20:10:14 2018","1500","The main experiment item","yes","Lab 1 PYSCH 5316.osexp","/Users/danieldalton/Desktop","no","mono","no","18","no","white","no","yes","768","legacy","4","4","/Users/danieldalton/Desktop/DD Subject 1.csv","legacy","Jazzy James","3.1.9","0","s","NA","NA","NA","s","s","509","NA","NA","NA","4963","509","2","legacy","1024","2","48000","-16","experiment","SSSSS","1","odd","6443","NA","NA","NA","NA","12473","NA","NA","1468","14143","13506","1430","NA","13517","13632","13632","Flanker Task","5","2817","5","yes","1024"
"100","100","540.5","540.5","black","no","legacy","legacy","legacy","0","conguent","uniform","1","undefined","1","s","0","0","0","5","0","5","0","0","0","5","5","0","5","5","5","5","Sat Sep  8 20:10:14 2018","1500","The main experiment item","yes","Lab 1 PYSCH 5316.osexp","/Users/danieldalton/Desktop","no","mono","no","18","no","white","no","yes","768","legacy","5","5","/Users/danieldalton/Desktop/DD Subject 1.csv","legacy","Jazzy James","3.1.9","0","s","NA","NA","NA","s","s","426","NA","NA","NA","4963","426","2","legacy","1024","2","48000","-16","experiment","SSSSS","1","odd","6443","NA","NA","NA","NA","14181","NA","NA","1468","15771","15214","1430","NA","15225","15343","15343","Flanker Task","6","3243","6","yes","1024"
"100","100","523.285714286","523.285714286","black","no","legacy","legacy","legacy","0","congruent","uniform","1","undefined","1","h","0","0","0","6","0","6","0","0","0","6","6","0","6","6","6","6","Sat Sep  8 20:10:14 2018","1500","The main experiment item","yes","Lab 1 PYSCH 5316.osexp","/Users/danieldalton/Desktop","no","mono","no","18","no","white","no","yes","768","legacy","6","6","/Users/danieldalton/Desktop/DD Subject 1.csv","legacy","Jazzy James","3.1.9","0","h","NA","NA","NA","s","h","420","NA","NA","NA","4963","420","2","legacy","1024","2","48000","-16","experiment","HHHHH","1","odd","6443","NA","NA","NA","NA","15824","NA","NA","1468","17405","16856","1430","NA","16867","16983","16983","Flanker Task","7","3663","7","yes","1024"
"100","100","515.625","515.625","black","no","legacy","legacy","legacy","0","congruent","uniform","1","undefined","1","h","0","0","0","7","0","7","0","0","0","7","7","0","7","7","7","7","Sat Sep  8 20:10:14 2018","1500","The main experiment item","yes","Lab 1 PYSCH 5316.osexp","/Users/danieldalton/Desktop","no","mono","no","18","no","white","no","yes","768","legacy","7","7","/Users/danieldalton/Desktop/DD Subject 1.csv","legacy","Jazzy James","3.1.9","0","h","NA","NA","NA","s","h","462","NA","NA","NA","4963","462","2","legacy","1024","2","48000","-16","experiment","HHHHH","1","odd","6443","NA","NA","NA","NA","17419","NA","NA","1468","19049","18457","1430","NA","18468","18585","18585","Flanker Task","8","4125","8","yes","1024"
"100","100","516.777777778","516.777777778","black","no","legacy","legacy","legacy","0","incongruent","uniform","1","undefined","1","s","0","0","0","8","0","8","0","0","0","8","8","0","8","8","8","8","Sat Sep  8 20:10:14 2018","1500","The main experiment item","yes","Lab 1 PYSCH 5316.osexp","/Users/danieldalton/Desktop","no","mono","no","18","no","white","no","yes","768","legacy","8","8","/Users/danieldalton/Desktop/DD Subject 1.csv","legacy","Jazzy James","3.1.9","0","s","NA","NA","NA","s","s","526","NA","NA","NA","4963","526","2","legacy","1024","2","48000","-16","experiment","HHSHH","1","odd","6443","NA","NA","NA","NA","19063","NA","NA","1468","20752","20099","1430","NA","20110","20224","20223","Flanker Task","9","4651","9","yes","1024"
"100","100","505.9","505.9","black","no","legacy","legacy","legacy","0","congruent","uniform","1","undefined","1","h","0","0","0","9","0","9","0","0","0","9","9","0","9","9","9","9","Sat Sep  8 20:10:14 2018","1500","The main experiment item","yes","Lab 1 PYSCH 5316.osexp","/Users/danieldalton/Desktop","no","mono","no","18","no","white","no","yes","768","legacy","9","9","/Users/danieldalton/Desktop/DD Subject 1.csv","legacy","Jazzy James","3.1.9","0","h","NA","NA","NA","s","h","408","NA","NA","NA","4963","408","2","legacy","1024","2","48000","-16","experiment","HHHHH","1","odd","6443","NA","NA","NA","NA","20766","NA","NA","1468","22335","21798","1430","NA","21809","21925","21925","Flanker Task","10","5059","10","yes","1024"
"100","100","504.545454545","504.545454545","black","no","legacy","legacy","legacy","0","incongruent","uniform","1","undefined","1","s","0","0","0","10","0","10","0","0","0","10","10","0","10","10","10","10","Sat Sep  8 20:10:14 2018","1500","The main experiment item","yes","Lab 1 PYSCH 5316.osexp","/Users/danieldalton/Desktop","no","mono","no","18","no","white","no","yes","768","legacy","10","10","/Users/danieldalton/Desktop/DD Subject 1.csv","legacy","Jazzy James","3.1.9","0","s","NA","NA","NA","s","s","491","NA","NA","NA","4963","491","2","legacy","1024","2","48000","-16","experiment","HHSHH","1","odd","6443","NA","NA","NA","NA","22348","NA","NA","1468","24000","23382","1430","NA","23393","23507","23507","Flanker Task","11","5550","11","yes","1024"
"100","100","505.083333333","505.083333333","black","no","legacy","legacy","legacy","0","incongruent","uniform","1","undefined","1","s","0","0","0","11","0","11","0","0","0","11","11","0","11","11","11","11","Sat Sep  8 20:10:14 2018","1500","The main experiment item","yes","Lab 1 PYSCH 5316.osexp","/Users/danieldalton/Desktop","no","mono","no","18","no","white","no","yes","768","legacy","11","11","/Users/danieldalton/Desktop/DD Subject 1.csv","legacy","Jazzy James","3.1.9","0","s","NA","NA","NA","s","s","511","NA","NA","NA","4963","511","2","legacy","1024","2","48000","-16","experiment","HHSHH","1","odd","6443","NA","NA","NA","NA","24012","NA","NA","1468","25685","25046","1430","NA","25057","25172","25171","Flanker Task","12","6061","12","yes","1024"
"100","100","499.769230769","499.769230769","black","no","legacy","legacy","legacy","0","congruent","uniform","1","undefined","1","h","0","0","0","12","0","12","0","0","0","12","12","0","12","12","12","12","Sat Sep  8 20:10:14 2018","1500","The main experiment item","yes","Lab 1 PYSCH 5316.osexp","/Users/danieldalton/Desktop","no","mono","no","18","no","white","no","yes","768","legacy","12","12","/Users/danieldalton/Desktop/DD Subject 1.csv","legacy","Jazzy James","3.1.9","0","h","NA","NA","NA","s","h","436","NA","NA","NA","4963","436","2","legacy","1024","2","48000","-16","experiment","HHHHH","1","odd","6443","NA","NA","NA","NA","25699","NA","NA","1468","27294","26732","1430","NA","26743","26857","26857","Flanker Task","13","6497","13","yes","1024"
"100","100","498.571428571","498.571428571","black","no","legacy","legacy","legacy","0","incongurent","uniform","1","undefined","1","h","0","0","0","13","0","13","0","0","0","13","13","0","13","13","13","13","Sat Sep  8 20:10:14 2018","1500","The main experiment item","yes","Lab 1 PYSCH 5316.osexp","/Users/danieldalton/Desktop","no","mono","no","18","no","white","no","yes","768","legacy","13","13","/Users/danieldalton/Desktop/DD Subject 1.csv","legacy","Jazzy James","3.1.9","0","h","NA","NA","NA","s","h","483","NA","NA","NA","4963","483","2","legacy","1024","2","48000","-16","experiment","SSHSS","1","odd","6443","NA","NA","NA","NA","27309","NA","NA","1468","28954","28345","1430","NA","28356","28470","28470","Flanker Task","14","6980","14","yes","1024"
"100","100","495.2","495.2","black","no","legacy","legacy","legacy","0","conguent","uniform","1","undefined","1","s","0","0","0","14","0","14","0","0","0","14","14","0","14","14","14","14","Sat Sep  8 20:10:14 2018","1500","The main experiment item","yes","Lab 1 PYSCH 5316.osexp","/Users/danieldalton/Desktop","no","mono","no","18","no","white","no","yes","768","legacy","14","14","/Users/danieldalton/Desktop/DD Subject 1.csv","legacy","Jazzy James","3.1.9","0","s","NA","NA","NA","s","s","448","NA","NA","NA","4963","448","2","legacy","1024","2","48000","-16","experiment","SSSSS","1","odd","6443","NA","NA","NA","NA","28968","NA","NA","1468","30576","30000","1430","NA","30010","30126","30125","Flanker Task","15","7428","15","yes","1024"
"100","100","498.625","498.625","black","no","legacy","legacy","legacy","0","incongruent","uniform","1","undefined","1","s","0","0","0","15","0","15","0","0","0","15","15","0","15","15","15","15","Sat Sep  8 20:10:14 2018","1500","The main experiment item","yes","Lab 1 PYSCH 5316.osexp","/Users/danieldalton/Desktop","no","mono","no","18","no","white","no","yes","768","legacy","15","15","/Users/danieldalton/Desktop/DD Subject 1.csv","legacy","Jazzy James","3.1.9","0","s","NA","NA","NA","s","s","550","NA","NA","NA","4963","550","2","legacy","1024","2","48000","-16","experiment","HHSHH","1","odd","6443","NA","NA","NA","NA","30589","NA","NA","1468","32306","31622","1430","NA","31633","31755","31754","Flanker Task","16","7978","16","yes","1024"
"100","100","499.941176471","499.941176471","black","no","legacy","legacy","legacy","0","incongruent","uniform","1","undefined","1","s","0","0","0","16","0","16","0","0","0","16","16","0","16","16","16","16","Sat Sep  8 20:10:14 2018","1500","The main experiment item","yes","Lab 1 PYSCH 5316.osexp","/Users/danieldalton/Desktop","no","mono","no","18","no","white","no","yes","768","legacy","16","16","/Users/danieldalton/Desktop/DD Subject 1.csv","legacy","Jazzy James","3.1.9","0","s","NA","NA","NA","s","s","521","NA","NA","NA","4963","521","2","legacy","1024","2","48000","-16","experiment","HHSHH","1","odd","6443","NA","NA","NA","NA","32320","NA","NA","1468","34006","33353","1430","NA","33364","33483","33483","Flanker Task","17","8499","17","yes","1024"
"100","100","505.111111111","505.111111111","black","no","legacy","legacy","legacy","0","incongruent","uniform","1","undefined","1","s","0","0","0","17","0","17","0","0","0","17","17","0","17","17","17","17","Sat Sep  8 20:10:14 2018","1500","The main experiment item","yes","Lab 1 PYSCH 5316.osexp","/Users/danieldalton/Desktop","no","mono","no","18","no","white","no","yes","768","legacy","17","17","/Users/danieldalton/Desktop/DD Subject 1.csv","legacy","Jazzy James","3.1.9","0","s","NA","NA","NA","s","s","593","NA","NA","NA","4963","593","2","legacy","1024","2","48000","-16","experiment","HHSHH","1","odd","6443","NA","NA","NA","NA","34020","NA","NA","1468","35774","35054","1430","NA","35064","35179","35179","Flanker Task","18","9092","18","yes","1024"
"100","100","498.263157895","498.263157895","black","no","legacy","legacy","legacy","0","conguent","uniform","1","undefined","1","s","0","0","0","18","0","18","0","0","0","18","18","0","18","18","18","18","Sat Sep  8 20:10:14 2018","1500","The main experiment item","yes","Lab 1 PYSCH 5316.osexp","/Users/danieldalton/Desktop","no","mono","no","18","no","white","no","yes","768","legacy","18","18","/Users/danieldalton/Desktop/DD Subject 1.csv","legacy","Jazzy James","3.1.9","0","s","NA","NA","NA","s","s","375","NA","NA","NA","4963","375","2","legacy","1024","2","48000","-16","experiment","SSSSS","1","odd","6443","NA","NA","NA","NA","35788","NA","NA","1468","37323","36821","1430","NA","36832","36947","36947","Flanker Task","19","9467","19","yes","1024"
"100","100","530.7","530.7","black","no","legacy","legacy","legacy","0","congruent","uniform","1","undefined","1","h","0","0","0","19","0","19","0","0","0","19","19","0","19","19","19","19","Sat Sep  8 20:10:14 2018","1500","The main experiment item","yes","Lab 1 PYSCH 5316.osexp","/Users/danieldalton/Desktop","no","mono","no","18","no","white","no","yes","768","legacy","19","19","/Users/danieldalton/Desktop/DD Subject 1.csv","legacy","Jazzy James","3.1.9","0","h","NA","NA","NA","s","h","1147","NA","NA","NA","4963","1147","2","legacy","1024","2","48000","-16","experiment","HHHHH","1","odd","6443","NA","NA","NA","NA","37337","NA","NA","1468","39644","38371","1430","NA","38383","38496","38496","Flanker Task","20","10614","20","yes","1024"
"100","100","526.380952381","526.380952381","black","no","legacy","legacy","legacy","0","congruent","uniform","1","undefined","1","h","0","0","0","20","0","20","0","0","0","20","20","0","20","20","20","20","Sat Sep  8 20:10:14 2018","1500","The main experiment item","yes","Lab 1 PYSCH 5316.osexp","/Users/danieldalton/Desktop","no","mono","no","18","no","white","no","yes","768","legacy","20","20","/Users/danieldalton/Desktop/DD Subject 1.csv","legacy","Jazzy James","3.1.9","0","h","NA","NA","NA","s","h","440","NA","NA","NA","4963","440","2","legacy","1024","2","48000","-16","experiment","HHHHH","1","odd","6443","NA","NA","NA","NA","39658","NA","NA","1468","41261","40691","1430","NA","40702","40819","40819","Flanker Task","21","11054","21","yes","1024"
"100","100","524.681818182","524.681818182","black","no","legacy","legacy","legacy","0","conguent","uniform","1","undefined","1","s","0","0","0","21","0","21","0","0","0","21","21","0","21","21","21","21","Sat Sep  8 20:10:14 2018","1500","The main experiment item","yes","Lab 1 PYSCH 5316.osexp","/Users/danieldalton/Desktop","no","mono","no","18","no","white","no","yes","768","legacy","21","21","/Users/danieldalton/Desktop/DD Subject 1.csv","legacy","Jazzy James","3.1.9","0","s","NA","NA","NA","s","s","489","NA","NA","NA","4963","489","2","legacy","1024","2","48000","-16","experiment","SSSSS","1","odd","6443","NA","NA","NA","NA","41275","NA","NA","1468","42926","42310","1430","NA","42321","42435","42435","Flanker Task","22","11543","22","yes","1024"
"100","100","525.173913043","525.173913043","black","no","legacy","legacy","legacy","0","congruent","uniform","1","undefined","1","h","0","0","0","22","0","22","0","0","0","22","22","0","22","22","22","22","Sat Sep  8 20:10:14 2018","1500","The main experiment item","yes","Lab 1 PYSCH 5316.osexp","/Users/danieldalton/Desktop","no","mono","no","18","no","white","no","yes","768","legacy","22","22","/Users/danieldalton/Desktop/DD Subject 1.csv","legacy","Jazzy James","3.1.9","0","h","NA","NA","NA","s","h","536","NA","NA","NA","4963","536","2","legacy","1024","2","48000","-16","experiment","HHHHH","1","odd","6443","NA","NA","NA","NA","42940","NA","NA","1468","44636","43973","1430","NA","43984","44098","44097","Flanker Task","23","12079","23","yes","1024"
"100","100","526.5","526.5","black","no","legacy","legacy","legacy","0","incongurent","uniform","1","undefined","1","h","0","0","0","23","0","23","0","0","0","23","23","0","23","23","23","23","Sat Sep  8 20:10:14 2018","1500","The main experiment item","yes","Lab 1 PYSCH 5316.osexp","/Users/danieldalton/Desktop","no","mono","no","18","no","white","no","yes","768","legacy","23","23","/Users/danieldalton/Desktop/DD Subject 1.csv","legacy","Jazzy James","3.1.9","0","h","NA","NA","NA","s","h","557","NA","NA","NA","4963","557","2","legacy","1024","2","48000","-16","experiment","SSHSS","1","odd","6443","NA","NA","NA","NA","44650","NA","NA","1468","46370","45683","1430","NA","45694","45811","45811","Flanker Task","24","12636","24","yes","1024"
"100","100","525.96","525.96","black","no","legacy","legacy","legacy","0","congruent","uniform","1","undefined","1","h","0","0","0","24","0","24","0","0","0","24","24","0","24","24","24","24","Sat Sep  8 20:10:14 2018","1500","The main experiment item","yes","Lab 1 PYSCH 5316.osexp","/Users/danieldalton/Desktop","no","mono","no","18","no","white","no","yes","768","legacy","24","24","/Users/danieldalton/Desktop/DD Subject 1.csv","legacy","Jazzy James","3.1.9","0","h","NA","NA","NA","s","h","513","NA","NA","NA","4963","513","2","legacy","1024","2","48000","-16","experiment","HHHHH","1","odd","6443","NA","NA","NA","NA","46384","NA","NA","1468","48058","47418","1430","NA","47429","47543","47543","Flanker Task","25","13149","25","yes","1024"
"100","100","525.269230769","525.269230769","black","no","legacy","legacy","legacy","0","conguent","uniform","1","undefined","1","s","0","0","0","25","0","25","0","0","0","25","25","0","25","25","25","25","Sat Sep  8 20:10:14 2018","1500","The main experiment item","yes","Lab 1 PYSCH 5316.osexp","/Users/danieldalton/Desktop","no","mono","no","18","no","white","no","yes","768","legacy","25","25","/Users/danieldalton/Desktop/DD Subject 1.csv","legacy","Jazzy James","3.1.9","0","s","NA","NA","NA","s","s","508","NA","NA","NA","4963","508","2","legacy","1024","2","48000","-16","experiment","SSSSS","1","odd","6443","NA","NA","NA","NA","48072","NA","NA","1468","49740","49105","1430","NA","49116","49230","49230","Flanker Task","26","13657","26","yes","1024"
"100","100","527.777777778","527.777777778","black","no","legacy","legacy","legacy","0","incongurent","uniform","1","undefined","1","h","0","0","0","26","0","26","0","0","0","26","26","0","26","26","26","26","Sat Sep  8 20:10:14 2018","1500","The main experiment item","yes","Lab 1 PYSCH 5316.osexp","/Users/danieldalton/Desktop","no","mono","no","18","no","white","no","yes","768","legacy","26","26","/Users/danieldalton/Desktop/DD Subject 1.csv","legacy","Jazzy James","3.1.9","0","h","NA","NA","NA","s","h","593","NA","NA","NA","4963","593","2","legacy","1024","2","48000","-16","experiment","SSHSS","1","odd","6443","NA","NA","NA","NA","49755","NA","NA","1468","51512","50789","1430","NA","50800","50917","50917","Flanker Task","27","14250","27","yes","1024"
"100","100","528.714285714","528.714285714","black","no","legacy","legacy","legacy","0","incongruent","uniform","1","undefined","1","s","0","0","0","27","0","27","0","0","0","27","27","0","27","27","27","27","Sat Sep  8 20:10:14 2018","1500","The main experiment item","yes","Lab 1 PYSCH 5316.osexp","/Users/danieldalton/Desktop","no","mono","no","18","no","white","no","yes","768","legacy","27","27","/Users/danieldalton/Desktop/DD Subject 1.csv","legacy","Jazzy James","3.1.9","0","s","NA","NA","NA","s","s","554","NA","NA","NA","4963","554","2","legacy","1024","2","48000","-16","experiment","HHSHH","1","odd","6443","NA","NA","NA","NA","51526","NA","NA","1468","53242","52560","1430","NA","52571","52686","52686","Flanker Task","28","14804","28","yes","1024"
"100","100","528.75862069","528.75862069","black","no","legacy","legacy","legacy","0","incongruent","uniform","1","undefined","1","s","0","0","0","28","0","28","0","0","0","28","28","0","28","28","28","28","Sat Sep  8 20:10:14 2018","1500","The main experiment item","yes","Lab 1 PYSCH 5316.osexp","/Users/danieldalton/Desktop","no","mono","no","18","no","white","no","yes","768","legacy","28","28","/Users/danieldalton/Desktop/DD Subject 1.csv","legacy","Jazzy James","3.1.9","0","s","NA","NA","NA","s","s","530","NA","NA","NA","4963","530","2","legacy","1024","2","48000","-16","experiment","HHSHH","1","odd","6443","NA","NA","NA","NA","53255","NA","NA","1468","54950","54290","1430","NA","54301","54418","54417","Flanker Task","29","15334","29","yes","1024"
"96.6666666667","96.6666666667","524.5","524.5","black","no","legacy","legacy","legacy","0","congruent","uniform","0","undefined","0","h","0","0","0","29","0","29","0","0","0","29","29","0","29","29","29","29","Sat Sep  8 20:10:14 2018","1500","The main experiment item","yes","Lab 1 PYSCH 5316.osexp","/Users/danieldalton/Desktop","no","mono","no","18","no","white","no","yes","768","legacy","29","29","/Users/danieldalton/Desktop/DD Subject 1.csv","legacy","Jazzy James","3.1.9","0","s","NA","NA","NA","s","s","401","NA","NA","NA","4963","401","2","legacy","1024","2","48000","-16","experiment","HHHHH","1","odd","6443","NA","NA","NA","NA","54964","NA","NA","1468","56526","55998","1430","NA","56009","56123","56123","Flanker Task","29","15735","30","yes","1024"
"96.7741935484","96.7741935484","522.806451613","522.806451613","black","no","legacy","legacy","legacy","0","incongurent","uniform","1","undefined","1","h","0","0","0","30","0","30","0","0","0","30","30","0","30","30","30","30","Sat Sep  8 20:10:14 2018","1500","The main experiment item","yes","Lab 1 PYSCH 5316.osexp","/Users/danieldalton/Desktop","no","mono","no","18","no","white","no","yes","768","legacy","30","30","/Users/danieldalton/Desktop/DD Subject 1.csv","legacy","Jazzy James","3.1.9","0","h","NA","NA","NA","s","h","472","NA","NA","NA","4963","472","2","legacy","1024","2","48000","-16","experiment","SSHSS","1","odd","6443","NA","NA","56540","NA","57053","NA","NA","1468","58688","58088","1430","NA","58099","58214","58214","Flanker Task","30","16207","31","yes","1024"
"96.875","96.875","525.4375","525.4375","black","no","legacy","legacy","legacy","0","incongurent","uniform","1","undefined","1","h","0","0","0","31","0","31","0","0","0","31","31","0","31","31","31","31","Sat Sep  8 20:10:14 2018","1500","The main experiment item","yes","Lab 1 PYSCH 5316.osexp","/Users/danieldalton/Desktop","no","mono","no","18","no","white","no","yes","768","legacy","31","31","/Users/danieldalton/Desktop/DD Subject 1.csv","legacy","Jazzy James","3.1.9","0","h","NA","NA","NA","s","h","607","NA","NA","NA","4963","607","2","legacy","1024","2","48000","-16","experiment","SSHSS","1","odd","6443","NA","NA","56540","NA","58705","NA","NA","1468","60471","59739","1430","NA","59749","59863","59863","Flanker Task","31","16814","32","yes","1024"
"96.9696969697","96.9696969697","523.454545455","523.454545455","black","no","legacy","legacy","legacy","0","congruent","uniform","1","undefined","1","h","0","0","0","32","0","32","0","0","0","32","32","0","32","32","32","32","Sat Sep  8 20:10:14 2018","1500","The main experiment item","yes","Lab 1 PYSCH 5316.osexp","/Users/danieldalton/Desktop","no","mono","no","18","no","white","no","yes","768","legacy","32","32","/Users/danieldalton/Desktop/DD Subject 1.csv","legacy","Jazzy James","3.1.9","0","h","NA","NA","NA","s","h","460","NA","NA","NA","4963","460","2","legacy","1024","2","48000","-16","experiment","HHHHH","1","odd","6443","NA","NA","56540","NA","60485","NA","NA","1468","62109","61518","1430","NA","61529","61647","61646","Flanker Task","32","17274","33","yes","1024"
"97.0588235294","97.0588235294","520.852941176","520.852941176","black","no","legacy","legacy","legacy","0","incongurent","uniform","1","undefined","1","h","0","0","0","33","0","33","0","0","0","33","33","0","33","33","33","33","Sat Sep  8 20:10:14 2018","1500","The main experiment item","yes","Lab 1 PYSCH 5316.osexp","/Users/danieldalton/Desktop","no","mono","no","18","no","white","no","yes","768","legacy","33","33","/Users/danieldalton/Desktop/DD Subject 1.csv","legacy","Jazzy James","3.1.9","0","h","NA","NA","NA","s","h","435","NA","NA","NA","4963","435","2","legacy","1024","2","48000","-16","experiment","SSHSS","1","odd","6443","NA","NA","56540","NA","62123","NA","NA","1468","63719","63156","1430","NA","63166","63283","63282","Flanker Task","33","17709","34","yes","1024"
"97.1428571429","97.1428571429","518.942857143","518.942857143","black","no","legacy","legacy","legacy","0","conguent","uniform","1","undefined","1","s","0","0","0","34","0","34","0","0","0","34","34","0","34","34","34","34","Sat Sep  8 20:10:14 2018","1500","The main experiment item","yes","Lab 1 PYSCH 5316.osexp","/Users/danieldalton/Desktop","no","mono","no","18","no","white","no","yes","768","legacy","34","34","/Users/danieldalton/Desktop/DD Subject 1.csv","legacy","Jazzy James","3.1.9","0","s","NA","NA","NA","s","s","454","NA","NA","NA","4963","454","2","legacy","1024","2","48000","-16","experiment","SSSSS","1","odd","6443","NA","NA","56540","NA","63733","NA","NA","1468","65349","64767","1430","NA","64777","64891","64891","Flanker Task","34","18163","35","yes","1024"
"97.2222222222","97.2222222222","523.666666667","523.666666667","black","no","legacy","legacy","legacy","0","incongurent","uniform","1","undefined","1","h","0","0","0","35","0","35","0","0","0","35","35","0","35","35","35","35","Sat Sep  8 20:10:14 2018","1500","The main experiment item","yes","Lab 1 PYSCH 5316.osexp","/Users/danieldalton/Desktop","no","mono","no","18","no","white","no","yes","768","legacy","35","35","/Users/danieldalton/Desktop/DD Subject 1.csv","legacy","Jazzy James","3.1.9","0","h","NA","NA","NA","s","h","689","NA","NA","NA","4963","689","2","legacy","1024","2","48000","-16","experiment","SSHSS","1","odd","6443","NA","NA","56540","NA","65363","NA","NA","1468","67215","66395","1430","NA","66406","66523","66523","Flanker Task","35","18852","36","yes","1024"
"97.2972972973","97.2972972973","521.027027027","521.027027027","black","no","legacy","legacy","legacy","0","conguent","uniform","1","undefined","1","s","0","0","0","36","0","36","0","0","0","36","36","0","36","36","36","36","Sat Sep  8 20:10:14 2018","1500","The main experiment item","yes","Lab 1 PYSCH 5316.osexp","/Users/danieldalton/Desktop","no","mono","no","18","no","white","no","yes","768","legacy","36","36","/Users/danieldalton/Desktop/DD Subject 1.csv","legacy","Jazzy James","3.1.9","0","s","NA","NA","NA","s","s","426","NA","NA","NA","4963","426","2","legacy","1024","2","48000","-16","experiment","SSSSS","1","odd","6443","NA","NA","56540","NA","67228","NA","NA","1468","68818","68261","1430","NA","68272","68390","68390","Flanker Task","36","19278","37","yes","1024"
"97.3684210526","97.3684210526","520.368421053","520.368421053","black","no","legacy","legacy","legacy","0","incongurent","uniform","1","undefined","1","h","0","0","0","37","0","37","0","0","0","37","37","0","37","37","37","37","Sat Sep  8 20:10:14 2018","1500","The main experiment item","yes","Lab 1 PYSCH 5316.osexp","/Users/danieldalton/Desktop","no","mono","no","18","no","white","no","yes","768","legacy","37","37","/Users/danieldalton/Desktop/DD Subject 1.csv","legacy","Jazzy James","3.1.9","0","h","NA","NA","NA","s","h","496","NA","NA","NA","4963","496","2","legacy","1024","2","48000","-16","experiment","SSHSS","1","odd","6443","NA","NA","56540","NA","68832","NA","NA","1468","70492","69865","1430","NA","69876","69994","69994","Flanker Task","37","19774","38","yes","1024"
"97.4358974359","97.4358974359","520.230769231","520.230769231","black","no","legacy","legacy","legacy","0","incongruent","uniform","1","undefined","1","s","0","0","0","38","0","38","0","0","0","38","38","0","38","38","38","38","Sat Sep  8 20:10:14 2018","1500","The main experiment item","yes","Lab 1 PYSCH 5316.osexp","/Users/danieldalton/Desktop","no","mono","no","18","no","white","no","yes","768","legacy","38","38","/Users/danieldalton/Desktop/DD Subject 1.csv","legacy","Jazzy James","3.1.9","0","s","NA","NA","NA","s","s","515","NA","NA","NA","4963","515","2","legacy","1024","2","48000","-16","experiment","HHSHH","1","odd","6443","NA","NA","56540","NA","70506","NA","NA","1468","72184","71539","1430","NA","71549","71667","71667","Flanker Task","38","20289","39","yes","1024"
"97.5","97.5","518.175","518.175","black","no","legacy","legacy","legacy","0","congruent","uniform","1","undefined","1","h","0","0","0","39","0","39","0","0","0","39","39","0","39","39","39","39","Sat Sep  8 20:10:14 2018","1500","The main experiment item","yes","Lab 1 PYSCH 5316.osexp","/Users/danieldalton/Desktop","no","mono","no","18","no","white","no","yes","768","legacy","39","39","/Users/danieldalton/Desktop/DD Subject 1.csv","legacy","Jazzy James","3.1.9","0","h","NA","NA","NA","s","h","438","NA","NA","NA","4963","438","2","legacy","1024","2","48000","-16","experiment","HHHHH","1","odd","6443","NA","NA","56540","NA","72198","NA","NA","1468","73796","73231","1430","NA","73242","73356","73356","Flanker Task","39","20727","40","yes","1024"
"97.5609756098","97.5609756098","516","516","black","no","legacy","legacy","legacy","0","congruent","uniform","1","undefined","1","h","0","0","0","40","0","40","0","0","0","40","40","0","40","40","40","40","Sat Sep  8 20:10:14 2018","1500","The main experiment item","yes","Lab 1 PYSCH 5316.osexp","/Users/danieldalton/Desktop","no","mono","no","18","no","white","no","yes","768","legacy","40","40","/Users/danieldalton/Desktop/DD Subject 1.csv","legacy","Jazzy James","3.1.9","0","h","NA","NA","NA","s","h","429","NA","NA","NA","4963","429","2","legacy","1024","2","48000","-16","experiment","HHHHH","1","odd","6443","NA","NA","56540","NA","73810","NA","NA","1468","75403","74844","1430","NA","74854","74972","74972","Flanker Task","40","21156","41","yes","1024"
"97.619047619","97.619047619","517.714285714","517.714285714","black","no","legacy","legacy","legacy","0","incongurent","uniform","1","undefined","1","h","0","0","0","41","0","41","0","0","0","41","41","0","41","41","41","41","Sat Sep  8 20:10:14 2018","1500","The main experiment item","yes","Lab 1 PYSCH 5316.osexp","/Users/danieldalton/Desktop","no","mono","no","18","no","white","no","yes","768","legacy","41","41","/Users/danieldalton/Desktop/DD Subject 1.csv","legacy","Jazzy James","3.1.9","0","h","NA","NA","NA","s","h","588","NA","NA","NA","4963","588","2","legacy","1024","2","48000","-16","experiment","SSHSS","1","odd","6443","NA","NA","56540","NA","75417","NA","NA","1468","77169","76450","1430","NA","76460","76579","76579","Flanker Task","41","21744","42","yes","1024"
"97.6744186047","97.6744186047","517.837209302","517.837209302","black","no","legacy","legacy","legacy","0","incongruent","uniform","1","undefined","1","s","0","0","0","42","0","42","0","0","0","42","42","0","42","42","42","42","Sat Sep  8 20:10:14 2018","1500","The main experiment item","yes","Lab 1 PYSCH 5316.osexp","/Users/danieldalton/Desktop","no","mono","no","18","no","white","no","yes","768","legacy","42","42","/Users/danieldalton/Desktop/DD Subject 1.csv","legacy","Jazzy James","3.1.9","0","s","NA","NA","NA","s","s","523","NA","NA","NA","4963","523","2","legacy","1024","2","48000","-16","experiment","HHSHH","1","odd","6443","NA","NA","56540","NA","77183","NA","NA","1468","78869","78219","1430","NA","78230","78344","78344","Flanker Task","42","22267","43","yes","1024"
"97.7272727273","97.7272727273","517.386363636","517.386363636","black","no","legacy","legacy","legacy","0","incongruent","uniform","1","undefined","1","s","0","0","0","43","0","43","0","0","0","43","43","0","43","43","43","43","Sat Sep  8 20:10:14 2018","1500","The main experiment item","yes","Lab 1 PYSCH 5316.osexp","/Users/danieldalton/Desktop","no","mono","no","18","no","white","no","yes","768","legacy","43","43","/Users/danieldalton/Desktop/DD Subject 1.csv","legacy","Jazzy James","3.1.9","0","s","NA","NA","NA","s","s","498","NA","NA","NA","4963","498","2","legacy","1024","2","48000","-16","experiment","HHSHH","1","odd","6443","NA","NA","56540","NA","78882","NA","NA","1468","80542","79917","1430","NA","79928","80042","80042","Flanker Task","43","22765","44","yes","1024"
"97.7777777778","97.7777777778","516.2","516.2","black","no","legacy","legacy","legacy","0","congruent","uniform","1","undefined","1","h","0","0","0","44","0","44","0","0","0","44","44","0","44","44","44","44","Sat Sep  8 20:10:14 2018","1500","The main experiment item","yes","Lab 1 PYSCH 5316.osexp","/Users/danieldalton/Desktop","no","mono","no","18","no","white","no","yes","768","legacy","44","44","/Users/danieldalton/Desktop/DD Subject 1.csv","legacy","Jazzy James","3.1.9","0","h","NA","NA","NA","s","h","464","NA","NA","NA","4963","464","2","legacy","1024","2","48000","-16","experiment","HHHHH","1","odd","6443","NA","NA","56540","NA","80556","NA","NA","1468","82182","81591","1430","NA","81602","81716","81716","Flanker Task","44","23229","45","yes","1024"
"97.8260869565","97.8260869565","514.695652174","514.695652174","black","no","legacy","legacy","legacy","0","incongruent","uniform","1","undefined","1","s","0","0","0","45","0","45","0","0","0","45","45","0","45","45","45","45","Sat Sep  8 20:10:14 2018","1500","The main experiment item","yes","Lab 1 PYSCH 5316.osexp","/Users/danieldalton/Desktop","no","mono","no","18","no","white","no","yes","768","legacy","45","45","/Users/danieldalton/Desktop/DD Subject 1.csv","legacy","Jazzy James","3.1.9","0","s","NA","NA","NA","s","s","447","NA","NA","NA","4963","447","2","legacy","1024","2","48000","-16","experiment","HHSHH","1","odd","6443","NA","NA","56540","NA","82196","NA","NA","1468","83806","83228","1430","NA","83239","83357","83357","Flanker Task","45","23676","46","yes","1024"
"97.8723404255","97.8723404255","513.680851064","513.680851064","black","no","legacy","legacy","legacy","0","conguent","uniform","1","undefined","1","s","0","0","0","46","0","46","0","0","0","46","46","0","46","46","46","46","Sat Sep  8 20:10:14 2018","1500","The main experiment item","yes","Lab 1 PYSCH 5316.osexp","/Users/danieldalton/Desktop","no","mono","no","18","no","white","no","yes","768","legacy","46","46","/Users/danieldalton/Desktop/DD Subject 1.csv","legacy","Jazzy James","3.1.9","0","s","NA","NA","NA","s","s","467","NA","NA","NA","4963","467","2","legacy","1024","2","48000","-16","experiment","SSSSS","1","odd","6443","NA","NA","56540","NA","83820","NA","NA","1468","85446","84853","1430","NA","84864","84977","84977","Flanker Task","46","24143","47","yes","1024"
"97.9166666667","97.9166666667","514.729166667","514.729166667","black","no","legacy","legacy","legacy","0","incongurent","uniform","1","undefined","1","h","0","0","0","47","0","47","0","0","0","47","47","0","47","47","47","47","Sat Sep  8 20:10:14 2018","1500","The main experiment item","yes","Lab 1 PYSCH 5316.osexp","/Users/danieldalton/Desktop","no","mono","no","18","no","white","no","yes","768","legacy","47","47","/Users/danieldalton/Desktop/DD Subject 1.csv","legacy","Jazzy James","3.1.9","0","h","NA","NA","NA","s","h","564","NA","NA","NA","4963","564","2","legacy","1024","2","48000","-16","experiment","SSHSS","1","odd","6443","NA","NA","56540","NA","85460","NA","NA","1468","87190","86492","1430","NA","86503","86624","86624","Flanker Task","47","24707","48","yes","1024"
"97.9591836735","97.9591836735","514.387755102","514.387755102","black","no","legacy","legacy","legacy","0","conguent","uniform","1","undefined","1","s","0","0","0","48","0","48","0","0","0","48","48","0","48","48","48","48","Sat Sep  8 20:10:14 2018","1500","The main experiment item","yes","Lab 1 PYSCH 5316.osexp","/Users/danieldalton/Desktop","no","mono","no","18","no","white","no","yes","768","legacy","48","48","/Users/danieldalton/Desktop/DD Subject 1.csv","legacy","Jazzy James","3.1.9","0","s","NA","NA","NA","s","s","498","NA","NA","NA","4963","498","2","legacy","1024","2","48000","-16","experiment","SSSSS","1","odd","6443","NA","NA","56540","NA","87203","NA","NA","1468","88872","88243","1430","NA","88254","88372","88372","Flanker Task","48","25205","49","yes","1024"
"98","98","513.68","513.68","black","no","legacy","legacy","legacy","0","conguent","uniform","1","undefined","1","s","0","0","0","49","0","49","0","0","0","49","49","0","49","49","49","49","Sat Sep  8 20:10:14 2018","1500","The main experiment item","yes","Lab 1 PYSCH 5316.osexp","/Users/danieldalton/Desktop","no","mono","no","18","no","white","no","yes","768","legacy","49","49","/Users/danieldalton/Desktop/DD Subject 1.csv","legacy","Jazzy James","3.1.9","0","s","NA","NA","NA","s","s","479","NA","NA","NA","4963","479","2","legacy","1024","2","48000","-16","experiment","SSSSS","1","odd","6443","NA","NA","56540","NA","88886","NA","NA","1468","90527","89919","1430","NA","89930","90046","90046","Flanker Task","49","25684","50","yes","1024"
"98.0392156863","98.0392156863","513","513","black","no","legacy","legacy","legacy","0","conguent","uniform","1","undefined","1","s","0","0","0","50","0","50","0","0","0","50","50","0","50","50","50","50","Sat Sep  8 20:10:14 2018","1500","The main experiment item","yes","Lab 1 PYSCH 5316.osexp","/Users/danieldalton/Desktop","no","mono","no","18","no","white","no","yes","768","legacy","50","50","/Users/danieldalton/Desktop/DD Subject 1.csv","legacy","Jazzy James","3.1.9","0","s","NA","NA","NA","s","s","479","NA","NA","NA","4963","479","2","legacy","1024","2","48000","-16","experiment","SSSSS","1","odd","6443","NA","NA","56540","NA","90540","NA","NA","1468","92181","91574","1430","NA","91585","91700","91700","Flanker Task","50","26163","51","yes","1024"
"98.0769230769","98.0769230769","513.442307692","513.442307692","black","no","legacy","legacy","legacy","0","congruent","uniform","1","undefined","1","h","0","0","0","51","0","51","0","0","0","51","51","0","51","51","51","51","Sat Sep  8 20:10:14 2018","1500","The main experiment item","yes","Lab 1 PYSCH 5316.osexp","/Users/danieldalton/Desktop","no","mono","no","18","no","white","no","yes","768","legacy","51","51","/Users/danieldalton/Desktop/DD Subject 1.csv","legacy","Jazzy James","3.1.9","0","h","NA","NA","NA","s","h","536","NA","NA","NA","4963","536","2","legacy","1024","2","48000","-16","experiment","HHHHH","1","odd","6443","NA","NA","56540","NA","92195","NA","NA","1468","93893","93228","1430","NA","93238","93355","93355","Flanker Task","51","26699","52","yes","1024"
"98.1132075472","98.1132075472","514.962264151","514.962264151","black","no","legacy","legacy","legacy","0","incongurent","uniform","1","undefined","1","h","0","0","0","52","0","52","0","0","0","52","52","0","52","52","52","52","Sat Sep  8 20:10:14 2018","1500","The main experiment item","yes","Lab 1 PYSCH 5316.osexp","/Users/danieldalton/Desktop","no","mono","no","18","no","white","no","yes","768","legacy","52","52","/Users/danieldalton/Desktop/DD Subject 1.csv","legacy","Jazzy James","3.1.9","0","h","NA","NA","NA","s","h","594","NA","NA","NA","4963","594","2","legacy","1024","2","48000","-16","experiment","SSHSS","1","odd","6443","NA","NA","56540","NA","93906","NA","NA","1468","95663","94940","1430","NA","94950","95066","95065","Flanker Task","52","27293","53","yes","1024"
"98.1481481481","98.1481481481","512.685185185","512.685185185","black","no","legacy","legacy","legacy","0","conguent","uniform","1","undefined","1","s","0","0","0","53","0","53","0","0","0","53","53","0","53","53","53","53","Sat Sep  8 20:10:14 2018","1500","The main experiment item","yes","Lab 1 PYSCH 5316.osexp","/Users/danieldalton/Desktop","no","mono","no","18","no","white","no","yes","768","legacy","53","53","/Users/danieldalton/Desktop/DD Subject 1.csv","legacy","Jazzy James","3.1.9","0","s","NA","NA","NA","s","s","392","NA","NA","NA","4963","392","2","legacy","1024","2","48000","-16","experiment","SSSSS","1","odd","6443","NA","NA","56540","NA","95678","NA","NA","1468","97230","96710","1430","NA","96722","96836","96836","Flanker Task","53","27685","54","yes","1024"
"98.1818181818","98.1818181818","515.818181818","515.818181818","black","no","legacy","legacy","legacy","0","incongurent","uniform","1","undefined","1","h","0","0","0","54","0","54","0","0","0","54","54","0","54","54","54","54","Sat Sep  8 20:10:14 2018","1500","The main experiment item","yes","Lab 1 PYSCH 5316.osexp","/Users/danieldalton/Desktop","no","mono","no","18","no","white","no","yes","768","legacy","54","54","/Users/danieldalton/Desktop/DD Subject 1.csv","legacy","Jazzy James","3.1.9","0","h","NA","NA","NA","s","h","685","NA","NA","NA","4963","685","2","legacy","1024","2","48000","-16","experiment","SSHSS","1","odd","6443","NA","NA","56540","NA","97244","NA","NA","1468","99093","98280","1430","NA","98292","98406","98406","Flanker Task","54","28370","55","yes","1024"
"98.2142857143","98.2142857143","514.839285714","514.839285714","black","no","legacy","legacy","legacy","0","conguent","uniform","1","undefined","1","s","0","0","0","55","0","55","0","0","0","55","55","0","55","55","55","55","Sat Sep  8 20:10:14 2018","1500","The main experiment item","yes","Lab 1 PYSCH 5316.osexp","/Users/danieldalton/Desktop","no","mono","no","18","no","white","no","yes","768","legacy","55","55","/Users/danieldalton/Desktop/DD Subject 1.csv","legacy","Jazzy James","3.1.9","0","s","NA","NA","NA","s","s","461","NA","NA","NA","4963","461","2","legacy","1024","2","48000","-16","experiment","SSSSS","1","odd","6443","NA","NA","56540","NA","99107","NA","NA","1468","100729","100141","1430","NA","100152","100266","100266","Flanker Task","55","28831","56","yes","1024"
"98.2456140351","98.2456140351","515.543859649","515.543859649","black","no","legacy","legacy","legacy","0","incongurent","uniform","1","undefined","1","h","0","0","0","56","0","56","0","0","0","56","56","0","56","56","56","56","Sat Sep  8 20:10:14 2018","1500","The main experiment item","yes","Lab 1 PYSCH 5316.osexp","/Users/danieldalton/Desktop","no","mono","no","18","no","white","no","yes","768","legacy","56","56","/Users/danieldalton/Desktop/DD Subject 1.csv","legacy","Jazzy James","3.1.9","0","h","NA","NA","NA","s","h","555","NA","NA","NA","4963","555","2","legacy","1024","2","48000","-16","experiment","SSHSS","1","odd","6443","NA","NA","56540","NA","100743","NA","NA","1468","102459","101775","1430","NA","101786","101902","101902","Flanker Task","56","29386","57","yes","1024"
"98.275862069","98.275862069","518.517241379","518.517241379","black","no","legacy","legacy","legacy","0","congruent","uniform","1","undefined","1","h","0","0","0","57","0","57","0","0","0","57","57","0","57","57","57","57","Sat Sep  8 20:10:14 2018","1500","The main experiment item","yes","Lab 1 PYSCH 5316.osexp","/Users/danieldalton/Desktop","no","mono","no","18","no","white","no","yes","768","legacy","57","57","/Users/danieldalton/Desktop/DD Subject 1.csv","legacy","Jazzy James","3.1.9","0","h","NA","NA","NA","s","h","688","NA","NA","NA","4963","688","2","legacy","1024","2","48000","-16","experiment","HHHHH","1","odd","6443","NA","NA","56540","NA","102473","NA","NA","1468","104324","103508","1430","NA","103519","103634","103634","Flanker Task","57","30074","58","yes","1024"
"98.3050847458","98.3050847458","518.254237288","518.254237288","black","no","legacy","legacy","legacy","0","conguent","uniform","1","undefined","1","s","0","0","0","58","0","58","0","0","0","58","58","0","58","58","58","58","Sat Sep  8 20:10:14 2018","1500","The main experiment item","yes","Lab 1 PYSCH 5316.osexp","/Users/danieldalton/Desktop","no","mono","no","18","no","white","no","yes","768","legacy","58","58","/Users/danieldalton/Desktop/DD Subject 1.csv","legacy","Jazzy James","3.1.9","0","s","NA","NA","NA","s","s","503","NA","NA","NA","4963","503","2","legacy","1024","2","48000","-16","experiment","SSSSS","1","odd","6443","NA","NA","56540","NA","104338","NA","NA","1468","106000","105371","1430","NA","105381","105496","105495","Flanker Task","58","30577","59","yes","1024"
"98.3333333333","98.3333333333","516.866666667","516.866666667","black","no","legacy","legacy","legacy","0","congruent","uniform","1","undefined","1","h","0","0","0","59","0","59","0","0","0","59","59","0","59","59","59","59","Sat Sep  8 20:10:14 2018","1500","The main experiment item","yes","Lab 1 PYSCH 5316.osexp","/Users/danieldalton/Desktop","no","mono","no","18","no","white","no","yes","768","legacy","59","59","/Users/danieldalton/Desktop/DD Subject 1.csv","legacy","Jazzy James","3.1.9","0","h","NA","NA","NA","s","h","435","NA","NA","NA","4963","435","2","legacy","1024","2","48000","-16","experiment","HHHHH","1","odd","6443","NA","NA","56540","NA","106014","NA","NA","1468","107611","107048","1430","NA","107059","107174","107174","Flanker Task","59","31012","60","yes","1024"
"98.3606557377","98.3606557377","518.639344262","518.639344262","black","no","legacy","legacy","legacy","0","conguent","uniform","1","undefined","1","s","0","0","0","60","0","60","0","0","0","60","60","0","60","60","60","60","Sat Sep  8 20:10:14 2018","1500","The main experiment item","yes","Lab 1 PYSCH 5316.osexp","/Users/danieldalton/Desktop","no","mono","no","18","no","white","no","yes","768","legacy","60","60","/Users/danieldalton/Desktop/DD Subject 1.csv","legacy","Jazzy James","3.1.9","0","s","NA","NA","NA","s","s","625","NA","NA","NA","4963","625","2","legacy","1024","2","48000","-16","experiment","SSSSS","1","odd","6443","NA","NA","56540","NA","107625","NA","NA","1468","109416","108662","1430","NA","108673","108789","108789","Flanker Task","60","31637","61","yes","1024"
"98.3870967742","98.3870967742","519.806451613","519.806451613","black","no","legacy","legacy","legacy","0","incongruent","uniform","1","undefined","1","s","0","0","0","61","0","61","0","0","0","61","61","0","61","61","61","61","Sat Sep  8 20:10:14 2018","1500","The main experiment item","yes","Lab 1 PYSCH 5316.osexp","/Users/danieldalton/Desktop","no","mono","no","18","no","white","no","yes","768","legacy","61","61","/Users/danieldalton/Desktop/DD Subject 1.csv","legacy","Jazzy James","3.1.9","0","s","NA","NA","NA","s","s","591","NA","NA","NA","4963","591","2","legacy","1024","2","48000","-16","experiment","HHSHH","1","odd","6443","NA","NA","56540","NA","109430","NA","NA","1468","111182","110464","1430","NA","110474","110589","110589","Flanker Task","61","32228","62","yes","1024"
"98.4126984127","98.4126984127","519.492063492","519.492063492","black","no","legacy","legacy","legacy","0","congruent","uniform","1","undefined","1","h","0","0","0","62","0","62","0","0","0","62","62","0","62","62","62","62","Sat Sep  8 20:10:14 2018","1500","The main experiment item","yes","Lab 1 PYSCH 5316.osexp","/Users/danieldalton/Desktop","no","mono","no","18","no","white","no","yes","768","legacy","62","62","/Users/danieldalton/Desktop/DD Subject 1.csv","legacy","Jazzy James","3.1.9","0","h","NA","NA","NA","s","h","500","NA","NA","NA","4963","500","2","legacy","1024","2","48000","-16","experiment","HHHHH","1","odd","6443","NA","NA","56540","NA","111196","NA","NA","1468","112857","112229","1430","NA","112239","112355","112355","Flanker Task","62","32728","63","yes","1024"
"98.4375","98.4375","519.453125","519.453125","black","no","legacy","legacy","legacy","0","incongruent","uniform","1","undefined","1","s","0","0","0","63","0","63","0","0","0","63","63","0","63","63","63","63","Sat Sep  8 20:10:14 2018","1500","The main experiment item","yes","Lab 1 PYSCH 5316.osexp","/Users/danieldalton/Desktop","no","mono","no","18","no","white","no","yes","768","legacy","63","63","/Users/danieldalton/Desktop/DD Subject 1.csv","legacy","Jazzy James","3.1.9","0","s","NA","NA","NA","s","s","517","NA","NA","NA","4963","517","2","legacy","1024","2","48000","-16","experiment","HHSHH","1","odd","6443","NA","NA","56540","NA","112871","NA","NA","1468","114550","113903","1430","NA","113914","114031","114031","Flanker Task","63","33245","64","yes","1024"
"98.4615384615","98.4615384615","518.830769231","518.830769231","black","no","legacy","legacy","legacy","0","conguent","uniform","1","undefined","1","s","0","0","0","64","0","64","0","0","0","64","64","0","64","64","64","64","Sat Sep  8 20:10:14 2018","1500","The main experiment item","yes","Lab 1 PYSCH 5316.osexp","/Users/danieldalton/Desktop","no","mono","no","18","no","white","no","yes","768","legacy","64","64","/Users/danieldalton/Desktop/DD Subject 1.csv","legacy","Jazzy James","3.1.9","0","s","NA","NA","NA","s","s","479","NA","NA","NA","4963","479","2","legacy","1024","2","48000","-16","experiment","SSSSS","1","odd","6443","NA","NA","56540","NA","114563","NA","NA","1468","116202","115597","1430","NA","115607","115721","115721","Flanker Task","64","33724","65","yes","1024"
"98.4848484848","98.4848484848","519.560606061","519.560606061","black","no","legacy","legacy","legacy","0","incongruent","uniform","1","undefined","1","s","0","0","0","65","0","65","0","0","0","65","65","0","65","65","65","65","Sat Sep  8 20:10:14 2018","1500","The main experiment item","yes","Lab 1 PYSCH 5316.osexp","/Users/danieldalton/Desktop","no","mono","no","18","no","white","no","yes","768","legacy","65","65","/Users/danieldalton/Desktop/DD Subject 1.csv","legacy","Jazzy James","3.1.9","0","s","NA","NA","NA","s","s","567","NA","NA","NA","4963","567","2","legacy","1024","2","48000","-16","experiment","HHSHH","1","odd","6443","NA","NA","56540","NA","116216","NA","NA","1468","117945","117250","1430","NA","117261","117376","117376","Flanker Task","65","34291","66","yes","1024"
"98.5074626866","98.5074626866","518.179104478","518.179104478","black","no","legacy","legacy","legacy","0","incongruent","uniform","1","undefined","1","s","0","0","0","66","0","66","0","0","0","66","66","0","66","66","66","66","Sat Sep  8 20:10:14 2018","1500","The main experiment item","yes","Lab 1 PYSCH 5316.osexp","/Users/danieldalton/Desktop","no","mono","no","18","no","white","no","yes","768","legacy","66","66","/Users/danieldalton/Desktop/DD Subject 1.csv","legacy","Jazzy James","3.1.9","0","s","NA","NA","NA","s","s","427","NA","NA","NA","4963","427","2","legacy","1024","2","48000","-16","experiment","HHSHH","1","odd","6443","NA","NA","56540","NA","117958","NA","NA","1468","119547","118994","1430","NA","119004","119118","119118","Flanker Task","66","34718","67","yes","1024"
"98.5294117647","98.5294117647","516.970588235","516.970588235","black","no","legacy","legacy","legacy","0","conguent","uniform","1","undefined","1","s","0","0","0","67","0","67","0","0","0","67","67","0","67","67","67","67","Sat Sep  8 20:10:14 2018","1500","The main experiment item","yes","Lab 1 PYSCH 5316.osexp","/Users/danieldalton/Desktop","no","mono","no","18","no","white","no","yes","768","legacy","67","67","/Users/danieldalton/Desktop/DD Subject 1.csv","legacy","Jazzy James","3.1.9","0","s","NA","NA","NA","s","s","436","NA","NA","NA","4963","436","2","legacy","1024","2","48000","-16","experiment","SSSSS","1","odd","6443","NA","NA","56540","NA","119560","NA","NA","1468","121158","120594","1430","NA","120604","120720","120720","Flanker Task","67","35154","68","yes","1024"
"98.5507246377","98.5507246377","516.289855072","516.289855072","black","no","legacy","legacy","legacy","0","incongruent","uniform","1","undefined","1","s","0","0","0","68","0","68","0","0","0","68","68","0","68","68","68","68","Sat Sep  8 20:10:14 2018","1500","The main experiment item","yes","Lab 1 PYSCH 5316.osexp","/Users/danieldalton/Desktop","no","mono","no","18","no","white","no","yes","768","legacy","68","68","/Users/danieldalton/Desktop/DD Subject 1.csv","legacy","Jazzy James","3.1.9","0","s","NA","NA","NA","s","s","470","NA","NA","NA","4963","470","2","legacy","1024","2","48000","-16","experiment","HHSHH","1","odd","6443","NA","NA","56540","NA","121172","NA","NA","1468","122806","122205","1430","NA","122216","122333","122332","Flanker Task","68","35624","69","yes","1024"
"98.5714285714","98.5714285714","517.2","517.2","black","no","legacy","legacy","legacy","0","incongurent","uniform","1","undefined","1","h","0","0","0","69","0","69","0","0","0","69","69","0","69","69","69","69","Sat Sep  8 20:10:14 2018","1500","The main experiment item","yes","Lab 1 PYSCH 5316.osexp","/Users/danieldalton/Desktop","no","mono","no","18","no","white","no","yes","768","legacy","69","69","/Users/danieldalton/Desktop/DD Subject 1.csv","legacy","Jazzy James","3.1.9","0","h","NA","NA","NA","s","h","580","NA","NA","NA","4963","580","2","legacy","1024","2","48000","-16","experiment","SSHSS","1","odd","6443","NA","NA","56540","NA","122819","NA","NA","1468","124560","123852","1430","NA","123863","123977","123977","Flanker Task","69","36204","70","yes","1024"
"98.5915492958","98.5915492958","516.492957746","516.492957746","black","no","legacy","legacy","legacy","0","incongruent","uniform","1","undefined","1","s","0","0","0","70","0","70","0","0","0","70","70","0","70","70","70","70","Sat Sep  8 20:10:14 2018","1500","The main experiment item","yes","Lab 1 PYSCH 5316.osexp","/Users/danieldalton/Desktop","no","mono","no","18","no","white","no","yes","768","legacy","70","70","/Users/danieldalton/Desktop/DD Subject 1.csv","legacy","Jazzy James","3.1.9","0","s","NA","NA","NA","s","s","467","NA","NA","NA","4963","467","2","legacy","1024","2","48000","-16","experiment","HHSHH","1","odd","6443","NA","NA","56540","NA","124574","NA","NA","1468","126205","125607","1430","NA","125618","125735","125734","Flanker Task","70","36671","71","yes","1024"
"98.6111111111","98.6111111111","516.472222222","516.472222222","black","no","legacy","legacy","legacy","0","conguent","uniform","1","undefined","1","s","0","0","0","71","0","71","0","0","0","71","71","0","71","71","71","71","Sat Sep  8 20:10:14 2018","1500","The main experiment item","yes","Lab 1 PYSCH 5316.osexp","/Users/danieldalton/Desktop","no","mono","no","18","no","white","no","yes","768","legacy","71","71","/Users/danieldalton/Desktop/DD Subject 1.csv","legacy","Jazzy James","3.1.9","0","s","NA","NA","NA","s","s","515","NA","NA","NA","4963","515","2","legacy","1024","2","48000","-16","experiment","SSSSS","1","odd","6443","NA","NA","56540","NA","126220","NA","NA","1468","127898","127253","1430","NA","127264","127380","127380","Flanker Task","71","37186","72","yes","1024"
"97.2602739726","97.2602739726","515.547945205","515.547945205","black","no","legacy","legacy","legacy","0","incongurent","uniform","0","undefined","0","h","0","0","0","72","0","72","0","0","0","72","72","0","72","72","72","72","Sat Sep  8 20:10:14 2018","1500","The main experiment item","yes","Lab 1 PYSCH 5316.osexp","/Users/danieldalton/Desktop","no","mono","no","18","no","white","no","yes","768","legacy","72","72","/Users/danieldalton/Desktop/DD Subject 1.csv","legacy","Jazzy James","3.1.9","0","s","NA","NA","NA","s","s","449","NA","NA","NA","4963","449","2","legacy","1024","2","48000","-16","experiment","SSHSS","1","odd","6443","NA","NA","56540","NA","127911","NA","NA","1468","129517","128944","1430","NA","128955","129065","129065","Flanker Task","71","37635","73","yes","1024"
"97.2972972973","97.2972972973","516.527027027","516.527027027","black","no","legacy","legacy","legacy","0","incongurent","uniform","1","undefined","1","h","0","0","0","73","0","73","0","0","0","73","73","0","73","73","73","73","Sat Sep  8 20:10:14 2018","1500","The main experiment item","yes","Lab 1 PYSCH 5316.osexp","/Users/danieldalton/Desktop","no","mono","no","18","no","white","no","yes","768","legacy","73","73","/Users/danieldalton/Desktop/DD Subject 1.csv","legacy","Jazzy James","3.1.9","0","h","NA","NA","NA","s","h","588","NA","NA","NA","4963","588","2","legacy","1024","2","48000","-16","experiment","SSHSS","1","odd","6443","NA","NA","129530","NA","130043","NA","NA","1468","131791","131076","1430","NA","131086","131201","131200","Flanker Task","72","38223","74","yes","1024"
"97.3333333333","97.3333333333","517.573333333","517.573333333","black","no","legacy","legacy","legacy","0","incongurent","uniform","1","undefined","1","h","0","0","0","74","0","74","0","0","0","74","74","0","74","74","74","74","Sat Sep  8 20:10:14 2018","1500","The main experiment item","yes","Lab 1 PYSCH 5316.osexp","/Users/danieldalton/Desktop","no","mono","no","18","no","white","no","yes","768","legacy","74","74","/Users/danieldalton/Desktop/DD Subject 1.csv","legacy","Jazzy James","3.1.9","0","h","NA","NA","NA","s","h","595","NA","NA","NA","4963","595","2","legacy","1024","2","48000","-16","experiment","SSHSS","1","odd","6443","NA","NA","129530","NA","131805","NA","NA","1468","133560","132838","1430","NA","132849","132963","132963","Flanker Task","73","38818","75","yes","1024"
"97.3684210526","97.3684210526","517.434210526","517.434210526","black","no","legacy","legacy","legacy","0","incongruent","uniform","1","undefined","1","s","0","0","0","75","0","75","0","0","0","75","75","0","75","75","75","75","Sat Sep  8 20:10:14 2018","1500","The main experiment item","yes","Lab 1 PYSCH 5316.osexp","/Users/danieldalton/Desktop","no","mono","no","18","no","white","no","yes","768","legacy","75","75","/Users/danieldalton/Desktop/DD Subject 1.csv","legacy","Jazzy James","3.1.9","0","s","NA","NA","NA","s","s","507","NA","NA","NA","4963","507","2","legacy","1024","2","48000","-16","experiment","HHSHH","1","odd","6443","NA","NA","129530","NA","133575","NA","NA","1468","135245","134610","1430","NA","134621","134735","134735","Flanker Task","74","39325","76","yes","1024"
"97.4025974026","97.4025974026","516.428571429","516.428571429","black","no","legacy","legacy","legacy","0","congruent","uniform","1","undefined","1","h","0","0","0","76","0","76","0","0","0","76","76","0","76","76","76","76","Sat Sep  8 20:10:14 2018","1500","The main experiment item","yes","Lab 1 PYSCH 5316.osexp","/Users/danieldalton/Desktop","no","mono","no","18","no","white","no","yes","768","legacy","76","76","/Users/danieldalton/Desktop/DD Subject 1.csv","legacy","Jazzy James","3.1.9","0","h","NA","NA","NA","s","h","440","NA","NA","NA","4963","440","2","legacy","1024","2","48000","-16","experiment","HHHHH","1","odd","6443","NA","NA","129530","NA","135258","NA","NA","1468","136859","136291","1430","NA","136302","136417","136417","Flanker Task","75","39765","77","yes","1024"
"97.4358974359","97.4358974359","516.179487179","516.179487179","black","no","legacy","legacy","legacy","0","conguent","uniform","1","undefined","1","s","0","0","0","77","0","77","0","0","0","77","77","0","77","77","77","77","Sat Sep  8 20:10:14 2018","1500","The main experiment item","yes","Lab 1 PYSCH 5316.osexp","/Users/danieldalton/Desktop","no","mono","no","18","no","white","no","yes","768","legacy","77","77","/Users/danieldalton/Desktop/DD Subject 1.csv","legacy","Jazzy James","3.1.9","0","s","NA","NA","NA","s","s","497","NA","NA","NA","4963","497","2","legacy","1024","2","48000","-16","experiment","SSSSS","1","odd","6443","NA","NA","129530","NA","136873","NA","NA","1468","138532","137908","1430","NA","137919","138033","138033","Flanker Task","76","40262","78","yes","1024"
"97.4683544304","97.4683544304","517.202531646","517.202531646","black","no","legacy","legacy","legacy","0","congruent","uniform","1","undefined","1","h","0","0","0","78","0","78","0","0","0","78","78","0","78","78","78","78","Sat Sep  8 20:10:14 2018","1500","The main experiment item","yes","Lab 1 PYSCH 5316.osexp","/Users/danieldalton/Desktop","no","mono","no","18","no","white","no","yes","768","legacy","78","78","/Users/danieldalton/Desktop/DD Subject 1.csv","legacy","Jazzy James","3.1.9","0","h","NA","NA","NA","s","h","597","NA","NA","NA","4963","597","2","legacy","1024","2","48000","-16","experiment","HHHHH","1","odd","6443","NA","NA","129530","NA","138546","NA","NA","1468","140307","139581","1430","NA","139592","139707","139707","Flanker Task","77","40859","79","yes","1024"
"97.5","97.5","519.9375","519.9375","black","no","legacy","legacy","legacy","0","incongurent","uniform","1","undefined","1","h","0","0","0","79","0","79","0","0","0","79","79","0","79","79","79","79","Sat Sep  8 20:10:14 2018","1500","The main experiment item","yes","Lab 1 PYSCH 5316.osexp","/Users/danieldalton/Desktop","no","mono","no","18","no","white","no","yes","768","legacy","79","79","/Users/danieldalton/Desktop/DD Subject 1.csv","legacy","Jazzy James","3.1.9","0","h","NA","NA","NA","s","h","736","NA","NA","NA","4963","736","2","legacy","1024","2","48000","-16","experiment","SSHSS","1","odd","6443","NA","NA","129530","NA","140321","NA","NA","1468","142218","141354","1430","NA","141365","141480","141479","Flanker Task","78","41595","80","yes","1024"
"97.5308641975","97.5308641975","521.111111111","521.111111111","black","no","legacy","legacy","legacy","0","conguent","uniform","1","undefined","1","s","0","0","0","80","0","80","0","0","0","80","80","0","80","80","80","80","Sat Sep  8 20:10:14 2018","600","The main experiment item","yes","Lab 1 PYSCH 5316.osexp","/Users/danieldalton/Desktop","no","mono","no","18","no","white","no","yes","768","legacy","0","79","/Users/danieldalton/Desktop/DD Subject 1.csv","legacy","Jazzy James","3.1.9","0","s","NA","s","NA","s","s","615","NA","2683","NA","4963","615","2","legacy","1024","2","48000","-16","experiment","SSSSS","1","odd","6443","145943","NA","129530","NA","142232","143258","NA","1468","146715","145971","1430","NA","145982","146098","146098","Flanker Task","79","42210","81","yes","1024"
"97.5609756098","97.5609756098","521.353658537","521.353658537","black","no","legacy","legacy","legacy","0","incongruent","uniform","1","undefined","1","s","0","0","0","81","0","81","0","0","0","81","81","0","81","81","81","81","Sat Sep  8 20:10:14 2018","600","The main experiment item","yes","Lab 1 PYSCH 5316.osexp","/Users/danieldalton/Desktop","no","mono","no","18","no","white","no","yes","768","legacy","1","79","/Users/danieldalton/Desktop/DD Subject 1.csv","legacy","Jazzy James","3.1.9","0","s","NA","s","NA","s","s","541","NA","2683","NA","4963","541","2","legacy","1024","2","48000","-16","experiment","HHSHH","1","odd","6443","145943","NA","129530","NA","147242","143258","NA","1468","148945","148277","1430","146729","148288","148402","148402","Flanker Task","80","42751","82","yes","1024"
"97.5903614458","97.5903614458","520.891566265","520.891566265","black","no","legacy","legacy","legacy","0","incongruent","uniform","1","undefined","1","s","0","0","0","82","0","82","0","0","0","82","82","0","82","82","82","82","Sat Sep  8 20:10:14 2018","600","The main experiment item","yes","Lab 1 PYSCH 5316.osexp","/Users/danieldalton/Desktop","no","mono","no","18","no","white","no","yes","768","legacy","2","79","/Users/danieldalton/Desktop/DD Subject 1.csv","legacy","Jazzy James","3.1.9","0","s","NA","s","NA","s","s","483","NA","2683","NA","4963","483","2","legacy","1024","2","48000","-16","experiment","HHSHH","1","odd","6443","145943","NA","129530","NA","148968","143258","NA","1468","150614","150000","1430","146729","150011","150128","150128","Flanker Task","81","43234","83","yes","1024"
"97.619047619","97.619047619","520.119047619","520.119047619","black","no","legacy","legacy","legacy","0","incongruent","uniform","1","undefined","1","s","0","0","0","83","0","83","0","0","0","83","83","0","83","83","83","83","Sat Sep  8 20:10:14 2018","600","The main experiment item","yes","Lab 1 PYSCH 5316.osexp","/Users/danieldalton/Desktop","no","mono","no","18","no","white","no","yes","768","legacy","3","79","/Users/danieldalton/Desktop/DD Subject 1.csv","legacy","Jazzy James","3.1.9","0","s","NA","s","NA","s","s","456","NA","2683","NA","4963","456","2","legacy","1024","2","48000","-16","experiment","HHSHH","1","odd","6443","145943","NA","129530","NA","150627","143258","NA","1468","152248","151660","1430","146729","151671","151789","151789","Flanker Task","82","43690","84","yes","1024"
"97.6470588235","97.6470588235","519","519","black","no","legacy","legacy","legacy","0","conguent","uniform","1","undefined","1","s","0","0","0","84","0","84","0","0","0","84","84","0","84","84","84","84","Sat Sep  8 20:10:14 2018","600","The main experiment item","yes","Lab 1 PYSCH 5316.osexp","/Users/danieldalton/Desktop","no","mono","no","18","no","white","no","yes","768","legacy","4","79","/Users/danieldalton/Desktop/DD Subject 1.csv","legacy","Jazzy James","3.1.9","0","s","NA","s","NA","s","s","425","NA","2683","NA","4963","425","2","legacy","1024","2","48000","-16","experiment","SSSSS","1","odd","6443","145943","NA","129530","NA","152262","143258","NA","1468","153852","153295","1430","146729","153305","153424","153423","Flanker Task","83","44115","85","yes","1024"
"97.6744186047","97.6744186047","519.058139535","519.058139535","black","no","legacy","legacy","legacy","0","incongurent","uniform","1","undefined","1","h","0","0","0","85","0","85","0","0","0","85","85","0","85","85","85","85","Sat Sep  8 20:10:14 2018","600","The main experiment item","yes","Lab 1 PYSCH 5316.osexp","/Users/danieldalton/Desktop","no","mono","no","18","no","white","no","yes","768","legacy","5","79","/Users/danieldalton/Desktop/DD Subject 1.csv","legacy","Jazzy James","3.1.9","0","h","NA","s","NA","s","h","524","NA","2683","NA","4963","524","2","legacy","1024","2","48000","-16","experiment","SSHSS","1","odd","6443","145943","NA","129530","NA","153865","143258","NA","1468","155552","154899","1430","146729","154910","155024","155024","Flanker Task","84","44639","86","yes","1024"
"97.7011494253","97.7011494253","518.586206897","518.586206897","black","no","legacy","legacy","legacy","0","incongruent","uniform","1","undefined","1","s","0","0","0","86","0","86","0","0","0","86","86","0","86","86","86","86","Sat Sep  8 20:10:14 2018","600","The main experiment item","yes","Lab 1 PYSCH 5316.osexp","/Users/danieldalton/Desktop","no","mono","no","18","no","white","no","yes","768","legacy","6","79","/Users/danieldalton/Desktop/DD Subject 1.csv","legacy","Jazzy James","3.1.9","0","s","NA","s","NA","s","s","478","NA","2683","NA","4963","478","2","legacy","1024","2","48000","-16","experiment","HHSHH","1","odd","6443","145943","NA","129530","NA","155566","143258","NA","1468","157209","156602","1430","146729","156613","156728","156728","Flanker Task","85","45117","87","yes","1024"
"97.7272727273","97.7272727273","517.579545455","517.579545455","black","no","legacy","legacy","legacy","0","congruent","uniform","1","undefined","1","h","0","0","0","87","0","87","0","0","0","87","87","0","87","87","87","87","Sat Sep  8 20:10:14 2018","600","The main experiment item","yes","Lab 1 PYSCH 5316.osexp","/Users/danieldalton/Desktop","no","mono","no","18","no","white","no","yes","768","legacy","7","79","/Users/danieldalton/Desktop/DD Subject 1.csv","legacy","Jazzy James","3.1.9","0","h","NA","s","NA","s","h","430","NA","2683","NA","4963","430","2","legacy","1024","2","48000","-16","experiment","HHHHH","1","odd","6443","145943","NA","129530","NA","157223","143258","NA","1468","158814","158256","1430","146729","158267","158381","158381","Flanker Task","86","45547","88","yes","1024"
"96.6292134831","96.6292134831","517.08988764","517.08988764","black","no","legacy","legacy","legacy","0","incongurent","uniform","0","undefined","0","h","0","0","0","88","0","88","0","0","0","88","88","0","88","88","88","88","Sat Sep  8 20:10:14 2018","600","The main experiment item","yes","Lab 1 PYSCH 5316.osexp","/Users/danieldalton/Desktop","no","mono","no","18","no","white","no","yes","768","legacy","8","79","/Users/danieldalton/Desktop/DD Subject 1.csv","legacy","Jazzy James","3.1.9","0","s","NA","s","NA","s","s","474","NA","2683","NA","4963","474","2","legacy","1024","2","48000","-16","experiment","SSHSS","1","odd","6443","145943","NA","129530","NA","158827","143258","NA","1468","160465","159863","1430","146729","159873","159988","159987","Flanker Task","86","46021","89","yes","1024"
"96.6666666667","96.6666666667","517.188888889","517.188888889","black","no","legacy","legacy","legacy","0","incongruent","uniform","1","undefined","1","s","0","0","0","89","0","89","0","0","0","89","89","0","89","89","89","89","Sat Sep  8 20:10:14 2018","600","The main experiment item","yes","Lab 1 PYSCH 5316.osexp","/Users/danieldalton/Desktop","no","mono","no","18","no","white","no","yes","768","legacy","9","79","/Users/danieldalton/Desktop/DD Subject 1.csv","legacy","Jazzy James","3.1.9","0","s","NA","s","NA","s","s","526","NA","2683","NA","4963","526","2","legacy","1024","2","48000","-16","experiment","HHSHH","1","odd","6443","145943","NA","160478","NA","160991","143258","NA","1468","162678","162024","1430","146729","162034","162149","162148","Flanker Task","87","46547","90","yes","1024"
"96.7032967033","96.7032967033","516.142857143","516.142857143","black","no","legacy","legacy","legacy","0","congruent","uniform","1","undefined","1","h","0","0","0","90","0","90","0","0","0","90","90","0","90","90","90","90","Sat Sep  8 20:10:14 2018","600","The main experiment item","yes","Lab 1 PYSCH 5316.osexp","/Users/danieldalton/Desktop","no","mono","no","18","no","white","no","yes","768","legacy","10","79","/Users/danieldalton/Desktop/DD Subject 1.csv","legacy","Jazzy James","3.1.9","0","h","NA","s","NA","s","h","422","NA","2683","NA","4963","422","2","legacy","1024","2","48000","-16","experiment","HHHHH","1","odd","6443","145943","NA","160478","NA","162692","143258","NA","1468","164277","163724","1430","146729","163735","163852","163852","Flanker Task","88","46969","91","yes","1024"
"96.7391304348","96.7391304348","517.565217391","517.565217391","black","no","legacy","legacy","legacy","0","incongurent","uniform","1","undefined","1","h","0","0","0","91","0","91","0","0","0","91","91","0","91","91","91","91","Sat Sep  8 20:10:14 2018","600","The main experiment item","yes","Lab 1 PYSCH 5316.osexp","/Users/danieldalton/Desktop","no","mono","no","18","no","white","no","yes","768","legacy","11","79","/Users/danieldalton/Desktop/DD Subject 1.csv","legacy","Jazzy James","3.1.9","0","h","NA","s","NA","s","h","647","NA","2683","NA","4963","647","2","legacy","1024","2","48000","-16","experiment","SSHSS","1","odd","6443","145943","NA","160478","NA","164291","143258","NA","1468","166103","165323","1430","146729","165334","165453","165453","Flanker Task","89","47616","92","yes","1024"
"96.7741935484","96.7741935484","516.903225806","516.903225806","black","no","legacy","legacy","legacy","0","congruent","uniform","1","undefined","1","h","0","0","0","92","0","92","0","0","0","92","92","0","92","92","92","92","Sat Sep  8 20:10:14 2018","600","The main experiment item","yes","Lab 1 PYSCH 5316.osexp","/Users/danieldalton/Desktop","no","mono","no","18","no","white","no","yes","768","legacy","12","79","/Users/danieldalton/Desktop/DD Subject 1.csv","legacy","Jazzy James","3.1.9","0","h","NA","s","NA","s","h","456","NA","2683","NA","4963","456","2","legacy","1024","2","48000","-16","experiment","HHHHH","1","odd","6443","145943","NA","160478","NA","166631","143258","NA","1468","168247","167663","1430","166117","167674","167788","167788","Flanker Task","90","48072","93","yes","1024"
"96.8085106383","96.8085106383","516.425531915","516.425531915","black","no","legacy","legacy","legacy","0","congruent","uniform","1","undefined","1","h","0","0","0","93","0","93","0","0","0","93","93","0","93","93","93","93","Sat Sep  8 20:10:14 2018","600","The main experiment item","yes","Lab 1 PYSCH 5316.osexp","/Users/danieldalton/Desktop","no","mono","no","18","no","white","no","yes","768","legacy","13","79","/Users/danieldalton/Desktop/DD Subject 1.csv","legacy","Jazzy James","3.1.9","0","h","NA","s","NA","s","h","472","NA","2683","NA","4963","472","2","legacy","1024","2","48000","-16","experiment","HHHHH","1","odd","6443","145943","NA","160478","NA","168261","143258","NA","1468","169898","169293","1430","166117","169305","169423","169423","Flanker Task","91","48544","94","yes","1024"
"96.8421052632","96.8421052632","516.094736842","516.094736842","black","no","legacy","legacy","legacy","0","conguent","uniform","1","undefined","1","s","0","0","0","94","0","94","0","0","0","94","94","0","94","94","94","94","Sat Sep  8 20:10:14 2018","600","The main experiment item","yes","Lab 1 PYSCH 5316.osexp","/Users/danieldalton/Desktop","no","mono","no","18","no","white","no","yes","768","legacy","14","79","/Users/danieldalton/Desktop/DD Subject 1.csv","legacy","Jazzy James","3.1.9","0","s","NA","s","NA","s","s","485","NA","2683","NA","4963","485","2","legacy","1024","2","48000","-16","experiment","SSSSS","1","odd","6443","145943","NA","160478","NA","169911","143258","NA","1468","171559","170943","1430","166117","170954","171072","171071","Flanker Task","92","49029","95","yes","1024"
"96.875","96.875","515.729166667","515.729166667","black","no","legacy","legacy","legacy","0","congruent","uniform","1","undefined","1","h","0","0","0","95","0","95","0","0","0","95","95","0","95","95","95","95","Sat Sep  8 20:10:14 2018","600","The main experiment item","yes","Lab 1 PYSCH 5316.osexp","/Users/danieldalton/Desktop","no","mono","no","18","no","white","no","yes","768","legacy","15","79","/Users/danieldalton/Desktop/DD Subject 1.csv","legacy","Jazzy James","3.1.9","0","h","NA","s","NA","s","h","481","NA","2683","NA","4963","481","2","legacy","1024","2","48000","-16","experiment","HHHHH","1","odd","6443","145943","NA","160478","NA","171574","143258","NA","1468","173227","172615","1430","166117","172626","172744","172744","Flanker Task","93","49510","96","yes","1024"
"96.9072164948","96.9072164948","515.577319588","515.577319588","black","no","legacy","legacy","legacy","0","conguent","uniform","1","undefined","1","s","0","0","0","96","0","96","0","0","0","96","96","0","96","96","96","96","Sat Sep  8 20:10:14 2018","600","The main experiment item","yes","Lab 1 PYSCH 5316.osexp","/Users/danieldalton/Desktop","no","mono","no","18","no","white","no","yes","768","legacy","16","79","/Users/danieldalton/Desktop/DD Subject 1.csv","legacy","Jazzy James","3.1.9","0","s","NA","s","NA","s","s","501","NA","2683","NA","4963","501","2","legacy","1024","2","48000","-16","experiment","SSSSS","1","odd","6443","145943","NA","160478","NA","173241","143258","NA","1468","174906","174274","1430","166117","174285","174402","174402","Flanker Task","94","50011","97","yes","1024"
"96.9387755102","96.9387755102","515.459183673","515.459183673","black","no","legacy","legacy","legacy","0","incongurent","uniform","1","undefined","1","h","0","0","0","97","0","97","0","0","0","97","97","0","97","97","97","97","Sat Sep  8 20:10:14 2018","600","The main experiment item","yes","Lab 1 PYSCH 5316.osexp","/Users/danieldalton/Desktop","no","mono","no","18","no","white","no","yes","768","legacy","17","79","/Users/danieldalton/Desktop/DD Subject 1.csv","legacy","Jazzy James","3.1.9","0","h","NA","s","NA","s","h","504","NA","2683","NA","4963","504","2","legacy","1024","2","48000","-16","experiment","SSHSS","1","odd","6443","145943","NA","160478","NA","174919","143258","NA","1468","176586","175955","1430","166117","175966","176080","176080","Flanker Task","95","50515","98","yes","1024"
"96.9696969697","96.9696969697","514.828282828","514.828282828","black","no","legacy","legacy","legacy","0","congruent","uniform","1","undefined","1","h","0","0","0","98","0","98","0","0","0","98","98","0","98","98","98","98","Sat Sep  8 20:10:14 2018","600","The main experiment item","yes","Lab 1 PYSCH 5316.osexp","/Users/danieldalton/Desktop","no","mono","no","18","no","white","no","yes","768","legacy","18","79","/Users/danieldalton/Desktop/DD Subject 1.csv","legacy","Jazzy James","3.1.9","0","h","NA","s","NA","s","h","453","NA","2683","NA","4963","453","2","legacy","1024","2","48000","-16","experiment","HHHHH","1","odd","6443","145943","NA","160478","NA","176600","143258","NA","1468","178212","177632","1430","166117","177643","177757","177757","Flanker Task","96","50968","99","yes","1024"
"97","97","514.26","514.26","black","no","legacy","legacy","legacy","0","conguent","uniform","1","undefined","1","s","0","0","0","99","0","99","0","0","0","99","99","0","99","99","99","99","Sat Sep  8 20:10:14 2018","600","The main experiment item","yes","Lab 1 PYSCH 5316.osexp","/Users/danieldalton/Desktop","no","mono","no","18","no","white","no","yes","768","legacy","19","79","/Users/danieldalton/Desktop/DD Subject 1.csv","legacy","Jazzy James","3.1.9","0","s","NA","s","NA","s","s","458","NA","2683","NA","4963","458","2","legacy","1024","2","48000","-16","experiment","SSSSS","1","odd","6443","145943","NA","160478","NA","178229","143258","NA","1468","179846","179260","1430","166117","179271","179386","179386","Flanker Task","97","51426","100","yes","1024"
"97.0297029703","97.0297029703","513.861386139","513.861386139","black","no","legacy","legacy","legacy","0","congruent","uniform","1","undefined","1","h","0","0","0","100","0","100","0","0","0","100","100","0","100","100","100","100","Sat Sep  8 20:10:14 2018","600","The main experiment item","yes","Lab 1 PYSCH 5316.osexp","/Users/danieldalton/Desktop","no","mono","no","18","no","white","no","yes","768","legacy","20","79","/Users/danieldalton/Desktop/DD Subject 1.csv","legacy","Jazzy James","3.1.9","0","h","NA","s","NA","s","h","474","NA","2683","NA","4963","474","2","legacy","1024","2","48000","-16","experiment","HHHHH","1","odd","6443","145943","NA","160478","NA","179860","143258","NA","1468","181499","180894","1430","166117","180905","181022","181022","Flanker Task","98","51900","101","yes","1024"
"97.0588235294","97.0588235294","512.745098039","512.745098039","black","no","legacy","legacy","legacy","0","incongurent","uniform","1","undefined","1","h","0","0","0","101","0","101","0","0","0","101","101","0","101","101","101","101","Sat Sep  8 20:10:14 2018","600","The main experiment item","yes","Lab 1 PYSCH 5316.osexp","/Users/danieldalton/Desktop","no","mono","no","18","no","white","no","yes","768","legacy","21","79","/Users/danieldalton/Desktop/DD Subject 1.csv","legacy","Jazzy James","3.1.9","0","h","NA","s","NA","s","h","400","NA","2683","NA","4963","400","2","legacy","1024","2","48000","-16","experiment","SSHSS","1","odd","6443","145943","NA","160478","NA","181513","143258","NA","1468","183077","182548","1430","166117","182559","182674","182674","Flanker Task","99","52300","102","yes","1024"
"97.0873786408","97.0873786408","512.640776699","512.640776699","black","no","legacy","legacy","legacy","0","conguent","uniform","1","undefined","1","s","0","0","0","102","0","102","0","0","0","102","102","0","102","102","102","102","Sat Sep  8 20:10:14 2018","600","The main experiment item","yes","Lab 1 PYSCH 5316.osexp","/Users/danieldalton/Desktop","no","mono","no","18","no","white","no","yes","768","legacy","22","79","/Users/danieldalton/Desktop/DD Subject 1.csv","legacy","Jazzy James","3.1.9","0","s","NA","s","NA","s","s","502","NA","2683","NA","4963","502","2","legacy","1024","2","48000","-16","experiment","SSSSS","1","odd","6443","145943","NA","160478","NA","183091","143258","NA","1468","184756","184124","1430","166117","184135","184251","184251","Flanker Task","100","52802","103","yes","1024"
"97.1153846154","97.1153846154","512.548076923","512.548076923","black","no","legacy","legacy","legacy","0","incongurent","uniform","1","undefined","1","h","0","0","0","103","0","103","0","0","0","103","103","0","103","103","103","103","Sat Sep  8 20:10:14 2018","600","The main experiment item","yes","Lab 1 PYSCH 5316.osexp","/Users/danieldalton/Desktop","no","mono","no","18","no","white","no","yes","768","legacy","23","79","/Users/danieldalton/Desktop/DD Subject 1.csv","legacy","Jazzy James","3.1.9","0","h","NA","s","NA","s","h","503","NA","2683","NA","4963","503","2","legacy","1024","2","48000","-16","experiment","SSHSS","1","odd","6443","145943","NA","160478","NA","184770","143258","NA","1468","186442","185808","1430","166117","185819","185936","185936","Flanker Task","101","53305","104","yes","1024"
"97.1428571429","97.1428571429","512.752380952","512.752380952","black","no","legacy","legacy","legacy","0","conguent","uniform","1","undefined","1","s","0","0","0","104","0","104","0","0","0","104","104","0","104","104","104","104","Sat Sep  8 20:10:14 2018","600","The main experiment item","yes","Lab 1 PYSCH 5316.osexp","/Users/danieldalton/Desktop","no","mono","no","18","no","white","no","yes","768","legacy","24","79","/Users/danieldalton/Desktop/DD Subject 1.csv","legacy","Jazzy James","3.1.9","0","s","NA","s","NA","s","s","534","NA","2683","NA","4963","534","2","legacy","1024","2","48000","-16","experiment","SSSSS","1","odd","6443","145943","NA","160478","NA","186456","143258","NA","1468","188155","187490","1430","166117","187501","187618","187618","Flanker Task","102","53839","105","yes","1024"
"97.1698113208","97.1698113208","512.150943396","512.150943396","black","no","legacy","legacy","legacy","0","congruent","uniform","1","undefined","1","h","0","0","0","105","0","105","0","0","0","105","105","0","105","105","105","105","Sat Sep  8 20:10:14 2018","600","The main experiment item","yes","Lab 1 PYSCH 5316.osexp","/Users/danieldalton/Desktop","no","mono","no","18","no","white","no","yes","768","legacy","25","79","/Users/danieldalton/Desktop/DD Subject 1.csv","legacy","Jazzy James","3.1.9","0","h","NA","s","NA","s","h","449","NA","2683","NA","4963","449","2","legacy","1024","2","48000","-16","experiment","HHHHH","1","odd","6443","145943","NA","160478","NA","188169","143258","NA","1468","189780","189202","1430","166117","189213","189328","189328","Flanker Task","103","54288","106","yes","1024"
"97.1962616822","97.1962616822","511.953271028","511.953271028","black","no","legacy","legacy","legacy","0","incongurent","uniform","1","undefined","1","h","0","0","0","106","0","106","0","0","0","106","106","0","106","106","106","106","Sat Sep  8 20:10:14 2018","600","The main experiment item","yes","Lab 1 PYSCH 5316.osexp","/Users/danieldalton/Desktop","no","mono","no","18","no","white","no","yes","768","legacy","26","79","/Users/danieldalton/Desktop/DD Subject 1.csv","legacy","Jazzy James","3.1.9","0","h","NA","s","NA","s","h","491","NA","2683","NA","4963","491","2","legacy","1024","2","48000","-16","experiment","SSHSS","1","odd","6443","145943","NA","160478","NA","189793","143258","NA","1468","191448","190829","1430","166117","190839","190954","190954","Flanker Task","104","54779","107","yes","1024"
"97.2222222222","97.2222222222","511.287037037","511.287037037","black","no","legacy","legacy","legacy","0","congruent","uniform","1","undefined","1","h","0","0","0","107","0","107","0","0","0","107","107","0","107","107","107","107","Sat Sep  8 20:10:14 2018","600","The main experiment item","yes","Lab 1 PYSCH 5316.osexp","/Users/danieldalton/Desktop","no","mono","no","18","no","white","no","yes","768","legacy","27","79","/Users/danieldalton/Desktop/DD Subject 1.csv","legacy","Jazzy James","3.1.9","0","h","NA","s","NA","s","h","440","NA","2683","NA","4963","440","2","legacy","1024","2","48000","-16","experiment","HHHHH","1","odd","6443","145943","NA","160478","NA","191461","143258","NA","1468","193066","192497","1430","166117","192508","192623","192623","Flanker Task","105","55219","108","yes","1024"
"97.247706422","97.247706422","511.055045872","511.055045872","black","no","legacy","legacy","legacy","0","conguent","uniform","1","undefined","1","s","0","0","0","108","0","108","0","0","0","108","108","0","108","108","108","108","Sat Sep  8 20:10:14 2018","600","The main experiment item","yes","Lab 1 PYSCH 5316.osexp","/Users/danieldalton/Desktop","no","mono","no","18","no","white","no","yes","768","legacy","28","79","/Users/danieldalton/Desktop/DD Subject 1.csv","legacy","Jazzy James","3.1.9","0","s","NA","s","NA","s","s","486","NA","2683","NA","4963","486","2","legacy","1024","2","48000","-16","experiment","SSSSS","1","odd","6443","145943","NA","160478","NA","193080","143258","NA","1468","194727","194113","1430","166117","194124","194238","194238","Flanker Task","106","55705","109","yes","1024"
"97.2727272727","97.2727272727","510.809090909","510.809090909","black","no","legacy","legacy","legacy","0","conguent","uniform","1","undefined","1","s","0","0","0","109","0","109","0","0","0","109","109","0","109","109","109","109","Sat Sep  8 20:10:14 2018","600","The main experiment item","yes","Lab 1 PYSCH 5316.osexp","/Users/danieldalton/Desktop","no","mono","no","18","no","white","no","yes","768","legacy","29","79","/Users/danieldalton/Desktop/DD Subject 1.csv","legacy","Jazzy James","3.1.9","0","s","NA","s","NA","s","s","484","NA","2683","NA","4963","484","2","legacy","1024","2","48000","-16","experiment","SSSSS","1","odd","6443","145943","NA","160478","NA","194741","143258","NA","1468","196386","195774","1430","166117","195784","195899","195899","Flanker Task","107","56189","110","yes","1024"
"97.2972972973","97.2972972973","510.621621622","510.621621622","black","no","legacy","legacy","legacy","0","incongruent","uniform","1","undefined","1","s","0","0","0","110","0","110","0","0","0","110","110","0","110","110","110","110","Sat Sep  8 20:10:14 2018","600","The main experiment item","yes","Lab 1 PYSCH 5316.osexp","/Users/danieldalton/Desktop","no","mono","no","18","no","white","no","yes","768","legacy","30","79","/Users/danieldalton/Desktop/DD Subject 1.csv","legacy","Jazzy James","3.1.9","0","s","NA","s","NA","s","s","490","NA","2683","NA","4963","490","2","legacy","1024","2","48000","-16","experiment","HHSHH","1","odd","6443","145943","NA","160478","NA","196400","143258","NA","1468","198050","197432","1430","166117","197443","197557","197557","Flanker Task","108","56679","111","yes","1024"
"97.3214285714","97.3214285714","509.848214286","509.848214286","black","no","legacy","legacy","legacy","0","conguent","uniform","1","undefined","1","s","0","0","0","111","0","111","0","0","0","111","111","0","111","111","111","111","Sat Sep  8 20:10:14 2018","600","The main experiment item","yes","Lab 1 PYSCH 5316.osexp","/Users/danieldalton/Desktop","no","mono","no","18","no","white","no","yes","768","legacy","31","79","/Users/danieldalton/Desktop/DD Subject 1.csv","legacy","Jazzy James","3.1.9","0","s","NA","s","NA","s","s","424","NA","2683","NA","4963","424","2","legacy","1024","2","48000","-16","experiment","SSSSS","1","odd","6443","145943","NA","160478","NA","198063","143258","NA","1468","199649","199097","1430","166117","199107","199222","199221","Flanker Task","109","57103","112","yes","1024"
"97.3451327434","97.3451327434","508.814159292","508.814159292","black","no","legacy","legacy","legacy","0","conguent","uniform","1","undefined","1","s","0","0","0","112","0","112","0","0","0","112","112","0","112","112","112","112","Sat Sep  8 20:10:14 2018","600","The main experiment item","yes","Lab 1 PYSCH 5316.osexp","/Users/danieldalton/Desktop","no","mono","no","18","no","white","no","yes","768","legacy","32","79","/Users/danieldalton/Desktop/DD Subject 1.csv","legacy","Jazzy James","3.1.9","0","s","NA","s","NA","s","s","393","NA","2683","NA","4963","393","2","legacy","1024","2","48000","-16","experiment","SSSSS","1","odd","6443","145943","NA","160478","NA","199662","143258","NA","1468","201222","200697","1430","166117","200708","200826","200825","Flanker Task","110","57496","113","yes","1024"
"97.3684210526","97.3684210526","508.166666667","508.166666667","black","no","legacy","legacy","legacy","0","congruent","uniform","1","undefined","1","h","0","0","0","113","0","113","0","0","0","113","113","0","113","113","113","113","Sat Sep  8 20:10:14 2018","600","The main experiment item","yes","Lab 1 PYSCH 5316.osexp","/Users/danieldalton/Desktop","no","mono","no","18","no","white","no","yes","768","legacy","33","79","/Users/danieldalton/Desktop/DD Subject 1.csv","legacy","Jazzy James","3.1.9","0","h","NA","s","NA","s","h","435","NA","2683","NA","4963","435","2","legacy","1024","2","48000","-16","experiment","HHHHH","1","odd","6443","145943","NA","160478","NA","201235","143258","NA","1468","202833","202268","1430","166117","202279","202396","202396","Flanker Task","111","57931","114","yes","1024"
"97.3913043478","97.3913043478","508.191304348","508.191304348","black","no","legacy","legacy","legacy","0","incongurent","uniform","1","undefined","1","h","0","0","0","114","0","114","0","0","0","114","114","0","114","114","114","114","Sat Sep  8 20:10:14 2018","600","The main experiment item","yes","Lab 1 PYSCH 5316.osexp","/Users/danieldalton/Desktop","no","mono","no","18","no","white","no","yes","768","legacy","34","79","/Users/danieldalton/Desktop/DD Subject 1.csv","legacy","Jazzy James","3.1.9","0","h","NA","s","NA","s","h","511","NA","2683","NA","4963","511","2","legacy","1024","2","48000","-16","experiment","SSHSS","1","odd","6443","145943","NA","160478","NA","202847","143258","NA","1468","204523","203880","1430","166117","203891","204009","204009","Flanker Task","112","58442","115","yes","1024"
"97.4137931034","97.4137931034","507.844827586","507.844827586","black","no","legacy","legacy","legacy","0","conguent","uniform","1","undefined","1","s","0","0","0","115","0","115","0","0","0","115","115","0","115","115","115","115","Sat Sep  8 20:10:14 2018","600","The main experiment item","yes","Lab 1 PYSCH 5316.osexp","/Users/danieldalton/Desktop","no","mono","no","18","no","white","no","yes","768","legacy","35","79","/Users/danieldalton/Desktop/DD Subject 1.csv","legacy","Jazzy James","3.1.9","0","s","NA","s","NA","s","s","468","NA","2683","NA","4963","468","2","legacy","1024","2","48000","-16","experiment","SSSSS","1","odd","6443","145943","NA","160478","NA","204536","143258","NA","1468","206167","205569","1430","166117","205581","205696","205696","Flanker Task","113","58910","116","yes","1024"
"97.4358974359","97.4358974359","507.914529915","507.914529915","black","no","legacy","legacy","legacy","0","conguent","uniform","1","undefined","1","s","0","0","0","116","0","116","0","0","0","116","116","0","116","116","116","116","Sat Sep  8 20:10:14 2018","600","The main experiment item","yes","Lab 1 PYSCH 5316.osexp","/Users/danieldalton/Desktop","no","mono","no","18","no","white","no","yes","768","legacy","36","79","/Users/danieldalton/Desktop/DD Subject 1.csv","legacy","Jazzy James","3.1.9","0","s","NA","s","NA","s","s","516","NA","2683","NA","4963","516","2","legacy","1024","2","48000","-16","experiment","SSSSS","1","odd","6443","145943","NA","160478","NA","206181","143258","NA","1468","207861","207214","1430","166117","207225","207342","207342","Flanker Task","114","59426","117","yes","1024"
"97.4576271186","97.4576271186","507.237288136","507.237288136","black","no","legacy","legacy","legacy","0","incongurent","uniform","1","undefined","1","h","0","0","0","117","0","117","0","0","0","117","117","0","117","117","117","117","Sat Sep  8 20:10:14 2018","600","The main experiment item","yes","Lab 1 PYSCH 5316.osexp","/Users/danieldalton/Desktop","no","mono","no","18","no","white","no","yes","768","legacy","37","79","/Users/danieldalton/Desktop/DD Subject 1.csv","legacy","Jazzy James","3.1.9","0","h","NA","s","NA","s","h","428","NA","2683","NA","4963","428","2","legacy","1024","2","48000","-16","experiment","SSHSS","1","odd","6443","145943","NA","160478","NA","207876","143258","NA","1468","209467","208908","1430","166117","208919","209037","209037","Flanker Task","115","59854","118","yes","1024"
"97.4789915966","97.4789915966","506.781512605","506.781512605","black","no","legacy","legacy","legacy","0","conguent","uniform","1","undefined","1","s","0","0","0","118","0","118","0","0","0","118","118","0","118","118","118","118","Sat Sep  8 20:10:14 2018","600","The main experiment item","yes","Lab 1 PYSCH 5316.osexp","/Users/danieldalton/Desktop","no","mono","no","18","no","white","no","yes","768","legacy","38","79","/Users/danieldalton/Desktop/DD Subject 1.csv","legacy","Jazzy James","3.1.9","0","s","NA","s","NA","s","s","453","NA","2683","NA","4963","453","2","legacy","1024","2","48000","-16","experiment","SSSSS","1","odd","6443","145943","NA","160478","NA","209481","143258","NA","1468","211097","210514","1430","166117","210524","210641","210641","Flanker Task","116","60307","119","yes","1024"
"97.5","97.5","507.491666667","507.491666667","black","no","legacy","legacy","legacy","0","incongruent","uniform","1","undefined","1","s","0","0","0","119","0","119","0","0","0","119","119","0","119","119","119","119","Sat Sep  8 20:10:14 2018","600","The main experiment item","yes","Lab 1 PYSCH 5316.osexp","/Users/danieldalton/Desktop","no","mono","no","18","no","white","no","yes","768","legacy","39","79","/Users/danieldalton/Desktop/DD Subject 1.csv","legacy","Jazzy James","3.1.9","0","s","NA","s","NA","s","s","592","NA","2683","NA","4963","592","2","legacy","1024","2","48000","-16","experiment","HHSHH","1","odd","6443","145943","NA","160478","NA","211111","143258","NA","1468","212872","212150","1430","166117","212161","212277","212277","Flanker Task","117","60899","120","yes","1024"
"97.520661157","97.520661157","507.876033058","507.876033058","black","no","legacy","legacy","legacy","0","incongruent","uniform","1","undefined","1","s","0","0","0","120","0","120","0","0","0","120","120","0","120","120","120","120","Sat Sep  8 20:10:14 2018","600","The main experiment item","yes","Lab 1 PYSCH 5316.osexp","/Users/danieldalton/Desktop","no","mono","no","18","no","white","no","yes","768","legacy","40","79","/Users/danieldalton/Desktop/DD Subject 1.csv","legacy","Jazzy James","3.1.9","0","s","NA","s","NA","s","s","554","NA","2683","NA","4963","554","2","legacy","1024","2","48000","-16","experiment","HHSHH","1","odd","6443","145943","NA","160478","NA","212886","143258","NA","1468","214602","213920","1430","166117","213931","214045","214045","Flanker Task","118","61453","121","yes","1024"
"97.5409836066","97.5409836066","508.524590164","508.524590164","black","no","legacy","legacy","legacy","0","congruent","uniform","1","undefined","1","h","0","0","0","121","0","121","0","0","0","121","121","0","121","121","121","121","Sat Sep  8 20:10:14 2018","600","The main experiment item","yes","Lab 1 PYSCH 5316.osexp","/Users/danieldalton/Desktop","no","mono","no","18","no","white","no","yes","768","legacy","41","79","/Users/danieldalton/Desktop/DD Subject 1.csv","legacy","Jazzy James","3.1.9","0","h","NA","s","NA","s","h","587","NA","2683","NA","4963","587","2","legacy","1024","2","48000","-16","experiment","HHHHH","1","odd","6443","145943","NA","160478","NA","214616","143258","NA","1468","216367","215651","1430","166117","215661","215777","215777","Flanker Task","119","62040","122","yes","1024"
"97.5609756098","97.5609756098","508.471544715","508.471544715","black","no","legacy","legacy","legacy","0","incongurent","uniform","1","undefined","1","h","0","0","0","122","0","122","0","0","0","122","122","0","122","122","122","122","Sat Sep  8 20:10:14 2018","600","The main experiment item","yes","Lab 1 PYSCH 5316.osexp","/Users/danieldalton/Desktop","no","mono","no","18","no","white","no","yes","768","legacy","42","79","/Users/danieldalton/Desktop/DD Subject 1.csv","legacy","Jazzy James","3.1.9","0","h","NA","s","NA","s","h","502","NA","2683","NA","4963","502","2","legacy","1024","2","48000","-16","experiment","SSHSS","1","odd","6443","145943","NA","160478","NA","216381","143258","NA","1468","218050","217416","1430","166117","217427","217545","217545","Flanker Task","120","62542","123","yes","1024"
"97.5806451613","97.5806451613","508.483870968","508.483870968","black","no","legacy","legacy","legacy","0","incongurent","uniform","1","undefined","1","h","0","0","0","123","0","123","0","0","0","123","123","0","123","123","123","123","Sat Sep  8 20:10:14 2018","600","The main experiment item","yes","Lab 1 PYSCH 5316.osexp","/Users/danieldalton/Desktop","no","mono","no","18","no","white","no","yes","768","legacy","43","79","/Users/danieldalton/Desktop/DD Subject 1.csv","legacy","Jazzy James","3.1.9","0","h","NA","s","NA","s","h","510","NA","2683","NA","4963","510","2","legacy","1024","2","48000","-16","experiment","SSHSS","1","odd","6443","145943","NA","160478","NA","218064","143258","NA","1468","219737","219098","1430","166117","219109","219224","219223","Flanker Task","121","63052","124","yes","1024"
"97.6","97.6","508.368","508.368","black","no","legacy","legacy","legacy","0","congruent","uniform","1","undefined","1","h","0","0","0","124","0","124","0","0","0","124","124","0","124","124","124","124","Sat Sep  8 20:10:14 2018","600","The main experiment item","yes","Lab 1 PYSCH 5316.osexp","/Users/danieldalton/Desktop","no","mono","no","18","no","white","no","yes","768","legacy","44","79","/Users/danieldalton/Desktop/DD Subject 1.csv","legacy","Jazzy James","3.1.9","0","h","NA","s","NA","s","h","494","NA","2683","NA","4963","494","2","legacy","1024","2","48000","-16","experiment","HHHHH","1","odd","6443","145943","NA","160478","NA","219751","143258","NA","1468","221414","220787","1430","166117","220798","220916","220916","Flanker Task","122","63546","125","yes","1024"
