condition,stimulus,acc,accuracy,average_response_time,avg_rt,background,canvas_backend,clock_backend,color_backend,compensation,coordinates,correct,correct_instructions1,correct_keyboard_response,correct_response,count_Block1,count_Block2,count_Block3,count_Faster,count_ISI,count_Sequence,count_errorFeedback,count_experiment,count_finish,count_fixation,count_instructions1,count_instructions2,count_instructions3,count_keyboard_response,count_logger,count_stimulus,datetime,deadline,description,disable_garbage_collection,experiment_file,experiment_path,font_bold,font_family,font_italic,font_size,font_underline,foreground,form_clicks,fullscreen,height,keyboard_backend,live_row,live_row_Block1,logfile,mouse_backend,opensesame_codename,opensesame_version,repeat_cycle,response,response_finish,response_instructions1,response_instructions2,response_instructions3,response_keyboard_response,response_time,response_time_finish,response_time_instructions1,response_time_instructions2,response_time_instructions3,response_time_keyboard_response,round_decimals,sampler_backend,sound_buf_size,sound_channels,sound_freq,sound_sample_size,start,subject_nr,subject_parity,time_Block1,time_Block2,time_Block3,time_Faster,time_ISI,time_Sequence,time_errorFeedback,time_experiment,time_finish,time_fixation,time_instructions1,time_instructions2,time_instructions3,time_keyboard_response,time_logger,time_stimulus,title,total_correct,total_response_time,total_responses,uniform_coordinates,width
Congruent,HHHHH,0,0,1500,1500,black,legacy,legacy,legacy,0,uniform,0,undefined,0,h,0,0,0,0,0,0,0,0,0,0,0,0,0,0,0,0,9/9/18 19:50,1500,The main experiment item,yes,FlankerTask.osexp,E:/,no,mono,no,18,no,white,no,yes,768,legacy,0,0,E:/kg-subject-1.csv,legacy,Kafkaesque Koffka,3.2.5,0,None,NA,l,NA,NA,None,1500,NA,309142,NA,NA,1500,2,legacy,1024,2,48000,-16,experiment,1,odd,312024,NA,NA,NA,NA,312266,NA,2872,NA,312271,2880,NA,NA,312384,313884,312383,Flanker Task,0,1500,1,yes,1024
Congruent,HHHHH,50,50,1131.5,1131.5,black,legacy,legacy,legacy,0,uniform,1,undefined,1,h,0,0,0,1,1,1,1,0,0,1,0,0,0,1,1,1,9/9/18 19:50,1500,The main experiment item,yes,FlankerTask.osexp,E:/,no,mono,no,18,no,white,no,yes,768,legacy,1,1,E:/kg-subject-1.csv,legacy,Kafkaesque Koffka,3.2.5,0,h,NA,l,NA,NA,h,763,NA,309142,NA,NA,763,2,legacy,1024,2,48000,-16,experiment,1,odd,312024,NA,NA,NA,314427,315655,313923,2872,NA,315659,2880,NA,NA,315770,316534,315770,Flanker Task,1,2263,2,yes,1024
Congruent,SSSSS,66.66666667,66.66666667,1026.333333,1026.333333,black,legacy,legacy,legacy,0,uniform,1,undefined,1,s,0,0,0,2,2,2,2,0,0,2,0,0,0,2,2,2,9/9/18 19:50,1500,The main experiment item,yes,FlankerTask.osexp,E:/,no,mono,no,18,no,white,no,yes,768,legacy,2,2,E:/kg-subject-1.csv,legacy,Kafkaesque Koffka,3.2.5,0,s,NA,l,NA,NA,s,816,NA,309142,NA,NA,816,2,legacy,1024,2,48000,-16,experiment,1,odd,312024,NA,NA,NA,316548,317740,313923,2872,NA,317746,2880,NA,NA,317861,318678,317860,Flanker Task,2,3079,3,yes,1024
Congruent,SSSSS,75,75,934,934,black,legacy,legacy,legacy,0,uniform,1,undefined,1,s,0,0,0,3,3,3,3,0,0,3,0,0,0,3,3,3,9/9/18 19:50,1500,The main experiment item,yes,FlankerTask.osexp,E:/,no,mono,no,18,no,white,no,yes,768,legacy,3,3,E:/kg-subject-1.csv,legacy,Kafkaesque Koffka,3.2.5,0,s,NA,l,NA,NA,s,657,NA,309142,NA,NA,657,2,legacy,1024,2,48000,-16,experiment,1,odd,312024,NA,NA,NA,318695,319909,313923,2872,NA,319915,2880,NA,NA,320029,320687,320029,Flanker Task,3,3736,4,yes,1024
Congruent,HHHHH,80,80,833.6,833.6,black,legacy,legacy,legacy,0,uniform,1,undefined,1,h,0,0,0,4,4,4,4,0,0,4,0,0,0,4,4,4,9/9/18 19:50,1500,The main experiment item,yes,FlankerTask.osexp,E:/,no,mono,no,18,no,white,no,yes,768,legacy,4,4,E:/kg-subject-1.csv,legacy,Kafkaesque Koffka,3.2.5,0,h,NA,l,NA,NA,h,432,NA,309142,NA,NA,432,2,legacy,1024,2,48000,-16,experiment,1,odd,312024,NA,NA,NA,320701,321894,313923,2872,NA,321900,2880,NA,NA,322012,322445,322012,Flanker Task,4,4168,5,yes,1024
Incongruent,HHSHH,83.33333333,83.33333333,876.3333333,876.3333333,black,legacy,legacy,legacy,0,uniform,1,undefined,1,s,0,0,0,5,5,5,5,0,0,5,0,0,0,5,5,5,9/9/18 19:50,1500,The main experiment item,yes,FlankerTask.osexp,E:/,no,mono,no,18,no,white,no,yes,768,legacy,5,5,E:/kg-subject-1.csv,legacy,Kafkaesque Koffka,3.2.5,0,s,NA,l,NA,NA,s,1090,NA,309142,NA,NA,1090,2,legacy,1024,2,48000,-16,experiment,1,odd,312024,NA,NA,NA,322459,323663,313923,2872,NA,323668,2880,NA,NA,323781,324872,323780,Flanker Task,5,5258,6,yes,1024
Incongruent,SSHSS,85.71428571,85.71428571,847.7142857,847.7142857,black,legacy,legacy,legacy,0,uniform,1,undefined,1,h,0,0,0,6,6,6,6,0,0,6,0,0,0,6,6,6,9/9/18 19:50,1500,The main experiment item,yes,FlankerTask.osexp,E:/,no,mono,no,18,no,white,no,yes,768,legacy,6,6,E:/kg-subject-1.csv,legacy,Kafkaesque Koffka,3.2.5,0,h,NA,l,NA,NA,h,676,NA,309142,NA,NA,676,2,legacy,1024,2,48000,-16,experiment,1,odd,312024,NA,NA,NA,324885,326086,313923,2872,NA,326091,2880,NA,NA,326202,326880,326201,Flanker Task,6,5934,7,yes,1024
Congruent,HHHHH,87.5,87.5,847.5,847.5,black,legacy,legacy,legacy,0,uniform,1,undefined,1,h,0,0,0,7,7,7,7,0,0,7,0,0,0,7,7,7,9/9/18 19:50,1500,The main experiment item,yes,FlankerTask.osexp,E:/,no,mono,no,18,no,white,no,yes,768,legacy,7,7,E:/kg-subject-1.csv,legacy,Kafkaesque Koffka,3.2.5,0,h,NA,l,NA,NA,h,846,NA,309142,NA,NA,846,2,legacy,1024,2,48000,-16,experiment,1,odd,312024,NA,NA,NA,326894,328086,313923,2872,NA,328092,2880,NA,NA,328206,329054,328205,Flanker Task,7,6780,8,yes,1024
Incongruent,HHSHH,88.88888889,88.88888889,861.1111111,861.1111111,black,legacy,legacy,legacy,0,uniform,1,undefined,1,s,0,0,0,8,8,8,8,0,0,8,0,0,0,8,8,8,9/9/18 19:50,1500,The main experiment item,yes,FlankerTask.osexp,E:/,no,mono,no,18,no,white,no,yes,768,legacy,8,8,E:/kg-subject-1.csv,legacy,Kafkaesque Koffka,3.2.5,0,s,NA,l,NA,NA,s,970,NA,309142,NA,NA,970,2,legacy,1024,2,48000,-16,experiment,1,odd,312024,NA,NA,NA,329068,330295,313923,2872,NA,330301,2880,NA,NA,330405,331377,330404,Flanker Task,8,7750,9,yes,1024
Incongruent,HHSHH,90,90,851.1,851.1,black,legacy,legacy,legacy,0,uniform,1,undefined,1,s,0,0,0,9,9,9,9,0,0,9,0,0,0,9,9,9,9/9/18 19:50,1500,The main experiment item,yes,FlankerTask.osexp,E:/,no,mono,no,18,no,white,no,yes,768,legacy,9,9,E:/kg-subject-1.csv,legacy,Kafkaesque Koffka,3.2.5,0,s,NA,l,NA,NA,s,761,NA,309142,NA,NA,761,2,legacy,1024,2,48000,-16,experiment,1,odd,312024,NA,NA,NA,331432,332654,313923,2872,NA,332659,2880,NA,NA,332773,333536,332772,Flanker Task,9,8511,10,yes,1024
Incongruent,HHSHH,90.90909091,90.90909091,834.8181818,834.8181818,black,legacy,legacy,legacy,0,uniform,1,undefined,1,s,0,0,0,10,10,10,10,0,0,10,0,0,0,10,10,10,9/9/18 19:50,1500,The main experiment item,yes,FlankerTask.osexp,E:/,no,mono,no,18,no,white,no,yes,768,legacy,10,10,E:/kg-subject-1.csv,legacy,Kafkaesque Koffka,3.2.5,0,s,NA,l,NA,NA,s,672,NA,309142,NA,NA,672,2,legacy,1024,2,48000,-16,experiment,1,odd,312024,NA,NA,NA,333552,334742,313923,2872,NA,334747,2880,NA,NA,334859,335533,334859,Flanker Task,10,9183,11,yes,1024
Congruent,HHHHH,91.66666667,91.66666667,816.8333333,816.8333333,black,legacy,legacy,legacy,0,uniform,1,undefined,1,h,0,0,0,11,11,11,11,0,0,11,0,0,0,11,11,11,9/9/18 19:50,1500,The main experiment item,yes,FlankerTask.osexp,E:/,no,mono,no,18,no,white,no,yes,768,legacy,11,11,E:/kg-subject-1.csv,legacy,Kafkaesque Koffka,3.2.5,0,h,NA,l,NA,NA,h,619,NA,309142,NA,NA,619,2,legacy,1024,2,48000,-16,experiment,1,odd,312024,NA,NA,NA,335547,336760,313923,2872,NA,336765,2880,NA,NA,336870,337491,336870,Flanker Task,11,9802,12,yes,1024
Incongruent,HHSHH,92.30769231,92.30769231,809.2307692,809.2307692,black,legacy,legacy,legacy,0,uniform,1,undefined,1,s,0,0,0,12,12,12,12,0,0,12,0,0,0,12,12,12,9/9/18 19:50,1500,The main experiment item,yes,FlankerTask.osexp,E:/,no,mono,no,18,no,white,no,yes,768,legacy,12,12,E:/kg-subject-1.csv,legacy,Kafkaesque Koffka,3.2.5,0,s,NA,l,NA,NA,s,718,NA,309142,NA,NA,718,2,legacy,1024,2,48000,-16,experiment,1,odd,312024,NA,NA,NA,337505,338718,313923,2872,NA,338724,2880,NA,NA,338831,339550,338831,Flanker Task,12,10520,13,yes,1024
Incongruent,HHSHH,85.71428571,85.71428571,789.5714286,789.5714286,black,legacy,legacy,legacy,0,uniform,0,undefined,0,s,0,0,0,13,13,13,13,0,0,13,0,0,0,13,13,13,9/9/18 19:50,1500,The main experiment item,yes,FlankerTask.osexp,E:/,no,mono,no,18,no,white,no,yes,768,legacy,13,13,E:/kg-subject-1.csv,legacy,Kafkaesque Koffka,3.2.5,0,h,NA,l,NA,NA,h,534,NA,309142,NA,NA,534,2,legacy,1024,2,48000,-16,experiment,1,odd,312024,NA,NA,NA,339614,340807,313923,2872,NA,340812,2880,NA,NA,340924,341459,340924,Flanker Task,12,11054,14,yes,1024
Incongruent,SSHSS,86.66666667,86.66666667,805.2,805.2,black,legacy,legacy,legacy,0,uniform,1,undefined,1,h,0,0,0,14,14,14,14,0,0,14,0,0,0,14,14,14,9/9/18 19:50,1500,The main experiment item,yes,FlankerTask.osexp,E:/,no,mono,no,18,no,white,no,yes,768,legacy,14,14,E:/kg-subject-1.csv,legacy,Kafkaesque Koffka,3.2.5,0,h,NA,l,NA,NA,h,1024,NA,309142,NA,NA,1024,2,legacy,1024,2,48000,-16,experiment,1,odd,312024,NA,NA,NA,341984,343177,341473,2872,NA,343183,2880,NA,NA,343297,344323,343296,Flanker Task,13,12078,15,yes,1024
Congruent,SSSSS,87.5,87.5,815.0625,815.0625,black,legacy,legacy,legacy,0,uniform,1,undefined,1,s,0,0,0,15,15,15,15,0,0,15,0,0,0,15,15,15,9/9/18 19:50,1500,The main experiment item,yes,FlankerTask.osexp,E:/,no,mono,no,18,no,white,no,yes,768,legacy,15,15,E:/kg-subject-1.csv,legacy,Kafkaesque Koffka,3.2.5,0,s,NA,l,NA,NA,s,963,NA,309142,NA,NA,963,2,legacy,1024,2,48000,-16,experiment,1,odd,312024,NA,NA,NA,344336,345562,341473,2872,NA,345567,2880,NA,NA,345682,346647,345680,Flanker Task,14,13041,16,yes,1024
Congruent,HHHHH,88.23529412,88.23529412,806.7058824,806.7058824,black,legacy,legacy,legacy,0,uniform,1,undefined,1,h,0,0,0,16,16,16,16,0,0,16,0,0,0,16,16,16,9/9/18 19:50,1500,The main experiment item,yes,FlankerTask.osexp,E:/,no,mono,no,18,no,white,no,yes,768,legacy,16,16,E:/kg-subject-1.csv,legacy,Kafkaesque Koffka,3.2.5,0,h,NA,l,NA,NA,h,673,NA,309142,NA,NA,673,2,legacy,1024,2,48000,-16,experiment,1,odd,312024,NA,NA,NA,346661,347879,341473,2872,NA,347884,2880,NA,NA,347994,348668,347993,Flanker Task,15,13714,17,yes,1024
Incongruent,SSHSS,88.88888889,88.88888889,798.8888889,798.8888889,black,legacy,legacy,legacy,0,uniform,1,undefined,1,h,0,0,0,17,17,17,17,0,0,17,0,0,0,17,17,17,9/9/18 19:50,1500,The main experiment item,yes,FlankerTask.osexp,E:/,no,mono,no,18,no,white,no,yes,768,legacy,17,17,E:/kg-subject-1.csv,legacy,Kafkaesque Koffka,3.2.5,0,h,NA,l,NA,NA,h,666,NA,309142,NA,NA,666,2,legacy,1024,2,48000,-16,experiment,1,odd,312024,NA,NA,NA,348684,349878,341473,2872,NA,349885,2880,NA,NA,349997,350665,349997,Flanker Task,16,14380,18,yes,1024
Incongruent,HHSHH,89.47368421,89.47368421,813.8947368,813.8947368,black,legacy,legacy,legacy,0,uniform,1,undefined,1,s,0,0,0,18,18,18,18,0,0,18,0,0,0,18,18,18,9/9/18 19:50,1500,The main experiment item,yes,FlankerTask.osexp,E:/,no,mono,no,18,no,white,no,yes,768,legacy,18,18,E:/kg-subject-1.csv,legacy,Kafkaesque Koffka,3.2.5,0,s,NA,l,NA,NA,s,1084,NA,309142,NA,NA,1084,2,legacy,1024,2,48000,-16,experiment,1,odd,312024,NA,NA,NA,350680,351871,341473,2872,NA,351876,2880,NA,NA,351990,353075,351989,Flanker Task,17,15464,19,yes,1024
Congruent,SSSSS,90,90,801.2,801.2,black,legacy,legacy,legacy,0,uniform,1,undefined,1,s,0,0,0,19,19,19,19,0,0,19,0,0,0,19,19,19,9/9/18 19:50,1500,The main experiment item,yes,FlankerTask.osexp,E:/,no,mono,no,18,no,white,no,yes,768,legacy,19,19,E:/kg-subject-1.csv,legacy,Kafkaesque Koffka,3.2.5,0,s,NA,l,NA,NA,s,560,NA,309142,NA,NA,560,2,legacy,1024,2,48000,-16,experiment,1,odd,312024,NA,NA,NA,353089,354277,341473,2872,NA,354283,2880,NA,NA,354395,354957,354394,Flanker Task,18,16024,20,yes,1024
Congruent,HHHHH,90.47619048,90.47619048,797.8095238,797.8095238,black,legacy,legacy,legacy,0,uniform,1,undefined,1,h,0,0,0,20,20,20,20,0,0,20,0,0,0,20,20,20,9/9/18 19:50,1500,The main experiment item,yes,FlankerTask.osexp,E:/,no,mono,no,18,no,white,no,yes,768,legacy,20,20,E:/kg-subject-1.csv,legacy,Kafkaesque Koffka,3.2.5,0,h,NA,l,NA,NA,h,730,NA,309142,NA,NA,730,2,legacy,1024,2,48000,-16,experiment,1,odd,312024,NA,NA,NA,355535,356724,341473,2872,NA,356729,2880,NA,NA,356840,357572,356839,Flanker Task,19,16754,21,yes,1024
Congruent,SSSSS,90.90909091,90.90909091,791.4545455,791.4545455,black,legacy,legacy,legacy,0,uniform,1,undefined,1,s,0,0,0,21,21,21,21,0,0,21,0,0,0,21,21,21,9/9/18 19:50,1500,The main experiment item,yes,FlankerTask.osexp,E:/,no,mono,no,18,no,white,no,yes,768,legacy,21,21,E:/kg-subject-1.csv,legacy,Kafkaesque Koffka,3.2.5,0,s,NA,l,NA,NA,s,658,NA,309142,NA,NA,658,2,legacy,1024,2,48000,-16,experiment,1,odd,312024,NA,NA,NA,357599,358812,341473,2872,NA,358817,2880,NA,NA,358921,359581,358921,Flanker Task,20,17412,22,yes,1024
Congruent,SSSSS,91.30434783,91.30434783,777.6956522,777.6956522,black,legacy,legacy,legacy,0,uniform,1,undefined,1,s,0,0,0,22,22,22,22,0,0,22,0,0,0,22,22,22,9/9/18 19:50,1500,The main experiment item,yes,FlankerTask.osexp,E:/,no,mono,no,18,no,white,no,yes,768,legacy,22,22,E:/kg-subject-1.csv,legacy,Kafkaesque Koffka,3.2.5,0,s,NA,l,NA,NA,s,475,NA,309142,NA,NA,475,2,legacy,1024,2,48000,-16,experiment,1,odd,312024,NA,NA,NA,359597,360818,341473,2872,NA,360823,2880,NA,NA,360936,361413,360935,Flanker Task,21,17887,23,yes,1024
Congruent,HHHHH,91.66666667,91.66666667,769.0833333,769.0833333,black,legacy,legacy,legacy,0,uniform,1,undefined,1,h,0,0,0,23,23,23,23,0,0,23,0,0,0,23,23,23,9/9/18 19:50,1500,The main experiment item,yes,FlankerTask.osexp,E:/,no,mono,no,18,no,white,no,yes,768,legacy,23,23,E:/kg-subject-1.csv,legacy,Kafkaesque Koffka,3.2.5,0,h,NA,l,NA,NA,h,571,NA,309142,NA,NA,571,2,legacy,1024,2,48000,-16,experiment,1,odd,312024,NA,NA,NA,361428,362643,341473,2872,NA,362649,2880,NA,NA,362761,363334,362761,Flanker Task,22,18458,24,yes,1024
Congruent,HHHHH,92,92,763,763,black,legacy,legacy,legacy,0,uniform,1,undefined,1,h,0,0,0,24,24,24,24,0,0,24,0,0,0,24,24,24,9/9/18 19:50,1500,The main experiment item,yes,FlankerTask.osexp,E:/,no,mono,no,18,no,white,no,yes,768,legacy,24,24,E:/kg-subject-1.csv,legacy,Kafkaesque Koffka,3.2.5,0,h,NA,l,NA,NA,h,617,NA,309142,NA,NA,617,2,legacy,1024,2,48000,-16,experiment,1,odd,312024,NA,NA,NA,363348,364545,341473,2872,NA,364550,2880,NA,NA,364662,365281,364662,Flanker Task,23,19075,25,yes,1024
Congruent,SSSSS,92.30769231,92.30769231,756.7307692,756.7307692,black,legacy,legacy,legacy,0,uniform,1,undefined,1,s,0,0,0,25,25,25,25,0,0,25,0,0,0,25,25,25,9/9/18 19:50,1500,The main experiment item,yes,FlankerTask.osexp,E:/,no,mono,no,18,no,white,no,yes,768,legacy,25,25,E:/kg-subject-1.csv,legacy,Kafkaesque Koffka,3.2.5,0,s,NA,l,NA,NA,s,600,NA,309142,NA,NA,600,2,legacy,1024,2,48000,-16,experiment,1,odd,312024,NA,NA,NA,365294,366481,341473,2872,NA,366486,2880,NA,NA,366599,367201,366599,Flanker Task,24,19675,26,yes,1024
Incongruent,SSHSS,92.59259259,92.59259259,752.1851852,752.1851852,black,legacy,legacy,legacy,0,uniform,1,undefined,1,h,0,0,0,26,26,26,26,0,0,26,0,0,0,26,26,26,9/9/18 19:50,1500,The main experiment item,yes,FlankerTask.osexp,E:/,no,mono,no,18,no,white,no,yes,768,legacy,26,26,E:/kg-subject-1.csv,legacy,Kafkaesque Koffka,3.2.5,0,h,NA,l,NA,NA,h,634,NA,309142,NA,NA,634,2,legacy,1024,2,48000,-16,experiment,1,odd,312024,NA,NA,NA,367214,368420,341473,2872,NA,368425,2880,NA,NA,368537,369173,368537,Flanker Task,25,20309,27,yes,1024
Incongruent,HHSHH,92.85714286,92.85714286,746.8571429,746.8571429,black,legacy,legacy,legacy,0,uniform,1,undefined,1,s,0,0,0,27,27,27,27,0,0,27,0,0,0,27,27,27,9/9/18 19:50,1500,The main experiment item,yes,FlankerTask.osexp,E:/,no,mono,no,18,no,white,no,yes,768,legacy,27,27,E:/kg-subject-1.csv,legacy,Kafkaesque Koffka,3.2.5,0,s,NA,l,NA,NA,s,603,NA,309142,NA,NA,603,2,legacy,1024,2,48000,-16,experiment,1,odd,312024,NA,NA,NA,369187,370403,341473,2872,NA,370409,2880,NA,NA,370513,371118,370513,Flanker Task,26,20912,28,yes,1024
Congruent,SSSSS,93.10344828,93.10344828,753.0344828,753.0344828,black,legacy,legacy,legacy,0,uniform,1,undefined,1,s,0,0,0,28,28,28,28,0,0,28,0,0,0,28,28,28,9/9/18 19:50,1500,The main experiment item,yes,FlankerTask.osexp,E:/,no,mono,no,18,no,white,no,yes,768,legacy,28,28,E:/kg-subject-1.csv,legacy,Kafkaesque Koffka,3.2.5,0,s,NA,l,NA,NA,s,926,NA,309142,NA,NA,926,2,legacy,1024,2,48000,-16,experiment,1,odd,312024,NA,NA,NA,371132,372346,341473,2872,NA,372351,2880,NA,NA,372464,373392,372464,Flanker Task,27,21838,29,yes,1024
Congruent,HHHHH,93.33333333,93.33333333,747.2666667,747.2666667,black,legacy,legacy,legacy,0,uniform,1,undefined,1,h,0,0,0,29,29,29,29,0,0,29,0,0,0,29,29,29,9/9/18 19:50,1500,The main experiment item,yes,FlankerTask.osexp,E:/,no,mono,no,18,no,white,no,yes,768,legacy,29,29,E:/kg-subject-1.csv,legacy,Kafkaesque Koffka,3.2.5,0,h,NA,l,NA,NA,h,580,NA,309142,NA,NA,580,2,legacy,1024,2,48000,-16,experiment,1,odd,312024,NA,NA,NA,373407,374633,341473,2872,NA,374639,2880,NA,NA,374743,375325,374743,Flanker Task,28,22418,30,yes,1024
Congruent,SSSSS,93.5483871,93.5483871,747.1290323,747.1290323,black,legacy,legacy,legacy,0,uniform,1,undefined,1,s,0,0,0,30,30,30,30,0,0,30,0,0,0,30,30,30,9/9/18 19:50,1500,The main experiment item,yes,FlankerTask.osexp,E:/,no,mono,no,18,no,white,no,yes,768,legacy,30,30,E:/kg-subject-1.csv,legacy,Kafkaesque Koffka,3.2.5,0,s,NA,l,NA,NA,s,743,NA,309142,NA,NA,743,2,legacy,1024,2,48000,-16,experiment,1,odd,312024,NA,NA,NA,375339,376547,341473,2872,NA,376553,2880,NA,NA,376663,377408,376663,Flanker Task,29,23161,31,yes,1024
Congruent,HHHHH,93.75,93.75,739.71875,739.71875,black,legacy,legacy,legacy,0,uniform,1,undefined,1,h,0,0,0,31,31,31,31,0,0,31,0,0,0,31,31,31,9/9/18 19:50,1500,The main experiment item,yes,FlankerTask.osexp,E:/,no,mono,no,18,no,white,no,yes,768,legacy,31,31,E:/kg-subject-1.csv,legacy,Kafkaesque Koffka,3.2.5,0,h,NA,l,NA,NA,h,510,NA,309142,NA,NA,510,2,legacy,1024,2,48000,-16,experiment,1,odd,312024,NA,NA,NA,377423,378614,341473,2872,NA,378619,2880,NA,NA,378731,379243,378731,Flanker Task,30,23671,32,yes,1024
Incongruent,SSHSS,93.93939394,93.93939394,737.3030303,737.3030303,black,legacy,legacy,legacy,0,uniform,1,undefined,1,h,0,0,0,32,32,32,32,0,0,32,0,0,0,32,32,32,9/9/18 19:50,1500,The main experiment item,yes,FlankerTask.osexp,E:/,no,mono,no,18,no,white,no,yes,768,legacy,32,32,E:/kg-subject-1.csv,legacy,Kafkaesque Koffka,3.2.5,0,h,NA,l,NA,NA,h,660,NA,309142,NA,NA,660,2,legacy,1024,2,48000,-16,experiment,1,odd,312024,NA,NA,NA,379257,380446,341473,2872,NA,380451,2880,NA,NA,380564,381226,380563,Flanker Task,31,24331,33,yes,1024
Incongruent,SSHSS,94.11764706,94.11764706,738.0882353,738.0882353,black,legacy,legacy,legacy,0,uniform,1,undefined,1,h,0,0,0,33,33,33,33,0,0,33,0,0,0,33,33,33,9/9/18 19:50,1500,The main experiment item,yes,FlankerTask.osexp,E:/,no,mono,no,18,no,white,no,yes,768,legacy,33,33,E:/kg-subject-1.csv,legacy,Kafkaesque Koffka,3.2.5,0,h,NA,l,NA,NA,h,764,NA,309142,NA,NA,764,2,legacy,1024,2,48000,-16,experiment,1,odd,312024,NA,NA,NA,381240,382471,341473,2872,NA,382478,2880,NA,NA,382582,383348,382582,Flanker Task,32,25095,34,yes,1024
Incongruent,HHSHH,94.28571429,94.28571429,734.4,734.4,black,legacy,legacy,legacy,0,uniform,1,undefined,1,s,0,0,0,34,34,34,34,0,0,34,0,0,0,34,34,34,9/9/18 19:50,1500,The main experiment item,yes,FlankerTask.osexp,E:/,no,mono,no,18,no,white,no,yes,768,legacy,34,34,E:/kg-subject-1.csv,legacy,Kafkaesque Koffka,3.2.5,0,s,NA,l,NA,NA,s,609,NA,309142,NA,NA,609,2,legacy,1024,2,48000,-16,experiment,1,odd,312024,NA,NA,NA,383362,384555,341473,2872,NA,384560,2880,NA,NA,384674,385285,384673,Flanker Task,33,25704,35,yes,1024
Incongruent,SSHSS,94.44444444,94.44444444,735,735,black,legacy,legacy,legacy,0,uniform,1,undefined,1,h,0,0,0,35,35,35,35,0,0,35,0,0,0,35,35,35,9/9/18 19:50,1500,The main experiment item,yes,FlankerTask.osexp,E:/,no,mono,no,18,no,white,no,yes,768,legacy,35,35,E:/kg-subject-1.csv,legacy,Kafkaesque Koffka,3.2.5,0,h,NA,l,NA,NA,h,756,NA,309142,NA,NA,756,2,legacy,1024,2,48000,-16,experiment,1,odd,312024,NA,NA,NA,385359,386568,341473,2872,NA,386574,2880,NA,NA,386686,387444,386686,Flanker Task,34,26460,36,yes,1024
Incongruent,SSHSS,94.59459459,94.59459459,735.9189189,735.9189189,black,legacy,legacy,legacy,0,uniform,1,undefined,1,h,0,0,0,36,36,36,36,0,0,36,0,0,0,36,36,36,9/9/18 19:50,1500,The main experiment item,yes,FlankerTask.osexp,E:/,no,mono,no,18,no,white,no,yes,768,legacy,36,36,E:/kg-subject-1.csv,legacy,Kafkaesque Koffka,3.2.5,0,h,NA,l,NA,NA,h,769,NA,309142,NA,NA,769,2,legacy,1024,2,48000,-16,experiment,1,odd,312024,NA,NA,NA,387458,388677,341473,2872,NA,388683,2880,NA,NA,388795,389566,388795,Flanker Task,35,27229,37,yes,1024
Incongruent,HHSHH,94.73684211,94.73684211,733.7105263,733.7105263,black,legacy,legacy,legacy,0,uniform,1,undefined,1,s,0,0,0,37,37,37,37,0,0,37,0,0,0,37,37,37,9/9/18 19:50,1500,The main experiment item,yes,FlankerTask.osexp,E:/,no,mono,no,18,no,white,no,yes,768,legacy,37,37,E:/kg-subject-1.csv,legacy,Kafkaesque Koffka,3.2.5,0,s,NA,l,NA,NA,s,652,NA,309142,NA,NA,652,2,legacy,1024,2,48000,-16,experiment,1,odd,312024,NA,NA,NA,389580,390801,341473,2872,NA,390806,2880,NA,NA,390919,391573,390919,Flanker Task,36,27881,38,yes,1024
Congruent,SSSSS,94.87179487,94.87179487,736.3589744,736.3589744,black,legacy,legacy,legacy,0,uniform,1,undefined,1,s,0,0,0,38,38,38,38,0,0,38,0,0,0,38,38,38,9/9/18 19:50,1500,The main experiment item,yes,FlankerTask.osexp,E:/,no,mono,no,18,no,white,no,yes,768,legacy,38,38,E:/kg-subject-1.csv,legacy,Kafkaesque Koffka,3.2.5,0,s,NA,l,NA,NA,s,837,NA,309142,NA,NA,837,2,legacy,1024,2,48000,-16,experiment,1,odd,312024,NA,NA,NA,391589,392825,341473,2872,NA,392831,2880,NA,NA,392943,393783,392943,Flanker Task,37,28718,39,yes,1024
Incongruent,SSHSS,95,95,734.8,734.8,black,legacy,legacy,legacy,0,uniform,1,undefined,1,h,0,0,0,39,39,39,39,0,0,39,0,0,0,39,39,39,9/9/18 19:50,1500,The main experiment item,yes,FlankerTask.osexp,E:/,no,mono,no,18,no,white,no,yes,768,legacy,39,39,E:/kg-subject-1.csv,legacy,Kafkaesque Koffka,3.2.5,0,h,NA,l,NA,NA,h,674,NA,309142,NA,NA,674,2,legacy,1024,2,48000,-16,experiment,1,odd,312024,NA,NA,NA,393797,395010,341473,2872,NA,395015,2880,NA,NA,395127,395804,395127,Flanker Task,38,29392,40,yes,1024
Incongruent,SSHSS,95.12195122,95.12195122,733.097561,733.097561,black,legacy,legacy,legacy,0,uniform,1,undefined,1,h,0,0,0,40,40,40,40,0,0,40,0,0,0,40,40,40,9/9/18 19:50,1500,The main experiment item,yes,FlankerTask.osexp,E:/,no,mono,no,18,no,white,no,yes,768,legacy,40,40,E:/kg-subject-1.csv,legacy,Kafkaesque Koffka,3.2.5,0,h,NA,l,NA,NA,h,665,NA,309142,NA,NA,665,2,legacy,1024,2,48000,-16,experiment,1,odd,312024,NA,NA,NA,395818,397034,341473,2872,NA,397040,2880,NA,NA,397144,397811,397144,Flanker Task,39,30057,41,yes,1024
Congruent,SSSSS,95.23809524,95.23809524,730.6666667,730.6666667,black,legacy,legacy,legacy,0,uniform,1,undefined,1,s,0,0,0,41,41,41,41,0,0,41,0,0,0,41,41,41,9/9/18 19:50,1500,The main experiment item,yes,FlankerTask.osexp,E:/,no,mono,no,18,no,white,no,yes,768,legacy,41,41,E:/kg-subject-1.csv,legacy,Kafkaesque Koffka,3.2.5,0,s,NA,l,NA,NA,s,631,NA,309142,NA,NA,631,2,legacy,1024,2,48000,-16,experiment,1,odd,312024,NA,NA,NA,397825,399018,341473,2872,NA,399024,2880,NA,NA,399136,399769,399136,Flanker Task,40,30688,42,yes,1024
Incongruent,SSHSS,95.34883721,95.34883721,731.1627907,731.1627907,black,legacy,legacy,legacy,0,uniform,1,undefined,1,h,0,0,0,42,42,42,42,0,0,42,0,0,0,42,42,42,9/9/18 19:50,1500,The main experiment item,yes,FlankerTask.osexp,E:/,no,mono,no,18,no,white,no,yes,768,legacy,42,42,E:/kg-subject-1.csv,legacy,Kafkaesque Koffka,3.2.5,0,h,NA,l,NA,NA,h,752,NA,309142,NA,NA,752,2,legacy,1024,2,48000,-16,experiment,1,odd,312024,NA,NA,NA,399783,400971,341473,2872,NA,400977,2880,NA,NA,401086,401840,401086,Flanker Task,41,31440,43,yes,1024
Congruent,HHHHH,93.18181818,93.18181818,748.6363636,748.6363636,black,legacy,legacy,legacy,0,uniform,0,undefined,0,h,0,0,0,43,43,43,43,0,0,43,0,0,0,43,43,43,9/9/18 19:50,1500,The main experiment item,yes,FlankerTask.osexp,E:/,no,mono,no,18,no,white,no,yes,768,legacy,43,43,E:/kg-subject-1.csv,legacy,Kafkaesque Koffka,3.2.5,0,None,NA,l,NA,NA,None,1500,NA,309142,NA,NA,1500,2,legacy,1024,2,48000,-16,experiment,1,odd,312024,NA,NA,NA,402411,403606,341473,2872,NA,403612,2880,NA,NA,403716,405218,403715,Flanker Task,41,32940,44,yes,1024
Incongruent,HHSHH,93.33333333,93.33333333,746.8,746.8,black,legacy,legacy,legacy,0,uniform,1,undefined,1,s,0,0,0,44,44,44,44,0,0,44,0,0,0,44,44,44,9/9/18 19:50,1500,The main experiment item,yes,FlankerTask.osexp,E:/,no,mono,no,18,no,white,no,yes,768,legacy,44,44,E:/kg-subject-1.csv,legacy,Kafkaesque Koffka,3.2.5,0,s,NA,l,NA,NA,s,666,NA,309142,NA,NA,666,2,legacy,1024,2,48000,-16,experiment,1,odd,312024,NA,NA,NA,405745,406942,405233,2872,NA,406947,2880,NA,NA,407061,407730,407060,Flanker Task,42,33606,45,yes,1024
Incongruent,HHSHH,93.47826087,93.47826087,742.7391304,742.7391304,black,legacy,legacy,legacy,0,uniform,1,undefined,1,s,0,0,0,45,45,45,45,0,0,45,0,0,0,45,45,45,9/9/18 19:50,1500,The main experiment item,yes,FlankerTask.osexp,E:/,no,mono,no,18,no,white,no,yes,768,legacy,45,45,E:/kg-subject-1.csv,legacy,Kafkaesque Koffka,3.2.5,0,s,NA,l,NA,NA,s,560,NA,309142,NA,NA,560,2,legacy,1024,2,48000,-16,experiment,1,odd,312024,NA,NA,NA,407744,408932,405233,2872,NA,408938,2880,NA,NA,409050,409613,409050,Flanker Task,43,34166,46,yes,1024
Congruent,HHHHH,93.61702128,93.61702128,742.7659574,742.7659574,black,legacy,legacy,legacy,0,uniform,1,undefined,1,h,0,0,0,46,46,46,46,0,0,46,0,0,0,46,46,46,9/9/18 19:50,1500,The main experiment item,yes,FlankerTask.osexp,E:/,no,mono,no,18,no,white,no,yes,768,legacy,46,46,E:/kg-subject-1.csv,legacy,Kafkaesque Koffka,3.2.5,0,h,NA,l,NA,NA,h,744,NA,309142,NA,NA,744,2,legacy,1024,2,48000,-16,experiment,1,odd,312024,NA,NA,NA,409627,410833,405233,2872,NA,410838,2880,NA,NA,410950,411697,410949,Flanker Task,44,34910,47,yes,1024
Incongruent,SSHSS,93.75,93.75,741.0208333,741.0208333,black,legacy,legacy,legacy,0,uniform,1,undefined,1,h,0,0,0,47,47,47,47,0,0,47,0,0,0,47,47,47,9/9/18 19:50,1500,The main experiment item,yes,FlankerTask.osexp,E:/,no,mono,no,18,no,white,no,yes,768,legacy,47,47,E:/kg-subject-1.csv,legacy,Kafkaesque Koffka,3.2.5,0,h,NA,l,NA,NA,h,659,NA,309142,NA,NA,659,2,legacy,1024,2,48000,-16,experiment,1,odd,312024,NA,NA,NA,411711,412925,405233,2872,NA,412930,2880,NA,NA,413043,413705,413042,Flanker Task,45,35569,48,yes,1024
Incongruent,SSHSS,93.87755102,93.87755102,737.1632653,737.1632653,black,legacy,legacy,legacy,0,uniform,1,undefined,1,h,0,0,0,48,48,48,48,0,0,48,0,0,0,48,48,48,9/9/18 19:50,1500,The main experiment item,yes,FlankerTask.osexp,E:/,no,mono,no,18,no,white,no,yes,768,legacy,48,48,E:/kg-subject-1.csv,legacy,Kafkaesque Koffka,3.2.5,0,h,NA,l,NA,NA,h,552,NA,309142,NA,NA,552,2,legacy,1024,2,48000,-16,experiment,1,odd,312024,NA,NA,NA,413721,414917,405233,2872,NA,414922,2880,NA,NA,415033,415587,415032,Flanker Task,46,36121,49,yes,1024
Congruent,HHHHH,94,94,733.34,733.34,black,legacy,legacy,legacy,0,uniform,1,undefined,1,h,0,0,0,49,49,49,49,0,0,49,0,0,0,49,49,49,9/9/18 19:50,1500,The main experiment item,yes,FlankerTask.osexp,E:/,no,mono,no,18,no,white,no,yes,768,legacy,49,49,E:/kg-subject-1.csv,legacy,Kafkaesque Koffka,3.2.5,0,h,NA,l,NA,NA,h,546,NA,309142,NA,NA,546,2,legacy,1024,2,48000,-16,experiment,1,odd,312024,NA,NA,NA,415601,416791,405233,2872,NA,416797,2880,NA,NA,416909,417458,416909,Flanker Task,47,36667,50,yes,1024
Congruent,SSSSS,94.11764706,94.11764706,727.8823529,727.8823529,black,legacy,legacy,legacy,0,uniform,1,undefined,1,s,0,0,0,50,50,50,50,0,0,50,0,0,0,50,50,50,9/9/18 19:50,1500,The main experiment item,yes,FlankerTask.osexp,E:/,no,mono,no,18,no,white,no,yes,768,legacy,50,50,E:/kg-subject-1.csv,legacy,Kafkaesque Koffka,3.2.5,0,s,NA,l,NA,NA,s,455,NA,309142,NA,NA,455,2,legacy,1024,2,48000,-16,experiment,1,odd,312024,NA,NA,NA,417472,418663,405233,2872,NA,418668,2880,NA,NA,418781,419239,418781,Flanker Task,48,37122,51,yes,1024
Incongruent,SSHSS,94.23076923,94.23076923,724.9807692,724.9807692,black,legacy,legacy,legacy,0,uniform,1,undefined,1,h,0,0,0,51,51,51,51,0,0,51,0,0,0,51,51,51,9/9/18 19:50,1500,The main experiment item,yes,FlankerTask.osexp,E:/,no,mono,no,18,no,white,no,yes,768,legacy,51,51,E:/kg-subject-1.csv,legacy,Kafkaesque Koffka,3.2.5,0,h,NA,l,NA,NA,h,577,NA,309142,NA,NA,577,2,legacy,1024,2,48000,-16,experiment,1,odd,312024,NA,NA,NA,419255,420447,405233,2872,NA,420453,2880,NA,NA,420566,421145,420565,Flanker Task,49,37699,52,yes,1024
Congruent,SSSSS,94.33962264,94.33962264,721.8490566,721.8490566,black,legacy,legacy,legacy,0,uniform,1,undefined,1,s,0,0,0,52,52,52,52,0,0,52,0,0,0,52,52,52,9/9/18 19:50,1500,The main experiment item,yes,FlankerTask.osexp,E:/,no,mono,no,18,no,white,no,yes,768,legacy,52,52,E:/kg-subject-1.csv,legacy,Kafkaesque Koffka,3.2.5,0,s,NA,l,NA,NA,s,559,NA,309142,NA,NA,559,2,legacy,1024,2,48000,-16,experiment,1,odd,312024,NA,NA,NA,421159,422345,405233,2872,NA,422352,2880,NA,NA,422466,423028,422464,Flanker Task,50,38258,53,yes,1024
Congruent,SSSSS,94.44444444,94.44444444,716.5740741,716.5740741,black,legacy,legacy,legacy,0,uniform,1,undefined,1,s,0,0,0,53,53,53,53,0,0,53,0,0,0,53,53,53,9/9/18 19:50,1500,The main experiment item,yes,FlankerTask.osexp,E:/,no,mono,no,18,no,white,no,yes,768,legacy,53,53,E:/kg-subject-1.csv,legacy,Kafkaesque Koffka,3.2.5,0,s,NA,l,NA,NA,s,437,NA,309142,NA,NA,437,2,legacy,1024,2,48000,-16,experiment,1,odd,312024,NA,NA,NA,423042,424230,405233,2872,NA,424236,2880,NA,NA,424348,424788,424348,Flanker Task,51,38695,54,yes,1024
Congruent,HHHHH,94.54545455,94.54545455,713.6545455,713.6545455,black,legacy,legacy,legacy,0,uniform,1,undefined,1,h,0,0,0,54,54,54,54,0,0,54,0,0,0,54,54,54,9/9/18 19:50,1500,The main experiment item,yes,FlankerTask.osexp,E:/,no,mono,no,18,no,white,no,yes,768,legacy,54,54,E:/kg-subject-1.csv,legacy,Kafkaesque Koffka,3.2.5,0,h,NA,l,NA,NA,h,556,NA,309142,NA,NA,556,2,legacy,1024,2,48000,-16,experiment,1,odd,312024,NA,NA,NA,424801,425994,405233,2872,NA,425999,2880,NA,NA,426111,426670,426111,Flanker Task,52,39251,55,yes,1024
Incongruent,HHSHH,94.64285714,94.64285714,712.6428571,712.6428571,black,legacy,legacy,legacy,0,uniform,1,undefined,1,s,0,0,0,55,55,55,55,0,0,55,0,0,0,55,55,55,9/9/18 19:50,1500,The main experiment item,yes,FlankerTask.osexp,E:/,no,mono,no,18,no,white,no,yes,768,legacy,55,55,E:/kg-subject-1.csv,legacy,Kafkaesque Koffka,3.2.5,0,s,NA,l,NA,NA,s,657,NA,309142,NA,NA,657,2,legacy,1024,2,48000,-16,experiment,1,odd,312024,NA,NA,NA,426684,427875,405233,2872,NA,427880,2880,NA,NA,427992,428652,427991,Flanker Task,53,39908,56,yes,1024
Incongruent,SSHSS,94.73684211,94.73684211,710.5789474,710.5789474,black,legacy,legacy,legacy,0,uniform,1,undefined,1,h,0,0,0,56,56,56,56,0,0,56,0,0,0,56,56,56,9/9/18 19:50,1500,The main experiment item,yes,FlankerTask.osexp,E:/,no,mono,no,18,no,white,no,yes,768,legacy,56,56,E:/kg-subject-1.csv,legacy,Kafkaesque Koffka,3.2.5,0,h,NA,l,NA,NA,h,595,NA,309142,NA,NA,595,2,legacy,1024,2,48000,-16,experiment,1,odd,312024,NA,NA,NA,428666,429877,405233,2872,NA,429882,2880,NA,NA,429987,430585,429986,Flanker Task,54,40503,57,yes,1024
Incongruent,HHSHH,94.82758621,94.82758621,709.3448276,709.3448276,black,legacy,legacy,legacy,0,uniform,1,undefined,1,s,0,0,0,57,57,57,57,0,0,57,0,0,0,57,57,57,9/9/18 19:50,1500,The main experiment item,yes,FlankerTask.osexp,E:/,no,mono,no,18,no,white,no,yes,768,legacy,57,57,E:/kg-subject-1.csv,legacy,Kafkaesque Koffka,3.2.5,0,s,NA,l,NA,NA,s,639,NA,309142,NA,NA,639,2,legacy,1024,2,48000,-16,experiment,1,odd,312024,NA,NA,NA,430599,431816,405233,2872,NA,431822,2880,NA,NA,431926,432567,431925,Flanker Task,55,41142,58,yes,1024
Incongruent,HHSHH,94.91525424,94.91525424,707.779661,707.779661,black,legacy,legacy,legacy,0,uniform,1,undefined,1,s,0,0,0,58,58,58,58,0,0,58,0,0,0,58,58,58,9/9/18 19:50,1500,The main experiment item,yes,FlankerTask.osexp,E:/,no,mono,no,18,no,white,no,yes,768,legacy,58,58,E:/kg-subject-1.csv,legacy,Kafkaesque Koffka,3.2.5,0,s,NA,l,NA,NA,s,617,NA,309142,NA,NA,617,2,legacy,1024,2,48000,-16,experiment,1,odd,312024,NA,NA,NA,432581,433773,405233,2872,NA,433778,2880,NA,NA,433892,434512,433891,Flanker Task,56,41759,59,yes,1024
Incongruent,SSHSS,95,95,706.3833333,706.3833333,black,legacy,legacy,legacy,0,uniform,1,undefined,1,h,0,0,0,59,59,59,59,0,0,59,0,0,0,59,59,59,9/9/18 19:50,1500,The main experiment item,yes,FlankerTask.osexp,E:/,no,mono,no,18,no,white,no,yes,768,legacy,59,59,E:/kg-subject-1.csv,legacy,Kafkaesque Koffka,3.2.5,0,h,NA,l,NA,NA,h,624,NA,309142,NA,NA,624,2,legacy,1024,2,48000,-16,experiment,1,odd,312024,NA,NA,NA,434528,435714,405233,2872,NA,435719,2880,NA,NA,435831,436458,435831,Flanker Task,57,42383,60,yes,1024
Incongruent,HHSHH,95.08196721,95.08196721,705.2131148,705.2131148,black,legacy,legacy,legacy,0,uniform,1,undefined,1,s,0,0,0,60,60,60,60,0,0,60,0,0,0,60,60,60,9/9/18 19:50,1500,The main experiment item,yes,FlankerTask.osexp,E:/,no,mono,no,18,no,white,no,yes,768,legacy,60,60,E:/kg-subject-1.csv,legacy,Kafkaesque Koffka,3.2.5,0,s,NA,l,NA,NA,s,635,NA,309142,NA,NA,635,2,legacy,1024,2,48000,-16,experiment,1,odd,312024,NA,NA,NA,436472,437692,405233,2872,NA,437697,2880,NA,NA,437801,438439,437801,Flanker Task,58,43018,61,yes,1024
Congruent,HHHHH,95.16129032,95.16129032,703.9193548,703.9193548,black,legacy,legacy,legacy,0,uniform,1,undefined,1,h,0,0,0,61,61,61,61,0,0,61,0,0,0,61,61,61,9/9/18 19:50,1500,The main experiment item,yes,FlankerTask.osexp,E:/,no,mono,no,18,no,white,no,yes,768,legacy,61,61,E:/kg-subject-1.csv,legacy,Kafkaesque Koffka,3.2.5,0,h,NA,l,NA,NA,h,625,NA,309142,NA,NA,625,2,legacy,1024,2,48000,-16,experiment,1,odd,312024,NA,NA,NA,438453,439679,405233,2872,NA,439685,2880,NA,NA,439797,440425,439797,Flanker Task,59,43643,62,yes,1024
Incongruent,HHSHH,95.23809524,95.23809524,703.7301587,703.7301587,black,legacy,legacy,legacy,0,uniform,1,undefined,1,s,0,0,0,62,62,62,62,0,0,62,0,0,0,62,62,62,9/9/18 19:50,1500,The main experiment item,yes,FlankerTask.osexp,E:/,no,mono,no,18,no,white,no,yes,768,legacy,62,62,E:/kg-subject-1.csv,legacy,Kafkaesque Koffka,3.2.5,0,s,NA,l,NA,NA,s,692,NA,309142,NA,NA,692,2,legacy,1024,2,48000,-16,experiment,1,odd,312024,NA,NA,NA,440439,441634,405233,2872,NA,441639,2880,NA,NA,441751,442446,441751,Flanker Task,60,44335,63,yes,1024
Congruent,SSSSS,95.3125,95.3125,700.40625,700.40625,black,legacy,legacy,legacy,0,uniform,1,undefined,1,s,0,0,0,63,63,63,63,0,0,63,0,0,0,63,63,63,9/9/18 19:50,1500,The main experiment item,yes,FlankerTask.osexp,E:/,no,mono,no,18,no,white,no,yes,768,legacy,63,63,E:/kg-subject-1.csv,legacy,Kafkaesque Koffka,3.2.5,0,s,NA,l,NA,NA,s,491,NA,309142,NA,NA,491,2,legacy,1024,2,48000,-16,experiment,1,odd,312024,NA,NA,NA,442460,443688,405233,2872,NA,443693,2880,NA,NA,443807,444301,443806,Flanker Task,61,44826,64,yes,1024
Congruent,SSSSS,95.38461538,95.38461538,697.2,697.2,black,legacy,legacy,legacy,0,uniform,1,undefined,1,s,0,0,0,64,64,64,64,0,0,64,0,0,0,64,64,64,9/9/18 19:50,1500,The main experiment item,yes,FlankerTask.osexp,E:/,no,mono,no,18,no,white,no,yes,768,legacy,64,64,E:/kg-subject-1.csv,legacy,Kafkaesque Koffka,3.2.5,0,s,NA,l,NA,NA,s,492,NA,309142,NA,NA,492,2,legacy,1024,2,48000,-16,experiment,1,odd,312024,NA,NA,NA,444315,445521,405233,2872,NA,445526,2880,NA,NA,445638,446133,445638,Flanker Task,62,45318,65,yes,1024
Congruent,SSSSS,95.45454545,95.45454545,694.2272727,694.2272727,black,legacy,legacy,legacy,0,uniform,1,undefined,1,s,0,0,0,65,65,65,65,0,0,65,0,0,0,65,65,65,9/9/18 19:50,1500,The main experiment item,yes,FlankerTask.osexp,E:/,no,mono,no,18,no,white,no,yes,768,legacy,65,65,E:/kg-subject-1.csv,legacy,Kafkaesque Koffka,3.2.5,0,s,NA,l,NA,NA,s,501,NA,309142,NA,NA,501,2,legacy,1024,2,48000,-16,experiment,1,odd,312024,NA,NA,NA,446149,447351,405233,2872,NA,447356,2880,NA,NA,447462,447966,447462,Flanker Task,63,45819,66,yes,1024
Congruent,HHHHH,95.52238806,95.52238806,691.9850746,691.9850746,black,legacy,legacy,legacy,0,uniform,1,undefined,1,h,0,0,0,66,66,66,66,0,0,66,0,0,0,66,66,66,9/9/18 19:50,1500,The main experiment item,yes,FlankerTask.osexp,E:/,no,mono,no,18,no,white,no,yes,768,legacy,66,66,E:/kg-subject-1.csv,legacy,Kafkaesque Koffka,3.2.5,0,h,NA,l,NA,NA,h,544,NA,309142,NA,NA,544,2,legacy,1024,2,48000,-16,experiment,1,odd,312024,NA,NA,NA,447982,449196,405233,2872,NA,449201,2880,NA,NA,449313,449860,449313,Flanker Task,64,46363,67,yes,1024
Incongruent,SSHSS,95.58823529,95.58823529,691.2941176,691.2941176,black,legacy,legacy,legacy,0,uniform,1,undefined,1,h,0,0,0,67,67,67,67,0,0,67,0,0,0,67,67,67,9/9/18 19:50,1500,The main experiment item,yes,FlankerTask.osexp,E:/,no,mono,no,18,no,white,no,yes,768,legacy,67,67,E:/kg-subject-1.csv,legacy,Kafkaesque Koffka,3.2.5,0,h,NA,l,NA,NA,h,645,NA,309142,NA,NA,645,2,legacy,1024,2,48000,-16,experiment,1,odd,312024,NA,NA,NA,449874,451077,405233,2872,NA,451082,2880,NA,NA,451194,451843,451194,Flanker Task,65,47008,68,yes,1024
Congruent,SSSSS,95.65217391,95.65217391,688.884058,688.884058,black,legacy,legacy,legacy,0,uniform,1,undefined,1,s,0,0,0,68,68,68,68,0,0,68,0,0,0,68,68,68,9/9/18 19:50,1500,The main experiment item,yes,FlankerTask.osexp,E:/,no,mono,no,18,no,white,no,yes,768,legacy,68,68,E:/kg-subject-1.csv,legacy,Kafkaesque Koffka,3.2.5,0,s,NA,l,NA,NA,s,525,NA,309142,NA,NA,525,2,legacy,1024,2,48000,-16,experiment,1,odd,312024,NA,NA,NA,451856,453074,405233,2872,NA,453079,2880,NA,NA,453184,453713,453183,Flanker Task,66,47533,69,yes,1024
Congruent,SSSSS,95.71428571,95.71428571,685.0857143,685.0857143,black,legacy,legacy,legacy,0,uniform,1,undefined,1,s,0,0,0,69,69,69,69,0,0,69,0,0,0,69,69,69,9/9/18 19:50,1500,The main experiment item,yes,FlankerTask.osexp,E:/,no,mono,no,18,no,white,no,yes,768,legacy,69,69,E:/kg-subject-1.csv,legacy,Kafkaesque Koffka,3.2.5,0,s,NA,l,NA,NA,s,423,NA,309142,NA,NA,423,2,legacy,1024,2,48000,-16,experiment,1,odd,312024,NA,NA,NA,453727,454937,405233,2872,NA,454943,2880,NA,NA,455056,455482,455055,Flanker Task,67,47956,70,yes,1024
Incongruent,HHSHH,95.77464789,95.77464789,684.9859155,684.9859155,black,legacy,legacy,legacy,0,uniform,1,undefined,1,s,0,0,0,70,70,70,70,0,0,70,0,0,0,70,70,70,9/9/18 19:50,1500,The main experiment item,yes,FlankerTask.osexp,E:/,no,mono,no,18,no,white,no,yes,768,legacy,70,70,E:/kg-subject-1.csv,legacy,Kafkaesque Koffka,3.2.5,0,s,NA,l,NA,NA,s,678,NA,309142,NA,NA,678,2,legacy,1024,2,48000,-16,experiment,1,odd,312024,NA,NA,NA,455496,456705,405233,2872,NA,456710,2880,NA,NA,456820,457501,456820,Flanker Task,68,48634,71,yes,1024
Incongruent,HHSHH,95.83333333,95.83333333,683.4027778,683.4027778,black,legacy,legacy,legacy,0,uniform,1,undefined,1,s,0,0,0,71,71,71,71,0,0,71,0,0,0,71,71,71,9/9/18 19:50,1500,The main experiment item,yes,FlankerTask.osexp,E:/,no,mono,no,18,no,white,no,yes,768,legacy,71,71,E:/kg-subject-1.csv,legacy,Kafkaesque Koffka,3.2.5,0,s,NA,l,NA,NA,s,571,NA,309142,NA,NA,571,2,legacy,1024,2,48000,-16,experiment,1,odd,312024,NA,NA,NA,457515,458706,405233,2872,NA,458712,2880,NA,NA,458824,459399,458824,Flanker Task,69,49205,72,yes,1024
Incongruent,SSHSS,95.89041096,95.89041096,681.3972603,681.3972603,black,legacy,legacy,legacy,0,uniform,1,undefined,1,h,0,0,0,72,72,72,72,0,0,72,0,0,0,72,72,72,9/9/18 19:50,1500,The main experiment item,yes,FlankerTask.osexp,E:/,no,mono,no,18,no,white,no,yes,768,legacy,72,72,E:/kg-subject-1.csv,legacy,Kafkaesque Koffka,3.2.5,0,h,NA,l,NA,NA,h,537,NA,309142,NA,NA,537,2,legacy,1024,2,48000,-16,experiment,1,odd,312024,NA,NA,NA,459412,460598,405233,2872,NA,460603,2880,NA,NA,460715,461255,460715,Flanker Task,70,49742,73,yes,1024
Congruent,SSSSS,95.94594595,95.94594595,682.0405405,682.0405405,black,legacy,legacy,legacy,0,uniform,1,undefined,1,s,0,0,0,73,73,73,73,0,0,73,0,0,0,73,73,73,9/9/18 19:50,1500,The main experiment item,yes,FlankerTask.osexp,E:/,no,mono,no,18,no,white,no,yes,768,legacy,73,73,E:/kg-subject-1.csv,legacy,Kafkaesque Koffka,3.2.5,0,s,NA,l,NA,NA,s,729,NA,309142,NA,NA,729,2,legacy,1024,2,48000,-16,experiment,1,odd,312024,NA,NA,NA,461268,462460,405233,2872,NA,462466,2880,NA,NA,462580,463312,462578,Flanker Task,71,50471,74,yes,1024
Incongruent,HHSHH,96,96,681.28,681.28,black,legacy,legacy,legacy,0,uniform,1,undefined,1,s,0,0,0,74,74,74,74,0,0,74,0,0,0,74,74,74,9/9/18 19:50,1500,The main experiment item,yes,FlankerTask.osexp,E:/,no,mono,no,18,no,white,no,yes,768,legacy,74,74,E:/kg-subject-1.csv,legacy,Kafkaesque Koffka,3.2.5,0,s,NA,l,NA,NA,s,625,NA,309142,NA,NA,625,2,legacy,1024,2,48000,-16,experiment,1,odd,312024,NA,NA,NA,463328,464544,405233,2872,NA,464550,2880,NA,NA,464654,465282,464654,Flanker Task,72,51096,75,yes,1024
Congruent,HHHHH,96.05263158,96.05263158,680.3815789,680.3815789,black,legacy,legacy,legacy,0,uniform,1,undefined,1,h,0,0,0,75,75,75,75,0,0,75,0,0,0,75,75,75,9/9/18 19:50,1500,The main experiment item,yes,FlankerTask.osexp,E:/,no,mono,no,18,no,white,no,yes,768,legacy,75,75,E:/kg-subject-1.csv,legacy,Kafkaesque Koffka,3.2.5,0,h,NA,l,NA,NA,h,613,NA,309142,NA,NA,613,2,legacy,1024,2,48000,-16,experiment,1,odd,312024,NA,NA,NA,465295,466505,405233,2872,NA,466510,2880,NA,NA,466623,467240,466623,Flanker Task,73,51709,76,yes,1024
Congruent,HHHHH,96.1038961,96.1038961,679.0779221,679.0779221,black,legacy,legacy,legacy,0,uniform,1,undefined,1,h,0,0,0,76,76,76,76,0,0,76,0,0,0,76,76,76,9/9/18 19:50,1500,The main experiment item,yes,FlankerTask.osexp,E:/,no,mono,no,18,no,white,no,yes,768,legacy,76,76,E:/kg-subject-1.csv,legacy,Kafkaesque Koffka,3.2.5,0,h,NA,l,NA,NA,h,580,NA,309142,NA,NA,580,2,legacy,1024,2,48000,-16,experiment,1,odd,312024,NA,NA,NA,467253,468445,405233,2872,NA,468451,2880,NA,NA,468563,469147,468563,Flanker Task,74,52289,77,yes,1024
Incongruent,SSHSS,96.15384615,96.15384615,679,679,black,legacy,legacy,legacy,0,uniform,1,undefined,1,h,0,0,0,77,77,77,77,0,0,77,0,0,0,77,77,77,9/9/18 19:50,1500,The main experiment item,yes,FlankerTask.osexp,E:/,no,mono,no,18,no,white,no,yes,768,legacy,77,77,E:/kg-subject-1.csv,legacy,Kafkaesque Koffka,3.2.5,0,h,NA,l,NA,NA,h,673,NA,309142,NA,NA,673,2,legacy,1024,2,48000,-16,experiment,1,odd,312024,NA,NA,NA,469160,470345,405233,2872,NA,470351,2880,NA,NA,470463,471140,470463,Flanker Task,75,52962,78,yes,1024
Congruent,HHHHH,96.20253165,96.20253165,676.721519,676.721519,black,legacy,legacy,legacy,0,uniform,1,undefined,1,h,0,0,0,78,78,78,78,0,0,78,0,0,0,78,78,78,9/9/18 19:50,1500,The main experiment item,yes,FlankerTask.osexp,E:/,no,mono,no,18,no,white,no,yes,768,legacy,78,78,E:/kg-subject-1.csv,legacy,Kafkaesque Koffka,3.2.5,0,h,NA,l,NA,NA,h,499,NA,309142,NA,NA,499,2,legacy,1024,2,48000,-16,experiment,1,odd,312024,NA,NA,NA,471153,472360,405233,2872,NA,472366,2880,NA,NA,472473,472975,472473,Flanker Task,76,53461,79,yes,1024
Incongruent,SSHSS,96.25,96.25,677.5875,677.5875,black,legacy,legacy,legacy,0,uniform,1,undefined,1,h,0,0,0,79,79,79,79,0,0,79,0,0,0,79,79,79,9/9/18 19:50,1500,The main experiment item,yes,FlankerTask.osexp,E:/,no,mono,no,18,no,white,no,yes,768,legacy,79,79,E:/kg-subject-1.csv,legacy,Kafkaesque Koffka,3.2.5,0,h,NA,l,NA,NA,h,746,NA,309142,NA,NA,746,2,legacy,1024,2,48000,-16,experiment,1,odd,312024,NA,NA,NA,472989,474188,405233,2872,NA,474194,2880,NA,NA,474307,475056,474306,Flanker Task,77,54207,80,yes,1024
Incongruent,HHSHH,95.0617284,95.0617284,678.962963,678.962963,black,legacy,legacy,legacy,0,uniform,0,undefined,0,s,0,0,0,80,80,80,80,0,0,80,0,0,0,80,80,80,9/9/18 19:50,600,The main experiment item,yes,FlankerTask.osexp,E:/,no,mono,no,18,no,white,no,yes,768,legacy,0,79,E:/kg-subject-1.csv,legacy,Kafkaesque Koffka,3.2.5,0,h,NA,l,j,NA,h,789,NA,309142,37271,NA,789,2,legacy,1024,2,48000,-16,experiment,1,odd,312024,513403,NA,NA,475069,513618,405233,2872,NA,513624,2880,476128,NA,513732,514525,513730,Flanker Task,77,54996,81,yes,1024
Congruent,HHHHH,95.12195122,95.12195122,681.0365854,681.0365854,black,legacy,legacy,legacy,0,uniform,1,undefined,1,h,0,0,0,81,81,81,81,0,0,81,0,0,0,81,81,81,9/9/18 19:50,600,The main experiment item,yes,FlankerTask.osexp,E:/,no,mono,no,18,no,white,no,yes,768,legacy,1,79,E:/kg-subject-1.csv,legacy,Kafkaesque Koffka,3.2.5,0,h,NA,l,j,NA,h,849,NA,309142,37271,NA,849,2,legacy,1024,2,48000,-16,experiment,1,odd,312024,513403,NA,515047,515559,516771,514540,2872,NA,516778,2880,476128,NA,516884,517736,516883,Flanker Task,78,55845,82,yes,1024
Congruent,HHHHH,95.18072289,95.18072289,677.0722892,677.0722892,black,legacy,legacy,legacy,0,uniform,1,undefined,1,h,0,0,0,82,82,82,82,0,0,82,0,0,0,82,82,82,9/9/18 19:50,600,The main experiment item,yes,FlankerTask.osexp,E:/,no,mono,no,18,no,white,no,yes,768,legacy,2,79,E:/kg-subject-1.csv,legacy,Kafkaesque Koffka,3.2.5,0,h,NA,l,j,NA,h,352,NA,309142,37271,NA,352,2,legacy,1024,2,48000,-16,experiment,1,odd,312024,513403,NA,517750,518253,519470,514540,2872,NA,519477,2880,476128,NA,519590,519946,519589,Flanker Task,79,56197,83,yes,1024
Congruent,SSSSS,95.23809524,95.23809524,673.2619048,673.2619048,black,legacy,legacy,legacy,0,uniform,1,undefined,1,s,0,0,0,83,83,83,83,0,0,83,0,0,0,83,83,83,9/9/18 19:50,600,The main experiment item,yes,FlankerTask.osexp,E:/,no,mono,no,18,no,white,no,yes,768,legacy,3,79,E:/kg-subject-1.csv,legacy,Kafkaesque Koffka,3.2.5,0,s,NA,l,j,NA,s,357,NA,309142,37271,NA,357,2,legacy,1024,2,48000,-16,experiment,1,odd,312024,513403,NA,517750,519959,521182,514540,2872,NA,521188,2880,476128,NA,521292,521653,521291,Flanker Task,80,56554,84,yes,1024
Incongruent,HHSHH,95.29411765,95.29411765,670.6823529,670.6823529,black,legacy,legacy,legacy,0,uniform,1,undefined,1,s,0,0,0,84,84,84,84,0,0,84,0,0,0,84,84,84,9/9/18 19:50,600,The main experiment item,yes,FlankerTask.osexp,E:/,no,mono,no,18,no,white,no,yes,768,legacy,4,79,E:/kg-subject-1.csv,legacy,Kafkaesque Koffka,3.2.5,0,s,NA,l,j,NA,s,454,NA,309142,37271,NA,454,2,legacy,1024,2,48000,-16,experiment,1,odd,312024,513403,NA,517750,521669,522891,514540,2872,NA,522897,2880,476128,NA,523001,523459,523000,Flanker Task,81,57008,85,yes,1024
Incongruent,HHSHH,95.34883721,95.34883721,669.0465116,669.0465116,black,legacy,legacy,legacy,0,uniform,1,undefined,1,s,0,0,0,85,85,85,85,0,0,85,0,0,0,85,85,85,9/9/18 19:50,600,The main experiment item,yes,FlankerTask.osexp,E:/,no,mono,no,18,no,white,no,yes,768,legacy,5,79,E:/kg-subject-1.csv,legacy,Kafkaesque Koffka,3.2.5,0,s,NA,l,j,NA,s,530,NA,309142,37271,NA,530,2,legacy,1024,2,48000,-16,experiment,1,odd,312024,513403,NA,517750,523472,524684,514540,2872,NA,524690,2880,476128,NA,524794,525328,524793,Flanker Task,82,57538,86,yes,1024
Incongruent,HHSHH,94.25287356,94.25287356,665.0229885,665.0229885,black,legacy,legacy,legacy,0,uniform,0,undefined,0,s,0,0,0,86,86,86,86,0,0,86,0,0,0,86,86,86,9/9/18 19:50,600,The main experiment item,yes,FlankerTask.osexp,E:/,no,mono,no,18,no,white,no,yes,768,legacy,6,79,E:/kg-subject-1.csv,legacy,Kafkaesque Koffka,3.2.5,0,h,NA,l,j,NA,h,319,NA,309142,37271,NA,319,2,legacy,1024,2,48000,-16,experiment,1,odd,312024,513403,NA,517750,525342,526551,514540,2872,NA,526557,2880,476128,NA,526662,526985,526661,Flanker Task,82,57857,87,yes,1024
Congruent,HHHHH,94.31818182,94.31818182,663.4090909,663.4090909,black,legacy,legacy,legacy,0,uniform,1,undefined,1,h,0,0,0,87,87,87,87,0,0,87,0,0,0,87,87,87,9/9/18 19:50,600,The main experiment item,yes,FlankerTask.osexp,E:/,no,mono,no,18,no,white,no,yes,768,legacy,7,79,E:/kg-subject-1.csv,legacy,Kafkaesque Koffka,3.2.5,0,h,NA,l,j,NA,h,523,NA,309142,37271,NA,523,2,legacy,1024,2,48000,-16,experiment,1,odd,312024,513403,NA,517750,527513,528728,527000,2872,NA,528734,2880,476128,NA,528841,529368,528841,Flanker Task,83,58380,88,yes,1024
Incongruent,SSHSS,94.38202247,94.38202247,664.0898876,664.0898876,black,legacy,legacy,legacy,0,uniform,1,undefined,1,h,0,0,0,88,88,88,88,0,0,88,0,0,0,88,88,88,9/9/18 19:50,600,The main experiment item,yes,FlankerTask.osexp,E:/,no,mono,no,18,no,white,no,yes,768,legacy,8,79,E:/kg-subject-1.csv,legacy,Kafkaesque Koffka,3.2.5,0,h,NA,l,j,NA,h,724,NA,309142,37271,NA,724,2,legacy,1024,2,48000,-16,experiment,1,odd,312024,513403,NA,517750,529381,530586,527000,2872,NA,530591,2880,476128,NA,530696,531424,530696,Flanker Task,84,59104,89,yes,1024
Congruent,SSSSS,93.33333333,93.33333333,660.8888889,660.8888889,black,legacy,legacy,legacy,0,uniform,0,undefined,0,s,0,0,0,89,89,89,89,0,0,89,0,0,0,89,89,89,9/9/18 19:50,600,The main experiment item,yes,FlankerTask.osexp,E:/,no,mono,no,18,no,white,no,yes,768,legacy,9,79,E:/kg-subject-1.csv,legacy,Kafkaesque Koffka,3.2.5,0,h,NA,l,j,NA,h,376,NA,309142,37271,NA,376,2,legacy,1024,2,48000,-16,experiment,1,odd,312024,513403,NA,531437,531941,533154,527000,2872,NA,533160,2880,476128,NA,533264,533644,533264,Flanker Task,84,59480,90,yes,1024
Congruent,HHHHH,93.40659341,93.40659341,661.3296703,661.3296703,black,legacy,legacy,legacy,0,uniform,1,undefined,1,h,0,0,0,90,90,90,90,0,0,90,0,0,0,90,90,90,9/9/18 19:50,600,The main experiment item,yes,FlankerTask.osexp,E:/,no,mono,no,18,no,white,no,yes,768,legacy,10,79,E:/kg-subject-1.csv,legacy,Kafkaesque Koffka,3.2.5,0,h,NA,l,j,NA,h,701,NA,309142,37271,NA,701,2,legacy,1024,2,48000,-16,experiment,1,odd,312024,513403,NA,531437,534171,535386,533658,2872,NA,535392,2880,476128,NA,535496,536201,535496,Flanker Task,85,60181,91,yes,1024
Congruent,HHHHH,93.47826087,93.47826087,659.9347826,659.9347826,black,legacy,legacy,legacy,0,uniform,1,undefined,1,h,0,0,0,91,91,91,91,0,0,91,0,0,0,91,91,91,9/9/18 19:50,600,The main experiment item,yes,FlankerTask.osexp,E:/,no,mono,no,18,no,white,no,yes,768,legacy,11,79,E:/kg-subject-1.csv,legacy,Kafkaesque Koffka,3.2.5,0,h,NA,l,j,NA,h,533,NA,309142,37271,NA,533,2,legacy,1024,2,48000,-16,experiment,1,odd,312024,513403,NA,536217,536721,537948,533658,2872,NA,537954,2880,476128,NA,538058,538595,538057,Flanker Task,86,60714,92,yes,1024
Congruent,HHHHH,93.5483871,93.5483871,656.6451613,656.6451613,black,legacy,legacy,legacy,0,uniform,1,undefined,1,h,0,0,0,92,92,92,92,0,0,92,0,0,0,92,92,92,9/9/18 19:50,600,The main experiment item,yes,FlankerTask.osexp,E:/,no,mono,no,18,no,white,no,yes,768,legacy,12,79,E:/kg-subject-1.csv,legacy,Kafkaesque Koffka,3.2.5,0,h,NA,l,j,NA,h,354,NA,309142,37271,NA,354,2,legacy,1024,2,48000,-16,experiment,1,odd,312024,513403,NA,536217,538609,539823,533658,2872,NA,539828,2880,476128,NA,539942,540301,539941,Flanker Task,87,61068,93,yes,1024
Incongruent,SSHSS,92.55319149,92.55319149,653.3510638,653.3510638,black,legacy,legacy,legacy,0,uniform,0,undefined,0,h,0,0,0,93,93,93,93,0,0,93,0,0,0,93,93,93,9/9/18 19:50,600,The main experiment item,yes,FlankerTask.osexp,E:/,no,mono,no,18,no,white,no,yes,768,legacy,13,79,E:/kg-subject-1.csv,legacy,Kafkaesque Koffka,3.2.5,0,s,NA,l,j,NA,s,347,NA,309142,37271,NA,347,2,legacy,1024,2,48000,-16,experiment,1,odd,312024,513403,NA,536217,540314,541534,533658,2872,NA,541539,2880,476128,NA,541643,541994,541642,Flanker Task,87,61415,94,yes,1024
Congruent,HHHHH,92.63157895,92.63157895,653.3894737,653.3894737,black,legacy,legacy,legacy,0,uniform,1,undefined,1,h,0,0,0,94,94,94,94,0,0,94,0,0,0,94,94,94,9/9/18 19:50,600,The main experiment item,yes,FlankerTask.osexp,E:/,no,mono,no,18,no,white,no,yes,768,legacy,14,79,E:/kg-subject-1.csv,legacy,Kafkaesque Koffka,3.2.5,0,h,NA,l,j,NA,h,657,NA,309142,37271,NA,657,2,legacy,1024,2,48000,-16,experiment,1,odd,312024,513403,NA,536217,542521,543735,542009,2872,NA,543741,2880,476128,NA,543852,544513,543852,Flanker Task,88,62072,95,yes,1024
Incongruent,SSHSS,92.70833333,92.70833333,653.6458333,653.6458333,black,legacy,legacy,legacy,0,uniform,1,undefined,1,h,0,0,0,95,95,95,95,0,0,95,0,0,0,95,95,95,9/9/18 19:50,600,The main experiment item,yes,FlankerTask.osexp,E:/,no,mono,no,18,no,white,no,yes,768,legacy,15,79,E:/kg-subject-1.csv,legacy,Kafkaesque Koffka,3.2.5,0,h,NA,l,j,NA,h,678,NA,309142,37271,NA,678,2,legacy,1024,2,48000,-16,experiment,1,odd,312024,513403,NA,544527,545039,546266,542009,2872,NA,546273,2880,476128,NA,546377,547059,546376,Flanker Task,89,62750,96,yes,1024
Incongruent,SSHSS,92.78350515,92.78350515,652.2680412,652.2680412,black,legacy,legacy,legacy,0,uniform,1,undefined,1,h,0,0,0,96,96,96,96,0,0,96,0,0,0,96,96,96,9/9/18 19:50,600,The main experiment item,yes,FlankerTask.osexp,E:/,no,mono,no,18,no,white,no,yes,768,legacy,16,79,E:/kg-subject-1.csv,legacy,Kafkaesque Koffka,3.2.5,0,h,NA,l,j,NA,h,520,NA,309142,37271,NA,520,2,legacy,1024,2,48000,-16,experiment,1,odd,312024,513403,NA,547072,547576,548793,542009,2872,NA,548799,2880,476128,NA,548903,549427,548902,Flanker Task,90,63270,97,yes,1024
Incongruent,SSHSS,92.85714286,92.85714286,651.1938776,651.1938776,black,legacy,legacy,legacy,0,uniform,1,undefined,1,h,0,0,0,97,97,97,97,0,0,97,0,0,0,97,97,97,9/9/18 19:50,600,The main experiment item,yes,FlankerTask.osexp,E:/,no,mono,no,18,no,white,no,yes,768,legacy,17,79,E:/kg-subject-1.csv,legacy,Kafkaesque Koffka,3.2.5,0,h,NA,l,j,NA,h,547,NA,309142,37271,NA,547,2,legacy,1024,2,48000,-16,experiment,1,odd,312024,513403,NA,547072,549442,550652,542009,2872,NA,550658,2880,476128,NA,550771,551323,550770,Flanker Task,91,63817,98,yes,1024
Incongruent,SSHSS,92.92929293,92.92929293,649.6363636,649.6363636,black,legacy,legacy,legacy,0,uniform,1,undefined,1,h,0,0,0,98,98,98,98,0,0,98,0,0,0,98,98,98,9/9/18 19:50,600,The main experiment item,yes,FlankerTask.osexp,E:/,no,mono,no,18,no,white,no,yes,768,legacy,18,79,E:/kg-subject-1.csv,legacy,Kafkaesque Koffka,3.2.5,0,h,NA,l,j,NA,h,497,NA,309142,37271,NA,497,2,legacy,1024,2,48000,-16,experiment,1,odd,312024,513403,NA,547072,551336,552532,542009,2872,NA,552538,2880,476128,NA,552652,553153,552650,Flanker Task,92,64314,99,yes,1024
Incongruent,HHSHH,93,93,648.24,648.24,black,legacy,legacy,legacy,0,uniform,1,undefined,1,s,0,0,0,99,99,99,99,0,0,99,0,0,0,99,99,99,9/9/18 19:50,600,The main experiment item,yes,FlankerTask.osexp,E:/,no,mono,no,18,no,white,no,yes,768,legacy,19,79,E:/kg-subject-1.csv,legacy,Kafkaesque Koffka,3.2.5,0,s,NA,l,j,NA,s,510,NA,309142,37271,NA,510,2,legacy,1024,2,48000,-16,experiment,1,odd,312024,513403,NA,547072,553166,554362,542009,2872,NA,554368,2880,476128,NA,554482,554996,554481,Flanker Task,93,64824,100,yes,1024
Congruent,HHHHH,93.06930693,93.06930693,646.5742574,646.5742574,black,legacy,legacy,legacy,0,uniform,1,undefined,1,h,0,0,0,100,100,100,100,0,0,100,0,0,0,100,100,100,9/9/18 19:50,600,The main experiment item,yes,FlankerTask.osexp,E:/,no,mono,no,18,no,white,no,yes,768,legacy,20,79,E:/kg-subject-1.csv,legacy,Kafkaesque Koffka,3.2.5,0,h,NA,l,j,NA,h,480,NA,309142,37271,NA,480,2,legacy,1024,2,48000,-16,experiment,1,odd,312024,513403,NA,547072,555009,556210,542009,2872,NA,556216,2880,476128,NA,556328,556813,556328,Flanker Task,94,65304,101,yes,1024
Congruent,SSSSS,93.1372549,93.1372549,645.8529412,645.8529412,black,legacy,legacy,legacy,0,uniform,1,undefined,1,s,0,0,0,101,101,101,101,0,0,101,0,0,0,101,101,101,9/9/18 19:50,600,The main experiment item,yes,FlankerTask.osexp,E:/,no,mono,no,18,no,white,no,yes,768,legacy,21,79,E:/kg-subject-1.csv,legacy,Kafkaesque Koffka,3.2.5,0,s,NA,l,j,NA,s,573,NA,309142,37271,NA,573,2,legacy,1024,2,48000,-16,experiment,1,odd,312024,513403,NA,547072,556825,558036,542009,2872,NA,558041,2880,476128,NA,558155,558732,558154,Flanker Task,95,65877,102,yes,1024
Congruent,SSSSS,93.2038835,93.2038835,643.6990291,643.6990291,black,legacy,legacy,legacy,0,uniform,1,undefined,1,s,0,0,0,102,102,102,102,0,0,102,0,0,0,102,102,102,9/9/18 19:50,600,The main experiment item,yes,FlankerTask.osexp,E:/,no,mono,no,18,no,white,no,yes,768,legacy,22,79,E:/kg-subject-1.csv,legacy,Kafkaesque Koffka,3.2.5,0,s,NA,l,j,NA,s,424,NA,309142,37271,NA,424,2,legacy,1024,2,48000,-16,experiment,1,odd,312024,513403,NA,547072,558745,559940,542009,2872,NA,559946,2880,476128,NA,560059,560487,560058,Flanker Task,96,66301,103,yes,1024
Incongruent,SSHSS,93.26923077,93.26923077,642.8461538,642.8461538,black,legacy,legacy,legacy,0,uniform,1,undefined,1,h,0,0,0,103,103,103,103,0,0,103,0,0,0,103,103,103,9/9/18 19:50,600,The main experiment item,yes,FlankerTask.osexp,E:/,no,mono,no,18,no,white,no,yes,768,legacy,23,79,E:/kg-subject-1.csv,legacy,Kafkaesque Koffka,3.2.5,0,h,NA,l,j,NA,h,555,NA,309142,37271,NA,555,2,legacy,1024,2,48000,-16,experiment,1,odd,312024,513403,NA,547072,560500,561704,542009,2872,NA,561711,2880,476128,NA,561822,562382,561822,Flanker Task,97,66856,104,yes,1024
Incongruent,HHSHH,93.33333333,93.33333333,642.4380952,642.4380952,black,legacy,legacy,legacy,0,uniform,1,undefined,1,s,0,0,0,104,104,104,104,0,0,104,0,0,0,104,104,104,9/9/18 19:50,600,The main experiment item,yes,FlankerTask.osexp,E:/,no,mono,no,18,no,white,no,yes,768,legacy,24,79,E:/kg-subject-1.csv,legacy,Kafkaesque Koffka,3.2.5,0,s,NA,l,j,NA,s,600,NA,309142,37271,NA,600,2,legacy,1024,2,48000,-16,experiment,1,odd,312024,513403,NA,547072,562395,563589,542009,2872,NA,563596,2880,476128,NA,563709,564314,563708,Flanker Task,98,67456,105,yes,1024
Congruent,HHHHH,93.39622642,93.39622642,640.6603774,640.6603774,black,legacy,legacy,legacy,0,uniform,1,undefined,1,h,0,0,0,105,105,105,105,0,0,105,0,0,0,105,105,105,9/9/18 19:50,600,The main experiment item,yes,FlankerTask.osexp,E:/,no,mono,no,18,no,white,no,yes,768,legacy,25,79,E:/kg-subject-1.csv,legacy,Kafkaesque Koffka,3.2.5,0,h,NA,l,j,NA,h,454,NA,309142,37271,NA,454,2,legacy,1024,2,48000,-16,experiment,1,odd,312024,513403,NA,547072,564328,565519,542009,2872,NA,565524,2880,476128,NA,565635,566094,565634,Flanker Task,99,67910,106,yes,1024
Incongruent,SSHSS,93.45794393,93.45794393,639.3831776,639.3831776,black,legacy,legacy,legacy,0,uniform,1,undefined,1,h,0,0,0,106,106,106,106,0,0,106,0,0,0,106,106,106,9/9/18 19:50,600,The main experiment item,yes,FlankerTask.osexp,E:/,no,mono,no,18,no,white,no,yes,768,legacy,26,79,E:/kg-subject-1.csv,legacy,Kafkaesque Koffka,3.2.5,0,h,NA,l,j,NA,h,504,NA,309142,37271,NA,504,2,legacy,1024,2,48000,-16,experiment,1,odd,312024,513403,NA,547072,566107,567298,542009,2872,NA,567304,2880,476128,NA,567418,567927,567416,Flanker Task,100,68414,107,yes,1024
Incongruent,SSHSS,93.51851852,93.51851852,638.1296296,638.1296296,black,legacy,legacy,legacy,0,uniform,1,undefined,1,h,0,0,0,107,107,107,107,0,0,107,0,0,0,107,107,107,9/9/18 19:50,600,The main experiment item,yes,FlankerTask.osexp,E:/,no,mono,no,18,no,white,no,yes,768,legacy,27,79,E:/kg-subject-1.csv,legacy,Kafkaesque Koffka,3.2.5,0,h,NA,l,j,NA,h,504,NA,309142,37271,NA,504,2,legacy,1024,2,48000,-16,experiment,1,odd,312024,513403,NA,547072,567939,569130,542009,2872,NA,569136,2880,476128,NA,569249,569757,569247,Flanker Task,101,68918,108,yes,1024
Congruent,SSSSS,93.57798165,93.57798165,635.8440367,635.8440367,black,legacy,legacy,legacy,0,uniform,1,undefined,1,s,0,0,0,108,108,108,108,0,0,108,0,0,0,108,108,108,9/9/18 19:50,600,The main experiment item,yes,FlankerTask.osexp,E:/,no,mono,no,18,no,white,no,yes,768,legacy,28,79,E:/kg-subject-1.csv,legacy,Kafkaesque Koffka,3.2.5,0,s,NA,l,j,NA,s,389,NA,309142,37271,NA,389,2,legacy,1024,2,48000,-16,experiment,1,odd,312024,513403,NA,547072,569770,570962,542009,2872,NA,570967,2880,476128,NA,571080,571474,571079,Flanker Task,102,69307,109,yes,1024
Incongruent,HHSHH,93.63636364,93.63636364,634.8636364,634.8636364,black,legacy,legacy,legacy,0,uniform,1,undefined,1,s,0,0,0,109,109,109,109,0,0,109,0,0,0,109,109,109,9/9/18 19:50,600,The main experiment item,yes,FlankerTask.osexp,E:/,no,mono,no,18,no,white,no,yes,768,legacy,29,79,E:/kg-subject-1.csv,legacy,Kafkaesque Koffka,3.2.5,0,s,NA,l,j,NA,s,528,NA,309142,37271,NA,528,2,legacy,1024,2,48000,-16,experiment,1,odd,312024,513403,NA,547072,571487,572704,542009,2872,NA,572710,2880,476128,NA,572822,573354,572822,Flanker Task,103,69835,110,yes,1024
Congruent,SSSSS,93.69369369,93.69369369,634.6576577,634.6576577,black,legacy,legacy,legacy,0,uniform,1,undefined,1,s,0,0,0,110,110,110,110,0,0,110,0,0,0,110,110,110,9/9/18 19:50,600,The main experiment item,yes,FlankerTask.osexp,E:/,no,mono,no,18,no,white,no,yes,768,legacy,30,79,E:/kg-subject-1.csv,legacy,Kafkaesque Koffka,3.2.5,0,s,NA,l,j,NA,s,612,NA,309142,37271,NA,612,2,legacy,1024,2,48000,-16,experiment,1,odd,312024,513403,NA,547072,573367,574561,542009,2872,NA,574566,2880,476128,NA,574679,575296,574678,Flanker Task,104,70447,111,yes,1024
Incongruent,SSHSS,93.75,93.75,634.0625,634.0625,black,legacy,legacy,legacy,0,uniform,1,undefined,1,h,0,0,0,111,111,111,111,0,0,111,0,0,0,111,111,111,9/9/18 19:50,600,The main experiment item,yes,FlankerTask.osexp,E:/,no,mono,no,18,no,white,no,yes,768,legacy,31,79,E:/kg-subject-1.csv,legacy,Kafkaesque Koffka,3.2.5,0,h,NA,l,j,NA,h,568,NA,309142,37271,NA,568,2,legacy,1024,2,48000,-16,experiment,1,odd,312024,513403,NA,575309,575821,577026,542009,2872,NA,577032,2880,476128,NA,577142,577715,577141,Flanker Task,105,71015,112,yes,1024
Incongruent,HHSHH,93.80530973,93.80530973,633.2743363,633.2743363,black,legacy,legacy,legacy,0,uniform,1,undefined,1,s,0,0,0,112,112,112,112,0,0,112,0,0,0,112,112,112,9/9/18 19:50,600,The main experiment item,yes,FlankerTask.osexp,E:/,no,mono,no,18,no,white,no,yes,768,legacy,32,79,E:/kg-subject-1.csv,legacy,Kafkaesque Koffka,3.2.5,0,s,NA,l,j,NA,s,545,NA,309142,37271,NA,545,2,legacy,1024,2,48000,-16,experiment,1,odd,312024,513403,NA,575309,577728,578926,542009,2872,NA,578932,2880,476128,NA,579046,579596,579044,Flanker Task,106,71560,113,yes,1024
Congruent,HHHHH,93.85964912,93.85964912,632.0964912,632.0964912,black,legacy,legacy,legacy,0,uniform,1,undefined,1,h,0,0,0,113,113,113,113,0,0,113,0,0,0,113,113,113,9/9/18 19:50,600,The main experiment item,yes,FlankerTask.osexp,E:/,no,mono,no,18,no,white,no,yes,768,legacy,33,79,E:/kg-subject-1.csv,legacy,Kafkaesque Koffka,3.2.5,0,h,NA,l,j,NA,h,499,NA,309142,37271,NA,499,2,legacy,1024,2,48000,-16,experiment,1,odd,312024,513403,NA,575309,579611,580804,542009,2872,NA,580810,2880,476128,NA,580922,581426,580922,Flanker Task,107,72059,114,yes,1024
Congruent,SSSSS,93.91304348,93.91304348,631.2869565,631.2869565,black,legacy,legacy,legacy,0,uniform,1,undefined,1,s,0,0,0,114,114,114,114,0,0,114,0,0,0,114,114,114,9/9/18 19:50,600,The main experiment item,yes,FlankerTask.osexp,E:/,no,mono,no,18,no,white,no,yes,768,legacy,34,79,E:/kg-subject-1.csv,legacy,Kafkaesque Koffka,3.2.5,0,s,NA,l,j,NA,s,539,NA,309142,37271,NA,539,2,legacy,1024,2,48000,-16,experiment,1,odd,312024,513403,NA,575309,581439,582631,542009,2872,NA,582638,2880,476128,NA,582751,583294,582750,Flanker Task,108,72598,115,yes,1024
Congruent,HHHHH,93.96551724,93.96551724,630.5172414,630.5172414,black,legacy,legacy,legacy,0,uniform,1,undefined,1,h,0,0,0,115,115,115,115,0,0,115,0,0,0,115,115,115,9/9/18 19:50,600,The main experiment item,yes,FlankerTask.osexp,E:/,no,mono,no,18,no,white,no,yes,768,legacy,35,79,E:/kg-subject-1.csv,legacy,Kafkaesque Koffka,3.2.5,0,h,NA,l,j,NA,h,542,NA,309142,37271,NA,542,2,legacy,1024,2,48000,-16,experiment,1,odd,312024,513403,NA,575309,583307,584497,542009,2872,NA,584503,2880,476128,NA,584616,585162,584615,Flanker Task,109,73140,116,yes,1024
Congruent,HHHHH,94.01709402,94.01709402,628.9059829,628.9059829,black,legacy,legacy,legacy,0,uniform,1,undefined,1,h,0,0,0,116,116,116,116,0,0,116,0,0,0,116,116,116,9/9/18 19:50,600,The main experiment item,yes,FlankerTask.osexp,E:/,no,mono,no,18,no,white,no,yes,768,legacy,36,79,E:/kg-subject-1.csv,legacy,Kafkaesque Koffka,3.2.5,0,h,NA,l,j,NA,h,442,NA,309142,37271,NA,442,2,legacy,1024,2,48000,-16,experiment,1,odd,312024,513403,NA,575309,585175,586366,542009,2872,NA,586372,2880,476128,NA,586483,586930,586482,Flanker Task,110,73582,117,yes,1024
Incongruent,SSHSS,94.06779661,94.06779661,627.8474576,627.8474576,black,legacy,legacy,legacy,0,uniform,1,undefined,1,h,0,0,0,117,117,117,117,0,0,117,0,0,0,117,117,117,9/9/18 19:50,600,The main experiment item,yes,FlankerTask.osexp,E:/,no,mono,no,18,no,white,no,yes,768,legacy,37,79,E:/kg-subject-1.csv,legacy,Kafkaesque Koffka,3.2.5,0,h,NA,l,j,NA,h,504,NA,309142,37271,NA,504,2,legacy,1024,2,48000,-16,experiment,1,odd,312024,513403,NA,575309,586943,588132,542009,2872,NA,588138,2880,476128,NA,588252,588761,588251,Flanker Task,111,74086,118,yes,1024
Congruent,HHHHH,94.11764706,94.11764706,626.2521008,626.2521008,black,legacy,legacy,legacy,0,uniform,1,undefined,1,h,0,0,0,118,118,118,118,0,0,118,0,0,0,118,118,118,9/9/18 19:50,600,The main experiment item,yes,FlankerTask.osexp,E:/,no,mono,no,18,no,white,no,yes,768,legacy,38,79,E:/kg-subject-1.csv,legacy,Kafkaesque Koffka,3.2.5,0,h,NA,l,j,NA,h,438,NA,309142,37271,NA,438,2,legacy,1024,2,48000,-16,experiment,1,odd,312024,513403,NA,575309,588774,589967,542009,2872,NA,589972,2880,476128,NA,590086,590529,590084,Flanker Task,112,74524,119,yes,1024
Congruent,SSSSS,94.16666667,94.16666667,625.475,625.475,black,legacy,legacy,legacy,0,uniform,1,undefined,1,s,0,0,0,119,119,119,119,0,0,119,0,0,0,119,119,119,9/9/18 19:50,600,The main experiment item,yes,FlankerTask.osexp,E:/,no,mono,no,18,no,white,no,yes,768,legacy,39,79,E:/kg-subject-1.csv,legacy,Kafkaesque Koffka,3.2.5,0,s,NA,l,j,NA,s,533,NA,309142,37271,NA,533,2,legacy,1024,2,48000,-16,experiment,1,odd,312024,513403,NA,575309,590542,591740,542009,2872,NA,591746,2880,476128,NA,591859,592397,591857,Flanker Task,113,75057,120,yes,1024
Incongruent,SSHSS,94.21487603,94.21487603,625.5867769,625.5867769,black,legacy,legacy,legacy,0,uniform,1,undefined,1,h,0,0,0,120,120,120,120,0,0,120,0,0,0,120,120,120,9/9/18 19:50,600,The main experiment item,yes,FlankerTask.osexp,E:/,no,mono,no,18,no,white,no,yes,768,legacy,40,79,E:/kg-subject-1.csv,legacy,Kafkaesque Koffka,3.2.5,0,h,NA,l,j,NA,h,639,NA,309142,37271,NA,639,2,legacy,1024,2,48000,-16,experiment,1,odd,312024,513403,NA,575309,592412,593603,542009,2872,NA,593608,2880,476128,NA,593721,594364,593720,Flanker Task,114,75696,121,yes,1024
Incongruent,SSHSS,94.26229508,94.26229508,623.8606557,623.8606557,black,legacy,legacy,legacy,0,uniform,1,undefined,1,h,0,0,0,121,121,121,121,0,0,121,0,0,0,121,121,121,9/9/18 19:50,600,The main experiment item,yes,FlankerTask.osexp,E:/,no,mono,no,18,no,white,no,yes,768,legacy,41,79,E:/kg-subject-1.csv,legacy,Kafkaesque Koffka,3.2.5,0,h,NA,l,j,NA,h,415,NA,309142,37271,NA,415,2,legacy,1024,2,48000,-16,experiment,1,odd,312024,513403,NA,594378,594890,596084,542009,2872,NA,596089,2880,476128,NA,596201,596621,596201,Flanker Task,115,76111,122,yes,1024
Incongruent,SSHSS,94.30894309,94.30894309,623.203252,623.203252,black,legacy,legacy,legacy,0,uniform,1,undefined,1,h,0,0,0,122,122,122,122,0,0,122,0,0,0,122,122,122,9/9/18 19:50,600,The main experiment item,yes,FlankerTask.osexp,E:/,no,mono,no,18,no,white,no,yes,768,legacy,42,79,E:/kg-subject-1.csv,legacy,Kafkaesque Koffka,3.2.5,0,h,NA,l,j,NA,h,543,NA,309142,37271,NA,543,2,legacy,1024,2,48000,-16,experiment,1,odd,312024,513403,NA,594378,596634,597846,542009,2872,NA,597852,2880,476128,NA,597966,598514,597964,Flanker Task,116,76654,123,yes,1024
Incongruent,HHSHH,94.35483871,94.35483871,622.9032258,622.9032258,black,legacy,legacy,legacy,0,uniform,1,undefined,1,s,0,0,0,123,123,123,123,0,0,123,0,0,0,123,123,123,9/9/18 19:50,600,The main experiment item,yes,FlankerTask.osexp,E:/,no,mono,no,18,no,white,no,yes,768,legacy,43,79,E:/kg-subject-1.csv,legacy,Kafkaesque Koffka,3.2.5,0,s,NA,l,j,NA,s,586,NA,309142,37271,NA,586,2,legacy,1024,2,48000,-16,experiment,1,odd,312024,513403,NA,594378,598527,599721,542009,2872,NA,599727,2880,476128,NA,599841,600432,599839,Flanker Task,117,77240,124,yes,1024
Congruent,HHHHH,94.4,94.4,621.344,621.344,black,legacy,legacy,legacy,0,uniform,1,undefined,1,h,0,0,0,124,124,124,124,0,0,124,0,0,0,124,124,124,9/9/18 19:50,600,The main experiment item,yes,FlankerTask.osexp,E:/,no,mono,no,18,no,white,no,yes,768,legacy,44,79,E:/kg-subject-1.csv,legacy,Kafkaesque Koffka,3.2.5,0,h,NA,l,j,NA,h,428,NA,309142,37271,NA,428,2,legacy,1024,2,48000,-16,experiment,1,odd,312024,513403,NA,594378,600445,601637,542009,2872,NA,601642,2880,476128,NA,601753,602186,601752,Flanker Task,118,77668,125,yes,1024
Incongruent,HHSHH,94.44444444,94.44444444,621.3650794,621.3650794,black,legacy,legacy,legacy,0,uniform,1,undefined,1,s,0,0,0,125,125,125,125,0,0,125,0,0,0,125,125,125,9/9/18 19:50,600,The main experiment item,yes,FlankerTask.osexp,E:/,no,mono,no,18,no,white,no,yes,768,legacy,45,79,E:/kg-subject-1.csv,legacy,Kafkaesque Koffka,3.2.5,0,s,NA,l,j,NA,s,624,NA,309142,37271,NA,624,2,legacy,1024,2,48000,-16,experiment,1,odd,312024,513403,NA,594378,602199,603392,542009,2872,NA,603398,2880,476128,NA,603512,604141,603510,Flanker Task,119,78292,126,yes,1024
Congruent,SSSSS,94.48818898,94.48818898,621.4645669,621.4645669,black,legacy,legacy,legacy,0,uniform,1,undefined,1,s,0,0,0,126,126,126,126,0,0,126,0,0,0,126,126,126,9/9/18 19:50,600,The main experiment item,yes,FlankerTask.osexp,E:/,no,mono,no,18,no,white,no,yes,768,legacy,46,79,E:/kg-subject-1.csv,legacy,Kafkaesque Koffka,3.2.5,0,s,NA,l,j,NA,s,634,NA,309142,37271,NA,634,2,legacy,1024,2,48000,-16,experiment,1,odd,312024,513403,NA,604211,604724,605916,542009,2872,NA,605921,2880,476128,NA,606034,606674,606033,Flanker Task,120,78926,127,yes,1024
Incongruent,SSHSS,94.53125,94.53125,621.28125,621.28125,black,legacy,legacy,legacy,0,uniform,1,undefined,1,h,0,0,0,127,127,127,127,0,0,127,0,0,0,127,127,127,9/9/18 19:50,600,The main experiment item,yes,FlankerTask.osexp,E:/,no,mono,no,18,no,white,no,yes,768,legacy,47,79,E:/kg-subject-1.csv,legacy,Kafkaesque Koffka,3.2.5,0,h,NA,l,j,NA,h,598,NA,309142,37271,NA,598,2,legacy,1024,2,48000,-16,experiment,1,odd,312024,513403,NA,606687,607199,608407,542009,2872,NA,608412,2880,476128,NA,608525,609129,608524,Flanker Task,121,79524,128,yes,1024
Incongruent,HHSHH,94.57364341,94.57364341,621.1860465,621.1860465,black,legacy,legacy,legacy,0,uniform,1,undefined,1,s,0,0,0,128,128,128,128,0,0,128,0,0,0,128,128,128,9/9/18 19:50,600,The main experiment item,yes,FlankerTask.osexp,E:/,no,mono,no,18,no,white,no,yes,768,legacy,48,79,E:/kg-subject-1.csv,legacy,Kafkaesque Koffka,3.2.5,0,s,NA,l,j,NA,s,609,NA,309142,37271,NA,609,2,legacy,1024,2,48000,-16,experiment,1,odd,312024,513403,NA,606687,609144,610360,542009,2872,NA,610365,2880,476128,NA,610470,611085,610470,Flanker Task,122,80133,129,yes,1024
Incongruent,HHSHH,94.61538462,94.61538462,621.1,621.1,black,legacy,legacy,legacy,0,uniform,1,undefined,1,s,0,0,0,129,129,129,129,0,0,129,0,0,0,129,129,129,9/9/18 19:50,600,The main experiment item,yes,FlankerTask.osexp,E:/,no,mono,no,18,no,white,no,yes,768,legacy,49,79,E:/kg-subject-1.csv,legacy,Kafkaesque Koffka,3.2.5,0,s,NA,l,j,NA,s,610,NA,309142,37271,NA,610,2,legacy,1024,2,48000,-16,experiment,1,odd,312024,513403,NA,611097,611601,612814,542009,2872,NA,612820,2880,476128,NA,612927,613543,612927,Flanker Task,123,80743,130,yes,1024
Congruent,SSSSS,94.65648855,94.65648855,619.1755725,619.1755725,black,legacy,legacy,legacy,0,uniform,1,undefined,1,s,0,0,0,130,130,130,130,0,0,130,0,0,0,130,130,130,9/9/18 19:50,600,The main experiment item,yes,FlankerTask.osexp,E:/,no,mono,no,18,no,white,no,yes,768,legacy,50,79,E:/kg-subject-1.csv,legacy,Kafkaesque Koffka,3.2.5,0,s,NA,l,j,NA,s,369,NA,309142,37271,NA,369,2,legacy,1024,2,48000,-16,experiment,1,odd,312024,513403,NA,613555,614059,615273,542009,2872,NA,615278,2880,476128,NA,615386,615760,615386,Flanker Task,124,81112,131,yes,1024
Incongruent,HHSHH,93.93939394,93.93939394,617.5984848,617.5984848,black,legacy,legacy,legacy,0,uniform,0,undefined,0,s,0,0,0,131,131,131,131,0,0,131,0,0,0,131,131,131,9/9/18 19:50,600,The main experiment item,yes,FlankerTask.osexp,E:/,no,mono,no,18,no,white,no,yes,768,legacy,51,79,E:/kg-subject-1.csv,legacy,Kafkaesque Koffka,3.2.5,0,h,NA,l,j,NA,h,411,NA,309142,37271,NA,411,2,legacy,1024,2,48000,-16,experiment,1,odd,312024,513403,NA,613555,615776,616990,542009,2872,NA,616996,2880,476128,NA,617100,617516,617099,Flanker Task,124,81523,132,yes,1024
Congruent,HHHHH,93.98496241,93.98496241,616.7142857,616.7142857,black,legacy,legacy,legacy,0,uniform,1,undefined,1,h,0,0,0,132,132,132,132,0,0,132,0,0,0,132,132,132,9/9/18 19:50,600,The main experiment item,yes,FlankerTask.osexp,E:/,no,mono,no,18,no,white,no,yes,768,legacy,52,79,E:/kg-subject-1.csv,legacy,Kafkaesque Koffka,3.2.5,0,h,NA,l,j,NA,h,500,NA,309142,37271,NA,500,2,legacy,1024,2,48000,-16,experiment,1,odd,312024,513403,NA,613555,618042,619260,617530,2872,NA,619266,2880,476128,NA,619380,619885,619378,Flanker Task,125,82023,133,yes,1024
Congruent,HHHHH,94.02985075,94.02985075,616.1791045,616.1791045,black,legacy,legacy,legacy,0,uniform,1,undefined,1,h,0,0,0,133,133,133,133,0,0,133,0,0,0,133,133,133,9/9/18 19:50,600,The main experiment item,yes,FlankerTask.osexp,E:/,no,mono,no,18,no,white,no,yes,768,legacy,53,79,E:/kg-subject-1.csv,legacy,Kafkaesque Koffka,3.2.5,0,h,NA,l,j,NA,h,545,NA,309142,37271,NA,545,2,legacy,1024,2,48000,-16,experiment,1,odd,312024,513403,NA,613555,619897,621107,617530,2872,NA,621113,2880,476128,NA,621226,621777,621225,Flanker Task,126,82568,134,yes,1024
Incongruent,HHSHH,94.07407407,94.07407407,615.6962963,615.6962963,black,legacy,legacy,legacy,0,uniform,1,undefined,1,s,0,0,0,134,134,134,134,0,0,134,0,0,0,134,134,134,9/9/18 19:50,600,The main experiment item,yes,FlankerTask.osexp,E:/,no,mono,no,18,no,white,no,yes,768,legacy,54,79,E:/kg-subject-1.csv,legacy,Kafkaesque Koffka,3.2.5,0,s,NA,l,j,NA,s,551,NA,309142,37271,NA,551,2,legacy,1024,2,48000,-16,experiment,1,odd,312024,513403,NA,613555,621792,622995,617530,2872,NA,623001,2880,476128,NA,623112,623668,623112,Flanker Task,127,83119,135,yes,1024
Congruent,SSSSS,94.11764706,94.11764706,614.3455882,614.3455882,black,legacy,legacy,legacy,0,uniform,1,undefined,1,s,0,0,0,135,135,135,135,0,0,135,0,0,0,135,135,135,9/9/18 19:50,600,The main experiment item,yes,FlankerTask.osexp,E:/,no,mono,no,18,no,white,no,yes,768,legacy,55,79,E:/kg-subject-1.csv,legacy,Kafkaesque Koffka,3.2.5,0,s,NA,l,j,NA,s,432,NA,309142,37271,NA,432,2,legacy,1024,2,48000,-16,experiment,1,odd,312024,513403,NA,613555,623681,624887,617530,2872,NA,624892,2880,476128,NA,624997,625434,624997,Flanker Task,128,83551,136,yes,1024
Incongruent,SSHSS,94.16058394,94.16058394,614.4452555,614.4452555,black,legacy,legacy,legacy,0,uniform,1,undefined,1,h,0,0,0,136,136,136,136,0,0,136,0,0,0,136,136,136,9/9/18 19:50,600,The main experiment item,yes,FlankerTask.osexp,E:/,no,mono,no,18,no,white,no,yes,768,legacy,56,79,E:/kg-subject-1.csv,legacy,Kafkaesque Koffka,3.2.5,0,h,NA,l,j,NA,h,628,NA,309142,37271,NA,628,2,legacy,1024,2,48000,-16,experiment,1,odd,312024,513403,NA,613555,625447,626660,617530,2872,NA,626665,2880,476128,NA,626769,627403,626768,Flanker Task,129,84179,137,yes,1024
Incongruent,SSHSS,94.20289855,94.20289855,613.5797101,613.5797101,black,legacy,legacy,legacy,0,uniform,1,undefined,1,h,0,0,0,137,137,137,137,0,0,137,0,0,0,137,137,137,9/9/18 19:50,600,The main experiment item,yes,FlankerTask.osexp,E:/,no,mono,no,18,no,white,no,yes,768,legacy,57,79,E:/kg-subject-1.csv,legacy,Kafkaesque Koffka,3.2.5,0,h,NA,l,j,NA,h,495,NA,309142,37271,NA,495,2,legacy,1024,2,48000,-16,experiment,1,odd,312024,513403,NA,627416,627929,629137,617530,2872,NA,629143,2880,476128,NA,629248,629748,629248,Flanker Task,130,84674,138,yes,1024
Congruent,SSSSS,94.24460432,94.24460432,613.1654676,613.1654676,black,legacy,legacy,legacy,0,uniform,1,undefined,1,s,0,0,0,138,138,138,138,0,0,138,0,0,0,138,138,138,9/9/18 19:50,600,The main experiment item,yes,FlankerTask.osexp,E:/,no,mono,no,18,no,white,no,yes,768,legacy,58,79,E:/kg-subject-1.csv,legacy,Kafkaesque Koffka,3.2.5,0,s,NA,l,j,NA,s,556,NA,309142,37271,NA,556,2,legacy,1024,2,48000,-16,experiment,1,odd,312024,513403,NA,627416,629764,630968,617530,2872,NA,630974,2880,476128,NA,631078,631640,631078,Flanker Task,131,85230,139,yes,1024
Congruent,HHHHH,94.28571429,94.28571429,611.75,611.75,black,legacy,legacy,legacy,0,uniform,1,undefined,1,h,0,0,0,139,139,139,139,0,0,139,0,0,0,139,139,139,9/9/18 19:50,600,The main experiment item,yes,FlankerTask.osexp,E:/,no,mono,no,18,no,white,no,yes,768,legacy,59,79,E:/kg-subject-1.csv,legacy,Kafkaesque Koffka,3.2.5,0,h,NA,l,j,NA,h,415,NA,309142,37271,NA,415,2,legacy,1024,2,48000,-16,experiment,1,odd,312024,513403,NA,627416,631653,632863,617530,2872,NA,632869,2880,476128,NA,632973,633395,632972,Flanker Task,132,85645,140,yes,1024
Congruent,SSSSS,94.32624113,94.32624113,611.3333333,611.3333333,black,legacy,legacy,legacy,0,uniform,1,undefined,1,s,0,0,0,140,140,140,140,0,0,140,0,0,0,140,140,140,9/9/18 19:50,600,The main experiment item,yes,FlankerTask.osexp,E:/,no,mono,no,18,no,white,no,yes,768,legacy,60,79,E:/kg-subject-1.csv,legacy,Kafkaesque Koffka,3.2.5,0,s,NA,l,j,NA,s,553,NA,309142,37271,NA,553,2,legacy,1024,2,48000,-16,experiment,1,odd,312024,513403,NA,627416,633409,634604,617530,2872,NA,634610,2880,476128,NA,634715,635274,634715,Flanker Task,133,86198,141,yes,1024
Congruent,SSSSS,94.36619718,94.36619718,610.3450704,610.3450704,black,legacy,legacy,legacy,0,uniform,1,undefined,1,s,0,0,0,141,141,141,141,0,0,141,0,0,0,141,141,141,9/9/18 19:50,600,The main experiment item,yes,FlankerTask.osexp,E:/,no,mono,no,18,no,white,no,yes,768,legacy,61,79,E:/kg-subject-1.csv,legacy,Kafkaesque Koffka,3.2.5,0,s,NA,l,j,NA,s,471,NA,309142,37271,NA,471,2,legacy,1024,2,48000,-16,experiment,1,odd,312024,513403,NA,627416,635289,636509,617530,2872,NA,636514,2880,476128,NA,636627,637104,636626,Flanker Task,134,86669,142,yes,1024
Congruent,SSSSS,94.40559441,94.40559441,609.1608392,609.1608392,black,legacy,legacy,legacy,0,uniform,1,undefined,1,s,0,0,0,142,142,142,142,0,0,142,0,0,0,142,142,142,9/9/18 19:50,600,The main experiment item,yes,FlankerTask.osexp,E:/,no,mono,no,18,no,white,no,yes,768,legacy,62,79,E:/kg-subject-1.csv,legacy,Kafkaesque Koffka,3.2.5,0,s,NA,l,j,NA,s,441,NA,309142,37271,NA,441,2,legacy,1024,2,48000,-16,experiment,1,odd,312024,513403,NA,627416,637117,638342,617530,2872,NA,638347,2880,476128,NA,638461,638908,638460,Flanker Task,135,87110,143,yes,1024
Incongruent,SSHSS,93.75,93.75,606.3472222,606.3472222,black,legacy,legacy,legacy,0,uniform,0,undefined,0,h,0,0,0,143,143,143,143,0,0,143,0,0,0,143,143,143,9/9/18 19:50,600,The main experiment item,yes,FlankerTask.osexp,E:/,no,mono,no,18,no,white,no,yes,768,legacy,63,79,E:/kg-subject-1.csv,legacy,Kafkaesque Koffka,3.2.5,0,s,NA,l,j,NA,s,204,NA,309142,37271,NA,204,2,legacy,1024,2,48000,-16,experiment,1,odd,312024,513403,NA,627416,638921,640130,617530,2872,NA,640135,2880,476128,NA,640239,640448,640238,Flanker Task,135,87314,144,yes,1024
Incongruent,SSHSS,93.79310345,93.79310345,605.8482759,605.8482759,black,legacy,legacy,legacy,0,uniform,1,undefined,1,h,0,0,0,144,144,144,144,0,0,144,0,0,0,144,144,144,9/9/18 19:50,600,The main experiment item,yes,FlankerTask.osexp,E:/,no,mono,no,18,no,white,no,yes,768,legacy,64,79,E:/kg-subject-1.csv,legacy,Kafkaesque Koffka,3.2.5,0,h,NA,l,j,NA,h,534,NA,309142,37271,NA,534,2,legacy,1024,2,48000,-16,experiment,1,odd,312024,513403,NA,627416,640967,642160,640461,2872,NA,642166,2880,476128,NA,642279,642818,642278,Flanker Task,136,87848,145,yes,1024
Congruent,HHHHH,93.83561644,93.83561644,604.9657534,604.9657534,black,legacy,legacy,legacy,0,uniform,1,undefined,1,h,0,0,0,145,145,145,145,0,0,145,0,0,0,145,145,145,9/9/18 19:50,600,The main experiment item,yes,FlankerTask.osexp,E:/,no,mono,no,18,no,white,no,yes,768,legacy,65,79,E:/kg-subject-1.csv,legacy,Kafkaesque Koffka,3.2.5,0,h,NA,l,j,NA,h,477,NA,309142,37271,NA,477,2,legacy,1024,2,48000,-16,experiment,1,odd,312024,513403,NA,627416,642831,644033,640461,2872,NA,644039,2880,476128,NA,644152,644635,644151,Flanker Task,137,88325,146,yes,1024
Incongruent,HHSHH,93.87755102,93.87755102,604.3537415,604.3537415,black,legacy,legacy,legacy,0,uniform,1,undefined,1,s,0,0,0,146,146,146,146,0,0,146,0,0,0,146,146,146,9/9/18 19:50,600,The main experiment item,yes,FlankerTask.osexp,E:/,no,mono,no,18,no,white,no,yes,768,legacy,66,79,E:/kg-subject-1.csv,legacy,Kafkaesque Koffka,3.2.5,0,s,NA,l,j,NA,s,515,NA,309142,37271,NA,515,2,legacy,1024,2,48000,-16,experiment,1,odd,312024,513403,NA,627416,644648,645840,640461,2872,NA,645845,2880,476128,NA,645959,646479,645958,Flanker Task,138,88840,147,yes,1024
Congruent,SSSSS,93.91891892,93.91891892,603.1283784,603.1283784,black,legacy,legacy,legacy,0,uniform,1,undefined,1,s,0,0,0,147,147,147,147,0,0,147,0,0,0,147,147,147,9/9/18 19:50,600,The main experiment item,yes,FlankerTask.osexp,E:/,no,mono,no,18,no,white,no,yes,768,legacy,67,79,E:/kg-subject-1.csv,legacy,Kafkaesque Koffka,3.2.5,0,s,NA,l,j,NA,s,423,NA,309142,37271,NA,423,2,legacy,1024,2,48000,-16,experiment,1,odd,312024,513403,NA,627416,646492,647685,640461,2872,NA,647690,2880,476128,NA,647803,648232,647802,Flanker Task,139,89263,148,yes,1024
Congruent,SSSSS,93.95973154,93.95973154,602,602,black,legacy,legacy,legacy,0,uniform,1,undefined,1,s,0,0,0,148,148,148,148,0,0,148,0,0,0,148,148,148,9/9/18 19:50,600,The main experiment item,yes,FlankerTask.osexp,E:/,no,mono,no,18,no,white,no,yes,768,legacy,68,79,E:/kg-subject-1.csv,legacy,Kafkaesque Koffka,3.2.5,0,s,NA,l,j,NA,s,435,NA,309142,37271,NA,435,2,legacy,1024,2,48000,-16,experiment,1,odd,312024,513403,NA,627416,648245,649440,640461,2872,NA,649446,2880,476128,NA,649558,649998,649558,Flanker Task,140,89698,149,yes,1024
Incongruent,HHSHH,94,94,601.3933333,601.3933333,black,legacy,legacy,legacy,0,uniform,1,undefined,1,s,0,0,0,149,149,149,149,0,0,149,0,0,0,149,149,149,9/9/18 19:50,600,The main experiment item,yes,FlankerTask.osexp,E:/,no,mono,no,18,no,white,no,yes,768,legacy,69,79,E:/kg-subject-1.csv,legacy,Kafkaesque Koffka,3.2.5,0,s,NA,l,j,NA,s,511,NA,309142,37271,NA,511,2,legacy,1024,2,48000,-16,experiment,1,odd,312024,513403,NA,627416,650014,651226,640461,2872,NA,651232,2880,476128,NA,651336,651853,651335,Flanker Task,141,90209,150,yes,1024
Congruent,HHHHH,94.0397351,94.0397351,600.4370861,600.4370861,black,legacy,legacy,legacy,0,uniform,1,undefined,1,h,0,0,0,150,150,150,150,0,0,150,0,0,0,150,150,150,9/9/18 19:50,600,The main experiment item,yes,FlankerTask.osexp,E:/,no,mono,no,18,no,white,no,yes,768,legacy,70,79,E:/kg-subject-1.csv,legacy,Kafkaesque Koffka,3.2.5,0,h,NA,l,j,NA,h,457,NA,309142,37271,NA,457,2,legacy,1024,2,48000,-16,experiment,1,odd,312024,513403,NA,627416,651866,653076,640461,2872,NA,653082,2880,476128,NA,653194,653657,653193,Flanker Task,142,90666,151,yes,1024
Incongruent,SSHSS,93.42105263,93.42105263,599.8486842,599.8486842,black,legacy,legacy,legacy,0,uniform,0,undefined,0,h,0,0,0,151,151,151,151,0,0,151,0,0,0,151,151,151,9/9/18 19:50,600,The main experiment item,yes,FlankerTask.osexp,E:/,no,mono,no,18,no,white,no,yes,768,legacy,71,79,E:/kg-subject-1.csv,legacy,Kafkaesque Koffka,3.2.5,0,s,NA,l,j,NA,s,511,NA,309142,37271,NA,511,2,legacy,1024,2,48000,-16,experiment,1,odd,312024,513403,NA,627416,653671,654900,640461,2872,NA,654906,2880,476128,NA,655019,655536,655017,Flanker Task,142,91177,152,yes,1024
Incongruent,HHSHH,93.46405229,93.46405229,602.8823529,602.8823529,black,legacy,legacy,legacy,0,uniform,1,undefined,1,s,0,0,0,152,152,152,152,0,0,152,0,0,0,152,152,152,9/9/18 19:50,600,The main experiment item,yes,FlankerTask.osexp,E:/,no,mono,no,18,no,white,no,yes,768,legacy,72,79,E:/kg-subject-1.csv,legacy,Kafkaesque Koffka,3.2.5,0,s,NA,l,j,NA,s,1064,NA,309142,37271,NA,1064,2,legacy,1024,2,48000,-16,experiment,1,odd,312024,513403,NA,627416,656053,657255,655549,2872,NA,657261,2880,476128,NA,657373,658443,657372,Flanker Task,143,92241,153,yes,1024
Congruent,HHHHH,93.50649351,93.50649351,604.1298701,604.1298701,black,legacy,legacy,legacy,0,uniform,1,undefined,1,h,0,0,0,153,153,153,153,0,0,153,0,0,0,153,153,153,9/9/18 19:50,600,The main experiment item,yes,FlankerTask.osexp,E:/,no,mono,no,18,no,white,no,yes,768,legacy,73,79,E:/kg-subject-1.csv,legacy,Kafkaesque Koffka,3.2.5,0,h,NA,l,j,NA,h,795,NA,309142,37271,NA,795,2,legacy,1024,2,48000,-16,experiment,1,odd,312024,513403,NA,658459,658963,660176,655549,2872,NA,660182,2880,476128,NA,660286,661087,660286,Flanker Task,144,93036,154,yes,1024
Congruent,SSSSS,93.5483871,93.5483871,603.9483871,603.9483871,black,legacy,legacy,legacy,0,uniform,1,undefined,1,s,0,0,0,154,154,154,154,0,0,154,0,0,0,154,154,154,9/9/18 19:50,600,The main experiment item,yes,FlankerTask.osexp,E:/,no,mono,no,18,no,white,no,yes,768,legacy,74,79,E:/kg-subject-1.csv,legacy,Kafkaesque Koffka,3.2.5,0,s,NA,l,j,NA,s,576,NA,309142,37271,NA,576,2,legacy,1024,2,48000,-16,experiment,1,odd,312024,513403,NA,661100,661612,662812,655549,2872,NA,662818,2880,476128,NA,662923,663505,662922,Flanker Task,145,93612,155,yes,1024
Congruent,SSSSS,93.58974359,93.58974359,603.0448718,603.0448718,black,legacy,legacy,legacy,0,uniform,1,undefined,1,s,0,0,0,155,155,155,155,0,0,155,0,0,0,155,155,155,9/9/18 19:50,600,The main experiment item,yes,FlankerTask.osexp,E:/,no,mono,no,18,no,white,no,yes,768,legacy,75,79,E:/kg-subject-1.csv,legacy,Kafkaesque Koffka,3.2.5,0,s,NA,l,j,NA,s,463,NA,309142,37271,NA,463,2,legacy,1024,2,48000,-16,experiment,1,odd,312024,513403,NA,661100,663518,664713,655549,2872,NA,664718,2880,476128,NA,664828,665297,664827,Flanker Task,146,94075,156,yes,1024
Incongruent,HHSHH,93.63057325,93.63057325,602.9235669,602.9235669,black,legacy,legacy,legacy,0,uniform,1,undefined,1,s,0,0,0,156,156,156,156,0,0,156,0,0,0,156,156,156,9/9/18 19:50,600,The main experiment item,yes,FlankerTask.osexp,E:/,no,mono,no,18,no,white,no,yes,768,legacy,76,79,E:/kg-subject-1.csv,legacy,Kafkaesque Koffka,3.2.5,0,s,NA,l,j,NA,s,584,NA,309142,37271,NA,584,2,legacy,1024,2,48000,-16,experiment,1,odd,312024,513403,NA,661100,665312,666518,655549,2872,NA,666524,2880,476128,NA,666637,667227,666636,Flanker Task,147,94659,157,yes,1024
Congruent,SSSSS,93.67088608,93.67088608,601.9177215,601.9177215,black,legacy,legacy,legacy,0,uniform,1,undefined,1,s,0,0,0,157,157,157,157,0,0,157,0,0,0,157,157,157,9/9/18 19:50,600,The main experiment item,yes,FlankerTask.osexp,E:/,no,mono,no,18,no,white,no,yes,768,legacy,77,79,E:/kg-subject-1.csv,legacy,Kafkaesque Koffka,3.2.5,0,s,NA,l,j,NA,s,444,NA,309142,37271,NA,444,2,legacy,1024,2,48000,-16,experiment,1,odd,312024,513403,NA,661100,667240,668437,655549,2872,NA,668443,2880,476128,NA,668555,669005,668555,Flanker Task,148,95103,158,yes,1024
Incongruent,HHSHH,93.71069182,93.71069182,601.490566,601.490566,black,legacy,legacy,legacy,0,uniform,1,undefined,1,s,0,0,0,158,158,158,158,0,0,158,0,0,0,158,158,158,9/9/18 19:50,600,The main experiment item,yes,FlankerTask.osexp,E:/,no,mono,no,18,no,white,no,yes,768,legacy,78,79,E:/kg-subject-1.csv,legacy,Kafkaesque Koffka,3.2.5,0,s,NA,l,j,NA,s,534,NA,309142,37271,NA,534,2,legacy,1024,2,48000,-16,experiment,1,odd,312024,513403,NA,661100,669018,670214,655549,2872,NA,670219,2880,476128,NA,670331,670871,670331,Flanker Task,149,95637,159,yes,1024
Incongruent,HHSHH,93.75,93.75,600.61875,600.61875,black,legacy,legacy,legacy,0,uniform,1,undefined,1,s,0,0,0,159,159,159,159,0,0,159,0,0,0,159,159,159,9/9/18 19:50,600,The main experiment item,yes,FlankerTask.osexp,E:/,no,mono,no,18,no,white,no,yes,768,legacy,79,79,E:/kg-subject-1.csv,legacy,Kafkaesque Koffka,3.2.5,0,s,NA,l,j,NA,s,462,NA,309142,37271,NA,462,2,legacy,1024,2,48000,-16,experiment,1,odd,312024,513403,NA,661100,670884,672080,655549,2872,NA,672086,2880,476128,NA,672195,672663,672194,Flanker Task,150,96099,160,yes,1024
Congruent,HHHHH,93.78881988,93.78881988,599.7080745,599.7080745,black,legacy,legacy,legacy,0,uniform,1,undefined,1,h,0,0,0,160,160,160,160,0,0,160,0,0,0,160,160,160,9/9/18 19:50,300,The main experiment item,yes,FlankerTask.osexp,E:/,no,mono,no,18,no,white,no,yes,768,legacy,0,79,E:/kg-subject-1.csv,legacy,Kafkaesque Koffka,3.2.5,0,h,NA,l,j,h,h,454,NA,309142,37271,31074,454,2,legacy,1024,2,48000,-16,experiment,1,odd,312024,513403,704802,661100,672676,705020,655549,2872,NA,705025,2880,476128,673721,705136,705596,705134,Flanker Task,151,96553,161,yes,1024
Incongruent,SSHSS,93.20987654,93.20987654,598.6111111,598.6111111,black,legacy,legacy,legacy,0,uniform,0,undefined,0,h,0,0,0,161,161,161,161,0,0,161,0,0,0,161,161,161,9/9/18 19:50,300,The main experiment item,yes,FlankerTask.osexp,E:/,no,mono,no,18,no,white,no,yes,768,legacy,1,79,E:/kg-subject-1.csv,legacy,Kafkaesque Koffka,3.2.5,0,s,NA,l,j,h,s,422,NA,309142,37271,31074,422,2,legacy,1024,2,48000,-16,experiment,1,odd,312024,513403,704802,705612,706116,707329,655549,2872,NA,707335,2880,476128,673721,707448,707877,707447,Flanker Task,151,96975,162,yes,1024
Incongruent,HHSHH,92.63803681,92.63803681,597.0552147,597.0552147,black,legacy,legacy,legacy,0,uniform,0,undefined,0,s,0,0,0,162,162,162,162,0,0,162,0,0,0,162,162,162,9/9/18 19:50,300,The main experiment item,yes,FlankerTask.osexp,E:/,no,mono,no,18,no,white,no,yes,768,legacy,2,79,E:/kg-subject-1.csv,legacy,Kafkaesque Koffka,3.2.5,0,h,NA,l,j,h,h,345,NA,309142,37271,31074,345,2,legacy,1024,2,48000,-16,experiment,1,odd,312024,513403,704802,708396,708908,710121,707892,2872,NA,710127,2880,476128,673721,710232,710583,710232,Flanker Task,151,97320,163,yes,1024
Congruent,SSSSS,92.68292683,92.68292683,595.9390244,595.9390244,black,legacy,legacy,legacy,0,uniform,1,undefined,1,s,0,0,0,163,163,163,163,0,0,163,0,0,0,163,163,163,9/9/18 19:50,300,The main experiment item,yes,FlankerTask.osexp,E:/,no,mono,no,18,no,white,no,yes,768,legacy,3,79,E:/kg-subject-1.csv,legacy,Kafkaesque Koffka,3.2.5,0,s,NA,l,j,h,s,414,NA,309142,37271,31074,414,2,legacy,1024,2,48000,-16,experiment,1,odd,312024,513403,704802,711105,711612,712814,710595,2872,NA,712819,2880,476128,673721,712930,713350,712929,Flanker Task,152,97734,164,yes,1024
Congruent,SSSSS,92.72727273,92.72727273,594.6545455,594.6545455,black,legacy,legacy,legacy,0,uniform,1,undefined,1,s,0,0,0,164,164,164,164,0,0,164,0,0,0,164,164,164,9/9/18 19:50,300,The main experiment item,yes,FlankerTask.osexp,E:/,no,mono,no,18,no,white,no,yes,768,legacy,4,79,E:/kg-subject-1.csv,legacy,Kafkaesque Koffka,3.2.5,0,s,NA,l,j,h,s,384,NA,309142,37271,31074,384,2,legacy,1024,2,48000,-16,experiment,1,odd,312024,513403,704802,713365,713869,715081,710595,2872,NA,715087,2880,476128,673721,715191,715581,715191,Flanker Task,153,98118,165,yes,1024
Congruent,HHHHH,92.77108434,92.77108434,594.0542169,594.0542169,black,legacy,legacy,legacy,0,uniform,1,undefined,1,h,0,0,0,165,165,165,165,0,0,165,0,0,0,165,165,165,9/9/18 19:50,300,The main experiment item,yes,FlankerTask.osexp,E:/,no,mono,no,18,no,white,no,yes,768,legacy,5,79,E:/kg-subject-1.csv,legacy,Kafkaesque Koffka,3.2.5,0,h,NA,l,j,h,h,495,NA,309142,37271,31074,495,2,legacy,1024,2,48000,-16,experiment,1,odd,312024,513403,704802,715594,716106,717310,710595,2872,NA,717315,2880,476128,673721,717419,717920,717418,Flanker Task,154,98613,166,yes,1024
Congruent,HHHHH,92.81437126,92.81437126,592.9640719,592.9640719,black,legacy,legacy,legacy,0,uniform,1,undefined,1,h,0,0,0,166,166,166,166,0,0,166,0,0,0,166,166,166,9/9/18 19:50,300,The main experiment item,yes,FlankerTask.osexp,E:/,no,mono,no,18,no,white,no,yes,768,legacy,6,79,E:/kg-subject-1.csv,legacy,Kafkaesque Koffka,3.2.5,0,h,NA,l,j,h,h,412,NA,309142,37271,31074,412,2,legacy,1024,2,48000,-16,experiment,1,odd,312024,513403,704802,717933,718440,719630,710595,2872,NA,719636,2880,476128,673721,719749,720168,719748,Flanker Task,155,99025,167,yes,1024
Congruent,HHHHH,92.85714286,92.85714286,591.3869048,591.3869048,black,legacy,legacy,legacy,0,uniform,1,undefined,1,h,0,0,0,167,167,167,167,0,0,167,0,0,0,167,167,167,9/9/18 19:50,300,The main experiment item,yes,FlankerTask.osexp,E:/,no,mono,no,18,no,white,no,yes,768,legacy,7,79,E:/kg-subject-1.csv,legacy,Kafkaesque Koffka,3.2.5,0,h,NA,l,j,h,h,328,NA,309142,37271,31074,328,2,legacy,1024,2,48000,-16,experiment,1,odd,312024,513403,704802,720180,720684,721904,710595,2872,NA,721910,2880,476128,673721,722024,722358,722023,Flanker Task,156,99353,168,yes,1024
Incongruent,HHSHH,92.30769231,92.30769231,590.0591716,590.0591716,black,legacy,legacy,legacy,0,uniform,0,undefined,0,s,0,0,0,168,168,168,168,0,0,168,0,0,0,168,168,168,9/9/18 19:50,300,The main experiment item,yes,FlankerTask.osexp,E:/,no,mono,no,18,no,white,no,yes,768,legacy,8,79,E:/kg-subject-1.csv,legacy,Kafkaesque Koffka,3.2.5,0,h,NA,l,j,h,h,367,NA,309142,37271,31074,367,2,legacy,1024,2,48000,-16,experiment,1,odd,312024,513403,704802,722374,722886,724091,710595,2872,NA,724097,2880,476128,673721,724201,724575,724201,Flanker Task,156,99720,169,yes,1024
Incongruent,SSHSS,92.35294118,92.35294118,589.5352941,589.5352941,black,legacy,legacy,legacy,0,uniform,1,undefined,1,h,0,0,0,169,169,169,169,0,0,169,0,0,0,169,169,169,9/9/18 19:50,300,The main experiment item,yes,FlankerTask.osexp,E:/,no,mono,no,18,no,white,no,yes,768,legacy,9,79,E:/kg-subject-1.csv,legacy,Kafkaesque Koffka,3.2.5,0,h,NA,l,j,h,h,501,NA,309142,37271,31074,501,2,legacy,1024,2,48000,-16,experiment,1,odd,312024,513403,704802,725100,725613,726807,724587,2872,NA,726813,2880,476128,673721,726926,727434,726925,Flanker Task,157,100221,170,yes,1024
Incongruent,HHSHH,92.39766082,92.39766082,589.0877193,589.0877193,black,legacy,legacy,legacy,0,uniform,1,undefined,1,s,0,0,0,170,170,170,170,0,0,170,0,0,0,170,170,170,9/9/18 19:50,300,The main experiment item,yes,FlankerTask.osexp,E:/,no,mono,no,18,no,white,no,yes,768,legacy,10,79,E:/kg-subject-1.csv,legacy,Kafkaesque Koffka,3.2.5,0,s,NA,l,j,h,s,513,NA,309142,37271,31074,513,2,legacy,1024,2,48000,-16,experiment,1,odd,312024,513403,704802,727446,727951,729150,724587,2872,NA,729156,2880,476128,673721,729269,729788,729268,Flanker Task,158,100734,171,yes,1024
Incongruent,SSHSS,92.44186047,92.44186047,588.6744186,588.6744186,black,legacy,legacy,legacy,0,uniform,1,undefined,1,h,0,0,0,171,171,171,171,0,0,171,0,0,0,171,171,171,9/9/18 19:50,300,The main experiment item,yes,FlankerTask.osexp,E:/,no,mono,no,18,no,white,no,yes,768,legacy,11,79,E:/kg-subject-1.csv,legacy,Kafkaesque Koffka,3.2.5,0,h,NA,l,j,h,h,518,NA,309142,37271,31074,518,2,legacy,1024,2,48000,-16,experiment,1,odd,312024,513403,704802,729801,730305,731519,724587,2872,NA,731524,2880,476128,673721,731630,732155,731630,Flanker Task,159,101252,172,yes,1024
Congruent,HHHHH,92.48554913,92.48554913,587.8323699,587.8323699,black,legacy,legacy,legacy,0,uniform,1,undefined,1,h,0,0,0,172,172,172,172,0,0,172,0,0,0,172,172,172,9/9/18 19:50,300,The main experiment item,yes,FlankerTask.osexp,E:/,no,mono,no,18,no,white,no,yes,768,legacy,12,79,E:/kg-subject-1.csv,legacy,Kafkaesque Koffka,3.2.5,0,h,NA,l,j,h,h,443,NA,309142,37271,31074,443,2,legacy,1024,2,48000,-16,experiment,1,odd,312024,513403,704802,732168,732672,733875,724587,2872,NA,733881,2880,476128,673721,733986,734436,733986,Flanker Task,160,101695,173,yes,1024
Congruent,SSSSS,92.52873563,92.52873563,586.591954,586.591954,black,legacy,legacy,legacy,0,uniform,1,undefined,1,s,0,0,0,173,173,173,173,0,0,173,0,0,0,173,173,173,9/9/18 19:50,300,The main experiment item,yes,FlankerTask.osexp,E:/,no,mono,no,18,no,white,no,yes,768,legacy,13,79,E:/kg-subject-1.csv,legacy,Kafkaesque Koffka,3.2.5,0,s,NA,l,j,h,s,372,NA,309142,37271,31074,372,2,legacy,1024,2,48000,-16,experiment,1,odd,312024,513403,704802,734449,734954,736164,724587,2872,NA,736170,2880,476128,673721,736275,736653,736274,Flanker Task,161,102067,174,yes,1024
Congruent,HHHHH,92.57142857,92.57142857,586.1428571,586.1428571,black,legacy,legacy,legacy,0,uniform,1,undefined,1,h,0,0,0,174,174,174,174,0,0,174,0,0,0,174,174,174,9/9/18 19:50,300,The main experiment item,yes,FlankerTask.osexp,E:/,no,mono,no,18,no,white,no,yes,768,legacy,14,79,E:/kg-subject-1.csv,legacy,Kafkaesque Koffka,3.2.5,0,h,NA,l,j,h,h,508,NA,309142,37271,31074,508,2,legacy,1024,2,48000,-16,experiment,1,odd,312024,513403,704802,736670,737182,738376,724587,2872,NA,738381,2880,476128,673721,738493,739007,738492,Flanker Task,162,102575,175,yes,1024
Congruent,HHHHH,92.61363636,92.61363636,585.0056818,585.0056818,black,legacy,legacy,legacy,0,uniform,1,undefined,1,h,0,0,0,175,175,175,175,0,0,175,0,0,0,175,175,175,9/9/18 19:50,300,The main experiment item,yes,FlankerTask.osexp,E:/,no,mono,no,18,no,white,no,yes,768,legacy,15,79,E:/kg-subject-1.csv,legacy,Kafkaesque Koffka,3.2.5,0,h,NA,l,j,h,h,386,NA,309142,37271,31074,386,2,legacy,1024,2,48000,-16,experiment,1,odd,312024,513403,704802,739020,739532,740726,724587,2872,NA,740732,2880,476128,673721,740846,741239,740844,Flanker Task,163,102961,176,yes,1024
Congruent,SSSSS,92.65536723,92.65536723,584.9152542,584.9152542,black,legacy,legacy,legacy,0,uniform,1,undefined,1,s,0,0,0,176,176,176,176,0,0,176,0,0,0,176,176,176,9/9/18 19:50,300,The main experiment item,yes,FlankerTask.osexp,E:/,no,mono,no,18,no,white,no,yes,768,legacy,16,79,E:/kg-subject-1.csv,legacy,Kafkaesque Koffka,3.2.5,0,s,NA,l,j,h,s,569,NA,309142,37271,31074,569,2,legacy,1024,2,48000,-16,experiment,1,odd,312024,513403,704802,741252,741755,742964,724587,2872,NA,742970,2880,476128,673721,743080,743656,743079,Flanker Task,164,103530,177,yes,1024
Congruent,HHHHH,92.69662921,92.69662921,583.8483146,583.8483146,black,legacy,legacy,legacy,0,uniform,1,undefined,1,h,0,0,0,177,177,177,177,0,0,177,0,0,0,177,177,177,9/9/18 19:50,300,The main experiment item,yes,FlankerTask.osexp,E:/,no,mono,no,18,no,white,no,yes,768,legacy,17,79,E:/kg-subject-1.csv,legacy,Kafkaesque Koffka,3.2.5,0,h,NA,l,j,h,h,395,NA,309142,37271,31074,395,2,legacy,1024,2,48000,-16,experiment,1,odd,312024,513403,704802,743668,744172,745384,724587,2872,NA,745389,2880,476128,673721,745495,745897,745495,Flanker Task,165,103925,178,yes,1024
Congruent,SSSSS,92.73743017,92.73743017,583.3854749,583.3854749,black,legacy,legacy,legacy,0,uniform,1,undefined,1,s,0,0,0,178,178,178,178,0,0,178,0,0,0,178,178,178,9/9/18 19:50,300,The main experiment item,yes,FlankerTask.osexp,E:/,no,mono,no,18,no,white,no,yes,768,legacy,18,79,E:/kg-subject-1.csv,legacy,Kafkaesque Koffka,3.2.5,0,s,NA,l,j,h,s,501,NA,309142,37271,31074,501,2,legacy,1024,2,48000,-16,experiment,1,odd,312024,513403,704802,745911,746418,747635,724587,2872,NA,747641,2880,476128,673721,747745,748254,747745,Flanker Task,166,104426,179,yes,1024
Congruent,SSSSS,92.77777778,92.77777778,582.35,582.35,black,legacy,legacy,legacy,0,uniform,1,undefined,1,s,0,0,0,179,179,179,179,0,0,179,0,0,0,179,179,179,9/9/18 19:50,300,The main experiment item,yes,FlankerTask.osexp,E:/,no,mono,no,18,no,white,no,yes,768,legacy,19,79,E:/kg-subject-1.csv,legacy,Kafkaesque Koffka,3.2.5,0,s,NA,l,j,h,s,397,NA,309142,37271,31074,397,2,legacy,1024,2,48000,-16,experiment,1,odd,312024,513403,704802,748266,748779,749994,724587,2872,NA,750000,2880,476128,673721,750104,750507,750104,Flanker Task,167,104823,180,yes,1024
Incongruent,HHSHH,92.81767956,92.81767956,582.3922652,582.3922652,black,legacy,legacy,legacy,0,uniform,1,undefined,1,s,0,0,0,180,180,180,180,0,0,180,0,0,0,180,180,180,9/9/18 19:50,300,The main experiment item,yes,FlankerTask.osexp,E:/,no,mono,no,18,no,white,no,yes,768,legacy,20,79,E:/kg-subject-1.csv,legacy,Kafkaesque Koffka,3.2.5,0,s,NA,l,j,h,s,590,NA,309142,37271,31074,590,2,legacy,1024,2,48000,-16,experiment,1,odd,312024,513403,704802,750520,751032,752223,724587,2872,NA,752228,2880,476128,673721,752340,752938,752339,Flanker Task,168,105413,181,yes,1024
Incongruent,SSHSS,92.30769231,92.30769231,581.1758242,581.1758242,black,legacy,legacy,legacy,0,uniform,0,undefined,0,h,0,0,0,181,181,181,181,0,0,181,0,0,0,181,181,181,9/9/18 19:50,300,The main experiment item,yes,FlankerTask.osexp,E:/,no,mono,no,18,no,white,no,yes,768,legacy,21,79,E:/kg-subject-1.csv,legacy,Kafkaesque Koffka,3.2.5,0,s,NA,l,j,h,s,361,NA,309142,37271,31074,361,2,legacy,1024,2,48000,-16,experiment,1,odd,312024,513403,704802,752953,753465,754679,724587,2872,NA,754684,2880,476128,673721,754797,755165,754796,Flanker Task,168,105774,182,yes,1024
Congruent,SSSSS,92.34972678,92.34972678,580.5737705,580.5737705,black,legacy,legacy,legacy,0,uniform,1,undefined,1,s,0,0,0,182,182,182,182,0,0,182,0,0,0,182,182,182,9/9/18 19:50,300,The main experiment item,yes,FlankerTask.osexp,E:/,no,mono,no,18,no,white,no,yes,768,legacy,22,79,E:/kg-subject-1.csv,legacy,Kafkaesque Koffka,3.2.5,0,s,NA,l,j,h,s,471,NA,309142,37271,31074,471,2,legacy,1024,2,48000,-16,experiment,1,odd,312024,513403,704802,755688,756193,757411,755178,2872,NA,757416,2880,476128,673721,757529,758007,757529,Flanker Task,169,106245,183,yes,1024
