"acc","accuracy","average_response_time","avg_rt","background","bidi","canvas_backend","clock_backend","color_backend","compensation","condition","coordinates","correct","correct_Instructions1","correct_keyboard_response","correct_response","count_Block1","count_Block2","count_Block3","count_ErrorFeedback","count_Faster","count_Finish","count_Fixation","count_ISI","count_Instructions1","count_Instructions2","count_Instructions3","count_Sequence","count_Stimulus","count_experiment","count_keyboard_response","count_logger","datetime","deadline","description","disable_garbage_collection","experiment_file","experiment_path","font_bold","font_family","font_italic","font_size","font_underline","foreground","form_clicks","fullscreen","height","keyboard_backend","live_row","live_row_Block1","logfile","mouse_backend","opensesame_codename","opensesame_version","repeat_cycle","response","response_Finish","response_Instructions1","response_Instructions2","response_Instructions3","response_keyboard_response","response_time","response_time_Finish","response_time_Instructions1","response_time_Instructions2","response_time_Instructions3","response_time_keyboard_response","round_decimals","sampler_backend","sound_buf_size","sound_channels","sound_freq","sound_sample_size","start","stimulus","subject_nr","subject_parity","time_Block1","time_Block2","time_Block3","time_ErrorFeedback","time_Faster","time_Finish","time_Fixation","time_ISI","time_Instructions1","time_Instructions2","time_Instructions3","time_Sequence","time_Stimulus","time_experiment","time_keyboard_response","time_logger","title","total_correct","total_response_time","total_responses","uniform_coordinates","width"
"100","100","735","735","black","no","legacy","legacy","legacy","0","incongruent","uniform","1","undefined","1","h","0","0","0","0","0","0","0","0","0","0","0","0","0","0","0","0","09/03/18 13:59:03","1500","The main experiment item","yes","FlankerTask.osexp","C:/Users/Anabel/Desktop","no","mono","no","18","no","white","no","yes","768","legacy","0","0","C:/Users/Anabel/Desktop/AW-subject-1.csv","legacy","Jazzy James","3.1.9","0","h","NA","h","NA","NA","h","735","NA","5180","NA","NA","735","2","legacy","1024","2","48000","-16","experiment","SSHSS","1","odd","6429","NA","NA","NA","NA","NA","6473","NA","1247","NA","NA","6472","6575","1245","6575","7311","Flanker Task","1","735","1","yes","1024"
"100","100","682.5","682.5","black","no","legacy","legacy","legacy","0","incongruent","uniform","1","undefined","1","s","0","0","0","1","1","0","1","1","0","0","0","1","1","0","1","1","09/03/18 13:59:03","1500","The main experiment item","yes","FlankerTask.osexp","C:/Users/Anabel/Desktop","no","mono","no","18","no","white","no","yes","768","legacy","1","1","C:/Users/Anabel/Desktop/AW-subject-1.csv","legacy","Jazzy James","3.1.9","0","s","NA","h","NA","NA","s","630","NA","5180","NA","NA","630","2","legacy","1024","2","48000","-16","experiment","HHSHH","1","odd","6429","NA","NA","NA","NA","NA","8464","7405","1247","NA","NA","8462","8566","1245","8566","9196","Flanker Task","2","1365","2","yes","1024"
"100","100","602.666666667","602.666666667","black","no","legacy","legacy","legacy","0","incongruent","uniform","1","undefined","1","h","0","0","0","2","2","0","2","2","0","0","0","2","2","0","2","2","09/03/18 13:59:03","1500","The main experiment item","yes","FlankerTask.osexp","C:/Users/Anabel/Desktop","no","mono","no","18","no","white","no","yes","768","legacy","2","2","C:/Users/Anabel/Desktop/AW-subject-1.csv","legacy","Jazzy James","3.1.9","0","h","NA","h","NA","NA","h","443","NA","5180","NA","NA","443","2","legacy","1024","2","48000","-16","experiment","SSHSS","1","odd","6429","NA","NA","NA","NA","NA","10299","9249","1247","NA","NA","10298","10401","1245","10401","10845","Flanker Task","3","1808","3","yes","1024"
"100","100","591.25","591.25","black","no","legacy","legacy","legacy","0","congruent","uniform","1","undefined","1","h","0","0","0","3","3","0","3","3","0","0","0","3","3","0","3","3","09/03/18 13:59:03","1500","The main experiment item","yes","FlankerTask.osexp","C:/Users/Anabel/Desktop","no","mono","no","18","no","white","no","yes","768","legacy","3","3","C:/Users/Anabel/Desktop/AW-subject-1.csv","legacy","Jazzy James","3.1.9","0","h","NA","h","NA","NA","h","557","NA","5180","NA","NA","557","2","legacy","1024","2","48000","-16","experiment","HHHHH","1","odd","6429","NA","NA","NA","NA","NA","11946","10892","1247","NA","NA","11945","12048","1245","12048","12606","Flanker Task","4","2365","4","yes","1024"
"100","100","595.4","595.4","black","no","legacy","legacy","legacy","0","incongruent","uniform","1","undefined","1","h","0","0","0","4","4","0","4","4","0","0","0","4","4","0","4","4","09/03/18 13:59:03","1500","The main experiment item","yes","FlankerTask.osexp","C:/Users/Anabel/Desktop","no","mono","no","18","no","white","no","yes","768","legacy","4","4","C:/Users/Anabel/Desktop/AW-subject-1.csv","legacy","Jazzy James","3.1.9","0","h","NA","h","NA","NA","h","612","NA","5180","NA","NA","612","2","legacy","1024","2","48000","-16","experiment","SSHSS","1","odd","6429","NA","NA","NA","NA","NA","13743","12684","1247","NA","NA","13741","13845","1245","13845","14458","Flanker Task","5","2977","5","yes","1024"
"100","100","588.166666667","588.166666667","black","no","legacy","legacy","legacy","0","congruent","uniform","1","undefined","1","s","0","0","0","5","5","0","5","5","0","0","0","5","5","0","5","5","09/03/18 13:59:03","1500","The main experiment item","yes","FlankerTask.osexp","C:/Users/Anabel/Desktop","no","mono","no","18","no","white","no","yes","768","legacy","5","5","C:/Users/Anabel/Desktop/AW-subject-1.csv","legacy","Jazzy James","3.1.9","0","s","NA","h","NA","NA","s","552","NA","5180","NA","NA","552","2","legacy","1024","2","48000","-16","experiment","SSSSS","1","odd","6429","NA","NA","NA","NA","NA","15573","14516","1247","NA","NA","15572","15676","1245","15676","16229","Flanker Task","6","3529","6","yes","1024"
"100","100","590.714285714","590.714285714","black","no","legacy","legacy","legacy","0","incongruent","uniform","1","undefined","1","h","0","0","0","6","6","0","6","6","0","0","0","6","6","0","6","6","09/03/18 13:59:03","1500","The main experiment item","yes","FlankerTask.osexp","C:/Users/Anabel/Desktop","no","mono","no","18","no","white","no","yes","768","legacy","6","6","C:/Users/Anabel/Desktop/AW-subject-1.csv","legacy","Jazzy James","3.1.9","0","h","NA","h","NA","NA","h","606","NA","5180","NA","NA","606","2","legacy","1024","2","48000","-16","experiment","SSHSS","1","odd","6429","NA","NA","NA","NA","NA","17342","16283","1247","NA","NA","17340","17444","1245","17444","18050","Flanker Task","7","4135","7","yes","1024"
"100","100","629","629","black","no","legacy","legacy","legacy","0","congruent","uniform","1","undefined","1","s","0","0","0","7","7","0","7","7","0","0","0","7","7","0","7","7","09/03/18 13:59:03","1500","The main experiment item","yes","FlankerTask.osexp","C:/Users/Anabel/Desktop","no","mono","no","18","no","white","no","yes","768","legacy","7","7","C:/Users/Anabel/Desktop/AW-subject-1.csv","legacy","Jazzy James","3.1.9","0","s","NA","h","NA","NA","s","897","NA","5180","NA","NA","897","2","legacy","1024","2","48000","-16","experiment","SSSSS","1","odd","6429","NA","NA","NA","NA","NA","19160","18105","1247","NA","NA","19159","19263","1245","19263","20161","Flanker Task","8","5032","8","yes","1024"
"100","100","630.666666667","630.666666667","black","no","legacy","legacy","legacy","0","incongruent","uniform","1","undefined","1","s","0","0","0","8","8","0","8","8","0","0","0","8","8","0","8","8","09/03/18 13:59:03","1500","The main experiment item","yes","FlankerTask.osexp","C:/Users/Anabel/Desktop","no","mono","no","18","no","white","no","yes","768","legacy","8","8","C:/Users/Anabel/Desktop/AW-subject-1.csv","legacy","Jazzy James","3.1.9","0","s","NA","h","NA","NA","s","644","NA","5180","NA","NA","644","2","legacy","1024","2","48000","-16","experiment","HHSHH","1","odd","6429","NA","NA","NA","NA","NA","21273","20215","1247","NA","NA","21272","21376","1245","21376","22020","Flanker Task","9","5676","9","yes","1024"
"100","100","624.8","624.8","black","no","legacy","legacy","legacy","0","incongruent","uniform","1","undefined","1","h","0","0","0","9","9","0","9","9","0","0","0","9","9","0","9","9","09/03/18 13:59:03","1500","The main experiment item","yes","FlankerTask.osexp","C:/Users/Anabel/Desktop","no","mono","no","18","no","white","no","yes","768","legacy","9","9","C:/Users/Anabel/Desktop/AW-subject-1.csv","legacy","Jazzy James","3.1.9","0","h","NA","h","NA","NA","h","572","NA","5180","NA","NA","572","2","legacy","1024","2","48000","-16","experiment","SSHSS","1","odd","6429","NA","NA","NA","NA","NA","23135","22083","1247","NA","NA","23134","23238","1245","23238","23811","Flanker Task","10","6248","10","yes","1024"
"100","100","616.090909091","616.090909091","black","no","legacy","legacy","legacy","0","incongruent","uniform","1","undefined","1","h","0","0","0","10","10","0","10","10","0","0","0","10","10","0","10","10","09/03/18 13:59:03","1500","The main experiment item","yes","FlankerTask.osexp","C:/Users/Anabel/Desktop","no","mono","no","18","no","white","no","yes","768","legacy","10","10","C:/Users/Anabel/Desktop/AW-subject-1.csv","legacy","Jazzy James","3.1.9","0","h","NA","h","NA","NA","h","529","NA","5180","NA","NA","529","2","legacy","1024","2","48000","-16","experiment","SSHSS","1","odd","6429","NA","NA","NA","NA","NA","24931","23871","1247","NA","NA","24929","25033","1245","25033","25562","Flanker Task","11","6777","11","yes","1024"
"100","100","608.916666667","608.916666667","black","no","legacy","legacy","legacy","0","congruent","uniform","1","undefined","1","h","0","0","0","11","11","0","11","11","0","0","0","11","11","0","11","11","09/03/18 13:59:03","1500","The main experiment item","yes","FlankerTask.osexp","C:/Users/Anabel/Desktop","no","mono","no","18","no","white","no","yes","768","legacy","11","11","C:/Users/Anabel/Desktop/AW-subject-1.csv","legacy","Jazzy James","3.1.9","0","h","NA","h","NA","NA","h","530","NA","5180","NA","NA","530","2","legacy","1024","2","48000","-16","experiment","HHHHH","1","odd","6429","NA","NA","NA","NA","NA","26674","25616","1247","NA","NA","26672","26776","1245","26776","27307","Flanker Task","12","7307","12","yes","1024"
"100","100","605.153846154","605.153846154","black","no","legacy","legacy","legacy","0","congruent","uniform","1","undefined","1","s","0","0","0","12","12","0","12","12","0","0","0","12","12","0","12","12","09/03/18 13:59:03","1500","The main experiment item","yes","FlankerTask.osexp","C:/Users/Anabel/Desktop","no","mono","no","18","no","white","no","yes","768","legacy","12","12","C:/Users/Anabel/Desktop/AW-subject-1.csv","legacy","Jazzy James","3.1.9","0","s","NA","h","NA","NA","s","560","NA","5180","NA","NA","560","2","legacy","1024","2","48000","-16","experiment","SSSSS","1","odd","6429","NA","NA","NA","NA","NA","28415","27361","1247","NA","NA","28413","28517","1245","28517","29078","Flanker Task","13","7867","13","yes","1024"
"100","100","595.571428571","595.571428571","black","no","legacy","legacy","legacy","0","congruent","uniform","1","undefined","1","s","0","0","0","13","13","0","13","13","0","0","0","13","13","0","13","13","09/03/18 13:59:03","1500","The main experiment item","yes","FlankerTask.osexp","C:/Users/Anabel/Desktop","no","mono","no","18","no","white","no","yes","768","legacy","13","13","C:/Users/Anabel/Desktop/AW-subject-1.csv","legacy","Jazzy James","3.1.9","0","s","NA","h","NA","NA","s","471","NA","5180","NA","NA","471","2","legacy","1024","2","48000","-16","experiment","SSSSS","1","odd","6429","NA","NA","NA","NA","NA","30198","29138","1247","NA","NA","30196","30300","1245","30300","30772","Flanker Task","14","8338","14","yes","1024"
"100","100","588.6","588.6","black","no","legacy","legacy","legacy","0","congruent","uniform","1","undefined","1","h","0","0","0","14","14","0","14","14","0","0","0","14","14","0","14","14","09/03/18 13:59:03","1500","The main experiment item","yes","FlankerTask.osexp","C:/Users/Anabel/Desktop","no","mono","no","18","no","white","no","yes","768","legacy","14","14","C:/Users/Anabel/Desktop/AW-subject-1.csv","legacy","Jazzy James","3.1.9","0","h","NA","h","NA","NA","h","491","NA","5180","NA","NA","491","2","legacy","1024","2","48000","-16","experiment","HHHHH","1","odd","6429","NA","NA","NA","NA","NA","31886","30827","1247","NA","NA","31884","31988","1245","31988","32479","Flanker Task","15","8829","15","yes","1024"
"100","100","579.9375","579.9375","black","no","legacy","legacy","legacy","0","congruent","uniform","1","undefined","1","h","0","0","0","15","15","0","15","15","0","0","0","15","15","0","15","15","09/03/18 13:59:03","1500","The main experiment item","yes","FlankerTask.osexp","C:/Users/Anabel/Desktop","no","mono","no","18","no","white","no","yes","768","legacy","15","15","C:/Users/Anabel/Desktop/AW-subject-1.csv","legacy","Jazzy James","3.1.9","0","h","NA","h","NA","NA","h","450","NA","5180","NA","NA","450","2","legacy","1024","2","48000","-16","experiment","HHHHH","1","odd","6429","NA","NA","NA","NA","NA","33565","32515","1247","NA","NA","33563","33667","1245","33667","34118","Flanker Task","16","9279","16","yes","1024"
"100","100","578.294117647","578.294117647","black","no","legacy","legacy","legacy","0","congruent","uniform","1","undefined","1","s","0","0","0","16","16","0","16","16","0","0","0","16","16","0","16","16","09/03/18 13:59:03","1500","The main experiment item","yes","FlankerTask.osexp","C:/Users/Anabel/Desktop","no","mono","no","18","no","white","no","yes","768","legacy","16","16","C:/Users/Anabel/Desktop/AW-subject-1.csv","legacy","Jazzy James","3.1.9","0","s","NA","h","NA","NA","s","552","NA","5180","NA","NA","552","2","legacy","1024","2","48000","-16","experiment","SSSSS","1","odd","6429","NA","NA","NA","NA","NA","35226","34173","1247","NA","NA","35224","35328","1245","35328","35880","Flanker Task","17","9831","17","yes","1024"
"100","100","577.944444444","577.944444444","black","no","legacy","legacy","legacy","0","incongruent","uniform","1","undefined","1","h","0","0","0","17","17","0","17","17","0","0","0","17","17","0","17","17","09/03/18 13:59:03","1500","The main experiment item","yes","FlankerTask.osexp","C:/Users/Anabel/Desktop","no","mono","no","18","no","white","no","yes","768","legacy","17","17","C:/Users/Anabel/Desktop/AW-subject-1.csv","legacy","Jazzy James","3.1.9","0","h","NA","h","NA","NA","h","572","NA","5180","NA","NA","572","2","legacy","1024","2","48000","-16","experiment","SSHSS","1","odd","6429","NA","NA","NA","NA","NA","36982","35926","1247","NA","NA","36980","37084","1245","37084","37657","Flanker Task","18","10403","18","yes","1024"
"100","100","578.526315789","578.526315789","black","no","legacy","legacy","legacy","0","incongruent","uniform","1","undefined","1","h","0","0","0","18","18","0","18","18","0","0","0","18","18","0","18","18","09/03/18 13:59:03","1500","The main experiment item","yes","FlankerTask.osexp","C:/Users/Anabel/Desktop","no","mono","no","18","no","white","no","yes","768","legacy","18","18","C:/Users/Anabel/Desktop/AW-subject-1.csv","legacy","Jazzy James","3.1.9","0","h","NA","h","NA","NA","h","589","NA","5180","NA","NA","589","2","legacy","1024","2","48000","-16","experiment","SSHSS","1","odd","6429","NA","NA","NA","NA","NA","38763","37705","1247","NA","NA","38761","38865","1245","38865","39454","Flanker Task","19","10992","19","yes","1024"
"100","100","573","573","black","no","legacy","legacy","legacy","0","congruent","uniform","1","undefined","1","h","0","0","0","19","19","0","19","19","0","0","0","19","19","0","19","19","09/03/18 13:59:03","1500","The main experiment item","yes","FlankerTask.osexp","C:/Users/Anabel/Desktop","no","mono","no","18","no","white","no","yes","768","legacy","19","19","C:/Users/Anabel/Desktop/AW-subject-1.csv","legacy","Jazzy James","3.1.9","0","h","NA","h","NA","NA","h","468","NA","5180","NA","NA","468","2","legacy","1024","2","48000","-16","experiment","HHHHH","1","odd","6429","NA","NA","NA","NA","NA","40563","39505","1247","NA","NA","40561","40665","1245","40665","41134","Flanker Task","20","11460","20","yes","1024"
"100","100","571.19047619","571.19047619","black","no","legacy","legacy","legacy","0","congruent","uniform","1","undefined","1","s","0","0","0","20","20","0","20","20","0","0","0","20","20","0","20","20","09/03/18 13:59:03","1500","The main experiment item","yes","FlankerTask.osexp","C:/Users/Anabel/Desktop","no","mono","no","18","no","white","no","yes","768","legacy","20","20","C:/Users/Anabel/Desktop/AW-subject-1.csv","legacy","Jazzy James","3.1.9","0","s","NA","h","NA","NA","s","535","NA","5180","NA","NA","535","2","legacy","1024","2","48000","-16","experiment","SSSSS","1","odd","6429","NA","NA","NA","NA","NA","42241","41183","1247","NA","NA","42240","42344","1245","42344","42880","Flanker Task","21","11995","21","yes","1024"
"100","100","575.818181818","575.818181818","black","no","legacy","legacy","legacy","0","congruent","uniform","1","undefined","1","s","0","0","0","21","21","0","21","21","0","0","0","21","21","0","21","21","09/03/18 13:59:03","1500","The main experiment item","yes","FlankerTask.osexp","C:/Users/Anabel/Desktop","no","mono","no","18","no","white","no","yes","768","legacy","21","21","C:/Users/Anabel/Desktop/AW-subject-1.csv","legacy","Jazzy James","3.1.9","0","s","NA","h","NA","NA","s","673","NA","5180","NA","NA","673","2","legacy","1024","2","48000","-16","experiment","SSSSS","1","odd","6429","NA","NA","NA","NA","NA","43984","42927","1247","NA","NA","43982","44086","1245","44086","44760","Flanker Task","22","12668","22","yes","1024"
"100","100","573.565217391","573.565217391","black","no","legacy","legacy","legacy","0","incongruent","uniform","1","undefined","1","h","0","0","0","22","22","0","22","22","0","0","0","22","22","0","22","22","09/03/18 13:59:03","1500","The main experiment item","yes","FlankerTask.osexp","C:/Users/Anabel/Desktop","no","mono","no","18","no","white","no","yes","768","legacy","22","22","C:/Users/Anabel/Desktop/AW-subject-1.csv","legacy","Jazzy James","3.1.9","0","h","NA","h","NA","NA","h","524","NA","5180","NA","NA","524","2","legacy","1024","2","48000","-16","experiment","SSHSS","1","odd","6429","NA","NA","NA","NA","NA","45859","44804","1247","NA","NA","45858","45961","1245","45961","46486","Flanker Task","23","13192","23","yes","1024"
"100","100","573.041666667","573.041666667","black","no","legacy","legacy","legacy","0","incongruent","uniform","1","undefined","1","s","0","0","0","23","23","0","23","23","0","0","0","23","23","0","23","23","09/03/18 13:59:03","1500","The main experiment item","yes","FlankerTask.osexp","C:/Users/Anabel/Desktop","no","mono","no","18","no","white","no","yes","768","legacy","23","23","C:/Users/Anabel/Desktop/AW-subject-1.csv","legacy","Jazzy James","3.1.9","0","s","NA","h","NA","NA","s","561","NA","5180","NA","NA","561","2","legacy","1024","2","48000","-16","experiment","HHSHH","1","odd","6429","NA","NA","NA","NA","NA","47570","46515","1247","NA","NA","47568","47672","1245","47672","48234","Flanker Task","24","13753","24","yes","1024"
"96","96","575.16","575.16","black","no","legacy","legacy","legacy","0","congruent","uniform","0","undefined","0","s","0","0","0","24","24","0","24","24","0","0","0","24","24","0","24","24","09/03/18 13:59:03","1500","The main experiment item","yes","FlankerTask.osexp","C:/Users/Anabel/Desktop","no","mono","no","18","no","white","no","yes","768","legacy","24","24","C:/Users/Anabel/Desktop/AW-subject-1.csv","legacy","Jazzy James","3.1.9","0","h","NA","h","NA","NA","h","626","NA","5180","NA","NA","626","2","legacy","1024","2","48000","-16","experiment","SSSSS","1","odd","6429","NA","NA","NA","NA","NA","49337","48283","1247","NA","NA","49335","49439","1245","49439","50066","Flanker Task","24","14379","25","yes","1024"
"96.1538461538","96.1538461538","579.384615385","579.384615385","black","no","legacy","legacy","legacy","0","incongruent","uniform","1","undefined","1","s","0","0","0","25","25","0","25","25","0","0","0","25","25","0","25","25","09/03/18 13:59:03","1500","The main experiment item","yes","FlankerTask.osexp","C:/Users/Anabel/Desktop","no","mono","no","18","no","white","no","yes","768","legacy","25","25","C:/Users/Anabel/Desktop/AW-subject-1.csv","legacy","Jazzy James","3.1.9","0","s","NA","h","NA","NA","s","685","NA","5180","NA","NA","685","2","legacy","1024","2","48000","-16","experiment","HHSHH","1","odd","6429","NA","NA","50115","NA","NA","51667","50617","1247","NA","NA","51665","51769","1245","51769","52455","Flanker Task","25","15064","26","yes","1024"
"96.2962962963","96.2962962963","581.259259259","581.259259259","black","no","legacy","legacy","legacy","0","incongruent","uniform","1","undefined","1","s","0","0","0","26","26","0","26","26","0","0","0","26","26","0","26","26","09/03/18 13:59:03","1500","The main experiment item","yes","FlankerTask.osexp","C:/Users/Anabel/Desktop","no","mono","no","18","no","white","no","yes","768","legacy","26","26","C:/Users/Anabel/Desktop/AW-subject-1.csv","legacy","Jazzy James","3.1.9","0","s","NA","h","NA","NA","s","630","NA","5180","NA","NA","630","2","legacy","1024","2","48000","-16","experiment","HHSHH","1","odd","6429","NA","NA","50115","NA","NA","53557","52504","1247","NA","NA","53555","53659","1245","53659","54290","Flanker Task","26","15694","27","yes","1024"
"96.4285714286","96.4285714286","583.107142857","583.107142857","black","no","legacy","legacy","legacy","0","congruent","uniform","1","undefined","1","s","0","0","0","27","27","0","27","27","0","0","0","27","27","0","27","27","09/03/18 13:59:03","1500","The main experiment item","yes","FlankerTask.osexp","C:/Users/Anabel/Desktop","no","mono","no","18","no","white","no","yes","768","legacy","27","27","C:/Users/Anabel/Desktop/AW-subject-1.csv","legacy","Jazzy James","3.1.9","0","s","NA","h","NA","NA","s","633","NA","5180","NA","NA","633","2","legacy","1024","2","48000","-16","experiment","SSSSS","1","odd","6429","NA","NA","50115","NA","NA","55410","54349","1247","NA","NA","55408","55512","1245","55512","56145","Flanker Task","27","16327","28","yes","1024"
"96.5517241379","96.5517241379","581.689655172","581.689655172","black","no","legacy","legacy","legacy","0","incongruent","uniform","1","undefined","1","s","0","0","0","28","28","0","28","28","0","0","0","28","28","0","28","28","09/03/18 13:59:03","1500","The main experiment item","yes","FlankerTask.osexp","C:/Users/Anabel/Desktop","no","mono","no","18","no","white","no","yes","768","legacy","28","28","C:/Users/Anabel/Desktop/AW-subject-1.csv","legacy","Jazzy James","3.1.9","0","s","NA","h","NA","NA","s","542","NA","5180","NA","NA","542","2","legacy","1024","2","48000","-16","experiment","HHSHH","1","odd","6429","NA","NA","50115","NA","NA","57260","56205","1247","NA","NA","57258","57362","1245","57362","57905","Flanker Task","28","16869","29","yes","1024"
"96.6666666667","96.6666666667","581.6","581.6","black","no","legacy","legacy","legacy","0","incongruent","uniform","1","undefined","1","s","0","0","0","29","29","0","29","29","0","0","0","29","29","0","29","29","09/03/18 13:59:03","1500","The main experiment item","yes","FlankerTask.osexp","C:/Users/Anabel/Desktop","no","mono","no","18","no","white","no","yes","768","legacy","29","29","C:/Users/Anabel/Desktop/AW-subject-1.csv","legacy","Jazzy James","3.1.9","0","s","NA","h","NA","NA","s","579","NA","5180","NA","NA","579","2","legacy","1024","2","48000","-16","experiment","HHSHH","1","odd","6429","NA","NA","50115","NA","NA","59010","57949","1247","NA","NA","59008","59112","1245","59112","59692","Flanker Task","29","17448","30","yes","1024"
"96.7741935484","96.7741935484","581.483870968","581.483870968","black","no","legacy","legacy","legacy","0","incongruent","uniform","1","undefined","1","h","0","0","0","30","30","0","30","30","0","0","0","30","30","0","30","30","09/03/18 13:59:03","1500","The main experiment item","yes","FlankerTask.osexp","C:/Users/Anabel/Desktop","no","mono","no","18","no","white","no","yes","768","legacy","30","30","C:/Users/Anabel/Desktop/AW-subject-1.csv","legacy","Jazzy James","3.1.9","0","h","NA","h","NA","NA","h","578","NA","5180","NA","NA","578","2","legacy","1024","2","48000","-16","experiment","SSHSS","1","odd","6429","NA","NA","50115","NA","NA","60784","59739","1247","NA","NA","60782","60886","1245","60886","61465","Flanker Task","30","18026","31","yes","1024"
"96.875","96.875","583.53125","583.53125","black","no","legacy","legacy","legacy","0","incongruent","uniform","1","undefined","1","s","0","0","0","31","31","0","31","31","0","0","0","31","31","0","31","31","09/03/18 13:59:03","1500","The main experiment item","yes","FlankerTask.osexp","C:/Users/Anabel/Desktop","no","mono","no","18","no","white","no","yes","768","legacy","31","31","C:/Users/Anabel/Desktop/AW-subject-1.csv","legacy","Jazzy James","3.1.9","0","s","NA","h","NA","NA","s","647","NA","5180","NA","NA","647","2","legacy","1024","2","48000","-16","experiment","HHSHH","1","odd","6429","NA","NA","50115","NA","NA","62610","61551","1247","NA","NA","62609","62712","1245","62712","63360","Flanker Task","31","18673","32","yes","1024"
"96.9696969697","96.9696969697","581.242424242","581.242424242","black","no","legacy","legacy","legacy","0","congruent","uniform","1","undefined","1","h","0","0","0","32","32","0","32","32","0","0","0","32","32","0","32","32","09/03/18 13:59:03","1500","The main experiment item","yes","FlankerTask.osexp","C:/Users/Anabel/Desktop","no","mono","no","18","no","white","no","yes","768","legacy","32","32","C:/Users/Anabel/Desktop/AW-subject-1.csv","legacy","Jazzy James","3.1.9","0","h","NA","h","NA","NA","h","508","NA","5180","NA","NA","508","2","legacy","1024","2","48000","-16","experiment","HHHHH","1","odd","6429","NA","NA","50115","NA","NA","64448","63405","1247","NA","NA","64446","64550","1245","64550","65059","Flanker Task","32","19181","33","yes","1024"
"97.0588235294","97.0588235294","579.382352941","579.382352941","black","no","legacy","legacy","legacy","0","congruent","uniform","1","undefined","1","s","0","0","0","33","33","0","33","33","0","0","0","33","33","0","33","33","09/03/18 13:59:03","1500","The main experiment item","yes","FlankerTask.osexp","C:/Users/Anabel/Desktop","no","mono","no","18","no","white","no","yes","768","legacy","33","33","C:/Users/Anabel/Desktop/AW-subject-1.csv","legacy","Jazzy James","3.1.9","0","s","NA","h","NA","NA","s","518","NA","5180","NA","NA","518","2","legacy","1024","2","48000","-16","experiment","SSSSS","1","odd","6429","NA","NA","50115","NA","NA","66172","65115","1247","NA","NA","66170","66274","1245","66274","66793","Flanker Task","33","19699","34","yes","1024"
"97.1428571429","97.1428571429","577.228571429","577.228571429","black","no","legacy","legacy","legacy","0","incongruent","uniform","1","undefined","1","h","0","0","0","34","34","0","34","34","0","0","0","34","34","0","34","34","09/03/18 13:59:03","1500","The main experiment item","yes","FlankerTask.osexp","C:/Users/Anabel/Desktop","no","mono","no","18","no","white","no","yes","768","legacy","34","34","C:/Users/Anabel/Desktop/AW-subject-1.csv","legacy","Jazzy James","3.1.9","0","h","NA","h","NA","NA","h","504","NA","5180","NA","NA","504","2","legacy","1024","2","48000","-16","experiment","SSHSS","1","odd","6429","NA","NA","50115","NA","NA","67867","66815","1247","NA","NA","67866","67969","1245","67969","68474","Flanker Task","34","20203","35","yes","1024"
"97.2222222222","97.2222222222","576.305555556","576.305555556","black","no","legacy","legacy","legacy","0","congruent","uniform","1","undefined","1","s","0","0","0","35","35","0","35","35","0","0","0","35","35","0","35","35","09/03/18 13:59:03","1500","The main experiment item","yes","FlankerTask.osexp","C:/Users/Anabel/Desktop","no","mono","no","18","no","white","no","yes","768","legacy","35","35","C:/Users/Anabel/Desktop/AW-subject-1.csv","legacy","Jazzy James","3.1.9","0","s","NA","h","NA","NA","s","544","NA","5180","NA","NA","544","2","legacy","1024","2","48000","-16","experiment","SSSSS","1","odd","6429","NA","NA","50115","NA","NA","69578","68526","1247","NA","NA","69576","69680","1245","69680","70225","Flanker Task","35","20747","36","yes","1024"
"94.5945945946","94.5945945946","572.783783784","572.783783784","black","no","legacy","legacy","legacy","0","incongruent","uniform","0","undefined","0","s","0","0","0","36","36","0","36","36","0","0","0","36","36","0","36","36","09/03/18 13:59:03","1500","The main experiment item","yes","FlankerTask.osexp","C:/Users/Anabel/Desktop","no","mono","no","18","no","white","no","yes","768","legacy","36","36","C:/Users/Anabel/Desktop/AW-subject-1.csv","legacy","Jazzy James","3.1.9","0","h","NA","h","NA","NA","h","446","NA","5180","NA","NA","446","2","legacy","1024","2","48000","-16","experiment","HHSHH","1","odd","6429","NA","NA","50115","NA","NA","71319","70272","1247","NA","NA","71317","71421","1245","71421","71868","Flanker Task","35","21193","37","yes","1024"
"94.7368421053","94.7368421053","573.315789474","573.315789474","black","no","legacy","legacy","legacy","0","incongruent","uniform","1","undefined","1","h","0","0","0","37","37","0","37","37","0","0","0","37","37","0","37","37","09/03/18 13:59:03","1500","The main experiment item","yes","FlankerTask.osexp","C:/Users/Anabel/Desktop","no","mono","no","18","no","white","no","yes","768","legacy","37","37","C:/Users/Anabel/Desktop/AW-subject-1.csv","legacy","Jazzy James","3.1.9","0","h","NA","h","NA","NA","h","593","NA","5180","NA","NA","593","2","legacy","1024","2","48000","-16","experiment","SSHSS","1","odd","6429","NA","NA","71893","NA","NA","73446","72395","1247","NA","NA","73445","73548","1245","73548","74142","Flanker Task","36","21786","38","yes","1024"
"94.8717948718","94.8717948718","570.717948718","570.717948718","black","no","legacy","legacy","legacy","0","congruent","uniform","1","undefined","1","s","0","0","0","38","38","0","38","38","0","0","0","38","38","0","38","38","09/03/18 13:59:03","1500","The main experiment item","yes","FlankerTask.osexp","C:/Users/Anabel/Desktop","no","mono","no","18","no","white","no","yes","768","legacy","38","38","C:/Users/Anabel/Desktop/AW-subject-1.csv","legacy","Jazzy James","3.1.9","0","s","NA","h","NA","NA","s","472","NA","5180","NA","NA","472","2","legacy","1024","2","48000","-16","experiment","SSSSS","1","odd","6429","NA","NA","71893","NA","NA","75260","74205","1247","NA","NA","75258","75362","1245","75362","75835","Flanker Task","37","22258","39","yes","1024"
"95","95","569.85","569.85","black","no","legacy","legacy","legacy","0","incongruent","uniform","1","undefined","1","h","0","0","0","39","39","0","39","39","0","0","0","39","39","0","39","39","09/03/18 13:59:03","1500","The main experiment item","yes","FlankerTask.osexp","C:/Users/Anabel/Desktop","no","mono","no","18","no","white","no","yes","768","legacy","39","39","C:/Users/Anabel/Desktop/AW-subject-1.csv","legacy","Jazzy James","3.1.9","0","h","NA","h","NA","NA","h","536","NA","5180","NA","NA","536","2","legacy","1024","2","48000","-16","experiment","SSHSS","1","odd","6429","NA","NA","71893","NA","NA","76937","75883","1247","NA","NA","76935","77039","1245","77039","77576","Flanker Task","38","22794","40","yes","1024"
"95.1219512195","95.1219512195","567.463414634","567.463414634","black","no","legacy","legacy","legacy","0","congruent","uniform","1","undefined","1","s","0","0","0","40","40","0","40","40","0","0","0","40","40","0","40","40","09/03/18 13:59:03","1500","The main experiment item","yes","FlankerTask.osexp","C:/Users/Anabel/Desktop","no","mono","no","18","no","white","no","yes","768","legacy","40","40","C:/Users/Anabel/Desktop/AW-subject-1.csv","legacy","Jazzy James","3.1.9","0","s","NA","h","NA","NA","s","472","NA","5180","NA","NA","472","2","legacy","1024","2","48000","-16","experiment","SSSSS","1","odd","6429","NA","NA","71893","NA","NA","78694","77638","1247","NA","NA","78692","78796","1245","78796","79269","Flanker Task","39","23266","41","yes","1024"
"95.2380952381","95.2380952381","567.19047619","567.19047619","black","no","legacy","legacy","legacy","0","congruent","uniform","1","undefined","1","h","0","0","0","41","41","0","41","41","0","0","0","41","41","0","41","41","09/03/18 13:59:03","1500","The main experiment item","yes","FlankerTask.osexp","C:/Users/Anabel/Desktop","no","mono","no","18","no","white","no","yes","768","legacy","41","41","C:/Users/Anabel/Desktop/AW-subject-1.csv","legacy","Jazzy James","3.1.9","0","h","NA","h","NA","NA","h","556","NA","5180","NA","NA","556","2","legacy","1024","2","48000","-16","experiment","HHHHH","1","odd","6429","NA","NA","71893","NA","NA","80346","79293","1247","NA","NA","80344","80448","1245","80448","81005","Flanker Task","40","23822","42","yes","1024"
"95.3488372093","95.3488372093","566.023255814","566.023255814","black","no","legacy","legacy","legacy","0","congruent","uniform","1","undefined","1","h","0","0","0","42","42","0","42","42","0","0","0","42","42","0","42","42","09/03/18 13:59:03","1500","The main experiment item","yes","FlankerTask.osexp","C:/Users/Anabel/Desktop","no","mono","no","18","no","white","no","yes","768","legacy","42","42","C:/Users/Anabel/Desktop/AW-subject-1.csv","legacy","Jazzy James","3.1.9","0","h","NA","h","NA","NA","h","517","NA","5180","NA","NA","517","2","legacy","1024","2","48000","-16","experiment","HHHHH","1","odd","6429","NA","NA","71893","NA","NA","82113","81050","1247","NA","NA","82111","82215","1245","82215","82733","Flanker Task","41","24339","43","yes","1024"
"95.4545454545","95.4545454545","564.840909091","564.840909091","black","no","legacy","legacy","legacy","0","congruent","uniform","1","undefined","1","s","0","0","0","43","43","0","43","43","0","0","0","43","43","0","43","43","09/03/18 13:59:03","1500","The main experiment item","yes","FlankerTask.osexp","C:/Users/Anabel/Desktop","no","mono","no","18","no","white","no","yes","768","legacy","43","43","C:/Users/Anabel/Desktop/AW-subject-1.csv","legacy","Jazzy James","3.1.9","0","s","NA","h","NA","NA","s","514","NA","5180","NA","NA","514","2","legacy","1024","2","48000","-16","experiment","SSSSS","1","odd","6429","NA","NA","71893","NA","NA","83857","82805","1247","NA","NA","83855","83959","1245","83959","84474","Flanker Task","42","24853","44","yes","1024"
"95.5555555556","95.5555555556","563.133333333","563.133333333","black","no","legacy","legacy","legacy","0","congruent","uniform","1","undefined","1","h","0","0","0","44","44","0","44","44","0","0","0","44","44","0","44","44","09/03/18 13:59:03","1500","The main experiment item","yes","FlankerTask.osexp","C:/Users/Anabel/Desktop","no","mono","no","18","no","white","no","yes","768","legacy","44","44","C:/Users/Anabel/Desktop/AW-subject-1.csv","legacy","Jazzy James","3.1.9","0","h","NA","h","NA","NA","h","488","NA","5180","NA","NA","488","2","legacy","1024","2","48000","-16","experiment","HHHHH","1","odd","6429","NA","NA","71893","NA","NA","85589","84527","1247","NA","NA","85587","85690","1245","85690","86179","Flanker Task","43","25341","45","yes","1024"
"95.652173913","95.652173913","561.630434783","561.630434783","black","no","legacy","legacy","legacy","0","congruent","uniform","1","undefined","1","h","0","0","0","45","45","0","45","45","0","0","0","45","45","0","45","45","09/03/18 13:59:03","1500","The main experiment item","yes","FlankerTask.osexp","C:/Users/Anabel/Desktop","no","mono","no","18","no","white","no","yes","768","legacy","45","45","C:/Users/Anabel/Desktop/AW-subject-1.csv","legacy","Jazzy James","3.1.9","0","h","NA","h","NA","NA","h","494","NA","5180","NA","NA","494","2","legacy","1024","2","48000","-16","experiment","HHHHH","1","odd","6429","NA","NA","71893","NA","NA","87278","86227","1247","NA","NA","87276","87380","1245","87380","87875","Flanker Task","44","25835","46","yes","1024"
"95.7446808511","95.7446808511","559.127659574","559.127659574","black","no","legacy","legacy","legacy","0","congruent","uniform","1","undefined","1","h","0","0","0","46","46","0","46","46","0","0","0","46","46","0","46","46","09/03/18 13:59:03","1500","The main experiment item","yes","FlankerTask.osexp","C:/Users/Anabel/Desktop","no","mono","no","18","no","white","no","yes","768","legacy","46","46","C:/Users/Anabel/Desktop/AW-subject-1.csv","legacy","Jazzy James","3.1.9","0","h","NA","h","NA","NA","h","444","NA","5180","NA","NA","444","2","legacy","1024","2","48000","-16","experiment","HHHHH","1","odd","6429","NA","NA","71893","NA","NA","88982","87927","1247","NA","NA","88980","89084","1245","89084","89529","Flanker Task","45","26279","47","yes","1024"
"95.8333333333","95.8333333333","559.104166667","559.104166667","black","no","legacy","legacy","legacy","0","incongruent","uniform","1","undefined","1","s","0","0","0","47","47","0","47","47","0","0","0","47","47","0","47","47","09/03/18 13:59:03","1500","The main experiment item","yes","FlankerTask.osexp","C:/Users/Anabel/Desktop","no","mono","no","18","no","white","no","yes","768","legacy","47","47","C:/Users/Anabel/Desktop/AW-subject-1.csv","legacy","Jazzy James","3.1.9","0","s","NA","h","NA","NA","s","558","NA","5180","NA","NA","558","2","legacy","1024","2","48000","-16","experiment","HHSHH","1","odd","6429","NA","NA","71893","NA","NA","90636","89583","1247","NA","NA","90634","90738","1245","90738","91298","Flanker Task","46","26837","48","yes","1024"
"95.9183673469","95.9183673469","558.326530612","558.326530612","black","no","legacy","legacy","legacy","0","incongruent","uniform","1","undefined","1","s","0","0","0","48","48","0","48","48","0","0","0","48","48","0","48","48","09/03/18 13:59:03","1500","The main experiment item","yes","FlankerTask.osexp","C:/Users/Anabel/Desktop","no","mono","no","18","no","white","no","yes","768","legacy","48","48","C:/Users/Anabel/Desktop/AW-subject-1.csv","legacy","Jazzy James","3.1.9","0","s","NA","h","NA","NA","s","521","NA","5180","NA","NA","521","2","legacy","1024","2","48000","-16","experiment","HHSHH","1","odd","6429","NA","NA","71893","NA","NA","92409","91361","1247","NA","NA","92407","92511","1245","92511","93034","Flanker Task","47","27358","49","yes","1024"
"96","96","558.08","558.08","black","no","legacy","legacy","legacy","0","incongruent","uniform","1","undefined","1","h","0","0","0","49","49","0","49","49","0","0","0","49","49","0","49","49","09/03/18 13:59:03","1500","The main experiment item","yes","FlankerTask.osexp","C:/Users/Anabel/Desktop","no","mono","no","18","no","white","no","yes","768","legacy","49","49","C:/Users/Anabel/Desktop/AW-subject-1.csv","legacy","Jazzy James","3.1.9","0","h","NA","h","NA","NA","h","546","NA","5180","NA","NA","546","2","legacy","1024","2","48000","-16","experiment","SSHSS","1","odd","6429","NA","NA","71893","NA","NA","94147","93094","1247","NA","NA","94145","94249","1245","94249","94796","Flanker Task","48","27904","50","yes","1024"
"96.0784313725","96.0784313725","556.196078431","556.196078431","black","no","legacy","legacy","legacy","0","congruent","uniform","1","undefined","1","h","0","0","0","50","50","0","50","50","0","0","0","50","50","0","50","50","09/03/18 13:59:03","1500","The main experiment item","yes","FlankerTask.osexp","C:/Users/Anabel/Desktop","no","mono","no","18","no","white","no","yes","768","legacy","50","50","C:/Users/Anabel/Desktop/AW-subject-1.csv","legacy","Jazzy James","3.1.9","0","h","NA","h","NA","NA","h","462","NA","5180","NA","NA","462","2","legacy","1024","2","48000","-16","experiment","HHHHH","1","odd","6429","NA","NA","71893","NA","NA","95883","94827","1247","NA","NA","95881","95985","1245","95985","96448","Flanker Task","49","28366","51","yes","1024"
"96.1538461538","96.1538461538","556.057692308","556.057692308","black","no","legacy","legacy","legacy","0","incongruent","uniform","1","undefined","1","s","0","0","0","51","51","0","51","51","0","0","0","51","51","0","51","51","09/03/18 13:59:03","1500","The main experiment item","yes","FlankerTask.osexp","C:/Users/Anabel/Desktop","no","mono","no","18","no","white","no","yes","768","legacy","51","51","C:/Users/Anabel/Desktop/AW-subject-1.csv","legacy","Jazzy James","3.1.9","0","s","NA","h","NA","NA","s","549","NA","5180","NA","NA","549","2","legacy","1024","2","48000","-16","experiment","HHSHH","1","odd","6429","NA","NA","71893","NA","NA","97567","96516","1247","NA","NA","97565","97669","1245","97669","98219","Flanker Task","50","28915","52","yes","1024"
"96.2264150943","96.2264150943","554.41509434","554.41509434","black","no","legacy","legacy","legacy","0","incongruent","uniform","1","undefined","1","h","0","0","0","52","52","0","52","52","0","0","0","52","52","0","52","52","09/03/18 13:59:03","1500","The main experiment item","yes","FlankerTask.osexp","C:/Users/Anabel/Desktop","no","mono","no","18","no","white","no","yes","768","legacy","52","52","C:/Users/Anabel/Desktop/AW-subject-1.csv","legacy","Jazzy James","3.1.9","0","h","NA","h","NA","NA","h","469","NA","5180","NA","NA","469","2","legacy","1024","2","48000","-16","experiment","SSHSS","1","odd","6429","NA","NA","71893","NA","NA","99331","98272","1247","NA","NA","99330","99433","1245","99433","99903","Flanker Task","51","29384","53","yes","1024"
"96.2962962963","96.2962962963","556.574074074","556.574074074","black","no","legacy","legacy","legacy","0","incongruent","uniform","1","undefined","1","h","0","0","0","53","53","0","53","53","0","0","0","53","53","0","53","53","09/03/18 13:59:03","1500","The main experiment item","yes","FlankerTask.osexp","C:/Users/Anabel/Desktop","no","mono","no","18","no","white","no","yes","768","legacy","53","53","C:/Users/Anabel/Desktop/AW-subject-1.csv","legacy","Jazzy James","3.1.9","0","h","NA","h","NA","NA","h","671","NA","5180","NA","NA","671","2","legacy","1024","2","48000","-16","experiment","SSHSS","1","odd","6429","NA","NA","71893","NA","NA","101015","99960","1247","NA","NA","101013","101117","1245","101117","101789","Flanker Task","52","30055","54","yes","1024"
"96.3636363636","96.3636363636","555.818181818","555.818181818","black","no","legacy","legacy","legacy","0","congruent","uniform","1","undefined","1","s","0","0","0","54","54","0","54","54","0","0","0","54","54","0","54","54","09/03/18 13:59:03","1500","The main experiment item","yes","FlankerTask.osexp","C:/Users/Anabel/Desktop","no","mono","no","18","no","white","no","yes","768","legacy","54","54","C:/Users/Anabel/Desktop/AW-subject-1.csv","legacy","Jazzy James","3.1.9","0","s","NA","h","NA","NA","s","515","NA","5180","NA","NA","515","2","legacy","1024","2","48000","-16","experiment","SSSSS","1","odd","6429","NA","NA","71893","NA","NA","102900","101838","1247","NA","NA","102898","103002","1245","103002","103518","Flanker Task","53","30570","55","yes","1024"
"96.4285714286","96.4285714286","554","554","black","no","legacy","legacy","legacy","0","congruent","uniform","1","undefined","1","h","0","0","0","55","55","0","55","55","0","0","0","55","55","0","55","55","09/03/18 13:59:03","1500","The main experiment item","yes","FlankerTask.osexp","C:/Users/Anabel/Desktop","no","mono","no","18","no","white","no","yes","768","legacy","55","55","C:/Users/Anabel/Desktop/AW-subject-1.csv","legacy","Jazzy James","3.1.9","0","h","NA","h","NA","NA","h","454","NA","5180","NA","NA","454","2","legacy","1024","2","48000","-16","experiment","HHHHH","1","odd","6429","NA","NA","71893","NA","NA","104620","103571","1247","NA","NA","104618","104722","1245","104722","105177","Flanker Task","54","31024","56","yes","1024"
"96.4912280702","96.4912280702","553.894736842","553.894736842","black","no","legacy","legacy","legacy","0","incongruent","uniform","1","undefined","1","s","0","0","0","56","56","0","56","56","0","0","0","56","56","0","56","56","09/03/18 13:59:03","1500","The main experiment item","yes","FlankerTask.osexp","C:/Users/Anabel/Desktop","no","mono","no","18","no","white","no","yes","768","legacy","56","56","C:/Users/Anabel/Desktop/AW-subject-1.csv","legacy","Jazzy James","3.1.9","0","s","NA","h","NA","NA","s","548","NA","5180","NA","NA","548","2","legacy","1024","2","48000","-16","experiment","HHSHH","1","odd","6429","NA","NA","71893","NA","NA","106290","105229","1247","NA","NA","106288","106392","1245","106392","106942","Flanker Task","55","31572","57","yes","1024"
"96.5517241379","96.5517241379","554.775862069","554.775862069","black","no","legacy","legacy","legacy","0","incongruent","uniform","1","undefined","1","s","0","0","0","57","57","0","57","57","0","0","0","57","57","0","57","57","09/03/18 13:59:03","1500","The main experiment item","yes","FlankerTask.osexp","C:/Users/Anabel/Desktop","no","mono","no","18","no","white","no","yes","768","legacy","57","57","C:/Users/Anabel/Desktop/AW-subject-1.csv","legacy","Jazzy James","3.1.9","0","s","NA","h","NA","NA","s","605","NA","5180","NA","NA","605","2","legacy","1024","2","48000","-16","experiment","HHSHH","1","odd","6429","NA","NA","71893","NA","NA","108031","106971","1247","NA","NA","108029","108133","1245","108133","108739","Flanker Task","56","32177","58","yes","1024"
"96.6101694915","96.6101694915","553.406779661","553.406779661","black","no","legacy","legacy","legacy","0","congruent","uniform","1","undefined","1","h","0","0","0","58","58","0","58","58","0","0","0","58","58","0","58","58","09/03/18 13:59:03","1500","The main experiment item","yes","FlankerTask.osexp","C:/Users/Anabel/Desktop","no","mono","no","18","no","white","no","yes","768","legacy","58","58","C:/Users/Anabel/Desktop/AW-subject-1.csv","legacy","Jazzy James","3.1.9","0","h","NA","h","NA","NA","h","474","NA","5180","NA","NA","474","2","legacy","1024","2","48000","-16","experiment","HHHHH","1","odd","6429","NA","NA","71893","NA","NA","109834","108782","1247","NA","NA","109833","109937","1245","109937","110412","Flanker Task","57","32651","59","yes","1024"
"96.6666666667","96.6666666667","553.6","553.6","black","no","legacy","legacy","legacy","0","incongruent","uniform","1","undefined","1","s","0","0","0","59","59","0","59","59","0","0","0","59","59","0","59","59","09/03/18 13:59:03","1500","The main experiment item","yes","FlankerTask.osexp","C:/Users/Anabel/Desktop","no","mono","no","18","no","white","no","yes","768","legacy","59","59","C:/Users/Anabel/Desktop/AW-subject-1.csv","legacy","Jazzy James","3.1.9","0","s","NA","h","NA","NA","s","565","NA","5180","NA","NA","565","2","legacy","1024","2","48000","-16","experiment","HHSHH","1","odd","6429","NA","NA","71893","NA","NA","111527","110471","1247","NA","NA","111525","111628","1245","111628","112194","Flanker Task","58","33216","60","yes","1024"
"96.7213114754","96.7213114754","552.098360656","552.098360656","black","no","legacy","legacy","legacy","0","congruent","uniform","1","undefined","1","h","0","0","0","60","60","0","60","60","0","0","0","60","60","0","60","60","09/03/18 13:59:03","1500","The main experiment item","yes","FlankerTask.osexp","C:/Users/Anabel/Desktop","no","mono","no","18","no","white","no","yes","768","legacy","60","60","C:/Users/Anabel/Desktop/AW-subject-1.csv","legacy","Jazzy James","3.1.9","0","h","NA","h","NA","NA","h","462","NA","5180","NA","NA","462","2","legacy","1024","2","48000","-16","experiment","HHHHH","1","odd","6429","NA","NA","71893","NA","NA","113284","112227","1247","NA","NA","113282","113386","1245","113386","113849","Flanker Task","59","33678","61","yes","1024"
"96.7741935484","96.7741935484","551.016129032","551.016129032","black","no","legacy","legacy","legacy","0","congruent","uniform","1","undefined","1","h","0","0","0","61","61","0","61","61","0","0","0","61","61","0","61","61","09/03/18 13:59:03","1500","The main experiment item","yes","FlankerTask.osexp","C:/Users/Anabel/Desktop","no","mono","no","18","no","white","no","yes","768","legacy","61","61","C:/Users/Anabel/Desktop/AW-subject-1.csv","legacy","Jazzy James","3.1.9","0","h","NA","h","NA","NA","h","485","NA","5180","NA","NA","485","2","legacy","1024","2","48000","-16","experiment","HHHHH","1","odd","6429","NA","NA","71893","NA","NA","114968","113916","1247","NA","NA","114966","115070","1245","115070","115556","Flanker Task","60","34163","62","yes","1024"
"96.8253968254","96.8253968254","550.936507937","550.936507937","black","no","legacy","legacy","legacy","0","congruent","uniform","1","undefined","1","h","0","0","0","62","62","0","62","62","0","0","0","62","62","0","62","62","09/03/18 13:59:03","1500","The main experiment item","yes","FlankerTask.osexp","C:/Users/Anabel/Desktop","no","mono","no","18","no","white","no","yes","768","legacy","62","62","C:/Users/Anabel/Desktop/AW-subject-1.csv","legacy","Jazzy James","3.1.9","0","h","NA","h","NA","NA","h","546","NA","5180","NA","NA","546","2","legacy","1024","2","48000","-16","experiment","HHHHH","1","odd","6429","NA","NA","71893","NA","NA","116647","115605","1247","NA","NA","116646","116748","1245","116748","117295","Flanker Task","61","34709","63","yes","1024"
"96.875","96.875","550.875","550.875","black","no","legacy","legacy","legacy","0","congruent","uniform","1","undefined","1","s","0","0","0","63","63","0","63","63","0","0","0","63","63","0","63","63","09/03/18 13:59:03","1500","The main experiment item","yes","FlankerTask.osexp","C:/Users/Anabel/Desktop","no","mono","no","18","no","white","no","yes","768","legacy","63","63","C:/Users/Anabel/Desktop/AW-subject-1.csv","legacy","Jazzy James","3.1.9","0","s","NA","h","NA","NA","s","547","NA","5180","NA","NA","547","2","legacy","1024","2","48000","-16","experiment","SSSSS","1","odd","6429","NA","NA","71893","NA","NA","118531","117467","1247","NA","NA","118529","118633","1245","118633","119181","Flanker Task","62","35256","64","yes","1024"
"96.9230769231","96.9230769231","549.969230769","549.969230769","black","no","legacy","legacy","legacy","0","congruent","uniform","1","undefined","1","s","0","0","0","64","64","0","64","64","0","0","0","64","64","0","64","64","09/03/18 13:59:03","1500","The main experiment item","yes","FlankerTask.osexp","C:/Users/Anabel/Desktop","no","mono","no","18","no","white","no","yes","768","legacy","64","64","C:/Users/Anabel/Desktop/AW-subject-1.csv","legacy","Jazzy James","3.1.9","0","s","NA","h","NA","NA","s","492","NA","5180","NA","NA","492","2","legacy","1024","2","48000","-16","experiment","SSSSS","1","odd","6429","NA","NA","71893","NA","NA","120278","119228","1247","NA","NA","120277","120381","1245","120381","120874","Flanker Task","63","35748","65","yes","1024"
"96.9696969697","96.9696969697","548.318181818","548.318181818","black","no","legacy","legacy","legacy","0","congruent","uniform","1","undefined","1","s","0","0","0","65","65","0","65","65","0","0","0","65","65","0","65","65","09/03/18 13:59:03","1500","The main experiment item","yes","FlankerTask.osexp","C:/Users/Anabel/Desktop","no","mono","no","18","no","white","no","yes","768","legacy","65","65","C:/Users/Anabel/Desktop/AW-subject-1.csv","legacy","Jazzy James","3.1.9","0","s","NA","h","NA","NA","s","441","NA","5180","NA","NA","441","2","legacy","1024","2","48000","-16","experiment","SSSSS","1","odd","6429","NA","NA","71893","NA","NA","121984","120928","1247","NA","NA","121983","122086","1245","122086","122528","Flanker Task","64","36189","66","yes","1024"
"97.0149253731","97.0149253731","550.865671642","550.865671642","black","no","legacy","legacy","legacy","0","incongruent","uniform","1","undefined","1","s","0","0","0","66","66","0","66","66","0","0","0","66","66","0","66","66","09/03/18 13:59:03","1500","The main experiment item","yes","FlankerTask.osexp","C:/Users/Anabel/Desktop","no","mono","no","18","no","white","no","yes","768","legacy","66","66","C:/Users/Anabel/Desktop/AW-subject-1.csv","legacy","Jazzy James","3.1.9","0","s","NA","h","NA","NA","s","719","NA","5180","NA","NA","719","2","legacy","1024","2","48000","-16","experiment","HHSHH","1","odd","6429","NA","NA","71893","NA","NA","123609","122560","1247","NA","NA","123607","123711","1245","123711","124431","Flanker Task","65","36908","67","yes","1024"
"97.0588235294","97.0588235294","550.75","550.75","black","no","legacy","legacy","legacy","0","incongruent","uniform","1","undefined","1","s","0","0","0","67","67","0","67","67","0","0","0","67","67","0","67","67","09/03/18 13:59:03","1500","The main experiment item","yes","FlankerTask.osexp","C:/Users/Anabel/Desktop","no","mono","no","18","no","white","no","yes","768","legacy","67","67","C:/Users/Anabel/Desktop/AW-subject-1.csv","legacy","Jazzy James","3.1.9","0","s","NA","h","NA","NA","s","543","NA","5180","NA","NA","543","2","legacy","1024","2","48000","-16","experiment","HHSHH","1","odd","6429","NA","NA","71893","NA","NA","125578","124516","1247","NA","NA","125577","125680","1245","125680","126224","Flanker Task","66","37451","68","yes","1024"
"97.1014492754","97.1014492754","551.115942029","551.115942029","black","no","legacy","legacy","legacy","0","incongruent","uniform","1","undefined","1","h","0","0","0","68","68","0","68","68","0","0","0","68","68","0","68","68","09/03/18 13:59:03","1500","The main experiment item","yes","FlankerTask.osexp","C:/Users/Anabel/Desktop","no","mono","no","18","no","white","no","yes","768","legacy","68","68","C:/Users/Anabel/Desktop/AW-subject-1.csv","legacy","Jazzy James","3.1.9","0","h","NA","h","NA","NA","h","576","NA","5180","NA","NA","576","2","legacy","1024","2","48000","-16","experiment","SSHSS","1","odd","6429","NA","NA","71893","NA","NA","127326","126271","1247","NA","NA","127324","127428","1245","127428","128005","Flanker Task","67","38027","69","yes","1024"
"97.1428571429","97.1428571429","550.642857143","550.642857143","black","no","legacy","legacy","legacy","0","incongruent","uniform","1","undefined","1","s","0","0","0","69","69","0","69","69","0","0","0","69","69","0","69","69","09/03/18 13:59:03","1500","The main experiment item","yes","FlankerTask.osexp","C:/Users/Anabel/Desktop","no","mono","no","18","no","white","no","yes","768","legacy","69","69","C:/Users/Anabel/Desktop/AW-subject-1.csv","legacy","Jazzy James","3.1.9","0","s","NA","h","NA","NA","s","518","NA","5180","NA","NA","518","2","legacy","1024","2","48000","-16","experiment","HHSHH","1","odd","6429","NA","NA","71893","NA","NA","129100","128049","1247","NA","NA","129098","129202","1245","129202","129721","Flanker Task","68","38545","70","yes","1024"
"97.1830985915","97.1830985915","549.943661972","549.943661972","black","no","legacy","legacy","legacy","0","incongruent","uniform","1","undefined","1","h","0","0","0","70","70","0","70","70","0","0","0","70","70","0","70","70","09/03/18 13:59:03","1500","The main experiment item","yes","FlankerTask.osexp","C:/Users/Anabel/Desktop","no","mono","no","18","no","white","no","yes","768","legacy","70","70","C:/Users/Anabel/Desktop/AW-subject-1.csv","legacy","Jazzy James","3.1.9","0","h","NA","h","NA","NA","h","501","NA","5180","NA","NA","501","2","legacy","1024","2","48000","-16","experiment","SSHSS","1","odd","6429","NA","NA","71893","NA","NA","130837","129783","1247","NA","NA","130835","130939","1245","130939","131441","Flanker Task","69","39046","71","yes","1024"
"97.2222222222","97.2222222222","549.263888889","549.263888889","black","no","legacy","legacy","legacy","0","incongruent","uniform","1","undefined","1","s","0","0","0","71","71","0","71","71","0","0","0","71","71","0","71","71","09/03/18 13:59:03","1500","The main experiment item","yes","FlankerTask.osexp","C:/Users/Anabel/Desktop","no","mono","no","18","no","white","no","yes","768","legacy","71","71","C:/Users/Anabel/Desktop/AW-subject-1.csv","legacy","Jazzy James","3.1.9","0","s","NA","h","NA","NA","s","501","NA","5180","NA","NA","501","2","legacy","1024","2","48000","-16","experiment","HHSHH","1","odd","6429","NA","NA","71893","NA","NA","132550","131494","1247","NA","NA","132548","132652","1245","132652","133154","Flanker Task","70","39547","72","yes","1024"
"97.2602739726","97.2602739726","549.438356164","549.438356164","black","no","legacy","legacy","legacy","0","incongruent","uniform","1","undefined","1","h","0","0","0","72","72","0","72","72","0","0","0","72","72","0","72","72","09/03/18 13:59:03","1500","The main experiment item","yes","FlankerTask.osexp","C:/Users/Anabel/Desktop","no","mono","no","18","no","white","no","yes","768","legacy","72","72","C:/Users/Anabel/Desktop/AW-subject-1.csv","legacy","Jazzy James","3.1.9","0","h","NA","h","NA","NA","h","562","NA","5180","NA","NA","562","2","legacy","1024","2","48000","-16","experiment","SSHSS","1","odd","6429","NA","NA","71893","NA","NA","134279","133216","1247","NA","NA","134277","134381","1245","134381","134944","Flanker Task","71","40109","73","yes","1024"
"97.2972972973","97.2972972973","550.797297297","550.797297297","black","no","legacy","legacy","legacy","0","incongruent","uniform","1","undefined","1","s","0","0","0","73","73","0","73","73","0","0","0","73","73","0","73","73","09/03/18 13:59:03","1500","The main experiment item","yes","FlankerTask.osexp","C:/Users/Anabel/Desktop","no","mono","no","18","no","white","no","yes","768","legacy","73","73","C:/Users/Anabel/Desktop/AW-subject-1.csv","legacy","Jazzy James","3.1.9","0","s","NA","h","NA","NA","s","650","NA","5180","NA","NA","650","2","legacy","1024","2","48000","-16","experiment","HHSHH","1","odd","6429","NA","NA","71893","NA","NA","136053","134994","1247","NA","NA","136051","136155","1245","136155","136806","Flanker Task","72","40759","74","yes","1024"
"97.3333333333","97.3333333333","551.24","551.24","black","no","legacy","legacy","legacy","0","congruent","uniform","1","undefined","1","s","0","0","0","74","74","0","74","74","0","0","0","74","74","0","74","74","09/03/18 13:59:03","1500","The main experiment item","yes","FlankerTask.osexp","C:/Users/Anabel/Desktop","no","mono","no","18","no","white","no","yes","768","legacy","74","74","C:/Users/Anabel/Desktop/AW-subject-1.csv","legacy","Jazzy James","3.1.9","0","s","NA","h","NA","NA","s","584","NA","5180","NA","NA","584","2","legacy","1024","2","48000","-16","experiment","SSSSS","1","odd","6429","NA","NA","71893","NA","NA","137920","136872","1247","NA","NA","137918","138022","1245","138022","138607","Flanker Task","73","41343","75","yes","1024"
"97.3684210526","97.3684210526","550.131578947","550.131578947","black","no","legacy","legacy","legacy","0","congruent","uniform","1","undefined","1","h","0","0","0","75","75","0","75","75","0","0","0","75","75","0","75","75","09/03/18 13:59:03","1500","The main experiment item","yes","FlankerTask.osexp","C:/Users/Anabel/Desktop","no","mono","no","18","no","white","no","yes","768","legacy","75","75","C:/Users/Anabel/Desktop/AW-subject-1.csv","legacy","Jazzy James","3.1.9","0","h","NA","h","NA","NA","h","467","NA","5180","NA","NA","467","2","legacy","1024","2","48000","-16","experiment","HHHHH","1","odd","6429","NA","NA","71893","NA","NA","139720","138672","1247","NA","NA","139718","139822","1245","139822","140291","Flanker Task","74","41810","76","yes","1024"
"97.4025974026","97.4025974026","549.220779221","549.220779221","black","no","legacy","legacy","legacy","0","congruent","uniform","1","undefined","1","h","0","0","0","76","76","0","76","76","0","0","0","76","76","0","76","76","09/03/18 13:59:03","1500","The main experiment item","yes","FlankerTask.osexp","C:/Users/Anabel/Desktop","no","mono","no","18","no","white","no","yes","768","legacy","76","76","C:/Users/Anabel/Desktop/AW-subject-1.csv","legacy","Jazzy James","3.1.9","0","h","NA","h","NA","NA","h","480","NA","5180","NA","NA","480","2","legacy","1024","2","48000","-16","experiment","HHHHH","1","odd","6429","NA","NA","71893","NA","NA","141397","140339","1247","NA","NA","141395","141499","1245","141499","141981","Flanker Task","75","42290","77","yes","1024"
"97.4358974359","97.4358974359","549.461538462","549.461538462","black","no","legacy","legacy","legacy","0","congruent","uniform","1","undefined","1","s","0","0","0","77","77","0","77","77","0","0","0","77","77","0","77","77","09/03/18 13:59:03","1500","The main experiment item","yes","FlankerTask.osexp","C:/Users/Anabel/Desktop","no","mono","no","18","no","white","no","yes","768","legacy","77","77","C:/Users/Anabel/Desktop/AW-subject-1.csv","legacy","Jazzy James","3.1.9","0","s","NA","h","NA","NA","s","568","NA","5180","NA","NA","568","2","legacy","1024","2","48000","-16","experiment","SSSSS","1","odd","6429","NA","NA","71893","NA","NA","143100","142038","1247","NA","NA","143098","143202","1245","143202","143772","Flanker Task","76","42858","78","yes","1024"
"97.4683544304","97.4683544304","548.670886076","548.670886076","black","no","legacy","legacy","legacy","0","congruent","uniform","1","undefined","1","h","0","0","0","78","78","0","78","78","0","0","0","78","78","0","78","78","09/03/18 13:59:03","1500","The main experiment item","yes","FlankerTask.osexp","C:/Users/Anabel/Desktop","no","mono","no","18","no","white","no","yes","768","legacy","78","78","C:/Users/Anabel/Desktop/AW-subject-1.csv","legacy","Jazzy James","3.1.9","0","h","NA","h","NA","NA","h","487","NA","5180","NA","NA","487","2","legacy","1024","2","48000","-16","experiment","HHHHH","1","odd","6429","NA","NA","71893","NA","NA","144874","143816","1247","NA","NA","144872","144976","1245","144976","145465","Flanker Task","77","43345","79","yes","1024"
"97.5","97.5","548.9375","548.9375","black","no","legacy","legacy","legacy","0","incongruent","uniform","1","undefined","1","h","0","0","0","79","79","0","79","79","0","0","0","79","79","0","79","79","09/03/18 13:59:03","1500","The main experiment item","yes","FlankerTask.osexp","C:/Users/Anabel/Desktop","no","mono","no","18","no","white","no","yes","768","legacy","79","79","C:/Users/Anabel/Desktop/AW-subject-1.csv","legacy","Jazzy James","3.1.9","0","h","NA","h","NA","NA","h","570","NA","5180","NA","NA","570","2","legacy","1024","2","48000","-16","experiment","SSHSS","1","odd","6429","NA","NA","71893","NA","NA","146535","145493","1247","NA","NA","146534","146637","1245","146637","147208","Flanker Task","78","43915","80","yes","1024"
"97.5308641975","97.5308641975","553.87654321","553.87654321","black","no","legacy","legacy","legacy","0","incongruent","uniform","1","undefined","1","s","0","0","0","80","80","0","80","80","0","0","0","80","80","0","80","80","09/03/18 13:59:03","600","The main experiment item","yes","FlankerTask.osexp","C:/Users/Anabel/Desktop","no","mono","no","18","no","white","no","yes","768","legacy","0","79","C:/Users/Anabel/Desktop/AW-subject-1.csv","legacy","Jazzy James","3.1.9","0","s","NA","h","s","NA","s","949","NA","5180","16248","NA","949","2","legacy","1024","2","48000","-16","experiment","HHSHH","1","odd","6429","164529","NA","71893","NA","NA","164570","147261","1247","148280","NA","164569","164672","1245","164672","165622","Flanker Task","79","44864","81","yes","1024"
"97.5609756098","97.5609756098","555.743902439","555.743902439","black","no","legacy","legacy","legacy","0","congruent","uniform","1","undefined","1","s","0","0","0","81","81","0","81","81","0","0","0","81","81","0","81","81","09/03/18 13:59:03","600","The main experiment item","yes","FlankerTask.osexp","C:/Users/Anabel/Desktop","no","mono","no","18","no","white","no","yes","768","legacy","1","79","C:/Users/Anabel/Desktop/AW-subject-1.csv","legacy","Jazzy James","3.1.9","0","s","NA","h","s","NA","s","707","NA","5180","16248","NA","707","2","legacy","1024","2","48000","-16","experiment","SSSSS","1","odd","6429","164529","NA","71893","165695","NA","167255","166197","1247","148280","NA","167253","167357","1245","167357","168065","Flanker Task","80","45571","82","yes","1024"
"96.3855421687","96.3855421687","555.337349398","555.337349398","black","no","legacy","legacy","legacy","0","incongruent","uniform","0","undefined","0","s","0","0","0","82","82","0","82","82","0","0","0","82","82","0","82","82","09/03/18 13:59:03","600","The main experiment item","yes","FlankerTask.osexp","C:/Users/Anabel/Desktop","no","mono","no","18","no","white","no","yes","768","legacy","2","79","C:/Users/Anabel/Desktop/AW-subject-1.csv","legacy","Jazzy James","3.1.9","0","h","NA","h","s","NA","h","522","NA","5180","16248","NA","522","2","legacy","1024","2","48000","-16","experiment","HHSHH","1","odd","6429","164529","NA","71893","168128","NA","169684","168630","1247","148280","NA","169683","169786","1245","169786","170309","Flanker Task","80","46093","83","yes","1024"
"96.4285714286","96.4285714286","555.714285714","555.714285714","black","no","legacy","legacy","legacy","0","incongruent","uniform","1","undefined","1","s","0","0","0","83","83","0","83","83","0","0","0","83","83","0","83","83","09/03/18 13:59:03","600","The main experiment item","yes","FlankerTask.osexp","C:/Users/Anabel/Desktop","no","mono","no","18","no","white","no","yes","768","legacy","3","79","C:/Users/Anabel/Desktop/AW-subject-1.csv","legacy","Jazzy James","3.1.9","0","s","NA","h","s","NA","s","587","NA","5180","16248","NA","587","2","legacy","1024","2","48000","-16","experiment","HHSHH","1","odd","6429","164529","NA","170349","168128","NA","171905","170851","1247","148280","NA","171903","172007","1245","172007","172595","Flanker Task","81","46680","84","yes","1024"
"96.4705882353","96.4705882353","555.223529412","555.223529412","black","no","legacy","legacy","legacy","0","incongruent","uniform","1","undefined","1","s","0","0","0","84","84","0","84","84","0","0","0","84","84","0","84","84","09/03/18 13:59:03","600","The main experiment item","yes","FlankerTask.osexp","C:/Users/Anabel/Desktop","no","mono","no","18","no","white","no","yes","768","legacy","4","79","C:/Users/Anabel/Desktop/AW-subject-1.csv","legacy","Jazzy James","3.1.9","0","s","NA","h","s","NA","s","514","NA","5180","16248","NA","514","2","legacy","1024","2","48000","-16","experiment","HHSHH","1","odd","6429","164529","NA","170349","168128","NA","173700","172639","1247","148280","NA","173698","173802","1245","173802","174319","Flanker Task","82","47194","85","yes","1024"
"96.511627907","96.511627907","556.046511628","556.046511628","black","no","legacy","legacy","legacy","0","incongruent","uniform","1","undefined","1","h","0","0","0","85","85","0","85","85","0","0","0","85","85","0","85","85","09/03/18 13:59:03","600","The main experiment item","yes","FlankerTask.osexp","C:/Users/Anabel/Desktop","no","mono","no","18","no","white","no","yes","768","legacy","5","79","C:/Users/Anabel/Desktop/AW-subject-1.csv","legacy","Jazzy James","3.1.9","0","h","NA","h","s","NA","h","626","NA","5180","16248","NA","626","2","legacy","1024","2","48000","-16","experiment","SSHSS","1","odd","6429","164529","NA","170349","168128","NA","175427","174372","1247","148280","NA","175425","175529","1245","175529","176156","Flanker Task","83","47820","86","yes","1024"
"96.5517241379","96.5517241379","555.770114943","555.770114943","black","no","legacy","legacy","legacy","0","incongruent","uniform","1","undefined","1","s","0","0","0","86","86","0","86","86","0","0","0","86","86","0","86","86","09/03/18 13:59:03","600","The main experiment item","yes","FlankerTask.osexp","C:/Users/Anabel/Desktop","no","mono","no","18","no","white","no","yes","768","legacy","6","79","C:/Users/Anabel/Desktop/AW-subject-1.csv","legacy","Jazzy James","3.1.9","0","s","NA","h","s","NA","s","532","NA","5180","16248","NA","532","2","legacy","1024","2","48000","-16","experiment","HHSHH","1","odd","6429","164529","NA","170349","176193","NA","177753","176695","1247","148280","NA","177751","177855","1245","177855","178388","Flanker Task","84","48352","87","yes","1024"
"96.5909090909","96.5909090909","554.897727273","554.897727273","black","no","legacy","legacy","legacy","0","congruent","uniform","1","undefined","1","h","0","0","0","87","87","0","87","87","0","0","0","87","87","0","87","87","09/03/18 13:59:03","600","The main experiment item","yes","FlankerTask.osexp","C:/Users/Anabel/Desktop","no","mono","no","18","no","white","no","yes","768","legacy","7","79","C:/Users/Anabel/Desktop/AW-subject-1.csv","legacy","Jazzy James","3.1.9","0","h","NA","h","s","NA","h","479","NA","5180","16248","NA","479","2","legacy","1024","2","48000","-16","experiment","HHHHH","1","odd","6429","164529","NA","170349","176193","NA","179499","178450","1247","148280","NA","179498","179602","1245","179602","180082","Flanker Task","85","48831","88","yes","1024"
"96.6292134831","96.6292134831","553.393258427","553.393258427","black","no","legacy","legacy","legacy","0","congruent","uniform","1","undefined","1","s","0","0","0","88","88","0","88","88","0","0","0","88","88","0","88","88","09/03/18 13:59:03","600","The main experiment item","yes","FlankerTask.osexp","C:/Users/Anabel/Desktop","no","mono","no","18","no","white","no","yes","768","legacy","8","79","C:/Users/Anabel/Desktop/AW-subject-1.csv","legacy","Jazzy James","3.1.9","0","s","NA","h","s","NA","s","421","NA","5180","16248","NA","421","2","legacy","1024","2","48000","-16","experiment","SSSSS","1","odd","6429","164529","NA","170349","176193","NA","181200","180139","1247","148280","NA","181199","181302","1245","181302","181724","Flanker Task","86","49252","89","yes","1024"
"96.6666666667","96.6666666667","552.377777778","552.377777778","black","no","legacy","legacy","legacy","0","congruent","uniform","1","undefined","1","h","0","0","0","89","89","0","89","89","0","0","0","89","89","0","89","89","09/03/18 13:59:03","600","The main experiment item","yes","FlankerTask.osexp","C:/Users/Anabel/Desktop","no","mono","no","18","no","white","no","yes","768","legacy","9","79","C:/Users/Anabel/Desktop/AW-subject-1.csv","legacy","Jazzy James","3.1.9","0","h","NA","h","s","NA","h","462","NA","5180","16248","NA","462","2","legacy","1024","2","48000","-16","experiment","HHHHH","1","odd","6429","164529","NA","170349","176193","NA","182857","181805","1247","148280","NA","182855","182959","1245","182959","183422","Flanker Task","87","49714","90","yes","1024"
"96.7032967033","96.7032967033","550.637362637","550.637362637","black","no","legacy","legacy","legacy","0","incongruent","uniform","1","undefined","1","s","0","0","0","90","90","0","90","90","0","0","0","90","90","0","90","90","09/03/18 13:59:03","600","The main experiment item","yes","FlankerTask.osexp","C:/Users/Anabel/Desktop","no","mono","no","18","no","white","no","yes","768","legacy","10","79","C:/Users/Anabel/Desktop/AW-subject-1.csv","legacy","Jazzy James","3.1.9","0","s","NA","h","s","NA","s","394","NA","5180","16248","NA","394","2","legacy","1024","2","48000","-16","experiment","HHSHH","1","odd","6429","164529","NA","170349","176193","NA","184529","183473","1247","148280","NA","184527","184631","1245","184631","185027","Flanker Task","88","50108","91","yes","1024"
"96.7391304348","96.7391304348","550.619565217","550.619565217","black","no","legacy","legacy","legacy","0","congruent","uniform","1","undefined","1","s","0","0","0","91","91","0","91","91","0","0","0","91","91","0","91","91","09/03/18 13:59:03","600","The main experiment item","yes","FlankerTask.osexp","C:/Users/Anabel/Desktop","no","mono","no","18","no","white","no","yes","768","legacy","11","79","C:/Users/Anabel/Desktop/AW-subject-1.csv","legacy","Jazzy James","3.1.9","0","s","NA","h","s","NA","s","549","NA","5180","16248","NA","549","2","legacy","1024","2","48000","-16","experiment","SSSSS","1","odd","6429","164529","NA","170349","176193","NA","186122","185083","1247","148280","NA","186120","186224","1245","186224","186774","Flanker Task","89","50657","92","yes","1024"
"96.7741935484","96.7741935484","549.698924731","549.698924731","black","no","legacy","legacy","legacy","0","congruent","uniform","1","undefined","1","h","0","0","0","92","92","0","92","92","0","0","0","92","92","0","92","92","09/03/18 13:59:03","600","The main experiment item","yes","FlankerTask.osexp","C:/Users/Anabel/Desktop","no","mono","no","18","no","white","no","yes","768","legacy","12","79","C:/Users/Anabel/Desktop/AW-subject-1.csv","legacy","Jazzy James","3.1.9","0","h","NA","h","s","NA","h","465","NA","5180","16248","NA","465","2","legacy","1024","2","48000","-16","experiment","HHHHH","1","odd","6429","164529","NA","170349","176193","NA","187866","186827","1247","148280","NA","187864","187968","1245","187968","188435","Flanker Task","90","51122","93","yes","1024"
"96.8085106383","96.8085106383","549.329787234","549.329787234","black","no","legacy","legacy","legacy","0","incongruent","uniform","1","undefined","1","h","0","0","0","93","93","0","93","93","0","0","0","93","93","0","93","93","09/03/18 13:59:03","600","The main experiment item","yes","FlankerTask.osexp","C:/Users/Anabel/Desktop","no","mono","no","18","no","white","no","yes","768","legacy","13","79","C:/Users/Anabel/Desktop/AW-subject-1.csv","legacy","Jazzy James","3.1.9","0","h","NA","h","s","NA","h","515","NA","5180","16248","NA","515","2","legacy","1024","2","48000","-16","experiment","SSHSS","1","odd","6429","164529","NA","170349","176193","NA","189542","188484","1247","148280","NA","189540","189644","1245","189644","190161","Flanker Task","91","51637","94","yes","1024"
"96.8421052632","96.8421052632","548.6","548.6","black","no","legacy","legacy","legacy","0","congruent","uniform","1","undefined","1","s","0","0","0","94","94","0","94","94","0","0","0","94","94","0","94","94","09/03/18 13:59:03","600","The main experiment item","yes","FlankerTask.osexp","C:/Users/Anabel/Desktop","no","mono","no","18","no","white","no","yes","768","legacy","14","79","C:/Users/Anabel/Desktop/AW-subject-1.csv","legacy","Jazzy James","3.1.9","0","s","NA","h","s","NA","s","480","NA","5180","16248","NA","480","2","legacy","1024","2","48000","-16","experiment","SSSSS","1","odd","6429","164529","NA","170349","176193","NA","191279","190216","1247","148280","NA","191277","191381","1245","191381","191862","Flanker Task","92","52117","95","yes","1024"
"96.875","96.875","547.208333333","547.208333333","black","no","legacy","legacy","legacy","0","congruent","uniform","1","undefined","1","h","0","0","0","95","95","0","95","95","0","0","0","95","95","0","95","95","09/03/18 13:59:03","600","The main experiment item","yes","FlankerTask.osexp","C:/Users/Anabel/Desktop","no","mono","no","18","no","white","no","yes","768","legacy","15","79","C:/Users/Anabel/Desktop/AW-subject-1.csv","legacy","Jazzy James","3.1.9","0","h","NA","h","s","NA","h","415","NA","5180","16248","NA","415","2","legacy","1024","2","48000","-16","experiment","HHHHH","1","odd","6429","164529","NA","170349","176193","NA","192963","191906","1247","148280","NA","192962","193065","1245","193065","193481","Flanker Task","93","52532","96","yes","1024"
"96.9072164948","96.9072164948","546.587628866","546.587628866","black","no","legacy","legacy","legacy","0","congruent","uniform","1","undefined","1","s","0","0","0","96","96","0","96","96","0","0","0","96","96","0","96","96","09/03/18 13:59:03","600","The main experiment item","yes","FlankerTask.osexp","C:/Users/Anabel/Desktop","no","mono","no","18","no","white","no","yes","768","legacy","16","79","C:/Users/Anabel/Desktop/AW-subject-1.csv","legacy","Jazzy James","3.1.9","0","s","NA","h","s","NA","s","487","NA","5180","16248","NA","487","2","legacy","1024","2","48000","-16","experiment","SSSSS","1","odd","6429","164529","NA","170349","176193","NA","194569","193515","1247","148280","NA","194568","194671","1245","194671","195160","Flanker Task","94","53019","97","yes","1024"
"96.9387755102","96.9387755102","545.93877551","545.93877551","black","no","legacy","legacy","legacy","0","incongruent","uniform","1","undefined","1","h","0","0","0","97","97","0","97","97","0","0","0","97","97","0","97","97","09/03/18 13:59:03","600","The main experiment item","yes","FlankerTask.osexp","C:/Users/Anabel/Desktop","no","mono","no","18","no","white","no","yes","768","legacy","17","79","C:/Users/Anabel/Desktop/AW-subject-1.csv","legacy","Jazzy James","3.1.9","0","h","NA","h","s","NA","h","483","NA","5180","16248","NA","483","2","legacy","1024","2","48000","-16","experiment","SSHSS","1","odd","6429","164529","NA","170349","176193","NA","196236","195183","1247","148280","NA","196234","196338","1245","196338","196822","Flanker Task","95","53502","98","yes","1024"
"96.9696969697","96.9696969697","545.484848485","545.484848485","black","no","legacy","legacy","legacy","0","incongruent","uniform","1","undefined","1","s","0","0","0","98","98","0","98","98","0","0","0","98","98","0","98","98","09/03/18 13:59:03","600","The main experiment item","yes","FlankerTask.osexp","C:/Users/Anabel/Desktop","no","mono","no","18","no","white","no","yes","768","legacy","18","79","C:/Users/Anabel/Desktop/AW-subject-1.csv","legacy","Jazzy James","3.1.9","0","s","NA","h","s","NA","s","501","NA","5180","16248","NA","501","2","legacy","1024","2","48000","-16","experiment","HHSHH","1","odd","6429","164529","NA","170349","176193","NA","197947","196895","1247","148280","NA","197945","198049","1245","198049","198553","Flanker Task","96","54003","99","yes","1024"
"97","97","545.73","545.73","black","no","legacy","legacy","legacy","0","congruent","uniform","1","undefined","1","s","0","0","0","99","99","0","99","99","0","0","0","99","99","0","99","99","09/03/18 13:59:03","600","The main experiment item","yes","FlankerTask.osexp","C:/Users/Anabel/Desktop","no","mono","no","18","no","white","no","yes","768","legacy","19","79","C:/Users/Anabel/Desktop/AW-subject-1.csv","legacy","Jazzy James","3.1.9","0","s","NA","h","s","NA","s","570","NA","5180","16248","NA","570","2","legacy","1024","2","48000","-16","experiment","SSSSS","1","odd","6429","164529","NA","170349","176193","NA","199678","198616","1247","148280","NA","199677","199780","1245","199780","200351","Flanker Task","97","54573","100","yes","1024"
"97.0297029703","97.0297029703","545.623762376","545.623762376","black","no","legacy","legacy","legacy","0","incongruent","uniform","1","undefined","1","h","0","0","0","100","100","0","100","100","0","0","0","100","100","0","100","100","09/03/18 13:59:03","600","The main experiment item","yes","FlankerTask.osexp","C:/Users/Anabel/Desktop","no","mono","no","18","no","white","no","yes","768","legacy","20","79","C:/Users/Anabel/Desktop/AW-subject-1.csv","legacy","Jazzy James","3.1.9","0","h","NA","h","s","NA","h","535","NA","5180","16248","NA","535","2","legacy","1024","2","48000","-16","experiment","SSHSS","1","odd","6429","164529","NA","170349","176193","NA","201457","200406","1247","148280","NA","201455","201559","1245","201559","202095","Flanker Task","98","55108","101","yes","1024"
"97.0588235294","97.0588235294","551.107843137","551.107843137","black","no","legacy","legacy","legacy","0","incongruent","uniform","1","undefined","1","h","0","0","0","101","101","0","101","101","0","0","0","101","101","0","101","101","09/03/18 13:59:03","600","The main experiment item","yes","FlankerTask.osexp","C:/Users/Anabel/Desktop","no","mono","no","18","no","white","no","yes","768","legacy","21","79","C:/Users/Anabel/Desktop/AW-subject-1.csv","legacy","Jazzy James","3.1.9","0","h","NA","h","s","NA","h","1105","NA","5180","16248","NA","1105","2","legacy","1024","2","48000","-16","experiment","SSHSS","1","odd","6429","164529","NA","170349","176193","NA","203198","202149","1247","148280","NA","203196","203300","1245","203300","204406","Flanker Task","99","56213","102","yes","1024"
"97.0873786408","97.0873786408","550.737864078","550.737864078","black","no","legacy","legacy","legacy","0","incongruent","uniform","1","undefined","1","h","0","0","0","102","102","0","102","102","0","0","0","102","102","0","102","102","09/03/18 13:59:03","600","The main experiment item","yes","FlankerTask.osexp","C:/Users/Anabel/Desktop","no","mono","no","18","no","white","no","yes","768","legacy","22","79","C:/Users/Anabel/Desktop/AW-subject-1.csv","legacy","Jazzy James","3.1.9","0","h","NA","h","s","NA","h","513","NA","5180","16248","NA","513","2","legacy","1024","2","48000","-16","experiment","SSHSS","1","odd","6429","164529","NA","170349","204473","NA","206031","204975","1247","148280","NA","206029","206133","1245","206133","206647","Flanker Task","100","56726","103","yes","1024"
"97.1153846154","97.1153846154","551.096153846","551.096153846","black","no","legacy","legacy","legacy","0","incongruent","uniform","1","undefined","1","h","0","0","0","103","103","0","103","103","0","0","0","103","103","0","103","103","09/03/18 13:59:03","600","The main experiment item","yes","FlankerTask.osexp","C:/Users/Anabel/Desktop","no","mono","no","18","no","white","no","yes","768","legacy","23","79","C:/Users/Anabel/Desktop/AW-subject-1.csv","legacy","Jazzy James","3.1.9","0","h","NA","h","s","NA","h","588","NA","5180","16248","NA","588","2","legacy","1024","2","48000","-16","experiment","SSHSS","1","odd","6429","164529","NA","170349","204473","NA","207726","206671","1247","148280","NA","207724","207828","1245","207828","208417","Flanker Task","101","57314","104","yes","1024"
"97.1428571429","97.1428571429","550.533333333","550.533333333","black","no","legacy","legacy","legacy","0","congruent","uniform","1","undefined","1","h","0","0","0","104","104","0","104","104","0","0","0","104","104","0","104","104","09/03/18 13:59:03","600","The main experiment item","yes","FlankerTask.osexp","C:/Users/Anabel/Desktop","no","mono","no","18","no","white","no","yes","768","legacy","24","79","C:/Users/Anabel/Desktop/AW-subject-1.csv","legacy","Jazzy James","3.1.9","0","h","NA","h","s","NA","h","492","NA","5180","16248","NA","492","2","legacy","1024","2","48000","-16","experiment","HHHHH","1","odd","6429","164529","NA","170349","204473","NA","209538","208483","1247","148280","NA","209536","209640","1245","209640","210133","Flanker Task","102","57806","105","yes","1024"
"97.1698113208","97.1698113208","550.358490566","550.358490566","black","no","legacy","legacy","legacy","0","incongruent","uniform","1","undefined","1","h","0","0","0","105","105","0","105","105","0","0","0","105","105","0","105","105","09/03/18 13:59:03","600","The main experiment item","yes","FlankerTask.osexp","C:/Users/Anabel/Desktop","no","mono","no","18","no","white","no","yes","768","legacy","25","79","C:/Users/Anabel/Desktop/AW-subject-1.csv","legacy","Jazzy James","3.1.9","0","h","NA","h","s","NA","h","532","NA","5180","16248","NA","532","2","legacy","1024","2","48000","-16","experiment","SSHSS","1","odd","6429","164529","NA","170349","204473","NA","211236","210184","1247","148280","NA","211234","211338","1245","211338","211872","Flanker Task","103","58338","106","yes","1024"
"97.1962616822","97.1962616822","551.401869159","551.401869159","black","no","legacy","legacy","legacy","0","congruent","uniform","1","undefined","1","s","0","0","0","106","106","0","106","106","0","0","0","106","106","0","106","106","09/03/18 13:59:03","600","The main experiment item","yes","FlankerTask.osexp","C:/Users/Anabel/Desktop","no","mono","no","18","no","white","no","yes","768","legacy","26","79","C:/Users/Anabel/Desktop/AW-subject-1.csv","legacy","Jazzy James","3.1.9","0","s","NA","h","s","NA","s","662","NA","5180","16248","NA","662","2","legacy","1024","2","48000","-16","experiment","SSSSS","1","odd","6429","164529","NA","170349","204473","NA","212973","211917","1247","148280","NA","212971","213075","1245","213075","213739","Flanker Task","104","59000","107","yes","1024"
"97.2222222222","97.2222222222","551.277777778","551.277777778","black","no","legacy","legacy","legacy","0","incongruent","uniform","1","undefined","1","h","0","0","0","107","107","0","107","107","0","0","0","107","107","0","107","107","09/03/18 13:59:03","600","The main experiment item","yes","FlankerTask.osexp","C:/Users/Anabel/Desktop","no","mono","no","18","no","white","no","yes","768","legacy","27","79","C:/Users/Anabel/Desktop/AW-subject-1.csv","legacy","Jazzy James","3.1.9","0","h","NA","h","s","NA","h","538","NA","5180","16248","NA","538","2","legacy","1024","2","48000","-16","experiment","SSHSS","1","odd","6429","164529","NA","170349","213805","NA","215361","214307","1247","148280","NA","215359","215463","1245","215463","216002","Flanker Task","105","59538","108","yes","1024"
"97.247706422","97.247706422","550.880733945","550.880733945","black","no","legacy","legacy","legacy","0","incongruent","uniform","1","undefined","1","h","0","0","0","108","108","0","108","108","0","0","0","108","108","0","108","108","09/03/18 13:59:03","600","The main experiment item","yes","FlankerTask.osexp","C:/Users/Anabel/Desktop","no","mono","no","18","no","white","no","yes","768","legacy","28","79","C:/Users/Anabel/Desktop/AW-subject-1.csv","legacy","Jazzy James","3.1.9","0","h","NA","h","s","NA","h","508","NA","5180","16248","NA","508","2","legacy","1024","2","48000","-16","experiment","SSHSS","1","odd","6429","164529","NA","170349","213805","NA","217115","216062","1247","148280","NA","217113","217217","1245","217217","217726","Flanker Task","106","60046","109","yes","1024"
"97.2727272727","97.2727272727","549.909090909","549.909090909","black","no","legacy","legacy","legacy","0","congruent","uniform","1","undefined","1","h","0","0","0","109","109","0","109","109","0","0","0","109","109","0","109","109","09/03/18 13:59:03","600","The main experiment item","yes","FlankerTask.osexp","C:/Users/Anabel/Desktop","no","mono","no","18","no","white","no","yes","768","legacy","29","79","C:/Users/Anabel/Desktop/AW-subject-1.csv","legacy","Jazzy James","3.1.9","0","h","NA","h","s","NA","h","444","NA","5180","16248","NA","444","2","legacy","1024","2","48000","-16","experiment","HHHHH","1","odd","6429","164529","NA","170349","213805","NA","218857","217805","1247","148280","NA","218855","218959","1245","218959","219405","Flanker Task","107","60490","110","yes","1024"
"97.2972972973","97.2972972973","549.036036036","549.036036036","black","no","legacy","legacy","legacy","0","congruent","uniform","1","undefined","1","h","0","0","0","110","110","0","110","110","0","0","0","110","110","0","110","110","09/03/18 13:59:03","600","The main experiment item","yes","FlankerTask.osexp","C:/Users/Anabel/Desktop","no","mono","no","18","no","white","no","yes","768","legacy","30","79","C:/Users/Anabel/Desktop/AW-subject-1.csv","legacy","Jazzy James","3.1.9","0","h","NA","h","s","NA","h","453","NA","5180","16248","NA","453","2","legacy","1024","2","48000","-16","experiment","HHHHH","1","odd","6429","164529","NA","170349","213805","NA","220510","219462","1247","148280","NA","220508","220612","1245","220612","221067","Flanker Task","108","60943","111","yes","1024"
"97.3214285714","97.3214285714","547.821428571","547.821428571","black","no","legacy","legacy","legacy","0","incongruent","uniform","1","undefined","1","h","0","0","0","111","111","0","111","111","0","0","0","111","111","0","111","111","09/03/18 13:59:03","600","The main experiment item","yes","FlankerTask.osexp","C:/Users/Anabel/Desktop","no","mono","no","18","no","white","no","yes","768","legacy","31","79","C:/Users/Anabel/Desktop/AW-subject-1.csv","legacy","Jazzy James","3.1.9","0","h","NA","h","s","NA","h","413","NA","5180","16248","NA","413","2","legacy","1024","2","48000","-16","experiment","SSHSS","1","odd","6429","164529","NA","170349","213805","NA","222174","221128","1247","148280","NA","222172","222276","1245","222276","222691","Flanker Task","109","61356","112","yes","1024"
"97.3451327434","97.3451327434","547.345132743","547.345132743","black","no","legacy","legacy","legacy","0","congruent","uniform","1","undefined","1","s","0","0","0","112","112","0","112","112","0","0","0","112","112","0","112","112","09/03/18 13:59:03","600","The main experiment item","yes","FlankerTask.osexp","C:/Users/Anabel/Desktop","no","mono","no","18","no","white","no","yes","768","legacy","32","79","C:/Users/Anabel/Desktop/AW-subject-1.csv","legacy","Jazzy James","3.1.9","0","s","NA","h","s","NA","s","494","NA","5180","16248","NA","494","2","legacy","1024","2","48000","-16","experiment","SSSSS","1","odd","6429","164529","NA","170349","213805","NA","223805","222750","1247","148280","NA","223803","223907","1245","223907","224403","Flanker Task","110","61850","113","yes","1024"
"97.3684210526","97.3684210526","547.210526316","547.210526316","black","no","legacy","legacy","legacy","0","congruent","uniform","1","undefined","1","s","0","0","0","113","113","0","113","113","0","0","0","113","113","0","113","113","09/03/18 13:59:03","600","The main experiment item","yes","FlankerTask.osexp","C:/Users/Anabel/Desktop","no","mono","no","18","no","white","no","yes","768","legacy","33","79","C:/Users/Anabel/Desktop/AW-subject-1.csv","legacy","Jazzy James","3.1.9","0","s","NA","h","s","NA","s","532","NA","5180","16248","NA","532","2","legacy","1024","2","48000","-16","experiment","SSSSS","1","odd","6429","164529","NA","170349","213805","NA","225498","224450","1247","148280","NA","225497","225601","1245","225601","226135","Flanker Task","111","62382","114","yes","1024"
"97.3913043478","97.3913043478","546.295652174","546.295652174","black","no","legacy","legacy","legacy","0","congruent","uniform","1","undefined","1","s","0","0","0","114","114","0","114","114","0","0","0","114","114","0","114","114","09/03/18 13:59:03","600","The main experiment item","yes","FlankerTask.osexp","C:/Users/Anabel/Desktop","no","mono","no","18","no","white","no","yes","768","legacy","34","79","C:/Users/Anabel/Desktop/AW-subject-1.csv","legacy","Jazzy James","3.1.9","0","s","NA","h","s","NA","s","442","NA","5180","16248","NA","442","2","legacy","1024","2","48000","-16","experiment","SSSSS","1","odd","6429","164529","NA","170349","213805","NA","227233","226194","1247","148280","NA","227231","227335","1245","227335","227779","Flanker Task","112","62824","115","yes","1024"
"96.5517241379","96.5517241379","545.353448276","545.353448276","black","no","legacy","legacy","legacy","0","incongruent","uniform","0","undefined","0","h","0","0","0","115","115","0","115","115","0","0","0","115","115","0","115","115","09/03/18 13:59:03","600","The main experiment item","yes","FlankerTask.osexp","C:/Users/Anabel/Desktop","no","mono","no","18","no","white","no","yes","768","legacy","35","79","C:/Users/Anabel/Desktop/AW-subject-1.csv","legacy","Jazzy James","3.1.9","0","s","NA","h","s","NA","s","437","NA","5180","16248","NA","437","2","legacy","1024","2","48000","-16","experiment","SSHSS","1","odd","6429","164529","NA","170349","213805","NA","228900","227839","1247","148280","NA","228898","229002","1245","229002","229441","Flanker Task","112","63261","116","yes","1024"
"96.5811965812","96.5811965812","546.290598291","546.290598291","black","no","legacy","legacy","legacy","0","incongruent","uniform","1","undefined","1","s","0","0","0","116","116","0","116","116","0","0","0","116","116","0","116","116","09/03/18 13:59:03","600","The main experiment item","yes","FlankerTask.osexp","C:/Users/Anabel/Desktop","no","mono","no","18","no","white","no","yes","768","legacy","36","79","C:/Users/Anabel/Desktop/AW-subject-1.csv","legacy","Jazzy James","3.1.9","0","s","NA","h","s","NA","s","655","NA","5180","16248","NA","655","2","legacy","1024","2","48000","-16","experiment","HHSHH","1","odd","6429","164529","NA","229506","213805","NA","231064","230008","1247","148280","NA","231062","231166","1245","231166","231823","Flanker Task","113","63916","117","yes","1024"
"96.6101694915","96.6101694915","545.042372881","545.042372881","black","no","legacy","legacy","legacy","0","congruent","uniform","1","undefined","1","h","0","0","0","117","117","0","117","117","0","0","0","117","117","0","117","117","09/03/18 13:59:03","600","The main experiment item","yes","FlankerTask.osexp","C:/Users/Anabel/Desktop","no","mono","no","18","no","white","no","yes","768","legacy","37","79","C:/Users/Anabel/Desktop/AW-subject-1.csv","legacy","Jazzy James","3.1.9","0","h","NA","h","s","NA","h","399","NA","5180","16248","NA","399","2","legacy","1024","2","48000","-16","experiment","HHHHH","1","odd","6429","164529","NA","229506","231849","NA","233404","232351","1247","148280","NA","233403","233507","1245","233507","233907","Flanker Task","114","64315","118","yes","1024"
"96.6386554622","96.6386554622","544.630252101","544.630252101","black","no","legacy","legacy","legacy","0","congruent","uniform","1","undefined","1","s","0","0","0","118","118","0","118","118","0","0","0","118","118","0","118","118","09/03/18 13:59:03","600","The main experiment item","yes","FlankerTask.osexp","C:/Users/Anabel/Desktop","no","mono","no","18","no","white","no","yes","768","legacy","38","79","C:/Users/Anabel/Desktop/AW-subject-1.csv","legacy","Jazzy James","3.1.9","0","s","NA","h","s","NA","s","496","NA","5180","16248","NA","496","2","legacy","1024","2","48000","-16","experiment","SSSSS","1","odd","6429","164529","NA","229506","231849","NA","235021","233961","1247","148280","NA","235019","235123","1245","235123","235621","Flanker Task","115","64811","119","yes","1024"
"96.6666666667","96.6666666667","544.075","544.075","black","no","legacy","legacy","legacy","0","congruent","uniform","1","undefined","1","h","0","0","0","119","119","0","119","119","0","0","0","119","119","0","119","119","09/03/18 13:59:03","600","The main experiment item","yes","FlankerTask.osexp","C:/Users/Anabel/Desktop","no","mono","no","18","no","white","no","yes","768","legacy","39","79","C:/Users/Anabel/Desktop/AW-subject-1.csv","legacy","Jazzy James","3.1.9","0","h","NA","h","s","NA","h","478","NA","5180","16248","NA","478","2","legacy","1024","2","48000","-16","experiment","HHHHH","1","odd","6429","164529","NA","229506","231849","NA","236735","235683","1247","148280","NA","236734","236837","1245","236837","237317","Flanker Task","116","65289","120","yes","1024"
"96.694214876","96.694214876","543.388429752","543.388429752","black","no","legacy","legacy","legacy","0","congruent","uniform","1","undefined","1","s","0","0","0","120","120","0","120","120","0","0","0","120","120","0","120","120","09/03/18 13:59:03","600","The main experiment item","yes","FlankerTask.osexp","C:/Users/Anabel/Desktop","no","mono","no","18","no","white","no","yes","768","legacy","40","79","C:/Users/Anabel/Desktop/AW-subject-1.csv","legacy","Jazzy James","3.1.9","0","s","NA","h","s","NA","s","461","NA","5180","16248","NA","461","2","legacy","1024","2","48000","-16","experiment","SSSSS","1","odd","6429","164529","NA","229506","231849","NA","238469","237407","1247","148280","NA","238467","238571","1245","238571","239034","Flanker Task","117","65750","121","yes","1024"
"96.7213114754","96.7213114754","543.581967213","543.581967213","black","no","legacy","legacy","legacy","0","congruent","uniform","1","undefined","1","s","0","0","0","121","121","0","121","121","0","0","0","121","121","0","121","121","09/03/18 13:59:03","600","The main experiment item","yes","FlankerTask.osexp","C:/Users/Anabel/Desktop","no","mono","no","18","no","white","no","yes","768","legacy","41","79","C:/Users/Anabel/Desktop/AW-subject-1.csv","legacy","Jazzy James","3.1.9","0","s","NA","h","s","NA","s","567","NA","5180","16248","NA","567","2","legacy","1024","2","48000","-16","experiment","SSSSS","1","odd","6429","164529","NA","229506","231849","NA","240152","239095","1247","148280","NA","240151","240254","1245","240254","240823","Flanker Task","118","66317","122","yes","1024"
"96.7479674797","96.7479674797","542.772357724","542.772357724","black","no","legacy","legacy","legacy","0","congruent","uniform","1","undefined","1","h","0","0","0","122","122","0","122","122","0","0","0","122","122","0","122","122","09/03/18 13:59:03","600","The main experiment item","yes","FlankerTask.osexp","C:/Users/Anabel/Desktop","no","mono","no","18","no","white","no","yes","768","legacy","42","79","C:/Users/Anabel/Desktop/AW-subject-1.csv","legacy","Jazzy James","3.1.9","0","h","NA","h","s","NA","h","444","NA","5180","16248","NA","444","2","legacy","1024","2","48000","-16","experiment","HHHHH","1","odd","6429","164529","NA","229506","231849","NA","241926","240873","1247","148280","NA","241924","242028","1245","242028","242473","Flanker Task","119","66761","123","yes","1024"
"96.7741935484","96.7741935484","542.629032258","542.629032258","black","no","legacy","legacy","legacy","0","incongruent","uniform","1","undefined","1","s","0","0","0","123","123","0","123","123","0","0","0","123","123","0","123","123","09/03/18 13:59:03","600","The main experiment item","yes","FlankerTask.osexp","C:/Users/Anabel/Desktop","no","mono","no","18","no","white","no","yes","768","legacy","43","79","C:/Users/Anabel/Desktop/AW-subject-1.csv","legacy","Jazzy James","3.1.9","0","s","NA","h","s","NA","s","525","NA","5180","16248","NA","525","2","legacy","1024","2","48000","-16","experiment","HHSHH","1","odd","6429","164529","NA","229506","231849","NA","243578","242527","1247","148280","NA","243577","243680","1245","243680","244206","Flanker Task","120","67286","124","yes","1024"
"96.8","96.8","541.736","541.736","black","no","legacy","legacy","legacy","0","congruent","uniform","1","undefined","1","h","0","0","0","124","124","0","124","124","0","0","0","124","124","0","124","124","09/03/18 13:59:03","600","The main experiment item","yes","FlankerTask.osexp","C:/Users/Anabel/Desktop","no","mono","no","18","no","white","no","yes","768","legacy","44","79","C:/Users/Anabel/Desktop/AW-subject-1.csv","legacy","Jazzy James","3.1.9","0","h","NA","h","s","NA","h","431","NA","5180","16248","NA","431","2","legacy","1024","2","48000","-16","experiment","HHHHH","1","odd","6429","164529","NA","229506","231849","NA","245315","244261","1247","148280","NA","245313","245417","1245","245417","245849","Flanker Task","121","67717","125","yes","1024"
"96.8253968254","96.8253968254","541.873015873","541.873015873","black","no","legacy","legacy","legacy","0","incongruent","uniform","1","undefined","1","h","0","0","0","125","125","0","125","125","0","0","0","125","125","0","125","125","09/03/18 13:59:03","600","The main experiment item","yes","FlankerTask.osexp","C:/Users/Anabel/Desktop","no","mono","no","18","no","white","no","yes","768","legacy","45","79","C:/Users/Anabel/Desktop/AW-subject-1.csv","legacy","Jazzy James","3.1.9","0","h","NA","h","s","NA","h","559","NA","5180","16248","NA","559","2","legacy","1024","2","48000","-16","experiment","SSHSS","1","odd","6429","164529","NA","229506","231849","NA","246950","245895","1247","148280","NA","246949","247052","1245","247052","247612","Flanker Task","122","68276","126","yes","1024"
"96.8503937008","96.8503937008","542.637795276","542.637795276","black","no","legacy","legacy","legacy","0","congruent","uniform","1","undefined","1","h","0","0","0","126","126","0","126","126","0","0","0","126","126","0","126","126","09/03/18 13:59:03","600","The main experiment item","yes","FlankerTask.osexp","C:/Users/Anabel/Desktop","no","mono","no","18","no","white","no","yes","768","legacy","46","79","C:/Users/Anabel/Desktop/AW-subject-1.csv","legacy","Jazzy James","3.1.9","0","h","NA","h","s","NA","h","639","NA","5180","16248","NA","639","2","legacy","1024","2","48000","-16","experiment","HHHHH","1","odd","6429","164529","NA","229506","231849","NA","248731","247672","1247","148280","NA","248729","248833","1245","248833","249474","Flanker Task","123","68915","127","yes","1024"
"96.875","96.875","542.3515625","542.3515625","black","no","legacy","legacy","legacy","0","incongruent","uniform","1","undefined","1","s","0","0","0","127","127","0","127","127","0","0","0","127","127","0","127","127","09/03/18 13:59:03","600","The main experiment item","yes","FlankerTask.osexp","C:/Users/Anabel/Desktop","no","mono","no","18","no","white","no","yes","768","legacy","47","79","C:/Users/Anabel/Desktop/AW-subject-1.csv","legacy","Jazzy James","3.1.9","0","s","NA","h","s","NA","s","506","NA","5180","16248","NA","506","2","legacy","1024","2","48000","-16","experiment","HHSHH","1","odd","6429","164529","NA","229506","249528","NA","251079","250030","1247","148280","NA","251077","251181","1245","251181","251689","Flanker Task","124","69421","128","yes","1024"
