"acc","accuracy","average_response_time","avg_rt","background","bidi","canvas_backend","clock_backend","color_backend","compensation","condition","coordinates","correct","correct_instructions","correct_keyboard_response","correct_response","count_Block1","count_Block2","count_Block3","count_Fixation","count_ISI","count_Sequence","count_errorFeedback","count_experiment","count_faster","count_finish","count_getting_started","count_instructions","count_instructions2","count_instructions3","count_keyboard_response","count_logger","count_stimulus","count_welcome","datetime","deadline","description","disable_garbage_collection","experiment_file","experiment_path","font_bold","font_family","font_italic","font_size","font_underline","foreground","form_clicks","fullscreen","height","keyboard_backend","live_row","live_row_Block1","logfile","mouse_backend","opensesame_codename","opensesame_version","repeat_cycle","response","response_finish","response_instructions","response_instructions2","response_instructions3","response_keyboard_response","response_time","response_time_finish","response_time_instructions","response_time_instructions2","response_time_instructions3","response_time_keyboard_response","response_time_welcome","response_welcome","round_decimals","sampler_backend","sound_buf_size","sound_channels","sound_freq","sound_sample_size","start","stimulus","subject_nr","subject_parity","time_Block1","time_Block2","time_Block3","time_Fixation","time_ISI","time_Sequence","time_errorFeedback","time_experiment","time_faster","time_finish","time_getting_started","time_instructions","time_instructions2","time_instructions3","time_keyboard_response","time_logger","time_stimulus","time_welcome","title","total_correct","total_response_time","total_responses","uniform_coordinates","width"
"100","100","1164","1164","black","no","xpyriment","legacy","legacy","0","incongruent","uniform","1","undefined","1","h","0","0","0","0","0","0","0","0","0","0","NA","0","0","0","0","0","0","NA","09/09/18 18:09:44","1500","The main experiment item","yes","Flankertest.osexp","C:\Users\Knitwitty\AppData\Roaming","no","mono","no","18","no","white","no","yes","768","legacy","0","0","C:/Users/Knitwitty/AppData/Roaming/KB-subject-3.csv","xpyriment","Jazzy James","3.1.9","0","h","NA","s","NA","NA","h","1164","NA","2501","NA","NA","1164","NA","NA","2","legacy","1024","2","48000","-16","experiment","SSHSS","3","odd","14645","NA","NA","15459","NA","15426","NA","12118","NA","NA","NA","12143","NA","NA","15575","16741","15575","NA","Flanker test","1","1164","1","yes","1024"
"50","50","783.5","783.5","black","no","xpyriment","legacy","legacy","0","incongruent","uniform","0","undefined","0","s","0","0","0","1","1","1","1","0","1","0","NA","0","0","0","1","1","1","NA","09/09/18 18:09:44","1500","The main experiment item","yes","Flankertest.osexp","C:\Users\Knitwitty\AppData\Roaming","no","mono","no","18","no","white","no","yes","768","legacy","1","1","C:/Users/Knitwitty/AppData/Roaming/KB-subject-3.csv","xpyriment","Jazzy James","3.1.9","0","h","NA","s","NA","NA","h","403","NA","2501","NA","NA","403","NA","NA","2","legacy","1024","2","48000","-16","experiment","HHSHH","3","odd","14645","NA","NA","18644","16783","18602","NA","12118","NA","NA","NA","12143","NA","NA","18761","19166","18760","NA","Flanker test","1","1567","2","yes","1024"
"66.6666666667","66.6666666667","709.333333333","709.333333333","black","no","xpyriment","legacy","legacy","0","incongruent","uniform","1","undefined","1","h","0","0","0","2","2","2","2","0","2","0","NA","0","0","0","2","2","2","NA","09/09/18 18:09:44","1500","The main experiment item","yes","Flankertest.osexp","C:\Users\Knitwitty\AppData\Roaming","no","mono","no","18","no","white","no","yes","768","legacy","2","2","C:/Users/Knitwitty/AppData/Roaming/KB-subject-3.csv","xpyriment","Jazzy James","3.1.9","0","h","NA","s","NA","NA","h","561","NA","2501","NA","NA","561","NA","NA","2","legacy","1024","2","48000","-16","experiment","SSHSS","3","odd","14645","NA","NA","21647","19798","21612","19293","12118","NA","NA","NA","12143","NA","NA","21763","22325","21762","NA","Flanker test","2","2128","3","yes","1024"
"75","75","658.75","658.75","black","no","xpyriment","legacy","legacy","0","incongruent","uniform","1","undefined","1","h","0","0","0","3","3","3","3","0","3","0","NA","0","0","0","3","3","3","NA","09/09/18 18:09:44","1500","The main experiment item","yes","Flankertest.osexp","C:\Users\Knitwitty\AppData\Roaming","no","mono","no","18","no","white","no","yes","768","legacy","3","3","C:/Users/Knitwitty/AppData/Roaming/KB-subject-3.csv","xpyriment","Jazzy James","3.1.9","0","h","NA","s","NA","NA","h","507","NA","2501","NA","NA","507","NA","NA","2","legacy","1024","2","48000","-16","experiment","SSHSS","3","odd","14645","NA","NA","24163","22344","24127","19293","12118","NA","NA","NA","12143","NA","NA","24281","24789","24280","NA","Flanker test","3","2635","4","yes","1024"
"60","60","616","616","black","no","xpyriment","legacy","legacy","0","congruent","uniform","0","undefined","0","h","0","0","0","4","4","4","4","0","4","0","NA","0","0","0","4","4","4","NA","09/09/18 18:09:44","1500","The main experiment item","yes","Flankertest.osexp","C:\Users\Knitwitty\AppData\Roaming","no","mono","no","18","no","white","no","yes","768","legacy","4","4","C:/Users/Knitwitty/AppData/Roaming/KB-subject-3.csv","xpyriment","Jazzy James","3.1.9","0","s","NA","s","NA","NA","s","445","NA","2501","NA","NA","445","NA","NA","2","legacy","1024","2","48000","-16","experiment","HHHHH","3","odd","14645","NA","NA","26632","24813","26596","19293","12118","NA","NA","NA","12143","NA","NA","26742","27189","26742","NA","Flanker test","3","3080","5","yes","1024"
"66.6666666667","66.6666666667","601.166666667","601.166666667","black","no","xpyriment","legacy","legacy","0","incongruent","uniform","1","undefined","1","h","0","0","0","5","5","5","5","0","5","0","NA","0","0","0","5","5","5","NA","09/09/18 18:09:44","1500","The main experiment item","yes","Flankertest.osexp","C:\Users\Knitwitty\AppData\Roaming","no","mono","no","18","no","white","no","yes","768","legacy","5","5","C:/Users/Knitwitty/AppData/Roaming/KB-subject-3.csv","xpyriment","Jazzy James","3.1.9","0","h","NA","s","NA","NA","h","527","NA","2501","NA","NA","527","NA","NA","2","legacy","1024","2","48000","-16","experiment","SSHSS","3","odd","14645","NA","NA","29520","27707","29485","27202","12118","NA","NA","NA","12143","NA","NA","29637","30165","29636","NA","Flanker test","4","3607","6","yes","1024"
"71.4285714286","71.4285714286","583.142857143","583.142857143","black","no","xpyriment","legacy","legacy","0","incongruent","uniform","1","undefined","1","s","0","0","0","6","6","6","6","0","6","0","NA","0","0","0","6","6","6","NA","09/09/18 18:09:44","1500","The main experiment item","yes","Flankertest.osexp","C:\Users\Knitwitty\AppData\Roaming","no","mono","no","18","no","white","no","yes","768","legacy","6","6","C:/Users/Knitwitty/AppData/Roaming/KB-subject-3.csv","xpyriment","Jazzy James","3.1.9","0","s","NA","s","NA","NA","s","475","NA","2501","NA","NA","475","NA","NA","2","legacy","1024","2","48000","-16","experiment","HHSHH","3","odd","14645","NA","NA","32043","30189","32006","27202","12118","NA","NA","NA","12143","NA","NA","32153","32629","32152","NA","Flanker test","5","4082","7","yes","1024"
"75","75","582.875","582.875","black","no","xpyriment","legacy","legacy","0","incongruent","uniform","1","undefined","1","h","0","0","0","7","7","7","7","0","7","0","NA","0","0","0","7","7","7","NA","09/09/18 18:09:44","1500","The main experiment item","yes","Flankertest.osexp","C:\Users\Knitwitty\AppData\Roaming","no","mono","no","18","no","white","no","yes","768","legacy","7","7","C:/Users/Knitwitty/AppData/Roaming/KB-subject-3.csv","xpyriment","Jazzy James","3.1.9","0","h","NA","s","NA","NA","h","581","NA","2501","NA","NA","581","NA","NA","2","legacy","1024","2","48000","-16","experiment","SSHSS","3","odd","14645","NA","NA","34457","32647","34423","27202","12118","NA","NA","NA","12143","NA","NA","34574","35157","34573","NA","Flanker test","6","4663","8","yes","1024"
"77.7777777778","77.7777777778","559.888888889","559.888888889","black","no","xpyriment","legacy","legacy","0","congruent","uniform","1","undefined","1","s","0","0","0","8","8","8","8","0","8","0","NA","0","0","0","8","8","8","NA","09/09/18 18:09:44","1500","The main experiment item","yes","Flankertest.osexp","C:\Users\Knitwitty\AppData\Roaming","no","mono","no","18","no","white","no","yes","768","legacy","8","8","C:/Users/Knitwitty/AppData/Roaming/KB-subject-3.csv","xpyriment","Jazzy James","3.1.9","0","s","NA","s","NA","NA","s","376","NA","2501","NA","NA","376","NA","NA","2","legacy","1024","2","48000","-16","experiment","SSSSS","3","odd","14645","NA","NA","37022","35177","36987","27202","12118","NA","NA","NA","12143","NA","NA","37139","37517","37139","NA","Flanker test","7","5039","9","yes","1024"
"80","80","544.6","544.6","black","no","xpyriment","legacy","legacy","0","congruent","uniform","1","undefined","1","h","0","0","0","9","9","9","9","0","9","0","NA","0","0","0","9","9","9","NA","09/09/18 18:09:44","1500","The main experiment item","yes","Flankertest.osexp","C:\Users\Knitwitty\AppData\Roaming","no","mono","no","18","no","white","no","yes","768","legacy","9","9","C:/Users/Knitwitty/AppData/Roaming/KB-subject-3.csv","xpyriment","Jazzy James","3.1.9","0","h","NA","s","NA","NA","h","407","NA","2501","NA","NA","407","NA","NA","2","legacy","1024","2","48000","-16","experiment","HHHHH","3","odd","14645","NA","NA","39375","37541","39342","27202","12118","NA","NA","NA","12143","NA","NA","39493","39901","39492","NA","Flanker test","8","5446","10","yes","1024"
"81.8181818182","81.8181818182","548.727272727","548.727272727","black","no","xpyriment","legacy","legacy","0","incongruent","uniform","1","undefined","1","h","0","0","0","10","10","10","10","0","10","0","NA","0","0","0","10","10","10","NA","09/09/18 18:09:44","1500","The main experiment item","yes","Flankertest.osexp","C:\Users\Knitwitty\AppData\Roaming","no","mono","no","18","no","white","no","yes","768","legacy","10","10","C:/Users/Knitwitty/AppData/Roaming/KB-subject-3.csv","xpyriment","Jazzy James","3.1.9","0","h","NA","s","NA","NA","h","590","NA","2501","NA","NA","590","NA","NA","2","legacy","1024","2","48000","-16","experiment","SSHSS","3","odd","14645","NA","NA","41784","39925","41748","27202","12118","NA","NA","NA","12143","NA","NA","41901","42493","41901","NA","Flanker test","9","6036","11","yes","1024"
"83.3333333333","83.3333333333","546","546","black","no","xpyriment","legacy","legacy","0","incongruent","uniform","1","undefined","1","s","0","0","0","11","11","11","11","0","11","0","NA","0","0","0","11","11","11","NA","09/09/18 18:09:44","1500","The main experiment item","yes","Flankertest.osexp","C:\Users\Knitwitty\AppData\Roaming","no","mono","no","18","no","white","no","yes","768","legacy","11","11","C:/Users/Knitwitty/AppData/Roaming/KB-subject-3.csv","xpyriment","Jazzy James","3.1.9","0","s","NA","s","NA","NA","s","516","NA","2501","NA","NA","516","NA","NA","2","legacy","1024","2","48000","-16","experiment","HHSHH","3","odd","14645","NA","NA","44347","42517","44312","27202","12118","NA","NA","NA","12143","NA","NA","44464","44982","44463","NA","Flanker test","10","6552","12","yes","1024"
"84.6153846154","84.6153846154","542.153846154","542.153846154","black","no","xpyriment","legacy","legacy","0","incongruent","uniform","1","undefined","1","s","0","0","0","12","12","12","12","0","12","0","NA","0","0","0","12","12","12","NA","09/09/18 18:09:44","1500","The main experiment item","yes","Flankertest.osexp","C:\Users\Knitwitty\AppData\Roaming","no","mono","no","18","no","white","no","yes","768","legacy","12","12","C:/Users/Knitwitty/AppData/Roaming/KB-subject-3.csv","xpyriment","Jazzy James","3.1.9","0","s","NA","s","NA","NA","s","496","NA","2501","NA","NA","496","NA","NA","2","legacy","1024","2","48000","-16","experiment","HHSHH","3","odd","14645","NA","NA","46839","45005","46804","27202","12118","NA","NA","NA","12143","NA","NA","46956","47454","46955","NA","Flanker test","11","7048","13","yes","1024"
"85.7142857143","85.7142857143","533.142857143","533.142857143","black","no","xpyriment","legacy","legacy","0","congruent","uniform","1","undefined","1","h","0","0","0","13","13","13","13","0","13","0","NA","0","0","0","13","13","13","NA","09/09/18 18:09:44","1500","The main experiment item","yes","Flankertest.osexp","C:\Users\Knitwitty\AppData\Roaming","no","mono","no","18","no","white","no","yes","768","legacy","13","13","C:/Users/Knitwitty/AppData/Roaming/KB-subject-3.csv","xpyriment","Jazzy James","3.1.9","0","h","NA","s","NA","NA","h","416","NA","2501","NA","NA","416","NA","NA","2","legacy","1024","2","48000","-16","experiment","HHHHH","3","odd","14645","NA","NA","49285","47472","49248","27202","12118","NA","NA","NA","12143","NA","NA","49395","49813","49394","NA","Flanker test","12","7464","14","yes","1024"
"86.6666666667","86.6666666667","535.733333333","535.733333333","black","no","xpyriment","legacy","legacy","0","incongruent","uniform","1","undefined","1","s","0","0","0","14","14","14","14","0","14","0","NA","0","0","0","14","14","14","NA","09/09/18 18:09:44","1500","The main experiment item","yes","Flankertest.osexp","C:\Users\Knitwitty\AppData\Roaming","no","mono","no","18","no","white","no","yes","768","legacy","14","14","C:/Users/Knitwitty/AppData/Roaming/KB-subject-3.csv","xpyriment","Jazzy James","3.1.9","0","s","NA","s","NA","NA","s","572","NA","2501","NA","NA","572","NA","NA","2","legacy","1024","2","48000","-16","experiment","HHSHH","3","odd","14645","NA","NA","51643","49832","51608","27202","12118","NA","NA","NA","12143","NA","NA","51752","52326","51752","NA","Flanker test","13","8036","15","yes","1024"
"87.5","87.5","526.0625","526.0625","black","no","xpyriment","legacy","legacy","0","congruent","uniform","1","undefined","1","h","0","0","0","15","15","15","15","0","15","0","NA","0","0","0","15","15","15","NA","09/09/18 18:09:44","1500","The main experiment item","yes","Flankertest.osexp","C:\Users\Knitwitty\AppData\Roaming","no","mono","no","18","no","white","no","yes","768","legacy","15","15","C:/Users/Knitwitty/AppData/Roaming/KB-subject-3.csv","xpyriment","Jazzy James","3.1.9","0","h","NA","s","NA","NA","h","381","NA","2501","NA","NA","381","NA","NA","2","legacy","1024","2","48000","-16","experiment","HHHHH","3","odd","14645","NA","NA","54152","52344","54117","27202","12118","NA","NA","NA","12143","NA","NA","54262","54645","54261","NA","Flanker test","14","8417","16","yes","1024"
"88.2352941176","88.2352941176","518","518","black","no","xpyriment","legacy","legacy","0","congruent","uniform","1","undefined","1","h","0","0","0","16","16","16","16","0","16","0","NA","0","0","0","16","16","16","NA","09/09/18 18:09:44","1500","The main experiment item","yes","Flankertest.osexp","C:\Users\Knitwitty\AppData\Roaming","no","mono","no","18","no","white","no","yes","768","legacy","16","16","C:/Users/Knitwitty/AppData/Roaming/KB-subject-3.csv","xpyriment","Jazzy James","3.1.9","0","h","NA","s","NA","NA","h","389","NA","2501","NA","NA","389","NA","NA","2","legacy","1024","2","48000","-16","experiment","HHHHH","3","odd","14645","NA","NA","56481","54668","56442","27202","12118","NA","NA","NA","12143","NA","NA","56591","56982","56590","NA","Flanker test","15","8806","17","yes","1024"
"88.8888888889","88.8888888889","510","510","black","no","xpyriment","legacy","legacy","0","congruent","uniform","1","undefined","1","h","0","0","0","17","17","17","17","0","17","0","NA","0","0","0","17","17","17","NA","09/09/18 18:09:44","1500","The main experiment item","yes","Flankertest.osexp","C:\Users\Knitwitty\AppData\Roaming","no","mono","no","18","no","white","no","yes","768","legacy","17","17","C:/Users/Knitwitty/AppData/Roaming/KB-subject-3.csv","xpyriment","Jazzy James","3.1.9","0","h","NA","s","NA","NA","h","374","NA","2501","NA","NA","374","NA","NA","2","legacy","1024","2","48000","-16","experiment","HHHHH","3","odd","14645","NA","NA","58825","57014","58787","27202","12118","NA","NA","NA","12143","NA","NA","58941","59317","58940","NA","Flanker test","16","9180","18","yes","1024"
"89.4736842105","89.4736842105","504.842105263","504.842105263","black","no","xpyriment","legacy","legacy","0","congruent","uniform","1","undefined","1","s","0","0","0","18","18","18","18","0","18","0","NA","0","0","0","18","18","18","NA","09/09/18 18:09:44","1500","The main experiment item","yes","Flankertest.osexp","C:\Users\Knitwitty\AppData\Roaming","no","mono","no","18","no","white","no","yes","768","legacy","18","18","C:/Users/Knitwitty/AppData/Roaming/KB-subject-3.csv","xpyriment","Jazzy James","3.1.9","0","s","NA","s","NA","NA","s","412","NA","2501","NA","NA","412","NA","NA","2","legacy","1024","2","48000","-16","experiment","SSSSS","3","odd","14645","NA","NA","61206","59331","61153","27202","12118","NA","NA","NA","12143","NA","NA","61320","61735","61320","NA","Flanker test","17","9592","19","yes","1024"
"90","90","501.85","501.85","black","no","xpyriment","legacy","legacy","0","congruent","uniform","1","undefined","1","h","0","0","0","19","19","19","19","0","19","0","NA","0","0","0","19","19","19","NA","09/09/18 18:09:44","1500","The main experiment item","yes","Flankertest.osexp","C:\Users\Knitwitty\AppData\Roaming","no","mono","no","18","no","white","no","yes","768","legacy","19","19","C:/Users/Knitwitty/AppData/Roaming/KB-subject-3.csv","xpyriment","Jazzy James","3.1.9","0","h","NA","s","NA","NA","h","445","NA","2501","NA","NA","445","NA","NA","2","legacy","1024","2","48000","-16","experiment","HHHHH","3","odd","14645","NA","NA","63602","61753","63566","27202","12118","NA","NA","NA","12143","NA","NA","63719","64166","63719","NA","Flanker test","18","10037","20","yes","1024"
"85.7142857143","85.7142857143","498.476190476","498.476190476","black","no","xpyriment","legacy","legacy","0","incongruent","uniform","0","undefined","0","h","0","0","0","20","20","20","20","0","20","0","NA","0","0","0","20","20","20","NA","09/09/18 18:09:44","1500","The main experiment item","yes","Flankertest.osexp","C:\Users\Knitwitty\AppData\Roaming","no","mono","no","18","no","white","no","yes","768","legacy","20","20","C:/Users/Knitwitty/AppData/Roaming/KB-subject-3.csv","xpyriment","Jazzy James","3.1.9","0","s","NA","s","NA","NA","s","431","NA","2501","NA","NA","431","NA","NA","2","legacy","1024","2","48000","-16","experiment","SSHSS","3","odd","14645","NA","NA","66032","64188","65993","27202","12118","NA","NA","NA","12143","NA","NA","66149","66582","66149","NA","Flanker test","18","10468","21","yes","1024"
"86.3636363636","86.3636363636","497.272727273","497.272727273","black","no","xpyriment","legacy","legacy","0","congruent","uniform","1","undefined","1","s","0","0","0","21","21","21","21","0","21","0","NA","0","0","0","21","21","21","NA","09/09/18 18:09:44","1500","The main experiment item","yes","Flankertest.osexp","C:\Users\Knitwitty\AppData\Roaming","no","mono","no","18","no","white","no","yes","768","legacy","21","21","C:/Users/Knitwitty/AppData/Roaming/KB-subject-3.csv","xpyriment","Jazzy James","3.1.9","0","s","NA","s","NA","NA","s","472","NA","2501","NA","NA","472","NA","NA","2","legacy","1024","2","48000","-16","experiment","SSSSS","3","odd","14645","NA","NA","68950","67111","68915","66605","12118","NA","NA","NA","12143","NA","NA","69068","69542","69067","NA","Flanker test","19","10940","22","yes","1024"
"86.9565217391","86.9565217391","494.956521739","494.956521739","black","no","xpyriment","legacy","legacy","0","congruent","uniform","1","undefined","1","h","0","0","0","22","22","22","22","0","22","0","NA","0","0","0","22","22","22","NA","09/09/18 18:09:44","1500","The main experiment item","yes","Flankertest.osexp","C:\Users\Knitwitty\AppData\Roaming","no","mono","no","18","no","white","no","yes","768","legacy","22","22","C:/Users/Knitwitty/AppData/Roaming/KB-subject-3.csv","xpyriment","Jazzy James","3.1.9","0","h","NA","s","NA","NA","h","444","NA","2501","NA","NA","444","NA","NA","2","legacy","1024","2","48000","-16","experiment","HHHHH","3","odd","14645","NA","NA","71418","69565","71370","66605","12118","NA","NA","NA","12143","NA","NA","71535","71981","71534","NA","Flanker test","20","11384","23","yes","1024"
"87.5","87.5","493.541666667","493.541666667","black","no","xpyriment","legacy","legacy","0","incongruent","uniform","1","undefined","1","s","0","0","0","23","23","23","23","0","23","0","NA","0","0","0","23","23","23","NA","09/09/18 18:09:44","1500","The main experiment item","yes","Flankertest.osexp","C:\Users\Knitwitty\AppData\Roaming","no","mono","no","18","no","white","no","yes","768","legacy","23","23","C:/Users/Knitwitty/AppData/Roaming/KB-subject-3.csv","xpyriment","Jazzy James","3.1.9","0","s","NA","s","NA","NA","s","461","NA","2501","NA","NA","461","NA","NA","2","legacy","1024","2","48000","-16","experiment","HHSHH","3","odd","14645","NA","NA","73849","71999","73813","66605","12118","NA","NA","NA","12143","NA","NA","73967","74430","73966","NA","Flanker test","21","11845","24","yes","1024"
"88","88","493.08","493.08","black","no","xpyriment","legacy","legacy","0","congruent","uniform","1","undefined","1","h","0","0","0","24","24","24","24","0","24","0","NA","0","0","0","24","24","24","NA","09/09/18 18:09:44","1500","The main experiment item","yes","Flankertest.osexp","C:\Users\Knitwitty\AppData\Roaming","no","mono","no","18","no","white","no","yes","768","legacy","24","24","C:/Users/Knitwitty/AppData/Roaming/KB-subject-3.csv","xpyriment","Jazzy James","3.1.9","0","h","NA","s","NA","NA","h","482","NA","2501","NA","NA","482","NA","NA","2","legacy","1024","2","48000","-16","experiment","HHHHH","3","odd","14645","NA","NA","76300","74449","76261","66605","12118","NA","NA","NA","12143","NA","NA","76418","76902","76418","NA","Flanker test","22","12327","25","yes","1024"
"88.4615384615","88.4615384615","491.461538462","491.461538462","black","no","xpyriment","legacy","legacy","0","incongruent","uniform","1","undefined","1","s","0","0","0","25","25","25","25","0","25","0","NA","0","0","0","25","25","25","NA","09/09/18 18:09:44","1500","The main experiment item","yes","Flankertest.osexp","C:\Users\Knitwitty\AppData\Roaming","no","mono","no","18","no","white","no","yes","768","legacy","25","25","C:/Users/Knitwitty/AppData/Roaming/KB-subject-3.csv","xpyriment","Jazzy James","3.1.9","0","s","NA","s","NA","NA","s","451","NA","2501","NA","NA","451","NA","NA","2","legacy","1024","2","48000","-16","experiment","HHSHH","3","odd","14645","NA","NA","78756","76920","78719","66605","12118","NA","NA","NA","12143","NA","NA","78873","79326","78872","NA","Flanker test","23","12778","26","yes","1024"
"88.8888888889","88.8888888889","487.592592593","487.592592593","black","no","xpyriment","legacy","legacy","0","incongruent","uniform","1","undefined","1","s","0","0","0","26","26","26","26","0","26","0","NA","0","0","0","26","26","26","NA","09/09/18 18:09:44","1500","The main experiment item","yes","Flankertest.osexp","C:\Users\Knitwitty\AppData\Roaming","no","mono","no","18","no","white","no","yes","768","legacy","26","26","C:/Users/Knitwitty/AppData/Roaming/KB-subject-3.csv","xpyriment","Jazzy James","3.1.9","0","s","NA","s","NA","NA","s","387","NA","2501","NA","NA","387","NA","NA","2","legacy","1024","2","48000","-16","experiment","HHSHH","3","odd","14645","NA","NA","81196","79349","81150","66605","12118","NA","NA","NA","12143","NA","NA","81313","81702","81312","NA","Flanker test","24","13165","27","yes","1024"
"89.2857142857","89.2857142857","483.821428571","483.821428571","black","no","xpyriment","legacy","legacy","0","incongruent","uniform","1","undefined","1","s","0","0","0","27","27","27","27","0","27","0","NA","0","0","0","27","27","27","NA","09/09/18 18:09:44","1500","The main experiment item","yes","Flankertest.osexp","C:\Users\Knitwitty\AppData\Roaming","no","mono","no","18","no","white","no","yes","768","legacy","27","27","C:/Users/Knitwitty/AppData/Roaming/KB-subject-3.csv","xpyriment","Jazzy James","3.1.9","0","s","NA","s","NA","NA","s","382","NA","2501","NA","NA","382","NA","NA","2","legacy","1024","2","48000","-16","experiment","HHSHH","3","odd","14645","NA","NA","83576","81724","83538","66605","12118","NA","NA","NA","12143","NA","NA","83693","84078","83693","NA","Flanker test","25","13547","28","yes","1024"
"89.6551724138","89.6551724138","481.206896552","481.206896552","black","no","xpyriment","legacy","legacy","0","congruent","uniform","1","undefined","1","h","0","0","0","28","28","28","28","0","28","0","NA","0","0","0","28","28","28","NA","09/09/18 18:09:44","1500","The main experiment item","yes","Flankertest.osexp","C:\Users\Knitwitty\AppData\Roaming","no","mono","no","18","no","white","no","yes","768","legacy","28","28","C:/Users/Knitwitty/AppData/Roaming/KB-subject-3.csv","xpyriment","Jazzy James","3.1.9","0","h","NA","s","NA","NA","h","408","NA","2501","NA","NA","408","NA","NA","2","legacy","1024","2","48000","-16","experiment","HHHHH","3","odd","14645","NA","NA","85950","84102","85914","66605","12118","NA","NA","NA","12143","NA","NA","86068","86478","86068","NA","Flanker test","26","13955","29","yes","1024"
"90","90","477.633333333","477.633333333","black","no","xpyriment","legacy","legacy","0","congruent","uniform","1","undefined","1","h","0","0","0","29","29","29","29","0","29","0","NA","0","0","0","29","29","29","NA","09/09/18 18:09:44","1500","The main experiment item","yes","Flankertest.osexp","C:\Users\Knitwitty\AppData\Roaming","no","mono","no","18","no","white","no","yes","768","legacy","29","29","C:/Users/Knitwitty/AppData/Roaming/KB-subject-3.csv","xpyriment","Jazzy James","3.1.9","0","h","NA","s","NA","NA","h","374","NA","2501","NA","NA","374","NA","NA","2","legacy","1024","2","48000","-16","experiment","HHHHH","3","odd","14645","NA","NA","88353","86517","88317","66605","12118","NA","NA","NA","12143","NA","NA","88470","88846","88470","NA","Flanker test","27","14329","30","yes","1024"
"90.3225806452","90.3225806452","476.483870968","476.483870968","black","no","xpyriment","legacy","legacy","0","congruent","uniform","1","undefined","1","s","0","0","0","30","30","30","30","0","30","0","NA","0","0","0","30","30","30","NA","09/09/18 18:09:44","1500","The main experiment item","yes","Flankertest.osexp","C:\Users\Knitwitty\AppData\Roaming","no","mono","no","18","no","white","no","yes","768","legacy","30","30","C:/Users/Knitwitty/AppData/Roaming/KB-subject-3.csv","xpyriment","Jazzy James","3.1.9","0","s","NA","s","NA","NA","s","442","NA","2501","NA","NA","442","NA","NA","2","legacy","1024","2","48000","-16","experiment","SSSSS","3","odd","14645","NA","NA","90701","88868","90661","66605","12118","NA","NA","NA","12143","NA","NA","90818","91263","90818","NA","Flanker test","28","14771","31","yes","1024"
"90.625","90.625","476.3125","476.3125","black","no","xpyriment","legacy","legacy","0","incongruent","uniform","1","undefined","1","h","0","0","0","31","31","31","31","0","31","0","NA","0","0","0","31","31","31","NA","09/09/18 18:09:44","1500","The main experiment item","yes","Flankertest.osexp","C:\Users\Knitwitty\AppData\Roaming","no","mono","no","18","no","white","no","yes","768","legacy","31","31","C:/Users/Knitwitty/AppData/Roaming/KB-subject-3.csv","xpyriment","Jazzy James","3.1.9","0","h","NA","s","NA","NA","h","471","NA","2501","NA","NA","471","NA","NA","2","legacy","1024","2","48000","-16","experiment","SSHSS","3","odd","14645","NA","NA","93143","91283","93099","66605","12118","NA","NA","NA","12143","NA","NA","93261","93734","93260","NA","Flanker test","29","15242","32","yes","1024"
"90.9090909091","90.9090909091","476.090909091","476.090909091","black","no","xpyriment","legacy","legacy","0","congruent","uniform","1","undefined","1","s","0","0","0","32","32","32","32","0","32","0","NA","0","0","0","32","32","32","NA","09/09/18 18:09:44","1500","The main experiment item","yes","Flankertest.osexp","C:\Users\Knitwitty\AppData\Roaming","no","mono","no","18","no","white","no","yes","768","legacy","32","32","C:/Users/Knitwitty/AppData/Roaming/KB-subject-3.csv","xpyriment","Jazzy James","3.1.9","0","s","NA","s","NA","NA","s","469","NA","2501","NA","NA","469","NA","NA","2","legacy","1024","2","48000","-16","experiment","SSSSS","3","odd","14645","NA","NA","95634","93776","95599","66605","12118","NA","NA","NA","12143","NA","NA","95751","96222","95750","NA","Flanker test","30","15711","33","yes","1024"
"91.1764705882","91.1764705882","474.117647059","474.117647059","black","no","xpyriment","legacy","legacy","0","congruent","uniform","1","undefined","1","h","0","0","0","33","33","33","33","0","33","0","NA","0","0","0","33","33","33","NA","09/09/18 18:09:44","1500","The main experiment item","yes","Flankertest.osexp","C:\Users\Knitwitty\AppData\Roaming","no","mono","no","18","no","white","no","yes","768","legacy","33","33","C:/Users/Knitwitty/AppData/Roaming/KB-subject-3.csv","xpyriment","Jazzy James","3.1.9","0","h","NA","s","NA","NA","h","409","NA","2501","NA","NA","409","NA","NA","2","legacy","1024","2","48000","-16","experiment","HHHHH","3","odd","14645","NA","NA","98084","96245","98050","66605","12118","NA","NA","NA","12143","NA","NA","98202","98614","98202","NA","Flanker test","31","16120","34","yes","1024"
"91.4285714286","91.4285714286","477.285714286","477.285714286","black","no","xpyriment","legacy","legacy","0","incongruent","uniform","1","undefined","1","h","0","0","0","34","34","34","34","0","34","0","NA","0","0","0","34","34","34","NA","09/09/18 18:09:44","1500","The main experiment item","yes","Flankertest.osexp","C:\Users\Knitwitty\AppData\Roaming","no","mono","no","18","no","white","no","yes","768","legacy","34","34","C:/Users/Knitwitty/AppData/Roaming/KB-subject-3.csv","xpyriment","Jazzy James","3.1.9","0","h","NA","s","NA","NA","h","585","NA","2501","NA","NA","585","NA","NA","2","legacy","1024","2","48000","-16","experiment","SSHSS","3","odd","14645","NA","NA","100470","98633","100434","66605","12118","NA","NA","NA","12143","NA","NA","100587","101175","100586","NA","Flanker test","32","16705","35","yes","1024"
"91.6666666667","91.6666666667","475.777777778","475.777777778","black","no","xpyriment","legacy","legacy","0","congruent","uniform","1","undefined","1","s","0","0","0","35","35","35","35","0","35","0","NA","0","0","0","35","35","35","NA","09/09/18 18:09:44","1500","The main experiment item","yes","Flankertest.osexp","C:\Users\Knitwitty\AppData\Roaming","no","mono","no","18","no","white","no","yes","768","legacy","35","35","C:/Users/Knitwitty/AppData/Roaming/KB-subject-3.csv","xpyriment","Jazzy James","3.1.9","0","s","NA","s","NA","NA","s","423","NA","2501","NA","NA","423","NA","NA","2","legacy","1024","2","48000","-16","experiment","SSSSS","3","odd","14645","NA","NA","103024","101198","102989","66605","12118","NA","NA","NA","12143","NA","NA","103141","103567","103140","NA","Flanker test","33","17128","36","yes","1024"
"91.8918918919","91.8918918919","476.216216216","476.216216216","black","no","xpyriment","legacy","legacy","0","congruent","uniform","1","undefined","1","s","0","0","0","36","36","36","36","0","36","0","NA","0","0","0","36","36","36","NA","09/09/18 18:09:44","1500","The main experiment item","yes","Flankertest.osexp","C:\Users\Knitwitty\AppData\Roaming","no","mono","no","18","no","white","no","yes","768","legacy","36","36","C:/Users/Knitwitty/AppData/Roaming/KB-subject-3.csv","xpyriment","Jazzy James","3.1.9","0","s","NA","s","NA","NA","s","492","NA","2501","NA","NA","492","NA","NA","2","legacy","1024","2","48000","-16","experiment","SSSSS","3","odd","14645","NA","NA","105432","103586","105397","66605","12118","NA","NA","NA","12143","NA","NA","105552","106046","105551","NA","Flanker test","34","17620","37","yes","1024"
"92.1052631579","92.1052631579","477.552631579","477.552631579","black","no","xpyriment","legacy","legacy","0","incongruent","uniform","1","undefined","1","h","0","0","0","37","37","37","37","0","37","0","NA","0","0","0","37","37","37","NA","09/09/18 18:09:44","1500","The main experiment item","yes","Flankertest.osexp","C:\Users\Knitwitty\AppData\Roaming","no","mono","no","18","no","white","no","yes","768","legacy","37","37","C:/Users/Knitwitty/AppData/Roaming/KB-subject-3.csv","xpyriment","Jazzy James","3.1.9","0","h","NA","s","NA","NA","h","527","NA","2501","NA","NA","527","NA","NA","2","legacy","1024","2","48000","-16","experiment","SSHSS","3","odd","14645","NA","NA","107912","106069","107877","66605","12118","NA","NA","NA","12143","NA","NA","108029","108558","108028","NA","Flanker test","35","18147","38","yes","1024"
"92.3076923077","92.3076923077","479.487179487","479.487179487","black","no","xpyriment","legacy","legacy","0","congruent","uniform","1","undefined","1","s","0","0","0","38","38","38","38","0","38","0","NA","0","0","0","38","38","38","NA","09/09/18 18:09:44","1500","The main experiment item","yes","Flankertest.osexp","C:\Users\Knitwitty\AppData\Roaming","no","mono","no","18","no","white","no","yes","768","legacy","38","38","C:/Users/Knitwitty/AppData/Roaming/KB-subject-3.csv","xpyriment","Jazzy James","3.1.9","0","s","NA","s","NA","NA","s","553","NA","2501","NA","NA","553","NA","NA","2","legacy","1024","2","48000","-16","experiment","SSSSS","3","odd","14645","NA","NA","110413","108582","110378","66605","12118","NA","NA","NA","12143","NA","NA","110531","111087","110530","NA","Flanker test","36","18700","39","yes","1024"
"92.5","92.5","479.9","479.9","black","no","xpyriment","legacy","legacy","0","congruent","uniform","1","undefined","1","h","0","0","0","39","39","39","39","0","39","0","NA","0","0","0","39","39","39","NA","09/09/18 18:09:44","1500","The main experiment item","yes","Flankertest.osexp","C:\Users\Knitwitty\AppData\Roaming","no","mono","no","18","no","white","no","yes","768","legacy","39","39","C:/Users/Knitwitty/AppData/Roaming/KB-subject-3.csv","xpyriment","Jazzy James","3.1.9","0","h","NA","s","NA","NA","h","496","NA","2501","NA","NA","496","NA","NA","2","legacy","1024","2","48000","-16","experiment","HHHHH","3","odd","14645","NA","NA","112950","111111","112915","66605","12118","NA","NA","NA","12143","NA","NA","113068","113566","113067","NA","Flanker test","37","19196","40","yes","1024"
"92.6829268293","92.6829268293","477.658536585","477.658536585","black","no","xpyriment","legacy","legacy","0","congruent","uniform","1","undefined","1","s","0","0","0","40","40","40","40","0","40","0","NA","0","0","0","40","40","40","NA","09/09/18 18:09:44","1500","The main experiment item","yes","Flankertest.osexp","C:\Users\Knitwitty\AppData\Roaming","no","mono","no","18","no","white","no","yes","768","legacy","40","40","C:/Users/Knitwitty/AppData/Roaming/KB-subject-3.csv","xpyriment","Jazzy James","3.1.9","0","s","NA","s","NA","NA","s","388","NA","2501","NA","NA","388","NA","NA","2","legacy","1024","2","48000","-16","experiment","SSSSS","3","odd","14645","NA","NA","115419","113584","115383","66605","12118","NA","NA","NA","12143","NA","NA","115536","115927","115535","NA","Flanker test","38","19584","41","yes","1024"
"92.8571428571","92.8571428571","479.071428571","479.071428571","black","no","xpyriment","legacy","legacy","0","incongruent","uniform","1","undefined","1","s","0","0","0","41","41","41","41","0","41","0","NA","0","0","0","41","41","41","NA","09/09/18 18:09:44","1500","The main experiment item","yes","Flankertest.osexp","C:\Users\Knitwitty\AppData\Roaming","no","mono","no","18","no","white","no","yes","768","legacy","41","41","C:/Users/Knitwitty/AppData/Roaming/KB-subject-3.csv","xpyriment","Jazzy James","3.1.9","0","s","NA","s","NA","NA","s","537","NA","2501","NA","NA","537","NA","NA","2","legacy","1024","2","48000","-16","experiment","HHSHH","3","odd","14645","NA","NA","117782","115952","117750","66605","12118","NA","NA","NA","12143","NA","NA","117899","118439","117899","NA","Flanker test","39","20121","42","yes","1024"
"93.023255814","93.023255814","479.813953488","479.813953488","black","no","xpyriment","legacy","legacy","0","incongruent","uniform","1","undefined","1","s","0","0","0","42","42","42","42","0","42","0","NA","0","0","0","42","42","42","NA","09/09/18 18:09:44","1500","The main experiment item","yes","Flankertest.osexp","C:\Users\Knitwitty\AppData\Roaming","no","mono","no","18","no","white","no","yes","768","legacy","42","42","C:/Users/Knitwitty/AppData/Roaming/KB-subject-3.csv","xpyriment","Jazzy James","3.1.9","0","s","NA","s","NA","NA","s","511","NA","2501","NA","NA","511","NA","NA","2","legacy","1024","2","48000","-16","experiment","HHSHH","3","odd","14645","NA","NA","120296","118458","120254","66605","12118","NA","NA","NA","12143","NA","NA","120413","120927","120413","NA","Flanker test","40","20632","43","yes","1024"
"93.1818181818","93.1818181818","479.045454545","479.045454545","black","no","xpyriment","legacy","legacy","0","congruent","uniform","1","undefined","1","h","0","0","0","43","43","43","43","0","43","0","NA","0","0","0","43","43","43","NA","09/09/18 18:09:44","1500","The main experiment item","yes","Flankertest.osexp","C:\Users\Knitwitty\AppData\Roaming","no","mono","no","18","no","white","no","yes","768","legacy","43","43","C:/Users/Knitwitty/AppData/Roaming/KB-subject-3.csv","xpyriment","Jazzy James","3.1.9","0","h","NA","s","NA","NA","h","446","NA","2501","NA","NA","446","NA","NA","2","legacy","1024","2","48000","-16","experiment","HHHHH","3","odd","14645","NA","NA","122775","120946","122739","66605","12118","NA","NA","NA","12143","NA","NA","122893","123343","122892","NA","Flanker test","41","21078","44","yes","1024"
"91.1111111111","91.1111111111","479.044444444","479.044444444","black","no","xpyriment","legacy","legacy","0","incongruent","uniform","0","undefined","0","h","0","0","0","44","44","44","44","0","44","0","NA","0","0","0","44","44","44","NA","09/09/18 18:09:44","1500","The main experiment item","yes","Flankertest.osexp","C:\Users\Knitwitty\AppData\Roaming","no","mono","no","18","no","white","no","yes","768","legacy","44","44","C:/Users/Knitwitty/AppData/Roaming/KB-subject-3.csv","xpyriment","Jazzy James","3.1.9","0","s","NA","s","NA","NA","s","479","NA","2501","NA","NA","479","NA","NA","2","legacy","1024","2","48000","-16","experiment","SSHSS","3","odd","14645","NA","NA","125224","123376","125188","66605","12118","NA","NA","NA","12143","NA","NA","125341","125823","125341","NA","Flanker test","41","21557","45","yes","1024"
"91.3043478261","91.3043478261","483.173913043","483.173913043","black","no","xpyriment","legacy","legacy","0","incongruent","uniform","1","undefined","1","s","0","0","0","45","45","45","45","0","45","0","NA","0","0","0","45","45","45","NA","09/09/18 18:09:44","1500","The main experiment item","yes","Flankertest.osexp","C:\Users\Knitwitty\AppData\Roaming","no","mono","no","18","no","white","no","yes","768","legacy","45","45","C:/Users/Knitwitty/AppData/Roaming/KB-subject-3.csv","xpyriment","Jazzy James","3.1.9","0","s","NA","s","NA","NA","s","669","NA","2501","NA","NA","669","NA","NA","2","legacy","1024","2","48000","-16","experiment","HHSHH","3","odd","14645","NA","NA","128274","126346","128235","125840","12118","NA","NA","NA","12143","NA","NA","128391","129063","128391","NA","Flanker test","42","22226","46","yes","1024"
"91.4893617021","91.4893617021","481.510638298","481.510638298","black","no","xpyriment","legacy","legacy","0","congruent","uniform","1","undefined","1","s","0","0","0","46","46","46","46","0","46","0","NA","0","0","0","46","46","46","NA","09/09/18 18:09:44","1500","The main experiment item","yes","Flankertest.osexp","C:\Users\Knitwitty\AppData\Roaming","no","mono","no","18","no","white","no","yes","768","legacy","46","46","C:/Users/Knitwitty/AppData/Roaming/KB-subject-3.csv","xpyriment","Jazzy James","3.1.9","0","s","NA","s","NA","NA","s","405","NA","2501","NA","NA","405","NA","NA","2","legacy","1024","2","48000","-16","experiment","SSSSS","3","odd","14645","NA","NA","130914","129082","130877","125840","12118","NA","NA","NA","12143","NA","NA","131031","131439","131031","NA","Flanker test","43","22631","47","yes","1024"
"91.6666666667","91.6666666667","479.666666667","479.666666667","black","no","xpyriment","legacy","legacy","0","congruent","uniform","1","undefined","1","s","0","0","0","47","47","47","47","0","47","0","NA","0","0","0","47","47","47","NA","09/09/18 18:09:44","1500","The main experiment item","yes","Flankertest.osexp","C:\Users\Knitwitty\AppData\Roaming","no","mono","no","18","no","white","no","yes","768","legacy","47","47","C:/Users/Knitwitty/AppData/Roaming/KB-subject-3.csv","xpyriment","Jazzy James","3.1.9","0","s","NA","s","NA","NA","s","393","NA","2501","NA","NA","393","NA","NA","2","legacy","1024","2","48000","-16","experiment","SSSSS","3","odd","14645","NA","NA","133294","131457","133257","125840","12118","NA","NA","NA","12143","NA","NA","133411","133807","133411","NA","Flanker test","44","23024","48","yes","1024"
"91.8367346939","91.8367346939","478.346938776","478.346938776","black","no","xpyriment","legacy","legacy","0","congruent","uniform","1","undefined","1","s","0","0","0","48","48","48","48","0","48","0","NA","0","0","0","48","48","48","NA","09/09/18 18:09:44","1500","The main experiment item","yes","Flankertest.osexp","C:\Users\Knitwitty\AppData\Roaming","no","mono","no","18","no","white","no","yes","768","legacy","48","48","C:/Users/Knitwitty/AppData/Roaming/KB-subject-3.csv","xpyriment","Jazzy James","3.1.9","0","s","NA","s","NA","NA","s","415","NA","2501","NA","NA","415","NA","NA","2","legacy","1024","2","48000","-16","experiment","SSSSS","3","odd","14645","NA","NA","135679","133826","135645","125840","12118","NA","NA","NA","12143","NA","NA","135797","136215","135796","NA","Flanker test","45","23439","49","yes","1024"
"92","92","476.5","476.5","black","no","xpyriment","legacy","legacy","0","congruent","uniform","1","undefined","1","s","0","0","0","49","49","49","49","0","49","0","NA","0","0","0","49","49","49","NA","09/09/18 18:09:44","1500","The main experiment item","yes","Flankertest.osexp","C:\Users\Knitwitty\AppData\Roaming","no","mono","no","18","no","white","no","yes","768","legacy","49","49","C:/Users/Knitwitty/AppData/Roaming/KB-subject-3.csv","xpyriment","Jazzy James","3.1.9","0","s","NA","s","NA","NA","s","386","NA","2501","NA","NA","386","NA","NA","2","legacy","1024","2","48000","-16","experiment","SSSSS","3","odd","14645","NA","NA","138084","136245","138048","125840","12118","NA","NA","NA","12143","NA","NA","138201","138591","138200","NA","Flanker test","46","23825","50","yes","1024"
"92.1568627451","92.1568627451","478.764705882","478.764705882","black","no","xpyriment","legacy","legacy","0","incongruent","uniform","1","undefined","1","h","0","0","0","50","50","50","50","0","50","0","NA","0","0","0","50","50","50","NA","09/09/18 18:09:44","1500","The main experiment item","yes","Flankertest.osexp","C:\Users\Knitwitty\AppData\Roaming","no","mono","no","18","no","white","no","yes","768","legacy","50","50","C:/Users/Knitwitty/AppData/Roaming/KB-subject-3.csv","xpyriment","Jazzy James","3.1.9","0","h","NA","s","NA","NA","h","592","NA","2501","NA","NA","592","NA","NA","2","legacy","1024","2","48000","-16","experiment","SSHSS","3","odd","14645","NA","NA","140462","138618","140427","125840","12118","NA","NA","NA","12143","NA","NA","140579","141175","140579","NA","Flanker test","47","24417","51","yes","1024"
"92.3076923077","92.3076923077","480.769230769","480.769230769","black","no","xpyriment","legacy","legacy","0","congruent","uniform","1","undefined","1","s","0","0","0","51","51","51","51","0","51","0","NA","0","0","0","51","51","51","NA","09/09/18 18:09:44","1500","The main experiment item","yes","Flankertest.osexp","C:\Users\Knitwitty\AppData\Roaming","no","mono","no","18","no","white","no","yes","768","legacy","51","51","C:/Users/Knitwitty/AppData/Roaming/KB-subject-3.csv","xpyriment","Jazzy James","3.1.9","0","s","NA","s","NA","NA","s","583","NA","2501","NA","NA","583","NA","NA","2","legacy","1024","2","48000","-16","experiment","SSSSS","3","odd","14645","NA","NA","143055","141199","143012","125840","12118","NA","NA","NA","12143","NA","NA","143173","143759","143172","NA","Flanker test","48","25000","52","yes","1024"
"92.4528301887","92.4528301887","481.603773585","481.603773585","black","no","xpyriment","legacy","legacy","0","incongruent","uniform","1","undefined","1","s","0","0","0","52","52","52","52","0","52","0","NA","0","0","0","52","52","52","NA","09/09/18 18:09:44","1500","The main experiment item","yes","Flankertest.osexp","C:\Users\Knitwitty\AppData\Roaming","no","mono","no","18","no","white","no","yes","768","legacy","52","52","C:/Users/Knitwitty/AppData/Roaming/KB-subject-3.csv","xpyriment","Jazzy James","3.1.9","0","s","NA","s","NA","NA","s","525","NA","2501","NA","NA","525","NA","NA","2","legacy","1024","2","48000","-16","experiment","HHSHH","3","odd","14645","NA","NA","145634","143778","145598","125840","12118","NA","NA","NA","12143","NA","NA","145751","146279","145750","NA","Flanker test","49","25525","53","yes","1024"
"92.5925925926","92.5925925926","481.666666667","481.666666667","black","no","xpyriment","legacy","legacy","0","incongruent","uniform","1","undefined","1","h","0","0","0","53","53","53","53","0","53","0","NA","0","0","0","53","53","53","NA","09/09/18 18:09:44","1500","The main experiment item","yes","Flankertest.osexp","C:\Users\Knitwitty\AppData\Roaming","no","mono","no","18","no","white","no","yes","768","legacy","53","53","C:/Users/Knitwitty/AppData/Roaming/KB-subject-3.csv","xpyriment","Jazzy James","3.1.9","0","h","NA","s","NA","NA","h","485","NA","2501","NA","NA","485","NA","NA","2","legacy","1024","2","48000","-16","experiment","SSHSS","3","odd","14645","NA","NA","148153","146303","148115","125840","12118","NA","NA","NA","12143","NA","NA","148270","148759","148269","NA","Flanker test","50","26010","54","yes","1024"
"92.7272727273","92.7272727273","484.581818182","484.581818182","black","no","xpyriment","legacy","legacy","0","incongruent","uniform","1","undefined","1","s","0","0","0","54","54","54","54","0","54","0","NA","0","0","0","54","54","54","NA","09/09/18 18:09:44","1500","The main experiment item","yes","Flankertest.osexp","C:\Users\Knitwitty\AppData\Roaming","no","mono","no","18","no","white","no","yes","768","legacy","54","54","C:/Users/Knitwitty/AppData/Roaming/KB-subject-3.csv","xpyriment","Jazzy James","3.1.9","0","s","NA","s","NA","NA","s","642","NA","2501","NA","NA","642","NA","NA","2","legacy","1024","2","48000","-16","experiment","HHSHH","3","odd","14645","NA","NA","150605","148778","150570","125840","12118","NA","NA","NA","12143","NA","NA","150722","151367","150721","NA","Flanker test","51","26652","55","yes","1024"
"92.8571428571","92.8571428571","484.160714286","484.160714286","black","no","xpyriment","legacy","legacy","0","incongruent","uniform","1","undefined","1","s","0","0","0","55","55","55","55","0","55","0","NA","0","0","0","55","55","55","NA","09/09/18 18:09:44","1500","The main experiment item","yes","Flankertest.osexp","C:\Users\Knitwitty\AppData\Roaming","no","mono","no","18","no","white","no","yes","768","legacy","55","55","C:/Users/Knitwitty/AppData/Roaming/KB-subject-3.csv","xpyriment","Jazzy James","3.1.9","0","s","NA","s","NA","NA","s","461","NA","2501","NA","NA","461","NA","NA","2","legacy","1024","2","48000","-16","experiment","HHSHH","3","odd","14645","NA","NA","153218","151387","153184","125840","12118","NA","NA","NA","12143","NA","NA","153335","153799","153334","NA","Flanker test","52","27113","56","yes","1024"
"92.9824561404","92.9824561404","484.385964912","484.385964912","black","no","xpyriment","legacy","legacy","0","incongruent","uniform","1","undefined","1","h","0","0","0","56","56","56","56","0","56","0","NA","0","0","0","56","56","56","NA","09/09/18 18:09:44","1500","The main experiment item","yes","Flankertest.osexp","C:\Users\Knitwitty\AppData\Roaming","no","mono","no","18","no","white","no","yes","768","legacy","56","56","C:/Users/Knitwitty/AppData/Roaming/KB-subject-3.csv","xpyriment","Jazzy James","3.1.9","0","h","NA","s","NA","NA","h","497","NA","2501","NA","NA","497","NA","NA","2","legacy","1024","2","48000","-16","experiment","SSHSS","3","odd","14645","NA","NA","155678","153826","155639","125840","12118","NA","NA","NA","12143","NA","NA","155795","156296","155794","NA","Flanker test","53","27610","57","yes","1024"
"91.3793103448","91.3793103448","484.120689655","484.120689655","black","no","xpyriment","legacy","legacy","0","congruent","uniform","0","undefined","0","h","0","0","0","57","57","57","57","0","57","0","NA","0","0","0","57","57","57","NA","09/09/18 18:09:44","1500","The main experiment item","yes","Flankertest.osexp","C:\Users\Knitwitty\AppData\Roaming","no","mono","no","18","no","white","no","yes","768","legacy","57","57","C:/Users/Knitwitty/AppData/Roaming/KB-subject-3.csv","xpyriment","Jazzy James","3.1.9","0","s","NA","s","NA","NA","s","469","NA","2501","NA","NA","469","NA","NA","2","legacy","1024","2","48000","-16","experiment","HHHHH","3","odd","14645","NA","NA","158186","156330","158152","125840","12118","NA","NA","NA","12143","NA","NA","158303","158776","158302","NA","Flanker test","53","28079","58","yes","1024"
"91.5254237288","91.5254237288","484.474576271","484.474576271","black","no","xpyriment","legacy","legacy","0","congruent","uniform","1","undefined","1","s","0","0","0","58","58","58","58","0","58","0","NA","0","0","0","58","58","58","NA","09/09/18 18:09:44","1500","The main experiment item","yes","Flankertest.osexp","C:\Users\Knitwitty\AppData\Roaming","no","mono","no","18","no","white","no","yes","768","legacy","58","58","C:/Users/Knitwitty/AppData/Roaming/KB-subject-3.csv","xpyriment","Jazzy James","3.1.9","0","s","NA","s","NA","NA","s","505","NA","2501","NA","NA","505","NA","NA","2","legacy","1024","2","48000","-16","experiment","SSSSS","3","odd","14645","NA","NA","161133","159302","161099","158796","12118","NA","NA","NA","12143","NA","NA","161251","161759","161251","NA","Flanker test","54","28584","59","yes","1024"
"91.6666666667","91.6666666667","484.166666667","484.166666667","black","no","xpyriment","legacy","legacy","0","congruent","uniform","1","undefined","1","s","0","0","0","59","59","59","59","0","59","0","NA","0","0","0","59","59","59","NA","09/09/18 18:09:44","1500","The main experiment item","yes","Flankertest.osexp","C:\Users\Knitwitty\AppData\Roaming","no","mono","no","18","no","white","no","yes","768","legacy","59","59","C:/Users/Knitwitty/AppData/Roaming/KB-subject-3.csv","xpyriment","Jazzy James","3.1.9","0","s","NA","s","NA","NA","s","466","NA","2501","NA","NA","466","NA","NA","2","legacy","1024","2","48000","-16","experiment","SSSSS","3","odd","14645","NA","NA","163660","161779","163619","158796","12118","NA","NA","NA","12143","NA","NA","163777","164247","163776","NA","Flanker test","55","29050","60","yes","1024"
"91.8032786885","91.8032786885","483.163934426","483.163934426","black","no","xpyriment","legacy","legacy","0","congruent","uniform","1","undefined","1","h","0","0","0","60","60","60","60","0","60","0","NA","0","0","0","60","60","60","NA","09/09/18 18:09:44","1500","The main experiment item","yes","Flankertest.osexp","C:\Users\Knitwitty\AppData\Roaming","no","mono","no","18","no","white","no","yes","768","legacy","60","60","C:/Users/Knitwitty/AppData/Roaming/KB-subject-3.csv","xpyriment","Jazzy James","3.1.9","0","h","NA","s","NA","NA","h","423","NA","2501","NA","NA","423","NA","NA","2","legacy","1024","2","48000","-16","experiment","HHHHH","3","odd","14645","NA","NA","166120","164281","166084","158796","12118","NA","NA","NA","12143","NA","NA","166237","166663","166236","NA","Flanker test","56","29473","61","yes","1024"
"91.935483871","91.935483871","483.161290323","483.161290323","black","no","xpyriment","legacy","legacy","0","congruent","uniform","1","undefined","1","h","0","0","0","61","61","61","61","0","61","0","NA","0","0","0","61","61","61","NA","09/09/18 18:09:44","1500","The main experiment item","yes","Flankertest.osexp","C:\Users\Knitwitty\AppData\Roaming","no","mono","no","18","no","white","no","yes","768","legacy","61","61","C:/Users/Knitwitty/AppData/Roaming/KB-subject-3.csv","xpyriment","Jazzy James","3.1.9","0","h","NA","s","NA","NA","h","483","NA","2501","NA","NA","483","NA","NA","2","legacy","1024","2","48000","-16","experiment","HHHHH","3","odd","14645","NA","NA","168562","166698","168515","158796","12118","NA","NA","NA","12143","NA","NA","168681","169167","168680","NA","Flanker test","57","29956","62","yes","1024"
"92.0634920635","92.0634920635","483.634920635","483.634920635","black","no","xpyriment","legacy","legacy","0","incongruent","uniform","1","undefined","1","h","0","0","0","62","62","62","62","0","62","0","NA","0","0","0","62","62","62","NA","09/09/18 18:09:44","1500","The main experiment item","yes","Flankertest.osexp","C:\Users\Knitwitty\AppData\Roaming","no","mono","no","18","no","white","no","yes","768","legacy","62","62","C:/Users/Knitwitty/AppData/Roaming/KB-subject-3.csv","xpyriment","Jazzy James","3.1.9","0","h","NA","s","NA","NA","h","513","NA","2501","NA","NA","513","NA","NA","2","legacy","1024","2","48000","-16","experiment","SSHSS","3","odd","14645","NA","NA","171014","169186","170980","158796","12118","NA","NA","NA","12143","NA","NA","171131","171648","171130","NA","Flanker test","58","30469","63","yes","1024"
"92.1875","92.1875","483.375","483.375","black","no","xpyriment","legacy","legacy","0","congruent","uniform","1","undefined","1","s","0","0","0","63","63","63","63","0","63","0","NA","0","0","0","63","63","63","NA","09/09/18 18:09:44","1500","The main experiment item","yes","Flankertest.osexp","C:\Users\Knitwitty\AppData\Roaming","no","mono","no","18","no","white","no","yes","768","legacy","63","63","C:/Users/Knitwitty/AppData/Roaming/KB-subject-3.csv","xpyriment","Jazzy James","3.1.9","0","s","NA","s","NA","NA","s","467","NA","2501","NA","NA","467","NA","NA","2","legacy","1024","2","48000","-16","experiment","SSSSS","3","odd","14645","NA","NA","173499","171671","173465","158796","12118","NA","NA","NA","12143","NA","NA","173617","174088","173616","NA","Flanker test","59","30936","64","yes","1024"
"92.3076923077","92.3076923077","485.076923077","485.076923077","black","no","xpyriment","legacy","legacy","0","incongruent","uniform","1","undefined","1","s","0","0","0","64","64","64","64","0","64","0","NA","0","0","0","64","64","64","NA","09/09/18 18:09:44","1500","The main experiment item","yes","Flankertest.osexp","C:\Users\Knitwitty\AppData\Roaming","no","mono","no","18","no","white","no","yes","768","legacy","64","64","C:/Users/Knitwitty/AppData/Roaming/KB-subject-3.csv","xpyriment","Jazzy James","3.1.9","0","s","NA","s","NA","NA","s","594","NA","2501","NA","NA","594","NA","NA","2","legacy","1024","2","48000","-16","experiment","HHSHH","3","odd","14645","NA","NA","175948","174107","175914","158796","12118","NA","NA","NA","12143","NA","NA","176065","176663","176064","NA","Flanker test","60","31530","65","yes","1024"
"92.4242424242","92.4242424242","487.46969697","487.46969697","black","no","xpyriment","legacy","legacy","0","incongruent","uniform","1","undefined","1","h","0","0","0","65","65","65","65","0","65","0","NA","0","0","0","65","65","65","NA","09/09/18 18:09:44","1500","The main experiment item","yes","Flankertest.osexp","C:\Users\Knitwitty\AppData\Roaming","no","mono","no","18","no","white","no","yes","768","legacy","65","65","C:/Users/Knitwitty/AppData/Roaming/KB-subject-3.csv","xpyriment","Jazzy James","3.1.9","0","h","NA","s","NA","NA","h","643","NA","2501","NA","NA","643","NA","NA","2","legacy","1024","2","48000","-16","experiment","SSHSS","3","odd","14645","NA","NA","178531","176681","178494","158796","12118","NA","NA","NA","12143","NA","NA","178648","179295","178648","NA","Flanker test","61","32173","66","yes","1024"
"92.5373134328","92.5373134328","488.402985075","488.402985075","black","no","xpyriment","legacy","legacy","0","incongruent","uniform","1","undefined","1","s","0","0","0","66","66","66","66","0","66","0","NA","0","0","0","66","66","66","NA","09/09/18 18:09:44","1500","The main experiment item","yes","Flankertest.osexp","C:\Users\Knitwitty\AppData\Roaming","no","mono","no","18","no","white","no","yes","768","legacy","66","66","C:/Users/Knitwitty/AppData/Roaming/KB-subject-3.csv","xpyriment","Jazzy James","3.1.9","0","s","NA","s","NA","NA","s","550","NA","2501","NA","NA","550","NA","NA","2","legacy","1024","2","48000","-16","experiment","HHSHH","3","odd","14645","NA","NA","181177","179332","181139","158796","12118","NA","NA","NA","12143","NA","NA","181294","181848","181294","NA","Flanker test","62","32723","67","yes","1024"
"92.6470588235","92.6470588235","488.808823529","488.808823529","black","no","xpyriment","legacy","legacy","0","congruent","uniform","1","undefined","1","h","0","0","0","67","67","67","67","0","67","0","NA","0","0","0","67","67","67","NA","09/09/18 18:09:44","1500","The main experiment item","yes","Flankertest.osexp","C:\Users\Knitwitty\AppData\Roaming","no","mono","no","18","no","white","no","yes","768","legacy","67","67","C:/Users/Knitwitty/AppData/Roaming/KB-subject-3.csv","xpyriment","Jazzy James","3.1.9","0","h","NA","s","NA","NA","h","516","NA","2501","NA","NA","516","NA","NA","2","legacy","1024","2","48000","-16","experiment","HHHHH","3","odd","14645","NA","NA","183722","181877","183686","158796","12118","NA","NA","NA","12143","NA","NA","183840","184360","183840","NA","Flanker test","63","33239","68","yes","1024"
"92.7536231884","92.7536231884","488.043478261","488.043478261","black","no","xpyriment","legacy","legacy","0","incongruent","uniform","1","undefined","1","h","0","0","0","68","68","68","68","0","68","0","NA","0","0","0","68","68","68","NA","09/09/18 18:09:44","1500","The main experiment item","yes","Flankertest.osexp","C:\Users\Knitwitty\AppData\Roaming","no","mono","no","18","no","white","no","yes","768","legacy","68","68","C:/Users/Knitwitty/AppData/Roaming/KB-subject-3.csv","xpyriment","Jazzy James","3.1.9","0","h","NA","s","NA","NA","h","436","NA","2501","NA","NA","436","NA","NA","2","legacy","1024","2","48000","-16","experiment","SSHSS","3","odd","14645","NA","NA","186217","184384","186180","158796","12118","NA","NA","NA","12143","NA","NA","186335","186775","186334","NA","Flanker test","64","33675","69","yes","1024"
"92.8571428571","92.8571428571","488.685714286","488.685714286","black","no","xpyriment","legacy","legacy","0","incongruent","uniform","1","undefined","1","s","0","0","0","69","69","69","69","0","69","0","NA","0","0","0","69","69","69","NA","09/09/18 18:09:44","1500","The main experiment item","yes","Flankertest.osexp","C:\Users\Knitwitty\AppData\Roaming","no","mono","no","18","no","white","no","yes","768","legacy","69","69","C:/Users/Knitwitty/AppData/Roaming/KB-subject-3.csv","xpyriment","Jazzy James","3.1.9","0","s","NA","s","NA","NA","s","533","NA","2501","NA","NA","533","NA","NA","2","legacy","1024","2","48000","-16","experiment","HHSHH","3","odd","14645","NA","NA","188641","186795","188606","158796","12118","NA","NA","NA","12143","NA","NA","188759","189295","188758","NA","Flanker test","65","34208","70","yes","1024"
"92.9577464789","92.9577464789","491.014084507","491.014084507","black","no","xpyriment","legacy","legacy","0","congruent","uniform","1","undefined","1","s","0","0","0","70","70","70","70","0","70","0","NA","0","0","0","70","70","70","NA","09/09/18 18:09:44","1500","The main experiment item","yes","Flankertest.osexp","C:\Users\Knitwitty\AppData\Roaming","no","mono","no","18","no","white","no","yes","768","legacy","70","70","C:/Users/Knitwitty/AppData/Roaming/KB-subject-3.csv","xpyriment","Jazzy James","3.1.9","0","s","NA","s","NA","NA","s","654","NA","2501","NA","NA","654","NA","NA","2","legacy","1024","2","48000","-16","experiment","SSSSS","3","odd","14645","NA","NA","191161","189319","191122","158796","12118","NA","NA","NA","12143","NA","NA","191278","191936","191277","NA","Flanker test","66","34862","71","yes","1024"
"93.0555555556","93.0555555556","490.972222222","490.972222222","black","no","xpyriment","legacy","legacy","0","incongruent","uniform","1","undefined","1","h","0","0","0","71","71","71","71","0","71","0","NA","0","0","0","71","71","71","NA","09/09/18 18:09:44","1500","The main experiment item","yes","Flankertest.osexp","C:\Users\Knitwitty\AppData\Roaming","no","mono","no","18","no","white","no","yes","768","legacy","71","71","C:/Users/Knitwitty/AppData/Roaming/KB-subject-3.csv","xpyriment","Jazzy James","3.1.9","0","h","NA","s","NA","NA","h","488","NA","2501","NA","NA","488","NA","NA","2","legacy","1024","2","48000","-16","experiment","SSHSS","3","odd","14645","NA","NA","193815","191955","193762","158796","12118","NA","NA","NA","12143","NA","NA","193932","194424","193932","NA","Flanker test","67","35350","72","yes","1024"
"91.7808219178","91.7808219178","491.273972603","491.273972603","black","no","xpyriment","legacy","legacy","0","incongruent","uniform","0","undefined","0","h","0","0","0","72","72","72","72","0","72","0","NA","0","0","0","72","72","72","NA","09/09/18 18:09:44","1500","The main experiment item","yes","Flankertest.osexp","C:\Users\Knitwitty\AppData\Roaming","no","mono","no","18","no","white","no","yes","768","legacy","72","72","C:/Users/Knitwitty/AppData/Roaming/KB-subject-3.csv","xpyriment","Jazzy James","3.1.9","0","s","NA","s","NA","NA","s","513","NA","2501","NA","NA","513","NA","NA","2","legacy","1024","2","48000","-16","experiment","SSHSS","3","odd","14645","NA","NA","196278","194443","196241","158796","12118","NA","NA","NA","12143","NA","NA","196395","196912","196394","NA","Flanker test","67","35863","73","yes","1024"
"91.8918918919","91.8918918919","492.891891892","492.891891892","black","no","xpyriment","legacy","legacy","0","incongruent","uniform","1","undefined","1","s","0","0","0","73","73","73","73","0","73","0","NA","0","0","0","73","73","73","NA","09/09/18 18:09:44","1500","The main experiment item","yes","Flankertest.osexp","C:\Users\Knitwitty\AppData\Roaming","no","mono","no","18","no","white","no","yes","768","legacy","73","73","C:/Users/Knitwitty/AppData/Roaming/KB-subject-3.csv","xpyriment","Jazzy James","3.1.9","0","s","NA","s","NA","NA","s","611","NA","2501","NA","NA","611","NA","NA","2","legacy","1024","2","48000","-16","experiment","HHSHH","3","odd","14645","NA","NA","199276","197436","199241","196930","12118","NA","NA","NA","12143","NA","NA","199393","200008","199392","NA","Flanker test","68","36474","74","yes","1024"
"92","92","492.386666667","492.386666667","black","no","xpyriment","legacy","legacy","0","congruent","uniform","1","undefined","1","h","0","0","0","74","74","74","74","0","74","0","NA","0","0","0","74","74","74","NA","09/09/18 18:09:44","1500","The main experiment item","yes","Flankertest.osexp","C:\Users\Knitwitty\AppData\Roaming","no","mono","no","18","no","white","no","yes","768","legacy","74","74","C:/Users/Knitwitty/AppData/Roaming/KB-subject-3.csv","xpyriment","Jazzy James","3.1.9","0","h","NA","s","NA","NA","h","455","NA","2501","NA","NA","455","NA","NA","2","legacy","1024","2","48000","-16","experiment","HHHHH","3","odd","14645","NA","NA","201872","200031","201836","196930","12118","NA","NA","NA","12143","NA","NA","201989","202448","201989","NA","Flanker test","69","36929","75","yes","1024"
"92.1052631579","92.1052631579","493.75","493.75","black","no","xpyriment","legacy","legacy","0","incongruent","uniform","1","undefined","1","s","0","0","0","75","75","75","75","0","75","0","NA","0","0","0","75","75","75","NA","09/09/18 18:09:44","1500","The main experiment item","yes","Flankertest.osexp","C:\Users\Knitwitty\AppData\Roaming","no","mono","no","18","no","white","no","yes","768","legacy","75","75","C:/Users/Knitwitty/AppData/Roaming/KB-subject-3.csv","xpyriment","Jazzy James","3.1.9","0","s","NA","s","NA","NA","s","596","NA","2501","NA","NA","596","NA","NA","2","legacy","1024","2","48000","-16","experiment","HHSHH","3","odd","14645","NA","NA","204305","202470","204269","196930","12118","NA","NA","NA","12143","NA","NA","204423","205024","204422","NA","Flanker test","70","37525","76","yes","1024"
"92.2077922078","92.2077922078","494.12987013","494.12987013","black","no","xpyriment","legacy","legacy","0","congruent","uniform","1","undefined","1","h","0","0","0","76","76","76","76","0","76","0","NA","0","0","0","76","76","76","NA","09/09/18 18:09:44","1500","The main experiment item","yes","Flankertest.osexp","C:\Users\Knitwitty\AppData\Roaming","no","mono","no","18","no","white","no","yes","768","legacy","76","76","C:/Users/Knitwitty/AppData/Roaming/KB-subject-3.csv","xpyriment","Jazzy James","3.1.9","0","h","NA","s","NA","NA","h","523","NA","2501","NA","NA","523","NA","NA","2","legacy","1024","2","48000","-16","experiment","HHHHH","3","odd","14645","NA","NA","206898","205047","206851","196930","12118","NA","NA","NA","12143","NA","NA","207016","207544","207015","NA","Flanker test","71","38048","77","yes","1024"
"92.3076923077","92.3076923077","494.282051282","494.282051282","black","no","xpyriment","legacy","legacy","0","congruent","uniform","1","undefined","1","s","0","0","0","77","77","77","77","0","77","0","NA","0","0","0","77","77","77","NA","09/09/18 18:09:44","1500","The main experiment item","yes","Flankertest.osexp","C:\Users\Knitwitty\AppData\Roaming","no","mono","no","18","no","white","no","yes","768","legacy","77","77","C:/Users/Knitwitty/AppData/Roaming/KB-subject-3.csv","xpyriment","Jazzy James","3.1.9","0","s","NA","s","NA","NA","s","506","NA","2501","NA","NA","506","NA","NA","2","legacy","1024","2","48000","-16","experiment","SSSSS","3","odd","14645","NA","NA","209436","207568","209391","196930","12118","NA","NA","NA","12143","NA","NA","209554","210064","209553","NA","Flanker test","72","38554","78","yes","1024"
"92.4050632911","92.4050632911","492.898734177","492.898734177","black","no","xpyriment","legacy","legacy","0","congruent","uniform","1","undefined","1","s","0","0","0","78","78","78","78","0","78","0","NA","0","0","0","78","78","78","NA","09/09/18 18:09:44","1500","The main experiment item","yes","Flankertest.osexp","C:\Users\Knitwitty\AppData\Roaming","no","mono","no","18","no","white","no","yes","768","legacy","78","78","C:/Users/Knitwitty/AppData/Roaming/KB-subject-3.csv","xpyriment","Jazzy James","3.1.9","0","s","NA","s","NA","NA","s","385","NA","2501","NA","NA","385","NA","NA","2","legacy","1024","2","48000","-16","experiment","SSSSS","3","odd","14645","NA","NA","211934","210088","211892","196930","12118","NA","NA","NA","12143","NA","NA","212051","212440","212050","NA","Flanker test","73","38939","79","yes","1024"
"92.5","92.5","492.5375","492.5375","black","no","xpyriment","legacy","legacy","0","incongruent","uniform","1","undefined","1","h","0","0","0","79","79","79","79","0","79","0","NA","0","0","0","79","79","79","NA","09/09/18 18:09:44","1500","The main experiment item","yes","Flankertest.osexp","C:\Users\Knitwitty\AppData\Roaming","no","mono","no","18","no","white","no","yes","768","legacy","79","79","C:/Users/Knitwitty/AppData/Roaming/KB-subject-3.csv","xpyriment","Jazzy James","3.1.9","0","h","NA","s","NA","NA","h","464","NA","2501","NA","NA","464","NA","NA","2","legacy","1024","2","48000","-16","experiment","SSHSS","3","odd","14645","NA","NA","214295","212464","214259","196930","12118","NA","NA","NA","12143","NA","NA","214412","214880","214412","NA","Flanker test","74","39403","80","yes","1024"
"92.5925925926","92.5925925926","493.111111111","493.111111111","black","no","xpyriment","legacy","legacy","0","congruent","uniform","1","undefined","1","h","0","0","0","80","80","80","80","0","80","0","NA","0","0","0","80","80","80","NA","09/09/18 18:09:44","600","The main experiment item","yes","Flankertest.osexp","C:\Users\Knitwitty\AppData\Roaming","no","mono","no","18","no","white","no","yes","768","legacy","0","79","C:/Users/Knitwitty/AppData/Roaming/KB-subject-3.csv","xpyriment","Jazzy James","3.1.9","0","h","NA","s","s","NA","h","539","NA","2501","2334","NA","539","NA","NA","2","legacy","1024","2","48000","-16","experiment","HHHHH","3","odd","14645","218320","NA","219124","214898","219091","196930","12118","NA","NA","NA","12143","215982","NA","219241","219784","219241","NA","Flanker test","75","39942","81","yes","1024"
"92.6829268293","92.6829268293","491.585365854","491.585365854","black","no","xpyriment","legacy","legacy","0","congruent","uniform","1","undefined","1","h","0","0","0","81","81","81","81","0","81","0","NA","0","0","0","81","81","81","NA","09/09/18 18:09:44","600","The main experiment item","yes","Flankertest.osexp","C:\Users\Knitwitty\AppData\Roaming","no","mono","no","18","no","white","no","yes","768","legacy","1","79","C:/Users/Knitwitty/AppData/Roaming/KB-subject-3.csv","xpyriment","Jazzy James","3.1.9","0","h","NA","s","s","NA","h","368","NA","2501","2334","NA","368","NA","NA","2","legacy","1024","2","48000","-16","experiment","HHHHH","3","odd","14645","218320","NA","221655","219803","221619","196930","12118","NA","NA","NA","12143","215982","NA","221772","222144","221771","NA","Flanker test","76","40310","82","yes","1024"
"92.7710843373","92.7710843373","490.120481928","490.120481928","black","no","xpyriment","legacy","legacy","0","congruent","uniform","1","undefined","1","h","0","0","0","82","82","82","82","0","82","0","NA","0","0","0","82","82","82","NA","09/09/18 18:09:44","600","The main experiment item","yes","Flankertest.osexp","C:\Users\Knitwitty\AppData\Roaming","no","mono","no","18","no","white","no","yes","768","legacy","2","79","C:/Users/Knitwitty/AppData/Roaming/KB-subject-3.csv","xpyriment","Jazzy James","3.1.9","0","h","NA","s","s","NA","h","370","NA","2501","2334","NA","370","NA","NA","2","legacy","1024","2","48000","-16","experiment","HHHHH","3","odd","14645","218320","NA","224021","222167","223978","196930","12118","NA","NA","NA","12143","215982","NA","224138","224512","224137","NA","Flanker test","77","40680","83","yes","1024"
"92.8571428571","92.8571428571","490.25","490.25","black","no","xpyriment","legacy","legacy","0","incongruent","uniform","1","undefined","1","h","0","0","0","83","83","83","83","0","83","0","NA","0","0","0","83","83","83","NA","09/09/18 18:09:44","600","The main experiment item","yes","Flankertest.osexp","C:\Users\Knitwitty\AppData\Roaming","no","mono","no","18","no","white","no","yes","768","legacy","3","79","C:/Users/Knitwitty/AppData/Roaming/KB-subject-3.csv","xpyriment","Jazzy James","3.1.9","0","h","NA","s","s","NA","h","501","NA","2501","2334","NA","501","NA","NA","2","legacy","1024","2","48000","-16","experiment","SSHSS","3","odd","14645","218320","NA","226393","224532","226359","196930","12118","NA","NA","NA","12143","215982","NA","226511","227016","226511","NA","Flanker test","78","41181","84","yes","1024"
"92.9411764706","92.9411764706","488.705882353","488.705882353","black","no","xpyriment","legacy","legacy","0","congruent","uniform","1","undefined","1","s","0","0","0","84","84","84","84","0","84","0","NA","0","0","0","84","84","84","NA","09/09/18 18:09:44","600","The main experiment item","yes","Flankertest.osexp","C:\Users\Knitwitty\AppData\Roaming","no","mono","no","18","no","white","no","yes","768","legacy","4","79","C:/Users/Knitwitty/AppData/Roaming/KB-subject-3.csv","xpyriment","Jazzy James","3.1.9","0","s","NA","s","s","NA","s","359","NA","2501","2334","NA","359","NA","NA","2","legacy","1024","2","48000","-16","experiment","SSSSS","3","odd","14645","218320","NA","228888","227033","228852","196930","12118","NA","NA","NA","12143","215982","NA","229005","229369","229004","NA","Flanker test","79","41540","85","yes","1024"
"93.023255814","93.023255814","487.023255814","487.023255814","black","no","xpyriment","legacy","legacy","0","congruent","uniform","1","undefined","1","s","0","0","0","85","85","85","85","0","85","0","NA","0","0","0","85","85","85","NA","09/09/18 18:09:44","600","The main experiment item","yes","Flankertest.osexp","C:\Users\Knitwitty\AppData\Roaming","no","mono","no","18","no","white","no","yes","768","legacy","5","79","C:/Users/Knitwitty/AppData/Roaming/KB-subject-3.csv","xpyriment","Jazzy James","3.1.9","0","s","NA","s","s","NA","s","344","NA","2501","2334","NA","344","NA","NA","2","legacy","1024","2","48000","-16","experiment","SSSSS","3","odd","14645","218320","NA","231214","229386","231181","196930","12118","NA","NA","NA","12143","215982","NA","231332","231681","231332","NA","Flanker test","80","41884","86","yes","1024"
"93.1034482759","93.1034482759","486.942528736","486.942528736","black","no","xpyriment","legacy","legacy","0","incongruent","uniform","1","undefined","1","h","0","0","0","86","86","86","86","0","86","0","NA","0","0","0","86","86","86","NA","09/09/18 18:09:44","600","The main experiment item","yes","Flankertest.osexp","C:\Users\Knitwitty\AppData\Roaming","no","mono","no","18","no","white","no","yes","768","legacy","6","79","C:/Users/Knitwitty/AppData/Roaming/KB-subject-3.csv","xpyriment","Jazzy James","3.1.9","0","h","NA","s","s","NA","h","480","NA","2501","2334","NA","480","NA","NA","2","legacy","1024","2","48000","-16","experiment","SSHSS","3","odd","14645","218320","NA","233543","231700","233508","196930","12118","NA","NA","NA","12143","215982","NA","233660","234144","233660","NA","Flanker test","81","42364","87","yes","1024"
"93.1818181818","93.1818181818","488.613636364","488.613636364","black","no","xpyriment","legacy","legacy","0","congruent","uniform","1","undefined","1","h","0","0","0","87","87","87","87","0","87","0","NA","0","0","0","87","87","87","NA","09/09/18 18:09:44","600","The main experiment item","yes","Flankertest.osexp","C:\Users\Knitwitty\AppData\Roaming","no","mono","no","18","no","white","no","yes","768","legacy","7","79","C:/Users/Knitwitty/AppData/Roaming/KB-subject-3.csv","xpyriment","Jazzy James","3.1.9","0","h","NA","s","s","NA","h","634","NA","2501","2334","NA","634","NA","NA","2","legacy","1024","2","48000","-16","experiment","HHHHH","3","odd","14645","218320","NA","235997","234168","235962","196930","12118","NA","NA","NA","12143","215982","NA","236114","236753","236113","NA","Flanker test","82","42998","88","yes","1024"
"93.2584269663","93.2584269663","487.280898876","487.280898876","black","no","xpyriment","legacy","legacy","0","congruent","uniform","1","undefined","1","h","0","0","0","88","88","88","88","0","88","0","NA","0","0","0","88","88","88","NA","09/09/18 18:09:44","600","The main experiment item","yes","Flankertest.osexp","C:\Users\Knitwitty\AppData\Roaming","no","mono","no","18","no","white","no","yes","768","legacy","8","79","C:/Users/Knitwitty/AppData/Roaming/KB-subject-3.csv","xpyriment","Jazzy James","3.1.9","0","h","NA","s","s","NA","h","370","NA","2501","2334","NA","370","NA","NA","2","legacy","1024","2","48000","-16","experiment","HHHHH","3","odd","14645","218320","NA","239124","237278","239091","196930","12118","236772","NA","NA","12143","215982","NA","239242","239617","239242","NA","Flanker test","83","43368","89","yes","1024"
"93.3333333333","93.3333333333","485.455555556","485.455555556","black","no","xpyriment","legacy","legacy","0","congruent","uniform","1","undefined","1","s","0","0","0","89","89","89","89","0","89","0","NA","0","0","0","89","89","89","NA","09/09/18 18:09:44","600","The main experiment item","yes","Flankertest.osexp","C:\Users\Knitwitty\AppData\Roaming","no","mono","no","18","no","white","no","yes","768","legacy","9","79","C:/Users/Knitwitty/AppData/Roaming/KB-subject-3.csv","xpyriment","Jazzy James","3.1.9","0","s","NA","s","s","NA","s","323","NA","2501","2334","NA","323","NA","NA","2","legacy","1024","2","48000","-16","experiment","SSSSS","3","odd","14645","218320","NA","241468","239634","241433","196930","12118","236772","NA","NA","12143","215982","NA","241585","241912","241584","NA","Flanker test","84","43691","90","yes","1024"
"92.3076923077","92.3076923077","484.054945055","484.054945055","black","no","xpyriment","legacy","legacy","0","incongruent","uniform","0","undefined","0","h","0","0","0","90","90","90","90","0","90","0","NA","0","0","0","90","90","90","NA","09/09/18 18:09:44","600","The main experiment item","yes","Flankertest.osexp","C:\Users\Knitwitty\AppData\Roaming","no","mono","no","18","no","white","no","yes","768","legacy","10","79","C:/Users/Knitwitty/AppData/Roaming/KB-subject-3.csv","xpyriment","Jazzy James","3.1.9","0","s","NA","s","s","NA","s","358","NA","2501","2334","NA","358","NA","NA","2","legacy","1024","2","48000","-16","experiment","SSHSS","3","odd","14645","218320","NA","243777","241928","243744","196930","12118","236772","NA","NA","12143","215982","NA","243894","244257","243894","NA","Flanker test","84","44049","91","yes","1024"
"91.3043478261","91.3043478261","484.239130435","484.239130435","black","no","xpyriment","legacy","legacy","0","incongruent","uniform","0","undefined","0","s","0","0","0","91","91","91","91","0","91","0","NA","0","0","0","91","91","91","NA","09/09/18 18:09:44","600","The main experiment item","yes","Flankertest.osexp","C:\Users\Knitwitty\AppData\Roaming","no","mono","no","18","no","white","no","yes","768","legacy","11","79","C:/Users/Knitwitty/AppData/Roaming/KB-subject-3.csv","xpyriment","Jazzy James","3.1.9","0","h","NA","s","s","NA","h","501","NA","2501","2334","NA","501","NA","NA","2","legacy","1024","2","48000","-16","experiment","HHSHH","3","odd","14645","218320","NA","246618","244785","246582","244278","12118","236772","NA","NA","12143","215982","NA","246735","247241","246734","NA","Flanker test","84","44550","92","yes","1024"
"91.3978494624","91.3978494624","486.129032258","486.129032258","black","no","xpyriment","legacy","legacy","0","incongruent","uniform","1","undefined","1","s","0","0","0","92","92","92","92","0","92","0","NA","0","0","0","92","92","92","NA","09/09/18 18:09:44","600","The main experiment item","yes","Flankertest.osexp","C:\Users\Knitwitty\AppData\Roaming","no","mono","no","18","no","white","no","yes","768","legacy","12","79","C:/Users/Knitwitty/AppData/Roaming/KB-subject-3.csv","xpyriment","Jazzy James","3.1.9","0","s","NA","s","s","NA","s","660","NA","2501","2334","NA","660","NA","NA","2","legacy","1024","2","48000","-16","experiment","HHSHH","3","odd","14645","218320","NA","249610","247775","249577","247269","12118","236772","NA","NA","12143","215982","NA","249728","250393","249728","NA","Flanker test","85","45210","93","yes","1024"
"91.4893617021","91.4893617021","486.404255319","486.404255319","black","no","xpyriment","legacy","legacy","0","incongruent","uniform","1","undefined","1","s","0","0","0","93","93","93","93","0","93","0","NA","0","0","0","93","93","93","NA","09/09/18 18:09:44","600","The main experiment item","yes","Flankertest.osexp","C:\Users\Knitwitty\AppData\Roaming","no","mono","no","18","no","white","no","yes","768","legacy","13","79","C:/Users/Knitwitty/AppData/Roaming/KB-subject-3.csv","xpyriment","Jazzy James","3.1.9","0","s","NA","s","s","NA","s","512","NA","2501","2334","NA","512","NA","NA","2","legacy","1024","2","48000","-16","experiment","HHSHH","3","odd","14645","218320","NA","252775","250913","252740","247269","12118","250408","NA","NA","12143","215982","NA","252892","253409","252890","NA","Flanker test","86","45722","94","yes","1024"
"91.5789473684","91.5789473684","486.389473684","486.389473684","black","no","xpyriment","legacy","legacy","0","incongruent","uniform","1","undefined","1","h","0","0","0","94","94","94","94","0","94","0","NA","0","0","0","94","94","94","NA","09/09/18 18:09:44","600","The main experiment item","yes","Flankertest.osexp","C:\Users\Knitwitty\AppData\Roaming","no","mono","no","18","no","white","no","yes","768","legacy","14","79","C:/Users/Knitwitty/AppData/Roaming/KB-subject-3.csv","xpyriment","Jazzy James","3.1.9","0","h","NA","s","s","NA","h","485","NA","2501","2334","NA","485","NA","NA","2","legacy","1024","2","48000","-16","experiment","SSHSS","3","odd","14645","218320","NA","255290","253432","255256","247269","12118","250408","NA","NA","12143","215982","NA","255407","255896","255406","NA","Flanker test","87","46207","95","yes","1024"
"91.6666666667","91.6666666667","486.739583333","486.739583333","black","no","xpyriment","legacy","legacy","0","incongruent","uniform","1","undefined","1","h","0","0","0","95","95","95","95","0","95","0","NA","0","0","0","95","95","95","NA","09/09/18 18:09:44","600","The main experiment item","yes","Flankertest.osexp","C:\Users\Knitwitty\AppData\Roaming","no","mono","no","18","no","white","no","yes","768","legacy","15","79","C:/Users/Knitwitty/AppData/Roaming/KB-subject-3.csv","xpyriment","Jazzy James","3.1.9","0","h","NA","s","s","NA","h","520","NA","2501","2334","NA","520","NA","NA","2","legacy","1024","2","48000","-16","experiment","SSHSS","3","odd","14645","218320","NA","257765","255911","257726","247269","12118","250408","NA","NA","12143","215982","NA","257884","258409","257883","NA","Flanker test","88","46727","96","yes","1024"
"91.7525773196","91.7525773196","486.597938144","486.597938144","black","no","xpyriment","legacy","legacy","0","congruent","uniform","1","undefined","1","s","0","0","0","96","96","96","96","0","96","0","NA","0","0","0","96","96","96","NA","09/09/18 18:09:44","600","The main experiment item","yes","Flankertest.osexp","C:\Users\Knitwitty\AppData\Roaming","no","mono","no","18","no","white","no","yes","768","legacy","16","79","C:/Users/Knitwitty/AppData/Roaming/KB-subject-3.csv","xpyriment","Jazzy James","3.1.9","0","s","NA","s","s","NA","s","473","NA","2501","2334","NA","473","NA","NA","2","legacy","1024","2","48000","-16","experiment","SSSSS","3","odd","14645","218320","NA","260286","258426","260244","247269","12118","250408","NA","NA","12143","215982","NA","260403","260881","260402","NA","Flanker test","89","47200","97","yes","1024"
"91.8367346939","91.8367346939","485.918367347","485.918367347","black","no","xpyriment","legacy","legacy","0","congruent","uniform","1","undefined","1","s","0","0","0","97","97","97","97","0","97","0","NA","0","0","0","97","97","97","NA","09/09/18 18:09:44","600","The main experiment item","yes","Flankertest.osexp","C:\Users\Knitwitty\AppData\Roaming","no","mono","no","18","no","white","no","yes","768","legacy","17","79","C:/Users/Knitwitty/AppData/Roaming/KB-subject-3.csv","xpyriment","Jazzy James","3.1.9","0","s","NA","s","s","NA","s","420","NA","2501","2334","NA","420","NA","NA","2","legacy","1024","2","48000","-16","experiment","SSSSS","3","odd","14645","218320","NA","262747","260899","262703","247269","12118","250408","NA","NA","12143","215982","NA","262864","263290","262863","NA","Flanker test","90","47620","98","yes","1024"
"91.9191919192","91.9191919192","485.585858586","485.585858586","black","no","xpyriment","legacy","legacy","0","incongruent","uniform","1","undefined","1","h","0","0","0","98","98","98","98","0","98","0","NA","0","0","0","98","98","98","NA","09/09/18 18:09:44","600","The main experiment item","yes","Flankertest.osexp","C:\Users\Knitwitty\AppData\Roaming","no","mono","no","18","no","white","no","yes","768","legacy","18","79","C:/Users/Knitwitty/AppData/Roaming/KB-subject-3.csv","xpyriment","Jazzy James","3.1.9","0","h","NA","s","s","NA","h","453","NA","2501","2334","NA","453","NA","NA","2","legacy","1024","2","48000","-16","experiment","SSHSS","3","odd","14645","218320","NA","265145","263313","265110","247269","12118","250408","NA","NA","12143","215982","NA","265262","265721","265262","NA","Flanker test","91","48073","99","yes","1024"
"92","92","484.26","484.26","black","no","xpyriment","legacy","legacy","0","congruent","uniform","1","undefined","1","s","0","0","0","99","99","99","99","0","99","0","NA","0","0","0","99","99","99","NA","09/09/18 18:09:44","600","The main experiment item","yes","Flankertest.osexp","C:\Users\Knitwitty\AppData\Roaming","no","mono","no","18","no","white","no","yes","768","legacy","19","79","C:/Users/Knitwitty/AppData/Roaming/KB-subject-3.csv","xpyriment","Jazzy James","3.1.9","0","s","NA","s","s","NA","s","353","NA","2501","2334","NA","353","NA","NA","2","legacy","1024","2","48000","-16","experiment","SSSSS","3","odd","14645","218320","NA","267581","265746","267545","247269","12118","250408","NA","NA","12143","215982","NA","267699","268057","267698","NA","Flanker test","92","48426","100","yes","1024"
"92.0792079208","92.0792079208","484.792079208","484.792079208","black","no","xpyriment","legacy","legacy","0","incongruent","uniform","1","undefined","1","h","0","0","0","100","100","100","100","0","100","0","NA","0","0","0","100","100","100","NA","09/09/18 18:09:44","600","The main experiment item","yes","Flankertest.osexp","C:\Users\Knitwitty\AppData\Roaming","no","mono","no","18","no","white","no","yes","768","legacy","20","79","C:/Users/Knitwitty/AppData/Roaming/KB-subject-3.csv","xpyriment","Jazzy James","3.1.9","0","h","NA","s","s","NA","h","538","NA","2501","2334","NA","538","NA","NA","2","legacy","1024","2","48000","-16","experiment","SSHSS","3","odd","14645","218320","NA","269917","268076","269880","247269","12118","250408","NA","NA","12143","215982","NA","270034","270577","270034","NA","Flanker test","93","48964","101","yes","1024"
"92.1568627451","92.1568627451","484.558823529","484.558823529","black","no","xpyriment","legacy","legacy","0","congruent","uniform","1","undefined","1","h","0","0","0","101","101","101","101","0","101","0","NA","0","0","0","101","101","101","NA","09/09/18 18:09:44","600","The main experiment item","yes","Flankertest.osexp","C:\Users\Knitwitty\AppData\Roaming","no","mono","no","18","no","white","no","yes","768","legacy","21","79","C:/Users/Knitwitty/AppData/Roaming/KB-subject-3.csv","xpyriment","Jazzy James","3.1.9","0","h","NA","s","s","NA","h","461","NA","2501","2334","NA","461","NA","NA","2","legacy","1024","2","48000","-16","experiment","HHHHH","3","odd","14645","218320","NA","272433","270600","272398","247269","12118","250408","NA","NA","12143","215982","NA","272551","273017","272551","NA","Flanker test","94","49425","102","yes","1024"
"92.2330097087","92.2330097087","484.669902913","484.669902913","black","no","xpyriment","legacy","legacy","0","incongruent","uniform","1","undefined","1","s","0","0","0","102","102","102","102","0","102","0","NA","0","0","0","102","102","102","NA","09/09/18 18:09:44","600","The main experiment item","yes","Flankertest.osexp","C:\Users\Knitwitty\AppData\Roaming","no","mono","no","18","no","white","no","yes","768","legacy","22","79","C:/Users/Knitwitty/AppData/Roaming/KB-subject-3.csv","xpyriment","Jazzy James","3.1.9","0","s","NA","s","s","NA","s","496","NA","2501","2334","NA","496","NA","NA","2","legacy","1024","2","48000","-16","experiment","HHSHH","3","odd","14645","218320","NA","274870","273039","274833","247269","12118","250408","NA","NA","12143","215982","NA","274987","275489","274986","NA","Flanker test","95","49921","103","yes","1024"
"92.3076923077","92.3076923077","483.471153846","483.471153846","black","no","xpyriment","legacy","legacy","0","congruent","uniform","1","undefined","1","s","0","0","0","103","103","103","103","0","103","0","NA","0","0","0","103","103","103","NA","09/09/18 18:09:44","600","The main experiment item","yes","Flankertest.osexp","C:\Users\Knitwitty\AppData\Roaming","no","mono","no","18","no","white","no","yes","768","legacy","23","79","C:/Users/Knitwitty/AppData/Roaming/KB-subject-3.csv","xpyriment","Jazzy James","3.1.9","0","s","NA","s","s","NA","s","360","NA","2501","2334","NA","360","NA","NA","2","legacy","1024","2","48000","-16","experiment","SSSSS","3","odd","14645","218320","NA","277351","275508","277314","247269","12118","250408","NA","NA","12143","215982","NA","277468","277833","277468","NA","Flanker test","96","50281","104","yes","1024"
"92.380952381","92.380952381","482.914285714","482.914285714","black","no","xpyriment","legacy","legacy","0","incongruent","uniform","1","undefined","1","s","0","0","0","104","104","104","104","0","104","0","NA","0","0","0","104","104","104","NA","09/09/18 18:09:44","600","The main experiment item","yes","Flankertest.osexp","C:\Users\Knitwitty\AppData\Roaming","no","mono","no","18","no","white","no","yes","768","legacy","24","79","C:/Users/Knitwitty/AppData/Roaming/KB-subject-3.csv","xpyriment","Jazzy James","3.1.9","0","s","NA","s","s","NA","s","425","NA","2501","2334","NA","425","NA","NA","2","legacy","1024","2","48000","-16","experiment","HHSHH","3","odd","14645","218320","NA","279694","277856","279657","247269","12118","250408","NA","NA","12143","215982","NA","279811","280242","279810","NA","Flanker test","97","50706","105","yes","1024"
"92.4528301887","92.4528301887","482.028301887","482.028301887","black","no","xpyriment","legacy","legacy","0","incongruent","uniform","1","undefined","1","s","0","0","0","105","105","105","105","0","105","0","NA","0","0","0","105","105","105","NA","09/09/18 18:09:44","600","The main experiment item","yes","Flankertest.osexp","C:\Users\Knitwitty\AppData\Roaming","no","mono","no","18","no","white","no","yes","768","legacy","25","79","C:/Users/Knitwitty/AppData/Roaming/KB-subject-3.csv","xpyriment","Jazzy James","3.1.9","0","s","NA","s","s","NA","s","389","NA","2501","2334","NA","389","NA","NA","2","legacy","1024","2","48000","-16","experiment","HHSHH","3","odd","14645","218320","NA","282098","280260","282060","247269","12118","250408","NA","NA","12143","215982","NA","282215","282608","282215","NA","Flanker test","98","51095","106","yes","1024"
"92.523364486","92.523364486","481.364485981","481.364485981","black","no","xpyriment","legacy","legacy","0","congruent","uniform","1","undefined","1","h","0","0","0","106","106","106","106","0","106","0","NA","0","0","0","106","106","106","NA","09/09/18 18:09:44","600","The main experiment item","yes","Flankertest.osexp","C:\Users\Knitwitty\AppData\Roaming","no","mono","no","18","no","white","no","yes","768","legacy","26","79","C:/Users/Knitwitty/AppData/Roaming/KB-subject-3.csv","xpyriment","Jazzy James","3.1.9","0","h","NA","s","s","NA","h","411","NA","2501","2334","NA","411","NA","NA","2","legacy","1024","2","48000","-16","experiment","HHHHH","3","odd","14645","218320","NA","284468","282631","284430","247269","12118","250408","NA","NA","12143","215982","NA","284585","285001","284584","NA","Flanker test","99","51506","107","yes","1024"
"92.5925925926","92.5925925926","480.907407407","480.907407407","black","no","xpyriment","legacy","legacy","0","congruent","uniform","1","undefined","1","s","0","0","0","107","107","107","107","0","107","0","NA","0","0","0","107","107","107","NA","09/09/18 18:09:44","600","The main experiment item","yes","Flankertest.osexp","C:\Users\Knitwitty\AppData\Roaming","no","mono","no","18","no","white","no","yes","768","legacy","27","79","C:/Users/Knitwitty/AppData/Roaming/KB-subject-3.csv","xpyriment","Jazzy James","3.1.9","0","s","NA","s","s","NA","s","432","NA","2501","2334","NA","432","NA","NA","2","legacy","1024","2","48000","-16","experiment","SSSSS","3","odd","14645","218320","NA","286871","285023","286835","247269","12118","250408","NA","NA","12143","215982","NA","286988","287425","286987","NA","Flanker test","100","51938","108","yes","1024"
"92.6605504587","92.6605504587","479.853211009","479.853211009","black","no","xpyriment","legacy","legacy","0","congruent","uniform","1","undefined","1","s","0","0","0","108","108","108","108","0","108","0","NA","0","0","0","108","108","108","NA","09/09/18 18:09:44","600","The main experiment item","yes","Flankertest.osexp","C:\Users\Knitwitty\AppData\Roaming","no","mono","no","18","no","white","no","yes","768","legacy","28","79","C:/Users/Knitwitty/AppData/Roaming/KB-subject-3.csv","xpyriment","Jazzy James","3.1.9","0","s","NA","s","s","NA","s","366","NA","2501","2334","NA","366","NA","NA","2","legacy","1024","2","48000","-16","experiment","SSSSS","3","odd","14645","218320","NA","289296","287448","289258","247269","12118","250408","NA","NA","12143","215982","NA","289414","289786","289413","NA","Flanker test","101","52304","109","yes","1024"
"92.7272727273","92.7272727273","480.018181818","480.018181818","black","no","xpyriment","legacy","legacy","0","incongruent","uniform","1","undefined","1","h","0","0","0","109","109","109","109","0","109","0","NA","0","0","0","109","109","109","NA","09/09/18 18:09:44","600","The main experiment item","yes","Flankertest.osexp","C:\Users\Knitwitty\AppData\Roaming","no","mono","no","18","no","white","no","yes","768","legacy","29","79","C:/Users/Knitwitty/AppData/Roaming/KB-subject-3.csv","xpyriment","Jazzy James","3.1.9","0","h","NA","s","s","NA","h","498","NA","2501","2334","NA","498","NA","NA","2","legacy","1024","2","48000","-16","experiment","SSHSS","3","odd","14645","218320","NA","291637","289810","291602","247269","12118","250408","NA","NA","12143","215982","NA","291754","292257","291753","NA","Flanker test","102","52802","110","yes","1024"
"91.8918918919","91.8918918919","479.558558559","479.558558559","black","no","xpyriment","legacy","legacy","0","congruent","uniform","0","undefined","0","h","0","0","0","110","110","110","110","0","110","0","NA","0","0","0","110","110","110","NA","09/09/18 18:09:44","600","The main experiment item","yes","Flankertest.osexp","C:\Users\Knitwitty\AppData\Roaming","no","mono","no","18","no","white","no","yes","768","legacy","30","79","C:/Users/Knitwitty/AppData/Roaming/KB-subject-3.csv","xpyriment","Jazzy James","3.1.9","0","s","NA","s","s","NA","s","429","NA","2501","2334","NA","429","NA","NA","2","legacy","1024","2","48000","-16","experiment","HHHHH","3","odd","14645","218320","NA","294122","292280","294088","247269","12118","250408","NA","NA","12143","215982","NA","294239","294673","294238","NA","Flanker test","102","53231","111","yes","1024"
"91.9642857143","91.9642857143","478.875","478.875","black","no","xpyriment","legacy","legacy","0","congruent","uniform","1","undefined","1","h","0","0","0","111","111","111","111","0","111","0","NA","0","0","0","111","111","111","NA","09/09/18 18:09:44","600","The main experiment item","yes","Flankertest.osexp","C:\Users\Knitwitty\AppData\Roaming","no","mono","no","18","no","white","no","yes","768","legacy","31","79","C:/Users/Knitwitty/AppData/Roaming/KB-subject-3.csv","xpyriment","Jazzy James","3.1.9","0","h","NA","s","s","NA","h","403","NA","2501","2334","NA","403","NA","NA","2","legacy","1024","2","48000","-16","experiment","HHHHH","3","odd","14645","218320","NA","297035","295197","297000","294690","12118","250408","NA","NA","12143","215982","NA","297153","297561","297152","NA","Flanker test","103","53634","112","yes","1024"
"92.0353982301","92.0353982301","478.17699115","478.17699115","black","no","xpyriment","legacy","legacy","0","congruent","uniform","1","undefined","1","s","0","0","0","112","112","112","112","0","112","0","NA","0","0","0","112","112","112","NA","09/09/18 18:09:44","600","The main experiment item","yes","Flankertest.osexp","C:\Users\Knitwitty\AppData\Roaming","no","mono","no","18","no","white","no","yes","768","legacy","32","79","C:/Users/Knitwitty/AppData/Roaming/KB-subject-3.csv","xpyriment","Jazzy James","3.1.9","0","s","NA","s","s","NA","s","400","NA","2501","2334","NA","400","NA","NA","2","legacy","1024","2","48000","-16","experiment","SSSSS","3","odd","14645","218320","NA","299423","297584","299387","294690","12118","250408","NA","NA","12143","215982","NA","299540","299945","299539","NA","Flanker test","104","54034","113","yes","1024"
"92.1052631579","92.1052631579","478.087719298","478.087719298","black","no","xpyriment","legacy","legacy","0","congruent","uniform","1","undefined","1","h","0","0","0","113","113","113","113","0","113","0","NA","0","0","0","113","113","113","NA","09/09/18 18:09:44","600","The main experiment item","yes","Flankertest.osexp","C:\Users\Knitwitty\AppData\Roaming","no","mono","no","18","no","white","no","yes","768","legacy","33","79","C:/Users/Knitwitty/AppData/Roaming/KB-subject-3.csv","xpyriment","Jazzy James","3.1.9","0","h","NA","s","s","NA","h","468","NA","2501","2334","NA","468","NA","NA","2","legacy","1024","2","48000","-16","experiment","HHHHH","3","odd","14645","218320","NA","301802","299967","301767","294690","12118","250408","NA","NA","12143","215982","NA","301920","302394","301919","NA","Flanker test","105","54502","114","yes","1024"
"92.1739130435","92.1739130435","478.095652174","478.095652174","black","no","xpyriment","legacy","legacy","0","congruent","uniform","1","undefined","1","s","0","0","0","114","114","114","114","0","114","0","NA","0","0","0","114","114","114","NA","09/09/18 18:09:44","600","The main experiment item","yes","Flankertest.osexp","C:\Users\Knitwitty\AppData\Roaming","no","mono","no","18","no","white","no","yes","768","legacy","34","79","C:/Users/Knitwitty/AppData/Roaming/KB-subject-3.csv","xpyriment","Jazzy James","3.1.9","0","s","NA","s","s","NA","s","479","NA","2501","2334","NA","479","NA","NA","2","legacy","1024","2","48000","-16","experiment","SSSSS","3","odd","14645","218320","NA","304264","302417","304227","294690","12118","250408","NA","NA","12143","215982","NA","304381","304866","304381","NA","Flanker test","106","54981","115","yes","1024"
"92.2413793103","92.2413793103","479.543103448","479.543103448","black","no","xpyriment","legacy","legacy","0","incongruent","uniform","1","undefined","1","h","0","0","0","115","115","115","115","0","115","0","NA","0","0","0","115","115","115","NA","09/09/18 18:09:44","600","The main experiment item","yes","Flankertest.osexp","C:\Users\Knitwitty\AppData\Roaming","no","mono","no","18","no","white","no","yes","768","legacy","35","79","C:/Users/Knitwitty/AppData/Roaming/KB-subject-3.csv","xpyriment","Jazzy James","3.1.9","0","h","NA","s","s","NA","h","646","NA","2501","2334","NA","646","NA","NA","2","legacy","1024","2","48000","-16","experiment","SSHSS","3","odd","14645","218320","NA","306736","304888","306702","294690","12118","250408","NA","NA","12143","215982","NA","306854","307505","306853","NA","Flanker test","107","55627","116","yes","1024"
"92.3076923077","92.3076923077","478.709401709","478.709401709","black","no","xpyriment","legacy","legacy","0","congruent","uniform","1","undefined","1","h","0","0","0","116","116","116","116","0","116","0","NA","0","0","0","116","116","116","NA","09/09/18 18:09:44","600","The main experiment item","yes","Flankertest.osexp","C:\Users\Knitwitty\AppData\Roaming","no","mono","no","18","no","white","no","yes","768","legacy","36","79","C:/Users/Knitwitty/AppData/Roaming/KB-subject-3.csv","xpyriment","Jazzy James","3.1.9","0","h","NA","s","s","NA","h","382","NA","2501","2334","NA","382","NA","NA","2","legacy","1024","2","48000","-16","experiment","HHHHH","3","odd","14645","218320","NA","309881","308032","309845","294690","12118","307527","NA","NA","12143","215982","NA","309998","310386","309997","NA","Flanker test","108","56009","117","yes","1024"
"92.3728813559","92.3728813559","479.127118644","479.127118644","black","no","xpyriment","legacy","legacy","0","incongruent","uniform","1","undefined","1","h","0","0","0","117","117","117","117","0","117","0","NA","0","0","0","117","117","117","NA","09/09/18 18:09:44","600","The main experiment item","yes","Flankertest.osexp","C:\Users\Knitwitty\AppData\Roaming","no","mono","no","18","no","white","no","yes","768","legacy","37","79","C:/Users/Knitwitty/AppData/Roaming/KB-subject-3.csv","xpyriment","Jazzy James","3.1.9","0","h","NA","s","s","NA","h","528","NA","2501","2334","NA","528","NA","NA","2","legacy","1024","2","48000","-16","experiment","SSHSS","3","odd","14645","218320","NA","312247","310408","312208","294690","12118","307527","NA","NA","12143","215982","NA","312364","312899","312364","NA","Flanker test","109","56537","118","yes","1024"
