"acc","accuracy","average_response_time","avg_rt","background","bidi","canvas_backend","clock_backend","color_backend","compensation","condition","coordinates","correct","correct_Intructions1","correct_keyboardResponse","correct_response","count_Block1","count_Block2","count_Block3","count_ErrorFeedback","count_Fnish","count_ISI","count_Instructions2","count_Instructions3","count_Intructions1","count_Logger","count_Sequence","count_experiment","count_faster","count_fixation","count_keyboardResponse","count_stimulus","datetime","deadline","description","disable_garbage_collection","experiment_file","experiment_path","font_bold","font_family","font_italic","font_size","font_underline","foreground","form_clicks","fullscreen","height","keyboard_backend","live_row","live_row_Block1","logfile","mouse_backend","opensesame_codename","opensesame_version","repeat_cycle","response","response_Fnish","response_Instructions2","response_Instructions3","response_Intructions1","response_keyboardResponse","response_time","response_time_Fnish","response_time_Instructions2","response_time_Instructions3","response_time_Intructions1","response_time_keyboardResponse","round_decimals","sampler_backend","sound_buf_size","sound_channels","sound_freq","sound_sample_size","start","stimulus","subject_nr","subject_parity","time_Block1","time_Block2","time_Block3","time_ErrorFeedback","time_Fnish","time_ISI","time_Instructions2","time_Instructions3","time_Intructions1","time_Logger","time_Sequence","time_experiment","time_faster","time_fixation","time_keyboardResponse","time_stimulus","title","total_correct","total_response_time","total_responses","uniform_coordinates","width"
"100","100","612","612","black","no","legacy","legacy","legacy","0","conguent","uniform","1","undefined","1","s","0","0","0","0","0","0","0","0","0","0","0","0","0","0","0","0","Sat Sep  8 19:48:51 2018","1500","The main experiment item","yes","Lab 1 PYSCH 5316.osexp","/Users/danieldalton/Desktop","no","mono","no","18","no","white","no","yes","768","legacy","0","0","/Users/danieldalton/Desktop/DD Subject 3.csv","legacy","Jazzy James","3.1.9","0","s","NA","NA","NA","s","s","612","NA","NA","NA","203077","612","2","legacy","1024","2","48000","-16","experiment","SSSSS","3","odd","205094","NA","NA","NA","NA","NA","NA","NA","1995","205875","205134","1968","NA","205147","205262","205262","Flanker Task","1","612","1","yes","1024"
"100","100","542","542","black","no","legacy","legacy","legacy","0","congruent","uniform","1","undefined","1","h","0","0","0","1","0","1","0","0","0","1","1","0","1","1","1","1","Sat Sep  8 19:48:51 2018","1500","The main experiment item","yes","Lab 1 PYSCH 5316.osexp","/Users/danieldalton/Desktop","no","mono","no","18","no","white","no","yes","768","legacy","1","1","/Users/danieldalton/Desktop/DD Subject 3.csv","legacy","Jazzy James","3.1.9","0","h","NA","NA","NA","s","h","472","NA","NA","NA","203077","472","2","legacy","1024","2","48000","-16","experiment","HHHHH","3","odd","205094","NA","NA","NA","NA","205894","NA","NA","1995","207538","206935","1968","NA","206946","207065","207065","Flanker Task","2","1084","2","yes","1024"
"100","100","562.333333333","562.333333333","black","no","legacy","legacy","legacy","0","incongurent","uniform","1","undefined","1","h","0","0","0","2","0","2","0","0","0","2","2","0","2","2","2","2","Sat Sep  8 19:48:51 2018","1500","The main experiment item","yes","Lab 1 PYSCH 5316.osexp","/Users/danieldalton/Desktop","no","mono","no","18","no","white","no","yes","768","legacy","2","2","/Users/danieldalton/Desktop/DD Subject 3.csv","legacy","Jazzy James","3.1.9","0","h","NA","NA","NA","s","h","603","NA","NA","NA","203077","603","2","legacy","1024","2","48000","-16","experiment","SSHSS","3","odd","205094","NA","NA","NA","NA","207552","NA","NA","1995","209320","208587","1968","NA","208598","208716","208716","Flanker Task","3","1687","3","yes","1024"
"100","100","553.25","553.25","black","no","legacy","legacy","legacy","0","incongurent","uniform","1","undefined","1","h","0","0","0","3","0","3","0","0","0","3","3","0","3","3","3","3","Sat Sep  8 19:48:51 2018","1500","The main experiment item","yes","Lab 1 PYSCH 5316.osexp","/Users/danieldalton/Desktop","no","mono","no","18","no","white","no","yes","768","legacy","3","3","/Users/danieldalton/Desktop/DD Subject 3.csv","legacy","Jazzy James","3.1.9","0","h","NA","NA","NA","s","h","526","NA","NA","NA","203077","526","2","legacy","1024","2","48000","-16","experiment","SSHSS","3","odd","205094","NA","NA","NA","NA","209336","NA","NA","1995","211023","210371","1968","NA","210382","210496","210496","Flanker Task","4","2213","4","yes","1024"
"100","100","581.8","581.8","black","no","legacy","legacy","legacy","0","conguent","uniform","1","undefined","1","s","0","0","0","4","0","4","0","0","0","4","4","0","4","4","4","4","Sat Sep  8 19:48:51 2018","1500","The main experiment item","yes","Lab 1 PYSCH 5316.osexp","/Users/danieldalton/Desktop","no","mono","no","18","no","white","no","yes","768","legacy","4","4","/Users/danieldalton/Desktop/DD Subject 3.csv","legacy","Jazzy James","3.1.9","0","s","NA","NA","NA","s","s","696","NA","NA","NA","203077","696","2","legacy","1024","2","48000","-16","experiment","SSSSS","3","odd","205094","NA","NA","NA","NA","211037","NA","NA","1995","212896","212070","1968","NA","212081","212199","212199","Flanker Task","5","2909","5","yes","1024"
"100","100","567.333333333","567.333333333","black","no","legacy","legacy","legacy","0","conguent","uniform","1","undefined","1","s","0","0","0","5","0","5","0","0","0","5","5","0","5","5","5","5","Sat Sep  8 19:48:51 2018","1500","The main experiment item","yes","Lab 1 PYSCH 5316.osexp","/Users/danieldalton/Desktop","no","mono","no","18","no","white","no","yes","768","legacy","5","5","/Users/danieldalton/Desktop/DD Subject 3.csv","legacy","Jazzy James","3.1.9","0","s","NA","NA","NA","s","s","495","NA","NA","NA","203077","495","2","legacy","1024","2","48000","-16","experiment","SSSSS","3","odd","205094","NA","NA","NA","NA","212910","NA","NA","1995","214570","213940","1968","NA","213952","214073","214073","Flanker Task","6","3404","6","yes","1024"
"100","100","600.285714286","600.285714286","black","no","legacy","legacy","legacy","0","incongruent","uniform","1","undefined","1","s","0","0","0","6","0","6","0","0","0","6","6","0","6","6","6","6","Sat Sep  8 19:48:51 2018","1500","The main experiment item","yes","Lab 1 PYSCH 5316.osexp","/Users/danieldalton/Desktop","no","mono","no","18","no","white","no","yes","768","legacy","6","6","/Users/danieldalton/Desktop/DD Subject 3.csv","legacy","Jazzy James","3.1.9","0","s","NA","NA","NA","s","s","798","NA","NA","NA","203077","798","2","legacy","1024","2","48000","-16","experiment","HHSHH","3","odd","205094","NA","NA","NA","NA","214583","NA","NA","1995","216545","215618","1968","NA","215629","215745","215745","Flanker Task","7","4202","7","yes","1024"
"100","100","607","607","black","no","legacy","legacy","legacy","0","conguent","uniform","1","undefined","1","s","0","0","0","7","0","7","0","0","0","7","7","0","7","7","7","7","Sat Sep  8 19:48:51 2018","1500","The main experiment item","yes","Lab 1 PYSCH 5316.osexp","/Users/danieldalton/Desktop","no","mono","no","18","no","white","no","yes","768","legacy","7","7","/Users/danieldalton/Desktop/DD Subject 3.csv","legacy","Jazzy James","3.1.9","0","s","NA","NA","NA","s","s","654","NA","NA","NA","203077","654","2","legacy","1024","2","48000","-16","experiment","SSSSS","3","odd","205094","NA","NA","NA","NA","216561","NA","NA","1995","218376","217592","1968","NA","217605","217719","217719","Flanker Task","8","4856","8","yes","1024"
"100","100","600.222222222","600.222222222","black","no","legacy","legacy","legacy","0","incongurent","uniform","1","undefined","1","h","0","0","0","8","0","8","0","0","0","8","8","0","8","8","8","8","Sat Sep  8 19:48:51 2018","1500","The main experiment item","yes","Lab 1 PYSCH 5316.osexp","/Users/danieldalton/Desktop","no","mono","no","18","no","white","no","yes","768","legacy","8","8","/Users/danieldalton/Desktop/DD Subject 3.csv","legacy","Jazzy James","3.1.9","0","h","NA","NA","NA","s","h","546","NA","NA","NA","203077","546","2","legacy","1024","2","48000","-16","experiment","SSHSS","3","odd","205094","NA","NA","NA","NA","218390","NA","NA","1995","220100","219428","1968","NA","219439","219552","219552","Flanker Task","9","5402","9","yes","1024"
"100","100","614.4","614.4","black","no","legacy","legacy","legacy","0","conguent","uniform","1","undefined","1","s","0","0","0","9","0","9","0","0","0","9","9","0","9","9","9","9","Sat Sep  8 19:48:51 2018","1500","The main experiment item","yes","Lab 1 PYSCH 5316.osexp","/Users/danieldalton/Desktop","no","mono","no","18","no","white","no","yes","768","legacy","9","9","/Users/danieldalton/Desktop/DD Subject 3.csv","legacy","Jazzy James","3.1.9","0","s","NA","NA","NA","s","s","742","NA","NA","NA","203077","742","2","legacy","1024","2","48000","-16","experiment","SSSSS","3","odd","205094","NA","NA","NA","NA","220114","NA","NA","1995","222022","221150","1968","NA","221161","221278","221278","Flanker Task","10","6144","10","yes","1024"
"100","100","614.636363636","614.636363636","black","no","legacy","legacy","legacy","0","incongurent","uniform","1","undefined","1","h","0","0","0","10","0","10","0","0","0","10","10","0","10","10","10","10","Sat Sep  8 19:48:51 2018","1500","The main experiment item","yes","Lab 1 PYSCH 5316.osexp","/Users/danieldalton/Desktop","no","mono","no","18","no","white","no","yes","768","legacy","10","10","/Users/danieldalton/Desktop/DD Subject 3.csv","legacy","Jazzy James","3.1.9","0","h","NA","NA","NA","s","h","617","NA","NA","NA","203077","617","2","legacy","1024","2","48000","-16","experiment","SSHSS","3","odd","205094","NA","NA","NA","NA","222036","NA","NA","1995","223817","223071","1968","NA","223082","223197","223197","Flanker Task","11","6761","11","yes","1024"
"100","100","624.166666667","624.166666667","black","no","legacy","legacy","legacy","0","incongruent","uniform","1","undefined","1","s","0","0","0","11","0","11","0","0","0","11","11","0","11","11","11","11","Sat Sep  8 19:48:51 2018","1500","The main experiment item","yes","Lab 1 PYSCH 5316.osexp","/Users/danieldalton/Desktop","no","mono","no","18","no","white","no","yes","768","legacy","11","11","/Users/danieldalton/Desktop/DD Subject 3.csv","legacy","Jazzy James","3.1.9","0","s","NA","NA","NA","s","s","729","NA","NA","NA","203077","729","2","legacy","1024","2","48000","-16","experiment","HHSHH","3","odd","205094","NA","NA","NA","NA","223831","NA","NA","1995","225720","224864","1968","NA","224875","224989","224989","Flanker Task","12","7490","12","yes","1024"
"100","100","658.846153846","658.846153846","black","no","legacy","legacy","legacy","0","conguent","uniform","1","undefined","1","s","0","0","0","12","0","12","0","0","0","12","12","0","12","12","12","12","Sat Sep  8 19:48:51 2018","1500","The main experiment item","yes","Lab 1 PYSCH 5316.osexp","/Users/danieldalton/Desktop","no","mono","no","18","no","white","no","yes","768","legacy","12","12","/Users/danieldalton/Desktop/DD Subject 3.csv","legacy","Jazzy James","3.1.9","0","s","NA","NA","NA","s","s","1075","NA","NA","NA","203077","1075","2","legacy","1024","2","48000","-16","experiment","SSSSS","3","odd","205094","NA","NA","NA","NA","225734","NA","NA","1995","227971","226768","1968","NA","226779","226894","226894","Flanker Task","13","8565","13","yes","1024"
"100","100","658.5","658.5","black","no","legacy","legacy","legacy","0","congruent","uniform","1","undefined","1","h","0","0","0","13","0","13","0","0","0","13","13","0","13","13","13","13","Sat Sep  8 19:48:51 2018","1500","The main experiment item","yes","Lab 1 PYSCH 5316.osexp","/Users/danieldalton/Desktop","no","mono","no","18","no","white","no","yes","768","legacy","13","13","/Users/danieldalton/Desktop/DD Subject 3.csv","legacy","Jazzy James","3.1.9","0","h","NA","NA","NA","s","h","654","NA","NA","NA","203077","654","2","legacy","1024","2","48000","-16","experiment","HHHHH","3","odd","205094","NA","NA","NA","NA","227985","NA","NA","1995","229800","229019","1968","NA","229030","229145","229145","Flanker Task","14","9219","14","yes","1024"
"100","100","649.6","649.6","black","no","legacy","legacy","legacy","0","congruent","uniform","1","undefined","1","h","0","0","0","14","0","14","0","0","0","14","14","0","14","14","14","14","Sat Sep  8 19:48:51 2018","1500","The main experiment item","yes","Lab 1 PYSCH 5316.osexp","/Users/danieldalton/Desktop","no","mono","no","18","no","white","no","yes","768","legacy","14","14","/Users/danieldalton/Desktop/DD Subject 3.csv","legacy","Jazzy James","3.1.9","0","h","NA","NA","NA","s","h","525","NA","NA","NA","203077","525","2","legacy","1024","2","48000","-16","experiment","HHHHH","3","odd","205094","NA","NA","NA","NA","229815","NA","NA","1995","231505","230851","1968","NA","230862","230978","230978","Flanker Task","15","9744","15","yes","1024"
"100","100","638.5","638.5","black","no","legacy","legacy","legacy","0","incongruent","uniform","1","undefined","1","s","0","0","0","15","0","15","0","0","0","15","15","0","15","15","15","15","Sat Sep  8 19:48:51 2018","1500","The main experiment item","yes","Lab 1 PYSCH 5316.osexp","/Users/danieldalton/Desktop","no","mono","no","18","no","white","no","yes","768","legacy","15","15","/Users/danieldalton/Desktop/DD Subject 3.csv","legacy","Jazzy James","3.1.9","0","s","NA","NA","NA","s","s","472","NA","NA","NA","203077","472","2","legacy","1024","2","48000","-16","experiment","HHSHH","3","odd","205094","NA","NA","NA","NA","231523","NA","NA","1995","233158","232558","1968","NA","232569","232684","232684","Flanker Task","16","10216","16","yes","1024"
"100","100","628.470588235","628.470588235","black","no","legacy","legacy","legacy","0","conguent","uniform","1","undefined","1","s","0","0","0","16","0","16","0","0","0","16","16","0","16","16","16","16","Sat Sep  8 19:48:51 2018","1500","The main experiment item","yes","Lab 1 PYSCH 5316.osexp","/Users/danieldalton/Desktop","no","mono","no","18","no","white","no","yes","768","legacy","16","16","/Users/danieldalton/Desktop/DD Subject 3.csv","legacy","Jazzy James","3.1.9","0","s","NA","NA","NA","s","s","468","NA","NA","NA","203077","468","2","legacy","1024","2","48000","-16","experiment","SSSSS","3","odd","205094","NA","NA","NA","NA","233172","NA","NA","1995","234803","234207","1968","NA","234218","234333","234333","Flanker Task","17","10684","17","yes","1024"
"100","100","627.555555556","627.555555556","black","no","legacy","legacy","legacy","0","congruent","uniform","1","undefined","1","h","0","0","0","17","0","17","0","0","0","17","17","0","17","17","17","17","Sat Sep  8 19:48:51 2018","1500","The main experiment item","yes","Lab 1 PYSCH 5316.osexp","/Users/danieldalton/Desktop","no","mono","no","18","no","white","no","yes","768","legacy","17","17","/Users/danieldalton/Desktop/DD Subject 3.csv","legacy","Jazzy James","3.1.9","0","h","NA","NA","NA","s","h","612","NA","NA","NA","203077","612","2","legacy","1024","2","48000","-16","experiment","HHHHH","3","odd","205094","NA","NA","NA","NA","234819","NA","NA","1995","236595","235855","1968","NA","235866","235981","235980","Flanker Task","18","11296","18","yes","1024"
"100","100","619.368421053","619.368421053","black","no","legacy","legacy","legacy","0","incongurent","uniform","1","undefined","1","h","0","0","0","18","0","18","0","0","0","18","18","0","18","18","18","18","Sat Sep  8 19:48:51 2018","1500","The main experiment item","yes","Lab 1 PYSCH 5316.osexp","/Users/danieldalton/Desktop","no","mono","no","18","no","white","no","yes","768","legacy","18","18","/Users/danieldalton/Desktop/DD Subject 3.csv","legacy","Jazzy James","3.1.9","0","h","NA","NA","NA","s","h","472","NA","NA","NA","203077","472","2","legacy","1024","2","48000","-16","experiment","SSHSS","3","odd","205094","NA","NA","NA","NA","236614","NA","NA","1995","238251","237647","1968","NA","237659","237777","237777","Flanker Task","19","11768","19","yes","1024"
"100","100","615.15","615.15","black","no","legacy","legacy","legacy","0","incongruent","uniform","1","undefined","1","s","0","0","0","19","0","19","0","0","0","19","19","0","19","19","19","19","Sat Sep  8 19:48:51 2018","1500","The main experiment item","yes","Lab 1 PYSCH 5316.osexp","/Users/danieldalton/Desktop","no","mono","no","18","no","white","no","yes","768","legacy","19","19","/Users/danieldalton/Desktop/DD Subject 3.csv","legacy","Jazzy James","3.1.9","0","s","NA","NA","NA","s","s","535","NA","NA","NA","203077","535","2","legacy","1024","2","48000","-16","experiment","HHSHH","3","odd","205094","NA","NA","NA","NA","238265","NA","NA","1995","239968","239298","1968","NA","239309","239431","239431","Flanker Task","20","12303","20","yes","1024"
"100","100","640.666666667","640.666666667","black","no","legacy","legacy","legacy","0","congruent","uniform","1","undefined","1","h","0","0","0","20","0","20","0","0","0","20","20","0","20","20","20","20","Sat Sep  8 19:48:51 2018","1500","The main experiment item","yes","Lab 1 PYSCH 5316.osexp","/Users/danieldalton/Desktop","no","mono","no","18","no","white","no","yes","768","legacy","20","20","/Users/danieldalton/Desktop/DD Subject 3.csv","legacy","Jazzy James","3.1.9","0","h","NA","NA","NA","s","h","1151","NA","NA","NA","203077","1151","2","legacy","1024","2","48000","-16","experiment","HHHHH","3","odd","205094","NA","NA","NA","NA","239983","NA","NA","1995","242296","241014","1968","NA","241025","241143","241143","Flanker Task","21","13454","21","yes","1024"
"100","100","633.227272727","633.227272727","black","no","legacy","legacy","legacy","0","conguent","uniform","1","undefined","1","s","0","0","0","21","0","21","0","0","0","21","21","0","21","21","21","21","Sat Sep  8 19:48:51 2018","1500","The main experiment item","yes","Lab 1 PYSCH 5316.osexp","/Users/danieldalton/Desktop","no","mono","no","18","no","white","no","yes","768","legacy","21","21","/Users/danieldalton/Desktop/DD Subject 3.csv","legacy","Jazzy James","3.1.9","0","s","NA","NA","NA","s","s","477","NA","NA","NA","203077","477","2","legacy","1024","2","48000","-16","experiment","SSSSS","3","odd","205094","NA","NA","NA","NA","242310","NA","NA","1995","243951","243345","1968","NA","243356","243471","243471","Flanker Task","22","13931","22","yes","1024"
"100","100","631.391304348","631.391304348","black","no","legacy","legacy","legacy","0","incongurent","uniform","1","undefined","1","h","0","0","0","22","0","22","0","0","0","22","22","0","22","22","22","22","Sat Sep  8 19:48:51 2018","1500","The main experiment item","yes","Lab 1 PYSCH 5316.osexp","/Users/danieldalton/Desktop","no","mono","no","18","no","white","no","yes","768","legacy","22","22","/Users/danieldalton/Desktop/DD Subject 3.csv","legacy","Jazzy James","3.1.9","0","h","NA","NA","NA","s","h","591","NA","NA","NA","203077","591","2","legacy","1024","2","48000","-16","experiment","SSHSS","3","odd","205094","NA","NA","NA","NA","243965","NA","NA","1995","245719","244998","1968","NA","245008","245126","245126","Flanker Task","23","14522","23","yes","1024"
"100","100","634.5","634.5","black","no","legacy","legacy","legacy","0","conguent","uniform","1","undefined","1","s","0","0","0","23","0","23","0","0","0","23","23","0","23","23","23","23","Sat Sep  8 19:48:51 2018","1500","The main experiment item","yes","Lab 1 PYSCH 5316.osexp","/Users/danieldalton/Desktop","no","mono","no","18","no","white","no","yes","768","legacy","23","23","/Users/danieldalton/Desktop/DD Subject 3.csv","legacy","Jazzy James","3.1.9","0","s","NA","NA","NA","s","s","706","NA","NA","NA","203077","706","2","legacy","1024","2","48000","-16","experiment","SSSSS","3","odd","205094","NA","NA","NA","NA","245733","NA","NA","1995","247603","246769","1968","NA","246780","246894","246894","Flanker Task","24","15228","24","yes","1024"
"100","100","628.04","628.04","black","no","legacy","legacy","legacy","0","conguent","uniform","1","undefined","1","s","0","0","0","24","0","24","0","0","0","24","24","0","24","24","24","24","Sat Sep  8 19:48:51 2018","1500","The main experiment item","yes","Lab 1 PYSCH 5316.osexp","/Users/danieldalton/Desktop","no","mono","no","18","no","white","no","yes","768","legacy","24","24","/Users/danieldalton/Desktop/DD Subject 3.csv","legacy","Jazzy James","3.1.9","0","s","NA","NA","NA","s","s","473","NA","NA","NA","203077","473","2","legacy","1024","2","48000","-16","experiment","SSSSS","3","odd","205094","NA","NA","NA","NA","247617","NA","NA","1995","249251","248650","1968","NA","248661","248775","248775","Flanker Task","25","15701","25","yes","1024"
"100","100","625.230769231","625.230769231","black","no","legacy","legacy","legacy","0","congruent","uniform","1","undefined","1","h","0","0","0","25","0","25","0","0","0","25","25","0","25","25","25","25","Sat Sep  8 19:48:51 2018","1500","The main experiment item","yes","Lab 1 PYSCH 5316.osexp","/Users/danieldalton/Desktop","no","mono","no","18","no","white","no","yes","768","legacy","25","25","/Users/danieldalton/Desktop/DD Subject 3.csv","legacy","Jazzy James","3.1.9","0","h","NA","NA","NA","s","h","555","NA","NA","NA","203077","555","2","legacy","1024","2","48000","-16","experiment","HHHHH","3","odd","205094","NA","NA","NA","NA","249265","NA","NA","1995","250983","250299","1968","NA","250310","250426","250426","Flanker Task","26","16256","26","yes","1024"
"100","100","620.62962963","620.62962963","black","no","legacy","legacy","legacy","0","incongruent","uniform","1","undefined","1","s","0","0","0","26","0","26","0","0","0","26","26","0","26","26","26","26","Sat Sep  8 19:48:51 2018","1500","The main experiment item","yes","Lab 1 PYSCH 5316.osexp","/Users/danieldalton/Desktop","no","mono","no","18","no","white","no","yes","768","legacy","26","26","/Users/danieldalton/Desktop/DD Subject 3.csv","legacy","Jazzy James","3.1.9","0","s","NA","NA","NA","s","s","501","NA","NA","NA","203077","501","2","legacy","1024","2","48000","-16","experiment","HHSHH","3","odd","205094","NA","NA","NA","NA","250997","NA","NA","1995","252659","252030","1968","NA","252041","252156","252155","Flanker Task","27","16757","27","yes","1024"
"100","100","628.142857143","628.142857143","black","no","legacy","legacy","legacy","0","incongurent","uniform","1","undefined","1","h","0","0","0","27","0","27","0","0","0","27","27","0","27","27","27","27","Sat Sep  8 19:48:51 2018","1500","The main experiment item","yes","Lab 1 PYSCH 5316.osexp","/Users/danieldalton/Desktop","no","mono","no","18","no","white","no","yes","768","legacy","27","27","/Users/danieldalton/Desktop/DD Subject 3.csv","legacy","Jazzy James","3.1.9","0","h","NA","NA","NA","s","h","831","NA","NA","NA","203077","831","2","legacy","1024","2","48000","-16","experiment","SSHSS","3","odd","205094","NA","NA","NA","NA","252673","NA","NA","1995","254668","253706","1968","NA","253717","253834","253834","Flanker Task","28","17588","28","yes","1024"
"100","100","623.827586207","623.827586207","black","no","legacy","legacy","legacy","0","incongruent","uniform","1","undefined","1","s","0","0","0","28","0","28","0","0","0","28","28","0","28","28","28","28","Sat Sep  8 19:48:51 2018","1500","The main experiment item","yes","Lab 1 PYSCH 5316.osexp","/Users/danieldalton/Desktop","no","mono","no","18","no","white","no","yes","768","legacy","28","28","/Users/danieldalton/Desktop/DD Subject 3.csv","legacy","Jazzy James","3.1.9","0","s","NA","NA","NA","s","s","503","NA","NA","NA","203077","503","2","legacy","1024","2","48000","-16","experiment","HHSHH","3","odd","205094","NA","NA","NA","NA","254682","NA","NA","1995","256347","255715","1968","NA","255726","255841","255840","Flanker Task","29","18091","29","yes","1024"
"96.6666666667","96.6666666667","653.033333333","653.033333333","black","no","legacy","legacy","legacy","0","incongruent","uniform","0","undefined","0","s","0","0","0","29","0","29","0","0","0","29","29","0","29","29","29","29","Sat Sep  8 19:48:51 2018","1500","The main experiment item","yes","Lab 1 PYSCH 5316.osexp","/Users/danieldalton/Desktop","no","mono","no","18","no","white","no","yes","768","legacy","29","29","/Users/danieldalton/Desktop/DD Subject 3.csv","legacy","Jazzy James","3.1.9","0","None","NA","NA","NA","s","None","1500","NA","NA","NA","203077","1500","2","legacy","1024","2","48000","-16","experiment","HHSHH","3","odd","205094","NA","NA","NA","NA","256360","NA","NA","1995","259022","257395","1968","NA","257407","257522","257522","Flanker Task","29","19591","30","yes","1024"
"96.7741935484","96.7741935484","657.580645161","657.580645161","black","no","legacy","legacy","legacy","0","conguent","uniform","1","undefined","1","s","0","0","0","30","0","30","0","0","0","30","30","0","30","30","30","30","Sat Sep  8 19:48:51 2018","1500","The main experiment item","yes","Lab 1 PYSCH 5316.osexp","/Users/danieldalton/Desktop","no","mono","no","18","no","white","no","yes","768","legacy","30","30","/Users/danieldalton/Desktop/DD Subject 3.csv","legacy","Jazzy James","3.1.9","0","s","NA","NA","NA","s","s","794","NA","NA","NA","203077","794","2","legacy","1024","2","48000","-16","experiment","SSSSS","3","odd","205094","NA","NA","259036","NA","259551","NA","NA","1995","261508","260586","1968","NA","260597","260712","260711","Flanker Task","30","20385","31","yes","1024"
"96.875","96.875","652.71875","652.71875","black","no","legacy","legacy","legacy","0","conguent","uniform","1","undefined","1","s","0","0","0","31","0","31","0","0","0","31","31","0","31","31","31","31","Sat Sep  8 19:48:51 2018","1500","The main experiment item","yes","Lab 1 PYSCH 5316.osexp","/Users/danieldalton/Desktop","no","mono","no","18","no","white","no","yes","768","legacy","31","31","/Users/danieldalton/Desktop/DD Subject 3.csv","legacy","Jazzy James","3.1.9","0","s","NA","NA","NA","s","s","502","NA","NA","NA","203077","502","2","legacy","1024","2","48000","-16","experiment","SSSSS","3","odd","205094","NA","NA","259036","NA","261526","NA","NA","1995","263190","262560","1968","NA","262571","262686","262686","Flanker Task","31","20887","32","yes","1024"
"96.9696969697","96.9696969697","645.484848485","645.484848485","black","no","legacy","legacy","legacy","0","conguent","uniform","1","undefined","1","s","0","0","0","32","0","32","0","0","0","32","32","0","32","32","32","32","Sat Sep  8 19:48:51 2018","1500","The main experiment item","yes","Lab 1 PYSCH 5316.osexp","/Users/danieldalton/Desktop","no","mono","no","18","no","white","no","yes","768","legacy","32","32","/Users/danieldalton/Desktop/DD Subject 3.csv","legacy","Jazzy James","3.1.9","0","s","NA","NA","NA","s","s","414","NA","NA","NA","203077","414","2","legacy","1024","2","48000","-16","experiment","SSSSS","3","odd","205094","NA","NA","259036","NA","263204","NA","NA","1995","264781","264237","1968","NA","264248","264365","264365","Flanker Task","32","21301","33","yes","1024"
"97.0588235294","97.0588235294","643.058823529","643.058823529","black","no","legacy","legacy","legacy","0","incongruent","uniform","1","undefined","1","s","0","0","0","33","0","33","0","0","0","33","33","0","33","33","33","33","Sat Sep  8 19:48:51 2018","1500","The main experiment item","yes","Lab 1 PYSCH 5316.osexp","/Users/danieldalton/Desktop","no","mono","no","18","no","white","no","yes","768","legacy","33","33","/Users/danieldalton/Desktop/DD Subject 3.csv","legacy","Jazzy James","3.1.9","0","s","NA","NA","NA","s","s","563","NA","NA","NA","203077","563","2","legacy","1024","2","48000","-16","experiment","HHSHH","3","odd","205094","NA","NA","259036","NA","264795","NA","NA","1995","266518","265828","1968","NA","265839","265953","265953","Flanker Task","33","21864","34","yes","1024"
"97.1428571429","97.1428571429","639.6","639.6","black","no","legacy","legacy","legacy","0","congruent","uniform","1","undefined","1","h","0","0","0","34","0","34","0","0","0","34","34","0","34","34","34","34","Sat Sep  8 19:48:51 2018","1500","The main experiment item","yes","Lab 1 PYSCH 5316.osexp","/Users/danieldalton/Desktop","no","mono","no","18","no","white","no","yes","768","legacy","34","34","/Users/danieldalton/Desktop/DD Subject 3.csv","legacy","Jazzy James","3.1.9","0","h","NA","NA","NA","s","h","522","NA","NA","NA","203077","522","2","legacy","1024","2","48000","-16","experiment","HHHHH","3","odd","205094","NA","NA","259036","NA","266531","NA","NA","1995","268216","267565","1968","NA","267576","267692","267692","Flanker Task","34","22386","35","yes","1024"
"97.2222222222","97.2222222222","634.222222222","634.222222222","black","no","legacy","legacy","legacy","0","incongruent","uniform","1","undefined","1","s","0","0","0","35","0","35","0","0","0","35","35","0","35","35","35","35","Sat Sep  8 19:48:51 2018","1500","The main experiment item","yes","Lab 1 PYSCH 5316.osexp","/Users/danieldalton/Desktop","no","mono","no","18","no","white","no","yes","768","legacy","35","35","/Users/danieldalton/Desktop/DD Subject 3.csv","legacy","Jazzy James","3.1.9","0","s","NA","NA","NA","s","s","446","NA","NA","NA","203077","446","2","legacy","1024","2","48000","-16","experiment","HHSHH","3","odd","205094","NA","NA","259036","NA","268230","NA","NA","1995","269842","269265","1968","NA","269276","269395","269395","Flanker Task","35","22832","36","yes","1024"
"97.2972972973","97.2972972973","630.72972973","630.72972973","black","no","legacy","legacy","legacy","0","incongurent","uniform","1","undefined","1","h","0","0","0","36","0","36","0","0","0","36","36","0","36","36","36","36","Sat Sep  8 19:48:51 2018","1500","The main experiment item","yes","Lab 1 PYSCH 5316.osexp","/Users/danieldalton/Desktop","no","mono","no","18","no","white","no","yes","768","legacy","36","36","/Users/danieldalton/Desktop/DD Subject 3.csv","legacy","Jazzy James","3.1.9","0","h","NA","NA","NA","s","h","505","NA","NA","NA","203077","505","2","legacy","1024","2","48000","-16","experiment","SSHSS","3","odd","205094","NA","NA","259036","NA","269857","NA","NA","1995","271531","270891","1968","NA","270902","271024","271024","Flanker Task","36","23337","37","yes","1024"
"97.3684210526","97.3684210526","623.657894737","623.657894737","black","no","legacy","legacy","legacy","0","incongruent","uniform","1","undefined","1","s","0","0","0","37","0","37","0","0","0","37","37","0","37","37","37","37","Sat Sep  8 19:48:51 2018","1500","The main experiment item","yes","Lab 1 PYSCH 5316.osexp","/Users/danieldalton/Desktop","no","mono","no","18","no","white","no","yes","768","legacy","37","37","/Users/danieldalton/Desktop/DD Subject 3.csv","legacy","Jazzy James","3.1.9","0","s","NA","NA","NA","s","s","362","NA","NA","NA","203077","362","2","legacy","1024","2","48000","-16","experiment","HHSHH","3","odd","205094","NA","NA","259036","NA","271546","NA","NA","1995","273073","272583","1968","NA","272594","272708","272708","Flanker Task","37","23699","38","yes","1024"
"97.4358974359","97.4358974359","618.487179487","618.487179487","black","no","legacy","legacy","legacy","0","incongurent","uniform","1","undefined","1","h","0","0","0","38","0","38","0","0","0","38","38","0","38","38","38","38","Sat Sep  8 19:48:51 2018","1500","The main experiment item","yes","Lab 1 PYSCH 5316.osexp","/Users/danieldalton/Desktop","no","mono","no","18","no","white","no","yes","768","legacy","38","38","/Users/danieldalton/Desktop/DD Subject 3.csv","legacy","Jazzy James","3.1.9","0","h","NA","NA","NA","s","h","422","NA","NA","NA","203077","422","2","legacy","1024","2","48000","-16","experiment","SSHSS","3","odd","205094","NA","NA","259036","NA","273088","NA","NA","1995","274672","274121","1968","NA","274132","274247","274247","Flanker Task","38","24121","39","yes","1024"
"97.5","97.5","612.85","612.85","black","no","legacy","legacy","legacy","0","incongurent","uniform","1","undefined","1","h","0","0","0","39","0","39","0","0","0","39","39","0","39","39","39","39","Sat Sep  8 19:48:51 2018","1500","The main experiment item","yes","Lab 1 PYSCH 5316.osexp","/Users/danieldalton/Desktop","no","mono","no","18","no","white","no","yes","768","legacy","39","39","/Users/danieldalton/Desktop/DD Subject 3.csv","legacy","Jazzy James","3.1.9","0","h","NA","NA","NA","s","h","393","NA","NA","NA","203077","393","2","legacy","1024","2","48000","-16","experiment","SSHSS","3","odd","205094","NA","NA","259036","NA","274687","NA","NA","1995","276245","275720","1968","NA","275731","275849","275848","Flanker Task","39","24514","40","yes","1024"
"97.5609756098","97.5609756098","609.048780488","609.048780488","black","no","legacy","legacy","legacy","0","conguent","uniform","1","undefined","1","s","0","0","0","40","0","40","0","0","0","40","40","0","40","40","40","40","Sat Sep  8 19:48:51 2018","1500","The main experiment item","yes","Lab 1 PYSCH 5316.osexp","/Users/danieldalton/Desktop","no","mono","no","18","no","white","no","yes","768","legacy","40","40","/Users/danieldalton/Desktop/DD Subject 3.csv","legacy","Jazzy James","3.1.9","0","s","NA","NA","NA","s","s","457","NA","NA","NA","203077","457","2","legacy","1024","2","48000","-16","experiment","SSSSS","3","odd","205094","NA","NA","259036","NA","276259","NA","NA","1995","277880","277293","1968","NA","277305","277421","277421","Flanker Task","40","24971","41","yes","1024"
"97.619047619","97.619047619","603.69047619","603.69047619","black","no","legacy","legacy","legacy","0","incongurent","uniform","1","undefined","1","h","0","0","0","41","0","41","0","0","0","41","41","0","41","41","41","41","Sat Sep  8 19:48:51 2018","1500","The main experiment item","yes","Lab 1 PYSCH 5316.osexp","/Users/danieldalton/Desktop","no","mono","no","18","no","white","no","yes","768","legacy","41","41","/Users/danieldalton/Desktop/DD Subject 3.csv","legacy","Jazzy James","3.1.9","0","h","NA","NA","NA","s","h","384","NA","NA","NA","203077","384","2","legacy","1024","2","48000","-16","experiment","SSHSS","3","odd","205094","NA","NA","259036","NA","277895","NA","NA","1995","279439","278928","1968","NA","278939","279053","279053","Flanker Task","41","25355","42","yes","1024"
"97.6744186047","97.6744186047","599.534883721","599.534883721","black","no","legacy","legacy","legacy","0","conguent","uniform","1","undefined","1","s","0","0","0","42","0","42","0","0","0","42","42","0","42","42","42","42","Sat Sep  8 19:48:51 2018","1500","The main experiment item","yes","Lab 1 PYSCH 5316.osexp","/Users/danieldalton/Desktop","no","mono","no","18","no","white","no","yes","768","legacy","42","42","/Users/danieldalton/Desktop/DD Subject 3.csv","legacy","Jazzy James","3.1.9","0","s","NA","NA","NA","s","s","425","NA","NA","NA","203077","425","2","legacy","1024","2","48000","-16","experiment","SSSSS","3","odd","205094","NA","NA","259036","NA","279453","NA","NA","1995","281044","280486","1968","NA","280497","280617","280616","Flanker Task","42","25780","43","yes","1024"
"97.7272727273","97.7272727273","594.295454545","594.295454545","black","no","legacy","legacy","legacy","0","congruent","uniform","1","undefined","1","h","0","0","0","43","0","43","0","0","0","43","43","0","43","43","43","43","Sat Sep  8 19:48:51 2018","1500","The main experiment item","yes","Lab 1 PYSCH 5316.osexp","/Users/danieldalton/Desktop","no","mono","no","18","no","white","no","yes","768","legacy","43","43","/Users/danieldalton/Desktop/DD Subject 3.csv","legacy","Jazzy James","3.1.9","0","h","NA","NA","NA","s","h","369","NA","NA","NA","203077","369","2","legacy","1024","2","48000","-16","experiment","HHHHH","3","odd","205094","NA","NA","259036","NA","281058","NA","NA","1995","282589","282091","1968","NA","282103","282217","282217","Flanker Task","43","26149","44","yes","1024"
"97.7777777778","97.7777777778","588.311111111","588.311111111","black","no","legacy","legacy","legacy","0","congruent","uniform","1","undefined","1","h","0","0","0","44","0","44","0","0","0","44","44","0","44","44","44","44","Sat Sep  8 19:48:51 2018","1500","The main experiment item","yes","Lab 1 PYSCH 5316.osexp","/Users/danieldalton/Desktop","no","mono","no","18","no","white","no","yes","768","legacy","44","44","/Users/danieldalton/Desktop/DD Subject 3.csv","legacy","Jazzy James","3.1.9","0","h","NA","NA","NA","s","h","325","NA","NA","NA","203077","325","2","legacy","1024","2","48000","-16","experiment","HHHHH","3","odd","205094","NA","NA","259036","NA","282603","NA","NA","1995","284092","283636","1968","NA","283647","283765","283765","Flanker Task","44","26474","45","yes","1024"
"95.652173913","95.652173913","583.326086957","583.326086957","black","no","legacy","legacy","legacy","0","incongurent","uniform","0","undefined","0","h","0","0","0","45","0","45","0","0","0","45","45","0","45","45","45","45","Sat Sep  8 19:48:51 2018","1500","The main experiment item","yes","Lab 1 PYSCH 5316.osexp","/Users/danieldalton/Desktop","no","mono","no","18","no","white","no","yes","768","legacy","45","45","/Users/danieldalton/Desktop/DD Subject 3.csv","legacy","Jazzy James","3.1.9","0","s","NA","NA","NA","s","s","359","NA","NA","NA","203077","359","2","legacy","1024","2","48000","-16","experiment","SSHSS","3","odd","205094","NA","NA","259036","NA","284106","NA","NA","1995","285627","285141","1968","NA","285152","285266","285266","Flanker Task","44","26833","46","yes","1024"
"93.6170212766","93.6170212766","577.829787234","577.829787234","black","no","legacy","legacy","legacy","0","incongruent","uniform","0","undefined","0","s","0","0","0","46","0","46","0","0","0","46","46","0","46","46","46","46","Sat Sep  8 19:48:51 2018","1500","The main experiment item","yes","Lab 1 PYSCH 5316.osexp","/Users/danieldalton/Desktop","no","mono","no","18","no","white","no","yes","768","legacy","46","46","/Users/danieldalton/Desktop/DD Subject 3.csv","legacy","Jazzy James","3.1.9","0","h","NA","NA","NA","s","h","325","NA","NA","NA","203077","325","2","legacy","1024","2","48000","-16","experiment","HHSHH","3","odd","205094","NA","NA","285641","NA","286153","NA","NA","1995","287644","287187","1968","NA","287198","287317","287316","Flanker Task","44","27158","47","yes","1024"
"93.75","93.75","580.8125","580.8125","black","no","legacy","legacy","legacy","0","congruent","uniform","1","undefined","1","h","0","0","0","47","0","47","0","0","0","47","47","0","47","47","47","47","Sat Sep  8 19:48:51 2018","1500","The main experiment item","yes","Lab 1 PYSCH 5316.osexp","/Users/danieldalton/Desktop","no","mono","no","18","no","white","no","yes","768","legacy","47","47","/Users/danieldalton/Desktop/DD Subject 3.csv","legacy","Jazzy James","3.1.9","0","h","NA","NA","NA","s","h","721","NA","NA","NA","203077","721","2","legacy","1024","2","48000","-16","experiment","HHHHH","3","odd","205094","NA","NA","287659","NA","288171","NA","NA","1995","290052","289201","1968","NA","289212","289328","289328","Flanker Task","45","27879","48","yes","1024"
"93.8775510204","93.8775510204","580.12244898","580.12244898","black","no","legacy","legacy","legacy","0","incongurent","uniform","1","undefined","1","h","0","0","0","48","0","48","0","0","0","48","48","0","48","48","48","48","Sat Sep  8 19:48:51 2018","1500","The main experiment item","yes","Lab 1 PYSCH 5316.osexp","/Users/danieldalton/Desktop","no","mono","no","18","no","white","no","yes","768","legacy","48","48","/Users/danieldalton/Desktop/DD Subject 3.csv","legacy","Jazzy James","3.1.9","0","h","NA","NA","NA","s","h","547","NA","NA","NA","203077","547","2","legacy","1024","2","48000","-16","experiment","SSHSS","3","odd","205094","NA","NA","287659","NA","290069","NA","NA","1995","291778","291099","1968","NA","291111","291229","291229","Flanker Task","46","28426","49","yes","1024"
"94","94","578.52","578.52","black","no","legacy","legacy","legacy","0","incongurent","uniform","1","undefined","1","h","0","0","0","49","0","49","0","0","0","49","49","0","49","49","49","49","Sat Sep  8 19:48:51 2018","1500","The main experiment item","yes","Lab 1 PYSCH 5316.osexp","/Users/danieldalton/Desktop","no","mono","no","18","no","white","no","yes","768","legacy","49","49","/Users/danieldalton/Desktop/DD Subject 3.csv","legacy","Jazzy James","3.1.9","0","h","NA","NA","NA","s","h","500","NA","NA","NA","203077","500","2","legacy","1024","2","48000","-16","experiment","SSHSS","3","odd","205094","NA","NA","287659","NA","291792","NA","NA","1995","293448","292824","1968","NA","292835","292946","292946","Flanker Task","47","28926","50","yes","1024"
"94.1176470588","94.1176470588","575.941176471","575.941176471","black","no","legacy","legacy","legacy","0","incongruent","uniform","1","undefined","1","s","0","0","0","50","0","50","0","0","0","50","50","0","50","50","50","50","Sat Sep  8 19:48:51 2018","1500","The main experiment item","yes","Lab 1 PYSCH 5316.osexp","/Users/danieldalton/Desktop","no","mono","no","18","no","white","no","yes","768","legacy","50","50","/Users/danieldalton/Desktop/DD Subject 3.csv","legacy","Jazzy James","3.1.9","0","s","NA","NA","NA","s","s","447","NA","NA","NA","203077","447","2","legacy","1024","2","48000","-16","experiment","HHSHH","3","odd","205094","NA","NA","287659","NA","293463","NA","NA","1995","295079","294498","1968","NA","294509","294629","294629","Flanker Task","48","29373","51","yes","1024"
"94.2307692308","94.2307692308","580.980769231","580.980769231","black","no","legacy","legacy","legacy","0","incongruent","uniform","1","undefined","1","s","0","0","0","51","0","51","0","0","0","51","51","0","51","51","51","51","Sat Sep  8 19:48:51 2018","1500","The main experiment item","yes","Lab 1 PYSCH 5316.osexp","/Users/danieldalton/Desktop","no","mono","no","18","no","white","no","yes","768","legacy","51","51","/Users/danieldalton/Desktop/DD Subject 3.csv","legacy","Jazzy James","3.1.9","0","s","NA","NA","NA","s","s","838","NA","NA","NA","203077","838","2","legacy","1024","2","48000","-16","experiment","HHSHH","3","odd","205094","NA","NA","287659","NA","295093","NA","NA","1995","297097","296127","1968","NA","296138","296256","296256","Flanker Task","49","30211","52","yes","1024"
"94.3396226415","94.3396226415","579.301886792","579.301886792","black","no","legacy","legacy","legacy","0","incongurent","uniform","1","undefined","1","h","0","0","0","52","0","52","0","0","0","52","52","0","52","52","52","52","Sat Sep  8 19:48:51 2018","1500","The main experiment item","yes","Lab 1 PYSCH 5316.osexp","/Users/danieldalton/Desktop","no","mono","no","18","no","white","no","yes","768","legacy","52","52","/Users/danieldalton/Desktop/DD Subject 3.csv","legacy","Jazzy James","3.1.9","0","h","NA","NA","NA","s","h","492","NA","NA","NA","203077","492","2","legacy","1024","2","48000","-16","experiment","SSHSS","3","odd","205094","NA","NA","287659","NA","297110","NA","NA","1995","298763","298144","1968","NA","298155","298269","298269","Flanker Task","50","30703","53","yes","1024"
"94.4444444444","94.4444444444","576.518518519","576.518518519","black","no","legacy","legacy","legacy","0","incongruent","uniform","1","undefined","1","s","0","0","0","53","0","53","0","0","0","53","53","0","53","53","53","53","Sat Sep  8 19:48:51 2018","1500","The main experiment item","yes","Lab 1 PYSCH 5316.osexp","/Users/danieldalton/Desktop","no","mono","no","18","no","white","no","yes","768","legacy","53","53","/Users/danieldalton/Desktop/DD Subject 3.csv","legacy","Jazzy James","3.1.9","0","s","NA","NA","NA","s","s","429","NA","NA","NA","203077","429","2","legacy","1024","2","48000","-16","experiment","HHSHH","3","odd","205094","NA","NA","287659","NA","298778","NA","NA","1995","300367","299811","1968","NA","299822","299935","299934","Flanker Task","51","31132","54","yes","1024"
"94.5454545455","94.5454545455","575.290909091","575.290909091","black","no","legacy","legacy","legacy","0","congruent","uniform","1","undefined","1","h","0","0","0","54","0","54","0","0","0","54","54","0","54","54","54","54","Sat Sep  8 19:48:51 2018","1500","The main experiment item","yes","Lab 1 PYSCH 5316.osexp","/Users/danieldalton/Desktop","no","mono","no","18","no","white","no","yes","768","legacy","54","54","/Users/danieldalton/Desktop/DD Subject 3.csv","legacy","Jazzy James","3.1.9","0","h","NA","NA","NA","s","h","509","NA","NA","NA","203077","509","2","legacy","1024","2","48000","-16","experiment","HHHHH","3","odd","205094","NA","NA","287659","NA","300380","NA","NA","1995","302053","301414","1968","NA","301425","301542","301541","Flanker Task","52","31641","55","yes","1024"
"94.6428571429","94.6428571429","572.482142857","572.482142857","black","no","legacy","legacy","legacy","0","congruent","uniform","1","undefined","1","h","0","0","0","55","0","55","0","0","0","55","55","0","55","55","55","55","Sat Sep  8 19:48:51 2018","1500","The main experiment item","yes","Lab 1 PYSCH 5316.osexp","/Users/danieldalton/Desktop","no","mono","no","18","no","white","no","yes","768","legacy","55","55","/Users/danieldalton/Desktop/DD Subject 3.csv","legacy","Jazzy James","3.1.9","0","h","NA","NA","NA","s","h","418","NA","NA","NA","203077","418","2","legacy","1024","2","48000","-16","experiment","HHHHH","3","odd","205094","NA","NA","287659","NA","302068","NA","NA","1995","303649","303103","1968","NA","303113","303228","303228","Flanker Task","53","32059","56","yes","1024"
"94.7368421053","94.7368421053","569.684210526","569.684210526","black","no","legacy","legacy","legacy","0","congruent","uniform","1","undefined","1","h","0","0","0","56","0","56","0","0","0","56","56","0","56","56","56","56","Sat Sep  8 19:48:51 2018","1500","The main experiment item","yes","Lab 1 PYSCH 5316.osexp","/Users/danieldalton/Desktop","no","mono","no","18","no","white","no","yes","768","legacy","56","56","/Users/danieldalton/Desktop/DD Subject 3.csv","legacy","Jazzy James","3.1.9","0","h","NA","NA","NA","s","h","413","NA","NA","NA","203077","413","2","legacy","1024","2","48000","-16","experiment","HHHHH","3","odd","205094","NA","NA","287659","NA","303663","NA","NA","1995","305242","304698","1968","NA","304709","304826","304826","Flanker Task","54","32472","57","yes","1024"
"94.8275862069","94.8275862069","568.293103448","568.293103448","black","no","legacy","legacy","legacy","0","incongurent","uniform","1","undefined","1","h","0","0","0","57","0","57","0","0","0","57","57","0","57","57","57","57","Sat Sep  8 19:48:51 2018","1500","The main experiment item","yes","Lab 1 PYSCH 5316.osexp","/Users/danieldalton/Desktop","no","mono","no","18","no","white","no","yes","768","legacy","57","57","/Users/danieldalton/Desktop/DD Subject 3.csv","legacy","Jazzy James","3.1.9","0","h","NA","NA","NA","s","h","489","NA","NA","NA","203077","489","2","legacy","1024","2","48000","-16","experiment","SSHSS","3","odd","205094","NA","NA","287659","NA","305256","NA","NA","1995","306906","306290","1968","NA","306301","306413","306413","Flanker Task","55","32961","58","yes","1024"
"94.9152542373","94.9152542373","567.627118644","567.627118644","black","no","legacy","legacy","legacy","0","incongruent","uniform","1","undefined","1","s","0","0","0","58","0","58","0","0","0","58","58","0","58","58","58","58","Sat Sep  8 19:48:51 2018","1500","The main experiment item","yes","Lab 1 PYSCH 5316.osexp","/Users/danieldalton/Desktop","no","mono","no","18","no","white","no","yes","768","legacy","58","58","/Users/danieldalton/Desktop/DD Subject 3.csv","legacy","Jazzy James","3.1.9","0","s","NA","NA","NA","s","s","529","NA","NA","NA","203077","529","2","legacy","1024","2","48000","-16","experiment","HHSHH","3","odd","205094","NA","NA","287659","NA","306920","NA","NA","1995","308613","307954","1968","NA","307965","308081","308081","Flanker Task","56","33490","59","yes","1024"
"95","95","566.483333333","566.483333333","black","no","legacy","legacy","legacy","0","incongruent","uniform","1","undefined","1","s","0","0","0","59","0","59","0","0","0","59","59","0","59","59","59","59","Sat Sep  8 19:48:51 2018","1500","The main experiment item","yes","Lab 1 PYSCH 5316.osexp","/Users/danieldalton/Desktop","no","mono","no","18","no","white","no","yes","768","legacy","59","59","/Users/danieldalton/Desktop/DD Subject 3.csv","legacy","Jazzy James","3.1.9","0","s","NA","NA","NA","s","s","499","NA","NA","NA","203077","499","2","legacy","1024","2","48000","-16","experiment","HHSHH","3","odd","205094","NA","NA","287659","NA","308628","NA","NA","1995","310295","309663","1968","NA","309675","309794","309794","Flanker Task","57","33989","60","yes","1024"
"95.0819672131","95.0819672131","563.803278689","563.803278689","black","no","legacy","legacy","legacy","0","conguent","uniform","1","undefined","1","s","0","0","0","60","0","60","0","0","0","60","60","0","60","60","60","60","Sat Sep  8 19:48:51 2018","1500","The main experiment item","yes","Lab 1 PYSCH 5316.osexp","/Users/danieldalton/Desktop","no","mono","no","18","no","white","no","yes","768","legacy","60","60","/Users/danieldalton/Desktop/DD Subject 3.csv","legacy","Jazzy James","3.1.9","0","s","NA","NA","NA","s","s","403","NA","NA","NA","203077","403","2","legacy","1024","2","48000","-16","experiment","SSSSS","3","odd","205094","NA","NA","287659","NA","310310","NA","NA","1995","311877","311346","1968","NA","311357","311472","311472","Flanker Task","58","34392","61","yes","1024"
"95.1612903226","95.1612903226","560.790322581","560.790322581","black","no","legacy","legacy","legacy","0","conguent","uniform","1","undefined","1","s","0","0","0","61","0","61","0","0","0","61","61","0","61","61","61","61","Sat Sep  8 19:48:51 2018","1500","The main experiment item","yes","Lab 1 PYSCH 5316.osexp","/Users/danieldalton/Desktop","no","mono","no","18","no","white","no","yes","768","legacy","61","61","/Users/danieldalton/Desktop/DD Subject 3.csv","legacy","Jazzy James","3.1.9","0","s","NA","NA","NA","s","s","377","NA","NA","NA","203077","377","2","legacy","1024","2","48000","-16","experiment","SSSSS","3","odd","205094","NA","NA","287659","NA","311891","NA","NA","1995","313428","312922","1968","NA","312933","313049","313048","Flanker Task","59","34769","62","yes","1024"
"95.2380952381","95.2380952381","559.047619048","559.047619048","black","no","legacy","legacy","legacy","0","congruent","uniform","1","undefined","1","h","0","0","0","62","0","62","0","0","0","62","62","0","62","62","62","62","Sat Sep  8 19:48:51 2018","1500","The main experiment item","yes","Lab 1 PYSCH 5316.osexp","/Users/danieldalton/Desktop","no","mono","no","18","no","white","no","yes","768","legacy","62","62","/Users/danieldalton/Desktop/DD Subject 3.csv","legacy","Jazzy James","3.1.9","0","h","NA","NA","NA","s","h","451","NA","NA","NA","203077","451","2","legacy","1024","2","48000","-16","experiment","HHHHH","3","odd","205094","NA","NA","287659","NA","313442","NA","NA","1995","315058","314475","1968","NA","314486","314604","314603","Flanker Task","60","35220","63","yes","1024"
"95.3125","95.3125","557.078125","557.078125","black","no","legacy","legacy","legacy","0","conguent","uniform","1","undefined","1","s","0","0","0","63","0","63","0","0","0","63","63","0","63","63","63","63","Sat Sep  8 19:48:51 2018","1500","The main experiment item","yes","Lab 1 PYSCH 5316.osexp","/Users/danieldalton/Desktop","no","mono","no","18","no","white","no","yes","768","legacy","63","63","/Users/danieldalton/Desktop/DD Subject 3.csv","legacy","Jazzy James","3.1.9","0","s","NA","NA","NA","s","s","433","NA","NA","NA","203077","433","2","legacy","1024","2","48000","-16","experiment","SSSSS","3","odd","205094","NA","NA","287659","NA","315072","NA","NA","1995","316668","316107","1968","NA","316118","316232","316232","Flanker Task","61","35653","64","yes","1024"
"95.3846153846","95.3846153846","553.723076923","553.723076923","black","no","legacy","legacy","legacy","0","incongurent","uniform","1","undefined","1","h","0","0","0","64","0","64","0","0","0","64","64","0","64","64","64","64","Sat Sep  8 19:48:51 2018","1500","The main experiment item","yes","Lab 1 PYSCH 5316.osexp","/Users/danieldalton/Desktop","no","mono","no","18","no","white","no","yes","768","legacy","64","64","/Users/danieldalton/Desktop/DD Subject 3.csv","legacy","Jazzy James","3.1.9","0","h","NA","NA","NA","s","h","339","NA","NA","NA","203077","339","2","legacy","1024","2","48000","-16","experiment","SSHSS","3","odd","205094","NA","NA","287659","NA","316682","NA","NA","1995","318183","317715","1968","NA","317726","317842","317842","Flanker Task","62","35992","65","yes","1024"
"95.4545454545","95.4545454545","551.545454545","551.545454545","black","no","legacy","legacy","legacy","0","congruent","uniform","1","undefined","1","h","0","0","0","65","0","65","0","0","0","65","65","0","65","65","65","65","Sat Sep  8 19:48:51 2018","1500","The main experiment item","yes","Lab 1 PYSCH 5316.osexp","/Users/danieldalton/Desktop","no","mono","no","18","no","white","no","yes","768","legacy","65","65","/Users/danieldalton/Desktop/DD Subject 3.csv","legacy","Jazzy James","3.1.9","0","h","NA","NA","NA","s","h","410","NA","NA","NA","203077","410","2","legacy","1024","2","48000","-16","experiment","HHHHH","3","odd","205094","NA","NA","287659","NA","318198","NA","NA","1995","319774","319232","1968","NA","319244","319362","319362","Flanker Task","63","36402","66","yes","1024"
"95.5223880597","95.5223880597","548.462686567","548.462686567","black","no","legacy","legacy","legacy","0","congruent","uniform","1","undefined","1","h","0","0","0","66","0","66","0","0","0","66","66","0","66","66","66","66","Sat Sep  8 19:48:51 2018","1500","The main experiment item","yes","Lab 1 PYSCH 5316.osexp","/Users/danieldalton/Desktop","no","mono","no","18","no","white","no","yes","768","legacy","66","66","/Users/danieldalton/Desktop/DD Subject 3.csv","legacy","Jazzy James","3.1.9","0","h","NA","NA","NA","s","h","345","NA","NA","NA","203077","345","2","legacy","1024","2","48000","-16","experiment","HHHHH","3","odd","205094","NA","NA","287659","NA","319788","NA","NA","1995","321295","320822","1968","NA","320833","320947","320947","Flanker Task","64","36747","67","yes","1024"
"95.5882352941","95.5882352941","545.647058824","545.647058824","black","no","legacy","legacy","legacy","0","congruent","uniform","1","undefined","1","h","0","0","0","67","0","67","0","0","0","67","67","0","67","67","67","67","Sat Sep  8 19:48:51 2018","1500","The main experiment item","yes","Lab 1 PYSCH 5316.osexp","/Users/danieldalton/Desktop","no","mono","no","18","no","white","no","yes","768","legacy","67","67","/Users/danieldalton/Desktop/DD Subject 3.csv","legacy","Jazzy James","3.1.9","0","h","NA","NA","NA","s","h","357","NA","NA","NA","203077","357","2","legacy","1024","2","48000","-16","experiment","HHHHH","3","odd","205094","NA","NA","287659","NA","321314","NA","NA","1995","322834","322348","1968","NA","322359","322475","322475","Flanker Task","65","37104","68","yes","1024"
"95.652173913","95.652173913","544.072463768","544.072463768","black","no","legacy","legacy","legacy","0","incongruent","uniform","1","undefined","1","s","0","0","0","68","0","68","0","0","0","68","68","0","68","68","68","68","Sat Sep  8 19:48:51 2018","1500","The main experiment item","yes","Lab 1 PYSCH 5316.osexp","/Users/danieldalton/Desktop","no","mono","no","18","no","white","no","yes","768","legacy","68","68","/Users/danieldalton/Desktop/DD Subject 3.csv","legacy","Jazzy James","3.1.9","0","s","NA","NA","NA","s","s","437","NA","NA","NA","203077","437","2","legacy","1024","2","48000","-16","experiment","HHSHH","3","odd","205094","NA","NA","287659","NA","322848","NA","NA","1995","324447","323881","1968","NA","323892","324007","324007","Flanker Task","66","37541","69","yes","1024"
"95.7142857143","95.7142857143","541.885714286","541.885714286","black","no","legacy","legacy","legacy","0","congruent","uniform","1","undefined","1","h","0","0","0","69","0","69","0","0","0","69","69","0","69","69","69","69","Sat Sep  8 19:48:51 2018","1500","The main experiment item","yes","Lab 1 PYSCH 5316.osexp","/Users/danieldalton/Desktop","no","mono","no","18","no","white","no","yes","768","legacy","69","69","/Users/danieldalton/Desktop/DD Subject 3.csv","legacy","Jazzy James","3.1.9","0","h","NA","NA","NA","s","h","391","NA","NA","NA","203077","391","2","legacy","1024","2","48000","-16","experiment","HHHHH","3","odd","205094","NA","NA","287659","NA","324462","NA","NA","1995","326018","325497","1968","NA","325509","325623","325623","Flanker Task","67","37932","70","yes","1024"
"95.7746478873","95.7746478873","541.028169014","541.028169014","black","no","legacy","legacy","legacy","0","incongruent","uniform","1","undefined","1","s","0","0","0","70","0","70","0","0","0","70","70","0","70","70","70","70","Sat Sep  8 19:48:51 2018","1500","The main experiment item","yes","Lab 1 PYSCH 5316.osexp","/Users/danieldalton/Desktop","no","mono","no","18","no","white","no","yes","768","legacy","70","70","/Users/danieldalton/Desktop/DD Subject 3.csv","legacy","Jazzy James","3.1.9","0","s","NA","NA","NA","s","s","481","NA","NA","NA","203077","481","2","legacy","1024","2","48000","-16","experiment","HHSHH","3","odd","205094","NA","NA","287659","NA","326032","NA","NA","1995","327681","327066","1968","NA","327077","327197","327196","Flanker Task","68","38413","71","yes","1024"
"95.8333333333","95.8333333333","539.75","539.75","black","no","legacy","legacy","legacy","0","congruent","uniform","1","undefined","1","h","0","0","0","71","0","71","0","0","0","71","71","0","71","71","71","71","Sat Sep  8 19:48:51 2018","1500","The main experiment item","yes","Lab 1 PYSCH 5316.osexp","/Users/danieldalton/Desktop","no","mono","no","18","no","white","no","yes","768","legacy","71","71","/Users/danieldalton/Desktop/DD Subject 3.csv","legacy","Jazzy James","3.1.9","0","h","NA","NA","NA","s","h","449","NA","NA","NA","203077","449","2","legacy","1024","2","48000","-16","experiment","HHHHH","3","odd","205094","NA","NA","287659","NA","327694","NA","NA","1995","329310","328729","1968","NA","328740","328858","328858","Flanker Task","69","38862","72","yes","1024"
"95.8904109589","95.8904109589","540.342465753","540.342465753","black","no","legacy","legacy","legacy","0","incongurent","uniform","1","undefined","1","h","0","0","0","72","0","72","0","0","0","72","72","0","72","72","72","72","Sat Sep  8 19:48:51 2018","1500","The main experiment item","yes","Lab 1 PYSCH 5316.osexp","/Users/danieldalton/Desktop","no","mono","no","18","no","white","no","yes","768","legacy","72","72","/Users/danieldalton/Desktop/DD Subject 3.csv","legacy","Jazzy James","3.1.9","0","h","NA","NA","NA","s","h","583","NA","NA","NA","203077","583","2","legacy","1024","2","48000","-16","experiment","SSHSS","3","odd","205094","NA","NA","287659","NA","329323","NA","NA","1995","331072","330358","1968","NA","330369","330486","330486","Flanker Task","70","39445","73","yes","1024"
"95.9459459459","95.9459459459","540.797297297","540.797297297","black","no","legacy","legacy","legacy","0","conguent","uniform","1","undefined","1","s","0","0","0","73","0","73","0","0","0","73","73","0","73","73","73","73","Sat Sep  8 19:48:51 2018","1500","The main experiment item","yes","Lab 1 PYSCH 5316.osexp","/Users/danieldalton/Desktop","no","mono","no","18","no","white","no","yes","768","legacy","73","73","/Users/danieldalton/Desktop/DD Subject 3.csv","legacy","Jazzy James","3.1.9","0","s","NA","NA","NA","s","s","574","NA","NA","NA","203077","574","2","legacy","1024","2","48000","-16","experiment","SSSSS","3","odd","205094","NA","NA","287659","NA","331086","NA","NA","1995","332828","332125","1968","NA","332136","332251","332251","Flanker Task","71","40019","74","yes","1024"
"96","96","539.946666667","539.946666667","black","no","legacy","legacy","legacy","0","incongruent","uniform","1","undefined","1","s","0","0","0","74","0","74","0","0","0","74","74","0","74","74","74","74","Sat Sep  8 19:48:51 2018","1500","The main experiment item","yes","Lab 1 PYSCH 5316.osexp","/Users/danieldalton/Desktop","no","mono","no","18","no","white","no","yes","768","legacy","74","74","/Users/danieldalton/Desktop/DD Subject 3.csv","legacy","Jazzy James","3.1.9","0","s","NA","NA","NA","s","s","477","NA","NA","NA","203077","477","2","legacy","1024","2","48000","-16","experiment","HHSHH","3","odd","205094","NA","NA","287659","NA","332842","NA","NA","1995","334484","333879","1968","NA","333890","334004","334003","Flanker Task","72","40496","75","yes","1024"
"96.0526315789","96.0526315789","537.526315789","537.526315789","black","no","legacy","legacy","legacy","0","conguent","uniform","1","undefined","1","s","0","0","0","75","0","75","0","0","0","75","75","0","75","75","75","75","Sat Sep  8 19:48:51 2018","1500","The main experiment item","yes","Lab 1 PYSCH 5316.osexp","/Users/danieldalton/Desktop","no","mono","no","18","no","white","no","yes","768","legacy","75","75","/Users/danieldalton/Desktop/DD Subject 3.csv","legacy","Jazzy James","3.1.9","0","s","NA","NA","NA","s","s","356","NA","NA","NA","203077","356","2","legacy","1024","2","48000","-16","experiment","SSSSS","3","odd","205094","NA","NA","287659","NA","334497","NA","NA","1995","336016","335532","1968","NA","335543","335657","335657","Flanker Task","73","40852","76","yes","1024"
"96.1038961039","96.1038961039","536.688311688","536.688311688","black","no","legacy","legacy","legacy","0","incongruent","uniform","1","undefined","1","s","0","0","0","76","0","76","0","0","0","76","76","0","76","76","76","76","Sat Sep  8 19:48:51 2018","1500","The main experiment item","yes","Lab 1 PYSCH 5316.osexp","/Users/danieldalton/Desktop","no","mono","no","18","no","white","no","yes","768","legacy","76","76","/Users/danieldalton/Desktop/DD Subject 3.csv","legacy","Jazzy James","3.1.9","0","s","NA","NA","NA","s","s","473","NA","NA","NA","203077","473","2","legacy","1024","2","48000","-16","experiment","HHSHH","3","odd","205094","NA","NA","287659","NA","336031","NA","NA","1995","337669","337064","1968","NA","337075","337193","337192","Flanker Task","74","41325","77","yes","1024"
"96.1538461538","96.1538461538","535.782051282","535.782051282","black","no","legacy","legacy","legacy","0","incongurent","uniform","1","undefined","1","h","0","0","0","77","0","77","0","0","0","77","77","0","77","77","77","77","Sat Sep  8 19:48:51 2018","1500","The main experiment item","yes","Lab 1 PYSCH 5316.osexp","/Users/danieldalton/Desktop","no","mono","no","18","no","white","no","yes","768","legacy","77","77","/Users/danieldalton/Desktop/DD Subject 3.csv","legacy","Jazzy James","3.1.9","0","h","NA","NA","NA","s","h","466","NA","NA","NA","203077","466","2","legacy","1024","2","48000","-16","experiment","SSHSS","3","odd","205094","NA","NA","287659","NA","337683","NA","NA","1995","339314","338716","1968","NA","338727","338845","338844","Flanker Task","75","41791","78","yes","1024"
"96.2025316456","96.2025316456","535.594936709","535.594936709","black","no","legacy","legacy","legacy","0","incongurent","uniform","1","undefined","1","h","0","0","0","78","0","78","0","0","0","78","78","0","78","78","78","78","Sat Sep  8 19:48:51 2018","1500","The main experiment item","yes","Lab 1 PYSCH 5316.osexp","/Users/danieldalton/Desktop","no","mono","no","18","no","white","no","yes","768","legacy","78","78","/Users/danieldalton/Desktop/DD Subject 3.csv","legacy","Jazzy James","3.1.9","0","h","NA","NA","NA","s","h","521","NA","NA","NA","203077","521","2","legacy","1024","2","48000","-16","experiment","SSHSS","3","odd","205094","NA","NA","287659","NA","339328","NA","NA","1995","341015","340362","1968","NA","340373","340492","340492","Flanker Task","76","42312","79","yes","1024"
"96.25","96.25","533.7375","533.7375","black","no","legacy","legacy","legacy","0","congruent","uniform","1","undefined","1","h","0","0","0","79","0","79","0","0","0","79","79","0","79","79","79","79","Sat Sep  8 19:48:51 2018","1500","The main experiment item","yes","Lab 1 PYSCH 5316.osexp","/Users/danieldalton/Desktop","no","mono","no","18","no","white","no","yes","768","legacy","79","79","/Users/danieldalton/Desktop/DD Subject 3.csv","legacy","Jazzy James","3.1.9","0","h","NA","NA","NA","s","h","387","NA","NA","NA","203077","387","2","legacy","1024","2","48000","-16","experiment","HHHHH","3","odd","205094","NA","NA","287659","NA","341029","NA","NA","1995","342584","342064","1968","NA","342075","342195","342195","Flanker Task","77","42699","80","yes","1024"
"96.2962962963","96.2962962963","534.234567901","534.234567901","black","no","legacy","legacy","legacy","0","congruent","uniform","1","undefined","1","h","0","0","0","80","0","80","0","0","0","80","80","0","80","80","80","80","Sat Sep  8 19:48:51 2018","600","The main experiment item","yes","Lab 1 PYSCH 5316.osexp","/Users/danieldalton/Desktop","no","mono","no","18","no","white","no","yes","768","legacy","0","79","/Users/danieldalton/Desktop/DD Subject 3.csv","legacy","Jazzy James","3.1.9","0","h","NA","h","NA","s","h","574","NA","8900","NA","203077","574","2","legacy","1024","2","48000","-16","experiment","HHHHH","3","odd","205094","352526","NA","287659","NA","342598","343624","NA","1995","353259","352554","1968","NA","352565","352683","352683","Flanker Task","78","43273","81","yes","1024"
"96.3414634146","96.3414634146","533.926829268","533.926829268","black","no","legacy","legacy","legacy","0","incongurent","uniform","1","undefined","1","h","0","0","0","81","0","81","0","0","0","81","81","0","81","81","81","81","Sat Sep  8 19:48:51 2018","600","The main experiment item","yes","Lab 1 PYSCH 5316.osexp","/Users/danieldalton/Desktop","no","mono","no","18","no","white","no","yes","768","legacy","1","79","/Users/danieldalton/Desktop/DD Subject 3.csv","legacy","Jazzy James","3.1.9","0","h","NA","h","NA","s","h","509","NA","8900","NA","203077","509","2","legacy","1024","2","48000","-16","experiment","SSHSS","3","odd","205094","352526","NA","287659","NA","353273","343624","NA","1995","354944","354307","1968","NA","354318","354433","354433","Flanker Task","79","43782","82","yes","1024"
"96.3855421687","96.3855421687","532.698795181","532.698795181","black","no","legacy","legacy","legacy","0","incongurent","uniform","1","undefined","1","h","0","0","0","82","0","82","0","0","0","82","82","0","82","82","82","82","Sat Sep  8 19:48:51 2018","600","The main experiment item","yes","Lab 1 PYSCH 5316.osexp","/Users/danieldalton/Desktop","no","mono","no","18","no","white","no","yes","768","legacy","2","79","/Users/danieldalton/Desktop/DD Subject 3.csv","legacy","Jazzy James","3.1.9","0","h","NA","h","NA","s","h","432","NA","8900","NA","203077","432","2","legacy","1024","2","48000","-16","experiment","SSHSS","3","odd","205094","352526","NA","287659","NA","354959","343624","NA","1995","356554","355992","1968","NA","356002","356120","356120","Flanker Task","80","44214","83","yes","1024"
"96.4285714286","96.4285714286","532","532","black","no","legacy","legacy","legacy","0","incongruent","uniform","1","undefined","1","s","0","0","0","83","0","83","0","0","0","83","83","0","83","83","83","83","Sat Sep  8 19:48:51 2018","600","The main experiment item","yes","Lab 1 PYSCH 5316.osexp","/Users/danieldalton/Desktop","no","mono","no","18","no","white","no","yes","768","legacy","3","79","/Users/danieldalton/Desktop/DD Subject 3.csv","legacy","Jazzy James","3.1.9","0","s","NA","h","NA","s","s","474","NA","8900","NA","203077","474","2","legacy","1024","2","48000","-16","experiment","HHSHH","3","odd","205094","352526","NA","287659","NA","356568","343624","NA","1995","358212","357609","1968","NA","357620","357736","357736","Flanker Task","81","44688","84","yes","1024"
"96.4705882353","96.4705882353","529.611764706","529.611764706","black","no","legacy","legacy","legacy","0","congruent","uniform","1","undefined","1","h","0","0","0","84","0","84","0","0","0","84","84","0","84","84","84","84","Sat Sep  8 19:48:51 2018","600","The main experiment item","yes","Lab 1 PYSCH 5316.osexp","/Users/danieldalton/Desktop","no","mono","no","18","no","white","no","yes","768","legacy","4","79","/Users/danieldalton/Desktop/DD Subject 3.csv","legacy","Jazzy James","3.1.9","0","h","NA","h","NA","s","h","329","NA","8900","NA","203077","329","2","legacy","1024","2","48000","-16","experiment","HHHHH","3","odd","205094","352526","NA","287659","NA","358226","343624","NA","1995","359721","359265","1968","NA","359277","359389","359389","Flanker Task","82","45017","85","yes","1024"
"96.511627907","96.511627907","527.546511628","527.546511628","black","no","legacy","legacy","legacy","0","congruent","uniform","1","undefined","1","h","0","0","0","85","0","85","0","0","0","85","85","0","85","85","85","85","Sat Sep  8 19:48:51 2018","600","The main experiment item","yes","Lab 1 PYSCH 5316.osexp","/Users/danieldalton/Desktop","no","mono","no","18","no","white","no","yes","768","legacy","5","79","/Users/danieldalton/Desktop/DD Subject 3.csv","legacy","Jazzy James","3.1.9","0","h","NA","h","NA","s","h","352","NA","8900","NA","203077","352","2","legacy","1024","2","48000","-16","experiment","HHHHH","3","odd","205094","352526","NA","287659","NA","359735","343624","NA","1995","361252","360770","1968","NA","360782","360897","360897","Flanker Task","83","45369","86","yes","1024"
"95.4022988506","95.4022988506","526.16091954","526.16091954","black","no","legacy","legacy","legacy","0","conguent","uniform","0","undefined","0","s","0","0","0","86","0","86","0","0","0","86","86","0","86","86","86","86","Sat Sep  8 19:48:51 2018","600","The main experiment item","yes","Lab 1 PYSCH 5316.osexp","/Users/danieldalton/Desktop","no","mono","no","18","no","white","no","yes","768","legacy","6","79","/Users/danieldalton/Desktop/DD Subject 3.csv","legacy","Jazzy James","3.1.9","0","h","NA","h","NA","s","h","407","NA","8900","NA","203077","407","2","legacy","1024","2","48000","-16","experiment","SSSSS","3","odd","205094","352526","NA","287659","NA","361267","343624","NA","1995","362839","362305","1968","NA","362316","362430","362430","Flanker Task","83","45776","87","yes","1024"
"95.4545454545","95.4545454545","526.261363636","526.261363636","black","no","legacy","legacy","legacy","0","incongurent","uniform","1","undefined","1","h","0","0","0","87","0","87","0","0","0","87","87","0","87","87","87","87","Sat Sep  8 19:48:51 2018","600","The main experiment item","yes","Lab 1 PYSCH 5316.osexp","/Users/danieldalton/Desktop","no","mono","no","18","no","white","no","yes","768","legacy","7","79","/Users/danieldalton/Desktop/DD Subject 3.csv","legacy","Jazzy James","3.1.9","0","h","NA","h","NA","s","h","535","NA","8900","NA","203077","535","2","legacy","1024","2","48000","-16","experiment","SSHSS","3","odd","205094","352526","NA","362854","NA","363368","343624","NA","1995","365069","364403","1968","NA","364415","364530","364530","Flanker Task","84","46311","88","yes","1024"
"95.5056179775","95.5056179775","524.370786517","524.370786517","black","no","legacy","legacy","legacy","0","conguent","uniform","1","undefined","1","s","0","0","0","88","0","88","0","0","0","88","88","0","88","88","88","88","Sat Sep  8 19:48:51 2018","600","The main experiment item","yes","Lab 1 PYSCH 5316.osexp","/Users/danieldalton/Desktop","no","mono","no","18","no","white","no","yes","768","legacy","8","79","/Users/danieldalton/Desktop/DD Subject 3.csv","legacy","Jazzy James","3.1.9","0","s","NA","h","NA","s","s","358","NA","8900","NA","203077","358","2","legacy","1024","2","48000","-16","experiment","SSSSS","3","odd","205094","352526","NA","362854","NA","365083","343624","NA","1995","366602","366117","1968","NA","366128","366242","366242","Flanker Task","85","46669","89","yes","1024"
"95.5555555556","95.5555555556","524.311111111","524.311111111","black","no","legacy","legacy","legacy","0","conguent","uniform","1","undefined","1","s","0","0","0","89","0","89","0","0","0","89","89","0","89","89","89","89","Sat Sep  8 19:48:51 2018","600","The main experiment item","yes","Lab 1 PYSCH 5316.osexp","/Users/danieldalton/Desktop","no","mono","no","18","no","white","no","yes","768","legacy","9","79","/Users/danieldalton/Desktop/DD Subject 3.csv","legacy","Jazzy James","3.1.9","0","s","NA","h","NA","s","s","519","NA","8900","NA","203077","519","2","legacy","1024","2","48000","-16","experiment","SSSSS","3","odd","205094","352526","NA","362854","NA","366617","343624","NA","1995","368299","367653","1968","NA","367665","367776","367776","Flanker Task","86","47188","90","yes","1024"
"95.6043956044","95.6043956044","523.835164835","523.835164835","black","no","legacy","legacy","legacy","0","congruent","uniform","1","undefined","1","h","0","0","0","90","0","90","0","0","0","90","90","0","90","90","90","90","Sat Sep  8 19:48:51 2018","600","The main experiment item","yes","Lab 1 PYSCH 5316.osexp","/Users/danieldalton/Desktop","no","mono","no","18","no","white","no","yes","768","legacy","10","79","/Users/danieldalton/Desktop/DD Subject 3.csv","legacy","Jazzy James","3.1.9","0","h","NA","h","NA","s","h","481","NA","8900","NA","203077","481","2","legacy","1024","2","48000","-16","experiment","HHHHH","3","odd","205094","352526","NA","362854","NA","368313","343624","NA","1995","369962","369351","1968","NA","369363","369479","369479","Flanker Task","87","47669","91","yes","1024"
"95.652173913","95.652173913","522.510869565","522.510869565","black","no","legacy","legacy","legacy","0","incongurent","uniform","1","undefined","1","h","0","0","0","91","0","91","0","0","0","91","91","0","91","91","91","91","Sat Sep  8 19:48:51 2018","600","The main experiment item","yes","Lab 1 PYSCH 5316.osexp","/Users/danieldalton/Desktop","no","mono","no","18","no","white","no","yes","768","legacy","11","79","/Users/danieldalton/Desktop/DD Subject 3.csv","legacy","Jazzy James","3.1.9","0","h","NA","h","NA","s","h","402","NA","8900","NA","203077","402","2","legacy","1024","2","48000","-16","experiment","SSHSS","3","odd","205094","352526","NA","362854","NA","369977","343624","NA","1995","371541","371008","1968","NA","371019","371136","371136","Flanker Task","88","48071","92","yes","1024"
"95.6989247312","95.6989247312","522.086021505","522.086021505","black","no","legacy","legacy","legacy","0","incongruent","uniform","1","undefined","1","s","0","0","0","92","0","92","0","0","0","92","92","0","92","92","92","92","Sat Sep  8 19:48:51 2018","600","The main experiment item","yes","Lab 1 PYSCH 5316.osexp","/Users/danieldalton/Desktop","no","mono","no","18","no","white","no","yes","768","legacy","12","79","/Users/danieldalton/Desktop/DD Subject 3.csv","legacy","Jazzy James","3.1.9","0","s","NA","h","NA","s","s","483","NA","8900","NA","203077","483","2","legacy","1024","2","48000","-16","experiment","HHSHH","3","odd","205094","352526","NA","362854","NA","371555","343624","NA","1995","373204","372593","1968","NA","372604","372718","372718","Flanker Task","89","48554","93","yes","1024"
"95.7446808511","95.7446808511","526.670212766","526.670212766","black","no","legacy","legacy","legacy","0","conguent","uniform","1","undefined","1","s","0","0","0","93","0","93","0","0","0","93","93","0","93","93","93","93","Sat Sep  8 19:48:51 2018","600","The main experiment item","yes","Lab 1 PYSCH 5316.osexp","/Users/danieldalton/Desktop","no","mono","no","18","no","white","no","yes","768","legacy","13","79","/Users/danieldalton/Desktop/DD Subject 3.csv","legacy","Jazzy James","3.1.9","0","s","NA","h","NA","s","s","953","NA","8900","NA","203077","953","2","legacy","1024","2","48000","-16","experiment","SSSSS","3","odd","205094","352526","NA","362854","NA","373218","343624","NA","1995","375337","374252","1968","NA","374264","374382","374381","Flanker Task","90","49507","94","yes","1024"
"95.7894736842","95.7894736842","525.884210526","525.884210526","black","no","legacy","legacy","legacy","0","incongruent","uniform","1","undefined","1","s","0","0","0","94","0","94","0","0","0","94","94","0","94","94","94","94","Sat Sep  8 19:48:51 2018","600","The main experiment item","yes","Lab 1 PYSCH 5316.osexp","/Users/danieldalton/Desktop","no","mono","no","18","no","white","no","yes","768","legacy","14","79","/Users/danieldalton/Desktop/DD Subject 3.csv","legacy","Jazzy James","3.1.9","0","s","NA","h","NA","s","s","452","NA","8900","NA","203077","452","2","legacy","1024","2","48000","-16","experiment","HHSHH","3","odd","205094","352526","NA","362854","NA","375866","343624","NA","1995","377484","376900","1968","375352","376911","377028","377027","Flanker Task","91","49959","95","yes","1024"
"95.8333333333","95.8333333333","524.447916667","524.447916667","black","no","legacy","legacy","legacy","0","incongurent","uniform","1","undefined","1","h","0","0","0","95","0","95","0","0","0","95","95","0","95","95","95","95","Sat Sep  8 19:48:51 2018","600","The main experiment item","yes","Lab 1 PYSCH 5316.osexp","/Users/danieldalton/Desktop","no","mono","no","18","no","white","no","yes","768","legacy","15","79","/Users/danieldalton/Desktop/DD Subject 3.csv","legacy","Jazzy James","3.1.9","0","h","NA","h","NA","s","h","388","NA","8900","NA","203077","388","2","legacy","1024","2","48000","-16","experiment","SSHSS","3","odd","205094","352526","NA","362854","NA","377498","343624","NA","1995","379052","378535","1968","375352","378547","378661","378661","Flanker Task","92","50347","96","yes","1024"
"95.8762886598","95.8762886598","522.87628866","522.87628866","black","no","legacy","legacy","legacy","0","incongruent","uniform","1","undefined","1","s","0","0","0","96","0","96","0","0","0","96","96","0","96","96","96","96","Sat Sep  8 19:48:51 2018","600","The main experiment item","yes","Lab 1 PYSCH 5316.osexp","/Users/danieldalton/Desktop","no","mono","no","18","no","white","no","yes","768","legacy","16","79","/Users/danieldalton/Desktop/DD Subject 3.csv","legacy","Jazzy James","3.1.9","0","s","NA","h","NA","s","s","372","NA","8900","NA","203077","372","2","legacy","1024","2","48000","-16","experiment","HHSHH","3","odd","205094","352526","NA","362854","NA","379066","343624","NA","1995","380605","380101","1968","375352","380113","380230","380230","Flanker Task","93","50719","97","yes","1024"
"95.9183673469","95.9183673469","521","521","black","no","legacy","legacy","legacy","0","congruent","uniform","1","undefined","1","h","0","0","0","97","0","97","0","0","0","97","97","0","97","97","97","97","Sat Sep  8 19:48:51 2018","600","The main experiment item","yes","Lab 1 PYSCH 5316.osexp","/Users/danieldalton/Desktop","no","mono","no","18","no","white","no","yes","768","legacy","17","79","/Users/danieldalton/Desktop/DD Subject 3.csv","legacy","Jazzy James","3.1.9","0","h","NA","h","NA","s","h","339","NA","8900","NA","203077","339","2","legacy","1024","2","48000","-16","experiment","HHHHH","3","odd","205094","352526","NA","362854","NA","380619","343624","NA","1995","382120","381652","1968","375352","381664","381778","381778","Flanker Task","94","51058","98","yes","1024"
"95.9595959596","95.9595959596","520.464646465","520.464646465","black","no","legacy","legacy","legacy","0","congruent","uniform","1","undefined","1","h","0","0","0","98","0","98","0","0","0","98","98","0","98","98","98","98","Sat Sep  8 19:48:51 2018","600","The main experiment item","yes","Lab 1 PYSCH 5316.osexp","/Users/danieldalton/Desktop","no","mono","no","18","no","white","no","yes","768","legacy","18","79","/Users/danieldalton/Desktop/DD Subject 3.csv","legacy","Jazzy James","3.1.9","0","h","NA","h","NA","s","h","468","NA","8900","NA","203077","468","2","legacy","1024","2","48000","-16","experiment","HHHHH","3","odd","205094","352526","NA","362854","NA","382133","343624","NA","1995","383768","383168","1968","375352","383180","383296","383296","Flanker Task","95","51526","99","yes","1024"
"96","96","519.17","519.17","black","no","legacy","legacy","legacy","0","incongruent","uniform","1","undefined","1","s","0","0","0","99","0","99","0","0","0","99","99","0","99","99","99","99","Sat Sep  8 19:48:51 2018","600","The main experiment item","yes","Lab 1 PYSCH 5316.osexp","/Users/danieldalton/Desktop","no","mono","no","18","no","white","no","yes","768","legacy","19","79","/Users/danieldalton/Desktop/DD Subject 3.csv","legacy","Jazzy James","3.1.9","0","s","NA","h","NA","s","s","391","NA","8900","NA","203077","391","2","legacy","1024","2","48000","-16","experiment","HHSHH","3","odd","205094","352526","NA","362854","NA","383785","343624","NA","1995","385342","384821","1968","375352","384832","384947","384947","Flanker Task","96","51917","100","yes","1024"
"96.0396039604","96.0396039604","519.168316832","519.168316832","black","no","legacy","legacy","legacy","0","incongurent","uniform","1","undefined","1","h","0","0","0","100","0","100","0","0","0","100","100","0","100","100","100","100","Sat Sep  8 19:48:51 2018","600","The main experiment item","yes","Lab 1 PYSCH 5316.osexp","/Users/danieldalton/Desktop","no","mono","no","18","no","white","no","yes","768","legacy","20","79","/Users/danieldalton/Desktop/DD Subject 3.csv","legacy","Jazzy James","3.1.9","0","h","NA","h","NA","s","h","519","NA","8900","NA","203077","519","2","legacy","1024","2","48000","-16","experiment","SSHSS","3","odd","205094","352526","NA","362854","NA","385355","343624","NA","1995","387037","386387","1968","375352","386398","386515","386515","Flanker Task","97","52436","101","yes","1024"
"96.0784313725","96.0784313725","517.852941176","517.852941176","black","no","legacy","legacy","legacy","0","congruent","uniform","1","undefined","1","h","0","0","0","101","0","101","0","0","0","101","101","0","101","101","101","101","Sat Sep  8 19:48:51 2018","600","The main experiment item","yes","Lab 1 PYSCH 5316.osexp","/Users/danieldalton/Desktop","no","mono","no","18","no","white","no","yes","768","legacy","21","79","/Users/danieldalton/Desktop/DD Subject 3.csv","legacy","Jazzy James","3.1.9","0","h","NA","h","NA","s","h","385","NA","8900","NA","203077","385","2","legacy","1024","2","48000","-16","experiment","HHHHH","3","odd","205094","352526","NA","362854","NA","387051","343624","NA","1995","388604","388090","1968","375352","388101","388215","388215","Flanker Task","98","52821","102","yes","1024"
"96.1165048544","96.1165048544","517.058252427","517.058252427","black","no","legacy","legacy","legacy","0","incongruent","uniform","1","undefined","1","s","0","0","0","102","0","102","0","0","0","102","102","0","102","102","102","102","Sat Sep  8 19:48:51 2018","600","The main experiment item","yes","Lab 1 PYSCH 5316.osexp","/Users/danieldalton/Desktop","no","mono","no","18","no","white","no","yes","768","legacy","22","79","/Users/danieldalton/Desktop/DD Subject 3.csv","legacy","Jazzy James","3.1.9","0","s","NA","h","NA","s","s","436","NA","8900","NA","203077","436","2","legacy","1024","2","48000","-16","experiment","HHSHH","3","odd","205094","352526","NA","362854","NA","388623","343624","NA","1995","390219","389657","1968","375352","389668","389780","389779","Flanker Task","99","53257","103","yes","1024"
"95.1923076923","95.1923076923","515.201923077","515.201923077","black","no","legacy","legacy","legacy","0","conguent","uniform","0","undefined","0","s","0","0","0","103","0","103","0","0","0","103","103","0","103","103","103","103","Sat Sep  8 19:48:51 2018","600","The main experiment item","yes","Lab 1 PYSCH 5316.osexp","/Users/danieldalton/Desktop","no","mono","no","18","no","white","no","yes","768","legacy","23","79","/Users/danieldalton/Desktop/DD Subject 3.csv","legacy","Jazzy James","3.1.9","0","h","NA","h","NA","s","h","324","NA","8900","NA","203077","324","2","legacy","1024","2","48000","-16","experiment","SSSSS","3","odd","205094","352526","NA","362854","NA","390233","343624","NA","1995","391718","391267","1968","375352","391278","391390","391390","Flanker Task","99","53581","104","yes","1024"
"95.2380952381","95.2380952381","514.095238095","514.095238095","black","no","legacy","legacy","legacy","0","conguent","uniform","1","undefined","1","s","0","0","0","104","0","104","0","0","0","104","104","0","104","104","104","104","Sat Sep  8 19:48:51 2018","600","The main experiment item","yes","Lab 1 PYSCH 5316.osexp","/Users/danieldalton/Desktop","no","mono","no","18","no","white","no","yes","768","legacy","24","79","/Users/danieldalton/Desktop/DD Subject 3.csv","legacy","Jazzy James","3.1.9","0","s","NA","h","NA","s","s","399","NA","8900","NA","203077","399","2","legacy","1024","2","48000","-16","experiment","SSSSS","3","odd","205094","352526","NA","391732","NA","392246","343624","NA","1995","393815","393280","1968","375352","393292","393411","393411","Flanker Task","100","53980","105","yes","1024"
"95.2830188679","95.2830188679","515.066037736","515.066037736","black","no","legacy","legacy","legacy","0","congruent","uniform","1","undefined","1","h","0","0","0","105","0","105","0","0","0","105","105","0","105","105","105","105","Sat Sep  8 19:48:51 2018","600","The main experiment item","yes","Lab 1 PYSCH 5316.osexp","/Users/danieldalton/Desktop","no","mono","no","18","no","white","no","yes","768","legacy","25","79","/Users/danieldalton/Desktop/DD Subject 3.csv","legacy","Jazzy James","3.1.9","0","h","NA","h","NA","s","h","617","NA","8900","NA","203077","617","2","legacy","1024","2","48000","-16","experiment","HHHHH","3","odd","205094","352526","NA","391732","NA","393831","343624","NA","1995","395616","394865","1968","375352","394877","394993","394993","Flanker Task","101","54597","106","yes","1024"
"95.3271028037","95.3271028037","513.495327103","513.495327103","black","no","legacy","legacy","legacy","0","congruent","uniform","1","undefined","1","h","0","0","0","106","0","106","0","0","0","106","106","0","106","106","106","106","Sat Sep  8 19:48:51 2018","600","The main experiment item","yes","Lab 1 PYSCH 5316.osexp","/Users/danieldalton/Desktop","no","mono","no","18","no","white","no","yes","768","legacy","26","79","/Users/danieldalton/Desktop/DD Subject 3.csv","legacy","Jazzy James","3.1.9","0","h","NA","h","NA","s","h","347","NA","8900","NA","203077","347","2","legacy","1024","2","48000","-16","experiment","HHHHH","3","odd","205094","352526","NA","391732","NA","396151","343624","NA","1995","397665","397186","1968","395631","397198","397315","397315","Flanker Task","102","54944","107","yes","1024"
"95.3703703704","95.3703703704","511.592592593","511.592592593","black","no","legacy","legacy","legacy","0","incongurent","uniform","1","undefined","1","h","0","0","0","107","0","107","0","0","0","107","107","0","107","107","107","107","Sat Sep  8 19:48:51 2018","600","The main experiment item","yes","Lab 1 PYSCH 5316.osexp","/Users/danieldalton/Desktop","no","mono","no","18","no","white","no","yes","768","legacy","27","79","/Users/danieldalton/Desktop/DD Subject 3.csv","legacy","Jazzy James","3.1.9","0","h","NA","h","NA","s","h","308","NA","8900","NA","203077","308","2","legacy","1024","2","48000","-16","experiment","SSHSS","3","odd","205094","352526","NA","391732","NA","397679","343624","NA","1995","399151","398714","1968","395631","398725","398840","398840","Flanker Task","103","55252","108","yes","1024"
"95.4128440367","95.4128440367","510.229357798","510.229357798","black","no","legacy","legacy","legacy","0","incongurent","uniform","1","undefined","1","h","0","0","0","108","0","108","0","0","0","108","108","0","108","108","108","108","Sat Sep  8 19:48:51 2018","600","The main experiment item","yes","Lab 1 PYSCH 5316.osexp","/Users/danieldalton/Desktop","no","mono","no","18","no","white","no","yes","768","legacy","28","79","/Users/danieldalton/Desktop/DD Subject 3.csv","legacy","Jazzy James","3.1.9","0","h","NA","h","NA","s","h","363","NA","8900","NA","203077","363","2","legacy","1024","2","48000","-16","experiment","SSHSS","3","odd","205094","352526","NA","391732","NA","399166","343624","NA","1995","400691","400199","1968","395631","400210","400324","400324","Flanker Task","104","55615","109","yes","1024"
"95.4545454545","95.4545454545","508.645454545","508.645454545","black","no","legacy","legacy","legacy","0","congruent","uniform","1","undefined","1","h","0","0","0","109","0","109","0","0","0","109","109","0","109","109","109","109","Sat Sep  8 19:48:51 2018","600","The main experiment item","yes","Lab 1 PYSCH 5316.osexp","/Users/danieldalton/Desktop","no","mono","no","18","no","white","no","yes","768","legacy","29","79","/Users/danieldalton/Desktop/DD Subject 3.csv","legacy","Jazzy James","3.1.9","0","h","NA","h","NA","s","h","336","NA","8900","NA","203077","336","2","legacy","1024","2","48000","-16","experiment","HHHHH","3","odd","205094","352526","NA","391732","NA","400705","343624","NA","1995","402204","401738","1968","395631","401749","401865","401865","Flanker Task","105","55951","110","yes","1024"
"95.4954954955","95.4954954955","507.468468468","507.468468468","black","no","legacy","legacy","legacy","0","incongruent","uniform","1","undefined","1","s","0","0","0","110","0","110","0","0","0","110","110","0","110","110","110","110","Sat Sep  8 19:48:51 2018","600","The main experiment item","yes","Lab 1 PYSCH 5316.osexp","/Users/danieldalton/Desktop","no","mono","no","18","no","white","no","yes","768","legacy","30","79","/Users/danieldalton/Desktop/DD Subject 3.csv","legacy","Jazzy James","3.1.9","0","s","NA","h","NA","s","s","378","NA","8900","NA","203077","378","2","legacy","1024","2","48000","-16","experiment","HHSHH","3","odd","205094","352526","NA","391732","NA","402218","343624","NA","1995","403761","403252","1968","395631","403264","403379","403379","Flanker Task","106","56329","111","yes","1024"
"94.6428571429","94.6428571429","505.919642857","505.919642857","black","no","legacy","legacy","legacy","0","incongruent","uniform","0","undefined","0","s","0","0","0","111","0","111","0","0","0","111","111","0","111","111","111","111","Sat Sep  8 19:48:51 2018","600","The main experiment item","yes","Lab 1 PYSCH 5316.osexp","/Users/danieldalton/Desktop","no","mono","no","18","no","white","no","yes","768","legacy","31","79","/Users/danieldalton/Desktop/DD Subject 3.csv","legacy","Jazzy James","3.1.9","0","h","NA","h","NA","s","h","334","NA","8900","NA","203077","334","2","legacy","1024","2","48000","-16","experiment","HHSHH","3","odd","205094","352526","NA","391732","NA","403774","343624","NA","1995","405273","404810","1968","395631","404821","404936","404935","Flanker Task","106","56663","112","yes","1024"
"94.6902654867","94.6902654867","505.371681416","505.371681416","black","no","legacy","legacy","legacy","0","conguent","uniform","1","undefined","1","s","0","0","0","112","0","112","0","0","0","112","112","0","112","112","112","112","Sat Sep  8 19:48:51 2018","600","The main experiment item","yes","Lab 1 PYSCH 5316.osexp","/Users/danieldalton/Desktop","no","mono","no","18","no","white","no","yes","768","legacy","32","79","/Users/danieldalton/Desktop/DD Subject 3.csv","legacy","Jazzy James","3.1.9","0","s","NA","h","NA","s","s","444","NA","8900","NA","203077","444","2","legacy","1024","2","48000","-16","experiment","SSSSS","3","odd","205094","352526","NA","405287","NA","405800","343624","NA","1995","407406","406833","1968","395631","406844","406959","406959","Flanker Task","107","57107","113","yes","1024"
"94.7368421053","94.7368421053","504.00877193","504.00877193","black","no","legacy","legacy","legacy","0","conguent","uniform","1","undefined","1","s","0","0","0","113","0","113","0","0","0","113","113","0","113","113","113","113","Sat Sep  8 19:48:51 2018","600","The main experiment item","yes","Lab 1 PYSCH 5316.osexp","/Users/danieldalton/Desktop","no","mono","no","18","no","white","no","yes","768","legacy","33","79","/Users/danieldalton/Desktop/DD Subject 3.csv","legacy","Jazzy James","3.1.9","0","s","NA","h","NA","s","s","350","NA","8900","NA","203077","350","2","legacy","1024","2","48000","-16","experiment","SSSSS","3","odd","205094","352526","NA","405287","NA","407420","343624","NA","1995","408936","408452","1968","395631","408464","408582","408582","Flanker Task","108","57457","114","yes","1024"
"94.7826086957","94.7826086957","503.643478261","503.643478261","black","no","legacy","legacy","legacy","0","incongurent","uniform","1","undefined","1","h","0","0","0","114","0","114","0","0","0","114","114","0","114","114","114","114","Sat Sep  8 19:48:51 2018","600","The main experiment item","yes","Lab 1 PYSCH 5316.osexp","/Users/danieldalton/Desktop","no","mono","no","18","no","white","no","yes","768","legacy","34","79","/Users/danieldalton/Desktop/DD Subject 3.csv","legacy","Jazzy James","3.1.9","0","h","NA","h","NA","s","h","462","NA","8900","NA","203077","462","2","legacy","1024","2","48000","-16","experiment","SSHSS","3","odd","205094","352526","NA","405287","NA","408950","343624","NA","1995","410581","409993","1968","395631","410004","410116","410115","Flanker Task","109","57919","115","yes","1024"
"94.8275862069","94.8275862069","503.284482759","503.284482759","black","no","legacy","legacy","legacy","0","incongurent","uniform","1","undefined","1","h","0","0","0","115","0","115","0","0","0","115","115","0","115","115","115","115","Sat Sep  8 19:48:51 2018","600","The main experiment item","yes","Lab 1 PYSCH 5316.osexp","/Users/danieldalton/Desktop","no","mono","no","18","no","white","no","yes","768","legacy","35","79","/Users/danieldalton/Desktop/DD Subject 3.csv","legacy","Jazzy James","3.1.9","0","h","NA","h","NA","s","h","462","NA","8900","NA","203077","462","2","legacy","1024","2","48000","-16","experiment","SSHSS","3","odd","205094","352526","NA","405287","NA","410595","343624","NA","1995","412220","411628","1968","395631","411639","411755","411755","Flanker Task","110","58381","116","yes","1024"
"94.8717948718","94.8717948718","503.034188034","503.034188034","black","no","legacy","legacy","legacy","0","incongruent","uniform","1","undefined","1","s","0","0","0","116","0","116","0","0","0","116","116","0","116","116","116","116","Sat Sep  8 19:48:51 2018","600","The main experiment item","yes","Lab 1 PYSCH 5316.osexp","/Users/danieldalton/Desktop","no","mono","no","18","no","white","no","yes","768","legacy","36","79","/Users/danieldalton/Desktop/DD Subject 3.csv","legacy","Jazzy James","3.1.9","0","s","NA","h","NA","s","s","474","NA","8900","NA","203077","474","2","legacy","1024","2","48000","-16","experiment","HHSHH","3","odd","205094","352526","NA","405287","NA","412234","343624","NA","1995","413873","413270","1968","395631","413281","413396","413396","Flanker Task","111","58855","117","yes","1024"
"94.9152542373","94.9152542373","502.008474576","502.008474576","black","no","legacy","legacy","legacy","0","congruent","uniform","1","undefined","1","h","0","0","0","117","0","117","0","0","0","117","117","0","117","117","117","117","Sat Sep  8 19:48:51 2018","600","The main experiment item","yes","Lab 1 PYSCH 5316.osexp","/Users/danieldalton/Desktop","no","mono","no","18","no","white","no","yes","768","legacy","37","79","/Users/danieldalton/Desktop/DD Subject 3.csv","legacy","Jazzy James","3.1.9","0","h","NA","h","NA","s","h","382","NA","8900","NA","203077","382","2","legacy","1024","2","48000","-16","experiment","HHHHH","3","odd","205094","352526","NA","405287","NA","413887","343624","NA","1995","415435","414920","1968","395631","414931","415050","415050","Flanker Task","112","59237","118","yes","1024"
"94.9579831933","94.9579831933","501.613445378","501.613445378","black","no","legacy","legacy","legacy","0","incongruent","uniform","1","undefined","1","s","0","0","0","118","0","118","0","0","0","118","118","0","118","118","118","118","Sat Sep  8 19:48:51 2018","600","The main experiment item","yes","Lab 1 PYSCH 5316.osexp","/Users/danieldalton/Desktop","no","mono","no","18","no","white","no","yes","768","legacy","38","79","/Users/danieldalton/Desktop/DD Subject 3.csv","legacy","Jazzy James","3.1.9","0","s","NA","h","NA","s","s","455","NA","8900","NA","203077","455","2","legacy","1024","2","48000","-16","experiment","HHSHH","3","odd","205094","352526","NA","405287","NA","415449","343624","NA","1995","417068","416483","1968","395631","416494","416610","416610","Flanker Task","113","59692","119","yes","1024"
"95","95","500.175","500.175","black","no","legacy","legacy","legacy","0","congruent","uniform","1","undefined","1","h","0","0","0","119","0","119","0","0","0","119","119","0","119","119","119","119","Sat Sep  8 19:48:51 2018","600","The main experiment item","yes","Lab 1 PYSCH 5316.osexp","/Users/danieldalton/Desktop","no","mono","no","18","no","white","no","yes","768","legacy","39","79","/Users/danieldalton/Desktop/DD Subject 3.csv","legacy","Jazzy James","3.1.9","0","h","NA","h","NA","s","h","329","NA","8900","NA","203077","329","2","legacy","1024","2","48000","-16","experiment","HHHHH","3","odd","205094","352526","NA","405287","NA","417082","343624","NA","1995","418576","418115","1968","395631","418126","418244","418244","Flanker Task","114","60021","120","yes","1024"
"94.2148760331","94.2148760331","498.636363636","498.636363636","black","no","legacy","legacy","legacy","0","incongurent","uniform","0","undefined","0","h","0","0","0","120","0","120","0","0","0","120","120","0","120","120","120","120","Sat Sep  8 19:48:51 2018","600","The main experiment item","yes","Lab 1 PYSCH 5316.osexp","/Users/danieldalton/Desktop","no","mono","no","18","no","white","no","yes","768","legacy","40","79","/Users/danieldalton/Desktop/DD Subject 3.csv","legacy","Jazzy James","3.1.9","0","s","NA","h","NA","s","s","314","NA","8900","NA","203077","314","2","legacy","1024","2","48000","-16","experiment","SSHSS","3","odd","205094","352526","NA","405287","NA","418590","343624","NA","1995","420077","419629","1968","395631","419640","419759","419759","Flanker Task","114","60335","121","yes","1024"
"94.262295082","94.262295082","500.795081967","500.795081967","black","no","legacy","legacy","legacy","0","conguent","uniform","1","undefined","1","s","0","0","0","121","0","121","0","0","0","121","121","0","121","121","121","121","Sat Sep  8 19:48:51 2018","600","The main experiment item","yes","Lab 1 PYSCH 5316.osexp","/Users/danieldalton/Desktop","no","mono","no","18","no","white","no","yes","768","legacy","41","79","/Users/danieldalton/Desktop/DD Subject 3.csv","legacy","Jazzy James","3.1.9","0","s","NA","h","NA","s","s","762","NA","8900","NA","203077","762","2","legacy","1024","2","48000","-16","experiment","SSSSS","3","odd","205094","352526","NA","420090","NA","420603","343624","NA","1995","422530","421636","1968","395631","421647","421765","421765","Flanker Task","115","61097","122","yes","1024"
"94.3089430894","94.3089430894","499.495934959","499.495934959","black","no","legacy","legacy","legacy","0","incongruent","uniform","1","undefined","1","s","0","0","0","122","0","122","0","0","0","122","122","0","122","122","122","122","Sat Sep  8 19:48:51 2018","600","The main experiment item","yes","Lab 1 PYSCH 5316.osexp","/Users/danieldalton/Desktop","no","mono","no","18","no","white","no","yes","768","legacy","42","79","/Users/danieldalton/Desktop/DD Subject 3.csv","legacy","Jazzy James","3.1.9","0","s","NA","h","NA","s","s","341","NA","8900","NA","203077","341","2","legacy","1024","2","48000","-16","experiment","HHSHH","3","odd","205094","352526","NA","420090","NA","423057","343624","NA","1995","424557","424091","1968","422544","424102","424213","424213","Flanker Task","116","61438","123","yes","1024"
"94.3548387097","94.3548387097","498.282258065","498.282258065","black","no","legacy","legacy","legacy","0","congruent","uniform","1","undefined","1","h","0","0","0","123","0","123","0","0","0","123","123","0","123","123","123","123","Sat Sep  8 19:48:51 2018","600","The main experiment item","yes","Lab 1 PYSCH 5316.osexp","/Users/danieldalton/Desktop","no","mono","no","18","no","white","no","yes","768","legacy","43","79","/Users/danieldalton/Desktop/DD Subject 3.csv","legacy","Jazzy James","3.1.9","0","h","NA","h","NA","s","h","349","NA","8900","NA","203077","349","2","legacy","1024","2","48000","-16","experiment","HHHHH","3","odd","205094","352526","NA","420090","NA","424571","343624","NA","1995","426082","425604","1968","422544","425616","425730","425730","Flanker Task","117","61787","124","yes","1024"
