"acc","accuracy","average_response_time","avg_rt","background","canvas_backend","clock_backend","color_backend","compensation","condition","coordinates","correct","correct_instructions1","correct_keyboard_response","correct_response","count_Block1","count_Block2","count_Block3","count_ISI","count_Instructions3","count_error_feedback","count_experiment","count_faster","count_finish","count_fixation","count_instructions1","count_instructions2","count_keyboard_response","count_logger","count_sequence","count_stimulus","datetime","deadline","description","disable_garbage_collection","experiment_file","experiment_path","font_bold","font_family","font_italic","font_size","font_underline","foreground","form_clicks","fullscreen","height","keyboard_backend","live_row","live_row_Block1","logfile","mouse_backend","opensesame_codename","opensesame_version","repeat_cycle","response","response_Instructions3","response_finish","response_instructions1","response_instructions2","response_keyboard_response","response_time","response_time_Instructions3","response_time_finish","response_time_instructions1","response_time_instructions2","response_time_keyboard_response","round_decimals","sampler_backend","sound_buf_size","sound_channels","sound_freq","sound_sample_size","start","stimulus","subject_nr","subject_parity","time_Block1","time_Block2","time_Block3","time_ISI","time_Instructions3","time_error_feedback","time_experiment","time_faster","time_finish","time_fixation","time_instructions1","time_instructions2","time_keyboard_response","time_logger","time_sequence","time_stimulus","title","total_correct","total_response_time","total_responses","uniform_coordinates","width"
"100","100","1117","1117","black","legacy","legacy","legacy","0","Incongruent","uniform","1","undefined","1","h","0","0","0","0","0","0","0","0","0","0","0","0","0","0","0","0","09/06/18 20:12:06","1500","The main experiment item","yes","Flankertask.osexp","C:/Users/Brad/OneDrive/Desktop/Tarleton school stuff/Fall 2018/Advanced Quantitative Methods","no","mono","no","18","no","white","no","yes","768","legacy","0","0","C:/Users/Brad/OneDrive/Desktop/Tarleton school stuff/Fall 2018/Advanced Quantitative Methods/bh-subject-3.csv","legacy","Kafkaesque Koffka","3.2.5","0","h","NA","NA","s","NA","h","1117","NA","NA","47928","NA","1117","2","legacy","1024","2","48000","-16","experiment","SSHSS","3","odd","52448","NA","NA","NA","NA","NA","4513","NA","NA","52590","4519","NA","52692","53810","52587","52691","Flanker task","1","1117","1","yes","1024"
"100","100","955","955","black","legacy","legacy","legacy","0","Incongruent","uniform","1","undefined","1","s","0","0","0","1","0","1","0","1","0","1","0","0","1","1","1","1","09/06/18 20:12:06","1500","The main experiment item","yes","Flankertask.osexp","C:/Users/Brad/OneDrive/Desktop/Tarleton school stuff/Fall 2018/Advanced Quantitative Methods","no","mono","no","18","no","white","no","yes","768","legacy","1","1","C:/Users/Brad/OneDrive/Desktop/Tarleton school stuff/Fall 2018/Advanced Quantitative Methods/bh-subject-3.csv","legacy","Kafkaesque Koffka","3.2.5","0","s","NA","NA","s","NA","s","793","NA","NA","47928","NA","793","2","legacy","1024","2","48000","-16","experiment","HHSHH","3","odd","52448","NA","NA","53828","NA","NA","4513","NA","NA","54894","4519","NA","54995","55788","54891","54995","Flanker task","2","1910","2","yes","1024"
"100","100","901.333333333","901.333333333","black","legacy","legacy","legacy","0","Incongruent","uniform","1","undefined","1","h","0","0","0","2","0","2","0","2","0","2","0","0","2","2","2","2","09/06/18 20:12:06","1500","The main experiment item","yes","Flankertask.osexp","C:/Users/Brad/OneDrive/Desktop/Tarleton school stuff/Fall 2018/Advanced Quantitative Methods","no","mono","no","18","no","white","no","yes","768","legacy","2","2","C:/Users/Brad/OneDrive/Desktop/Tarleton school stuff/Fall 2018/Advanced Quantitative Methods/bh-subject-3.csv","legacy","Kafkaesque Koffka","3.2.5","0","h","NA","NA","s","NA","h","794","NA","NA","47928","NA","794","2","legacy","1024","2","48000","-16","experiment","SSHSS","3","odd","52448","NA","NA","55800","NA","NA","4513","NA","NA","56868","4519","NA","56969","57764","56865","56969","Flanker task","3","2704","3","yes","1024"
"100","100","900.75","900.75","black","legacy","legacy","legacy","0","Congruent","uniform","1","undefined","1","h","0","0","0","3","0","3","0","3","0","3","0","0","3","3","3","3","09/06/18 20:12:06","1500","The main experiment item","yes","Flankertask.osexp","C:/Users/Brad/OneDrive/Desktop/Tarleton school stuff/Fall 2018/Advanced Quantitative Methods","no","mono","no","18","no","white","no","yes","768","legacy","3","3","C:/Users/Brad/OneDrive/Desktop/Tarleton school stuff/Fall 2018/Advanced Quantitative Methods/bh-subject-3.csv","legacy","Kafkaesque Koffka","3.2.5","0","h","NA","NA","s","NA","h","899","NA","NA","47928","NA","899","2","legacy","1024","2","48000","-16","experiment","HHHHH","3","odd","52448","NA","NA","57775","NA","NA","4513","NA","NA","58841","4519","NA","58942","59841","58838","58942","Flanker task","4","3603","4","yes","1024"
"100","100","840.4","840.4","black","legacy","legacy","legacy","0","Congruent","uniform","1","undefined","1","h","0","0","0","4","0","4","0","4","0","4","0","0","4","4","4","4","09/06/18 20:12:06","1500","The main experiment item","yes","Flankertask.osexp","C:/Users/Brad/OneDrive/Desktop/Tarleton school stuff/Fall 2018/Advanced Quantitative Methods","no","mono","no","18","no","white","no","yes","768","legacy","4","4","C:/Users/Brad/OneDrive/Desktop/Tarleton school stuff/Fall 2018/Advanced Quantitative Methods/bh-subject-3.csv","legacy","Kafkaesque Koffka","3.2.5","0","h","NA","NA","s","NA","h","599","NA","NA","47928","NA","599","2","legacy","1024","2","48000","-16","experiment","HHHHH","3","odd","52448","NA","NA","59855","NA","NA","4513","NA","NA","60920","4519","NA","61021","61620","60917","61021","Flanker task","5","4202","5","yes","1024"
"100","100","829.833333333","829.833333333","black","legacy","legacy","legacy","0","Incongruent","uniform","1","undefined","1","h","0","0","0","5","0","5","0","5","0","5","0","0","5","5","5","5","09/06/18 20:12:06","1500","The main experiment item","yes","Flankertask.osexp","C:/Users/Brad/OneDrive/Desktop/Tarleton school stuff/Fall 2018/Advanced Quantitative Methods","no","mono","no","18","no","white","no","yes","768","legacy","5","5","C:/Users/Brad/OneDrive/Desktop/Tarleton school stuff/Fall 2018/Advanced Quantitative Methods/bh-subject-3.csv","legacy","Kafkaesque Koffka","3.2.5","0","h","NA","NA","s","NA","h","777","NA","NA","47928","NA","777","2","legacy","1024","2","48000","-16","experiment","SSHSS","3","odd","52448","NA","NA","61631","NA","NA","4513","NA","NA","62698","4519","NA","62799","63577","62695","62799","Flanker task","6","4979","6","yes","1024"
"100","100","807.285714286","807.285714286","black","legacy","legacy","legacy","0","Congruent","uniform","1","undefined","1","h","0","0","0","6","0","6","0","6","0","6","0","0","6","6","6","6","09/06/18 20:12:06","1500","The main experiment item","yes","Flankertask.osexp","C:/Users/Brad/OneDrive/Desktop/Tarleton school stuff/Fall 2018/Advanced Quantitative Methods","no","mono","no","18","no","white","no","yes","768","legacy","6","6","C:/Users/Brad/OneDrive/Desktop/Tarleton school stuff/Fall 2018/Advanced Quantitative Methods/bh-subject-3.csv","legacy","Kafkaesque Koffka","3.2.5","0","h","NA","NA","s","NA","h","672","NA","NA","47928","NA","672","2","legacy","1024","2","48000","-16","experiment","HHHHH","3","odd","52448","NA","NA","63588","NA","NA","4513","NA","NA","64654","4519","NA","64755","65428","64651","64755","Flanker task","7","5651","7","yes","1024"
"100","100","772.375","772.375","black","legacy","legacy","legacy","0","Congruent","uniform","1","undefined","1","h","0","0","0","7","0","7","0","7","0","7","0","0","7","7","7","7","09/06/18 20:12:06","1500","The main experiment item","yes","Flankertask.osexp","C:/Users/Brad/OneDrive/Desktop/Tarleton school stuff/Fall 2018/Advanced Quantitative Methods","no","mono","no","18","no","white","no","yes","768","legacy","7","7","C:/Users/Brad/OneDrive/Desktop/Tarleton school stuff/Fall 2018/Advanced Quantitative Methods/bh-subject-3.csv","legacy","Kafkaesque Koffka","3.2.5","0","h","NA","NA","s","NA","h","528","NA","NA","47928","NA","528","2","legacy","1024","2","48000","-16","experiment","HHHHH","3","odd","52448","NA","NA","65439","NA","NA","4513","NA","NA","66507","4519","NA","66608","67136","66505","66608","Flanker task","8","6179","8","yes","1024"
"100","100","755.666666667","755.666666667","black","legacy","legacy","legacy","0","Congruent","uniform","1","undefined","1","s","0","0","0","8","0","8","0","8","0","8","0","0","8","8","8","8","09/06/18 20:12:06","1500","The main experiment item","yes","Flankertask.osexp","C:/Users/Brad/OneDrive/Desktop/Tarleton school stuff/Fall 2018/Advanced Quantitative Methods","no","mono","no","18","no","white","no","yes","768","legacy","8","8","C:/Users/Brad/OneDrive/Desktop/Tarleton school stuff/Fall 2018/Advanced Quantitative Methods/bh-subject-3.csv","legacy","Kafkaesque Koffka","3.2.5","0","s","NA","NA","s","NA","s","622","NA","NA","47928","NA","622","2","legacy","1024","2","48000","-16","experiment","SSSSS","3","odd","52448","NA","NA","67147","NA","NA","4513","NA","NA","68225","4519","NA","68327","68950","68222","68327","Flanker task","9","6801","9","yes","1024"
"100","100","764.1","764.1","black","legacy","legacy","legacy","0","Incongruent","uniform","1","undefined","1","s","0","0","0","9","0","9","0","9","0","9","0","0","9","9","9","9","09/06/18 20:12:06","1500","The main experiment item","yes","Flankertask.osexp","C:/Users/Brad/OneDrive/Desktop/Tarleton school stuff/Fall 2018/Advanced Quantitative Methods","no","mono","no","18","no","white","no","yes","768","legacy","9","9","C:/Users/Brad/OneDrive/Desktop/Tarleton school stuff/Fall 2018/Advanced Quantitative Methods/bh-subject-3.csv","legacy","Kafkaesque Koffka","3.2.5","0","s","NA","NA","s","NA","s","840","NA","NA","47928","NA","840","2","legacy","1024","2","48000","-16","experiment","HHSHH","3","odd","52448","NA","NA","68954","NA","NA","4513","NA","NA","70022","4519","NA","70124","70965","70019","70124","Flanker task","10","7641","10","yes","1024"
"100","100","741.545454545","741.545454545","black","legacy","legacy","legacy","0","Congruent","uniform","1","undefined","1","s","0","0","0","10","0","10","0","10","0","10","0","0","10","10","10","10","09/06/18 20:12:06","1500","The main experiment item","yes","Flankertask.osexp","C:/Users/Brad/OneDrive/Desktop/Tarleton school stuff/Fall 2018/Advanced Quantitative Methods","no","mono","no","18","no","white","no","yes","768","legacy","10","10","C:/Users/Brad/OneDrive/Desktop/Tarleton school stuff/Fall 2018/Advanced Quantitative Methods/bh-subject-3.csv","legacy","Kafkaesque Koffka","3.2.5","0","s","NA","NA","s","NA","s","516","NA","NA","47928","NA","516","2","legacy","1024","2","48000","-16","experiment","SSSSS","3","odd","52448","NA","NA","70969","NA","NA","4513","NA","NA","72034","4519","NA","72135","72652","72032","72135","Flanker task","11","8157","11","yes","1024"
"100","100","737.333333333","737.333333333","black","legacy","legacy","legacy","0","Incongruent","uniform","1","undefined","1","h","0","0","0","11","0","11","0","11","0","11","0","0","11","11","11","11","09/06/18 20:12:06","1500","The main experiment item","yes","Flankertask.osexp","C:/Users/Brad/OneDrive/Desktop/Tarleton school stuff/Fall 2018/Advanced Quantitative Methods","no","mono","no","18","no","white","no","yes","768","legacy","11","11","C:/Users/Brad/OneDrive/Desktop/Tarleton school stuff/Fall 2018/Advanced Quantitative Methods/bh-subject-3.csv","legacy","Kafkaesque Koffka","3.2.5","0","h","NA","NA","s","NA","h","691","NA","NA","47928","NA","691","2","legacy","1024","2","48000","-16","experiment","SSHSS","3","odd","52448","NA","NA","72663","NA","NA","4513","NA","NA","73735","4519","NA","73837","74528","73732","73837","Flanker task","12","8848","12","yes","1024"
"100","100","751.769230769","751.769230769","black","legacy","legacy","legacy","0","Incongruent","uniform","1","undefined","1","s","0","0","0","12","0","12","0","12","0","12","0","0","12","12","12","12","09/06/18 20:12:06","1500","The main experiment item","yes","Flankertask.osexp","C:/Users/Brad/OneDrive/Desktop/Tarleton school stuff/Fall 2018/Advanced Quantitative Methods","no","mono","no","18","no","white","no","yes","768","legacy","12","12","C:/Users/Brad/OneDrive/Desktop/Tarleton school stuff/Fall 2018/Advanced Quantitative Methods/bh-subject-3.csv","legacy","Kafkaesque Koffka","3.2.5","0","s","NA","NA","s","NA","s","925","NA","NA","47928","NA","925","2","legacy","1024","2","48000","-16","experiment","HHSHH","3","odd","52448","NA","NA","74539","NA","NA","4513","NA","NA","75606","4519","NA","75707","76632","75603","75707","Flanker task","13","9773","13","yes","1024"
"100","100","734.428571429","734.428571429","black","legacy","legacy","legacy","0","Congruent","uniform","1","undefined","1","h","0","0","0","13","0","13","0","13","0","13","0","0","13","13","13","13","09/06/18 20:12:06","1500","The main experiment item","yes","Flankertask.osexp","C:/Users/Brad/OneDrive/Desktop/Tarleton school stuff/Fall 2018/Advanced Quantitative Methods","no","mono","no","18","no","white","no","yes","768","legacy","13","13","C:/Users/Brad/OneDrive/Desktop/Tarleton school stuff/Fall 2018/Advanced Quantitative Methods/bh-subject-3.csv","legacy","Kafkaesque Koffka","3.2.5","0","h","NA","NA","s","NA","h","509","NA","NA","47928","NA","509","2","legacy","1024","2","48000","-16","experiment","HHHHH","3","odd","52448","NA","NA","76643","NA","NA","4513","NA","NA","77710","4519","NA","77812","78321","77707","77811","Flanker task","14","10282","14","yes","1024"
"100","100","727.6","727.6","black","legacy","legacy","legacy","0","Incongruent","uniform","1","undefined","1","h","0","0","0","14","0","14","0","14","0","14","0","0","14","14","14","14","09/06/18 20:12:06","1500","The main experiment item","yes","Flankertask.osexp","C:/Users/Brad/OneDrive/Desktop/Tarleton school stuff/Fall 2018/Advanced Quantitative Methods","no","mono","no","18","no","white","no","yes","768","legacy","14","14","C:/Users/Brad/OneDrive/Desktop/Tarleton school stuff/Fall 2018/Advanced Quantitative Methods/bh-subject-3.csv","legacy","Kafkaesque Koffka","3.2.5","0","h","NA","NA","s","NA","h","632","NA","NA","47928","NA","632","2","legacy","1024","2","48000","-16","experiment","SSHSS","3","odd","52448","NA","NA","78332","NA","NA","4513","NA","NA","79398","4519","NA","79499","80132","79395","79499","Flanker task","15","10914","15","yes","1024"
"100","100","720.375","720.375","black","legacy","legacy","legacy","0","Congruent","uniform","1","undefined","1","s","0","0","0","15","0","15","0","15","0","15","0","0","15","15","15","15","09/06/18 20:12:06","1500","The main experiment item","yes","Flankertask.osexp","C:/Users/Brad/OneDrive/Desktop/Tarleton school stuff/Fall 2018/Advanced Quantitative Methods","no","mono","no","18","no","white","no","yes","768","legacy","15","15","C:/Users/Brad/OneDrive/Desktop/Tarleton school stuff/Fall 2018/Advanced Quantitative Methods/bh-subject-3.csv","legacy","Kafkaesque Koffka","3.2.5","0","s","NA","NA","s","NA","s","612","NA","NA","47928","NA","612","2","legacy","1024","2","48000","-16","experiment","SSSSS","3","odd","52448","NA","NA","80143","NA","NA","4513","NA","NA","81209","4519","NA","81310","81922","81206","81310","Flanker task","16","11526","16","yes","1024"
"100","100","711.764705882","711.764705882","black","legacy","legacy","legacy","0","Congruent","uniform","1","undefined","1","s","0","0","0","16","0","16","0","16","0","16","0","0","16","16","16","16","09/06/18 20:12:06","1500","The main experiment item","yes","Flankertask.osexp","C:/Users/Brad/OneDrive/Desktop/Tarleton school stuff/Fall 2018/Advanced Quantitative Methods","no","mono","no","18","no","white","no","yes","768","legacy","16","16","C:/Users/Brad/OneDrive/Desktop/Tarleton school stuff/Fall 2018/Advanced Quantitative Methods/bh-subject-3.csv","legacy","Kafkaesque Koffka","3.2.5","0","s","NA","NA","s","NA","s","574","NA","NA","47928","NA","574","2","legacy","1024","2","48000","-16","experiment","SSSSS","3","odd","52448","NA","NA","81934","NA","NA","4513","NA","NA","83000","4519","NA","83101","83675","82997","83101","Flanker task","17","12100","17","yes","1024"
"100","100","698.777777778","698.777777778","black","legacy","legacy","legacy","0","Congruent","uniform","1","undefined","1","s","0","0","0","17","0","17","0","17","0","17","0","0","17","17","17","17","09/06/18 20:12:06","1500","The main experiment item","yes","Flankertask.osexp","C:/Users/Brad/OneDrive/Desktop/Tarleton school stuff/Fall 2018/Advanced Quantitative Methods","no","mono","no","18","no","white","no","yes","768","legacy","17","17","C:/Users/Brad/OneDrive/Desktop/Tarleton school stuff/Fall 2018/Advanced Quantitative Methods/bh-subject-3.csv","legacy","Kafkaesque Koffka","3.2.5","0","s","NA","NA","s","NA","s","478","NA","NA","47928","NA","478","2","legacy","1024","2","48000","-16","experiment","SSSSS","3","odd","52448","NA","NA","83688","NA","NA","4513","NA","NA","84762","4519","NA","84863","85342","84759","84863","Flanker task","18","12578","18","yes","1024"
"100","100","687.052631579","687.052631579","black","legacy","legacy","legacy","0","Congruent","uniform","1","undefined","1","s","0","0","0","18","0","18","0","18","0","18","0","0","18","18","18","18","09/06/18 20:12:06","1500","The main experiment item","yes","Flankertask.osexp","C:/Users/Brad/OneDrive/Desktop/Tarleton school stuff/Fall 2018/Advanced Quantitative Methods","no","mono","no","18","no","white","no","yes","768","legacy","18","18","C:/Users/Brad/OneDrive/Desktop/Tarleton school stuff/Fall 2018/Advanced Quantitative Methods/bh-subject-3.csv","legacy","Kafkaesque Koffka","3.2.5","0","s","NA","NA","s","NA","s","476","NA","NA","47928","NA","476","2","legacy","1024","2","48000","-16","experiment","SSSSS","3","odd","52448","NA","NA","85354","NA","NA","4513","NA","NA","86422","4519","NA","86524","87000","86419","86523","Flanker task","19","13054","19","yes","1024"
"100","100","676.4","676.4","black","legacy","legacy","legacy","0","Congruent","uniform","1","undefined","1","s","0","0","0","19","0","19","0","19","0","19","0","0","19","19","19","19","09/06/18 20:12:06","1500","The main experiment item","yes","Flankertask.osexp","C:/Users/Brad/OneDrive/Desktop/Tarleton school stuff/Fall 2018/Advanced Quantitative Methods","no","mono","no","18","no","white","no","yes","768","legacy","19","19","C:/Users/Brad/OneDrive/Desktop/Tarleton school stuff/Fall 2018/Advanced Quantitative Methods/bh-subject-3.csv","legacy","Kafkaesque Koffka","3.2.5","0","s","NA","NA","s","NA","s","474","NA","NA","47928","NA","474","2","legacy","1024","2","48000","-16","experiment","SSSSS","3","odd","52448","NA","NA","87011","NA","NA","4513","NA","NA","88077","4519","NA","88179","88654","88075","88178","Flanker task","20","13528","20","yes","1024"
"100","100","668.238095238","668.238095238","black","legacy","legacy","legacy","0","Congruent","uniform","1","undefined","1","h","0","0","0","20","0","20","0","20","0","20","0","0","20","20","20","20","09/06/18 20:12:06","1500","The main experiment item","yes","Flankertask.osexp","C:/Users/Brad/OneDrive/Desktop/Tarleton school stuff/Fall 2018/Advanced Quantitative Methods","no","mono","no","18","no","white","no","yes","768","legacy","20","20","C:/Users/Brad/OneDrive/Desktop/Tarleton school stuff/Fall 2018/Advanced Quantitative Methods/bh-subject-3.csv","legacy","Kafkaesque Koffka","3.2.5","0","h","NA","NA","s","NA","h","505","NA","NA","47928","NA","505","2","legacy","1024","2","48000","-16","experiment","HHHHH","3","odd","52448","NA","NA","88665","NA","NA","4513","NA","NA","89732","4519","NA","89834","90339","89729","89834","Flanker task","21","14033","21","yes","1024"
"100","100","663.954545455","663.954545455","black","legacy","legacy","legacy","0","Incongruent","uniform","1","undefined","1","s","0","0","0","21","0","21","0","21","0","21","0","0","21","21","21","21","09/06/18 20:12:06","1500","The main experiment item","yes","Flankertask.osexp","C:/Users/Brad/OneDrive/Desktop/Tarleton school stuff/Fall 2018/Advanced Quantitative Methods","no","mono","no","18","no","white","no","yes","768","legacy","21","21","C:/Users/Brad/OneDrive/Desktop/Tarleton school stuff/Fall 2018/Advanced Quantitative Methods/bh-subject-3.csv","legacy","Kafkaesque Koffka","3.2.5","0","s","NA","NA","s","NA","s","574","NA","NA","47928","NA","574","2","legacy","1024","2","48000","-16","experiment","HHSHH","3","odd","52448","NA","NA","90350","NA","NA","4513","NA","NA","91416","4519","NA","91517","92091","91413","91517","Flanker task","22","14607","22","yes","1024"
"100","100","660.52173913","660.52173913","black","legacy","legacy","legacy","0","Incongruent","uniform","1","undefined","1","s","0","0","0","22","0","22","0","22","0","22","0","0","22","22","22","22","09/06/18 20:12:06","1500","The main experiment item","yes","Flankertask.osexp","C:/Users/Brad/OneDrive/Desktop/Tarleton school stuff/Fall 2018/Advanced Quantitative Methods","no","mono","no","18","no","white","no","yes","768","legacy","22","22","C:/Users/Brad/OneDrive/Desktop/Tarleton school stuff/Fall 2018/Advanced Quantitative Methods/bh-subject-3.csv","legacy","Kafkaesque Koffka","3.2.5","0","s","NA","NA","s","NA","s","585","NA","NA","47928","NA","585","2","legacy","1024","2","48000","-16","experiment","HHSHH","3","odd","52448","NA","NA","92103","NA","NA","4513","NA","NA","93169","4519","NA","93272","93857","93166","93271","Flanker task","23","15192","23","yes","1024"
"100","100","653.5","653.5","black","legacy","legacy","legacy","0","Congruent","uniform","1","undefined","1","h","0","0","0","23","0","23","0","23","0","23","0","0","23","23","23","23","09/06/18 20:12:06","1500","The main experiment item","yes","Flankertask.osexp","C:/Users/Brad/OneDrive/Desktop/Tarleton school stuff/Fall 2018/Advanced Quantitative Methods","no","mono","no","18","no","white","no","yes","768","legacy","23","23","C:/Users/Brad/OneDrive/Desktop/Tarleton school stuff/Fall 2018/Advanced Quantitative Methods/bh-subject-3.csv","legacy","Kafkaesque Koffka","3.2.5","0","h","NA","NA","s","NA","h","492","NA","NA","47928","NA","492","2","legacy","1024","2","48000","-16","experiment","HHHHH","3","odd","52448","NA","NA","93868","NA","NA","4513","NA","NA","94935","4519","NA","95036","95528","94932","95036","Flanker task","24","15684","24","yes","1024"
"100","100","653.08","653.08","black","legacy","legacy","legacy","0","Incongruent","uniform","1","undefined","1","h","0","0","0","24","0","24","0","24","0","24","0","0","24","24","24","24","09/06/18 20:12:06","1500","The main experiment item","yes","Flankertask.osexp","C:/Users/Brad/OneDrive/Desktop/Tarleton school stuff/Fall 2018/Advanced Quantitative Methods","no","mono","no","18","no","white","no","yes","768","legacy","24","24","C:/Users/Brad/OneDrive/Desktop/Tarleton school stuff/Fall 2018/Advanced Quantitative Methods/bh-subject-3.csv","legacy","Kafkaesque Koffka","3.2.5","0","h","NA","NA","s","NA","h","643","NA","NA","47928","NA","643","2","legacy","1024","2","48000","-16","experiment","SSHSS","3","odd","52448","NA","NA","95539","NA","NA","4513","NA","NA","96604","4519","NA","96705","97349","96602","96705","Flanker task","25","16327","25","yes","1024"
"100","100","645.346153846","645.346153846","black","legacy","legacy","legacy","0","Congruent","uniform","1","undefined","1","h","0","0","0","25","0","25","0","25","0","25","0","0","25","25","25","25","09/06/18 20:12:06","1500","The main experiment item","yes","Flankertask.osexp","C:/Users/Brad/OneDrive/Desktop/Tarleton school stuff/Fall 2018/Advanced Quantitative Methods","no","mono","no","18","no","white","no","yes","768","legacy","25","25","C:/Users/Brad/OneDrive/Desktop/Tarleton school stuff/Fall 2018/Advanced Quantitative Methods/bh-subject-3.csv","legacy","Kafkaesque Koffka","3.2.5","0","h","NA","NA","s","NA","h","452","NA","NA","47928","NA","452","2","legacy","1024","2","48000","-16","experiment","HHHHH","3","odd","52448","NA","NA","97360","NA","NA","4513","NA","NA","98426","4519","NA","98528","98981","98423","98528","Flanker task","26","16779","26","yes","1024"
"100","100","642.111111111","642.111111111","black","legacy","legacy","legacy","0","Incongruent","uniform","1","undefined","1","h","0","0","0","26","0","26","0","26","0","26","0","0","26","26","26","26","09/06/18 20:12:06","1500","The main experiment item","yes","Flankertask.osexp","C:/Users/Brad/OneDrive/Desktop/Tarleton school stuff/Fall 2018/Advanced Quantitative Methods","no","mono","no","18","no","white","no","yes","768","legacy","26","26","C:/Users/Brad/OneDrive/Desktop/Tarleton school stuff/Fall 2018/Advanced Quantitative Methods/bh-subject-3.csv","legacy","Kafkaesque Koffka","3.2.5","0","h","NA","NA","s","NA","h","558","NA","NA","47928","NA","558","2","legacy","1024","2","48000","-16","experiment","SSHSS","3","odd","52448","NA","NA","98986","NA","NA","4513","NA","NA","100051","4519","NA","100153","100712","100049","100153","Flanker task","27","17337","27","yes","1024"
"100","100","641.892857143","641.892857143","black","legacy","legacy","legacy","0","Incongruent","uniform","1","undefined","1","s","0","0","0","27","0","27","0","27","0","27","0","0","27","27","27","27","09/06/18 20:12:06","1500","The main experiment item","yes","Flankertask.osexp","C:/Users/Brad/OneDrive/Desktop/Tarleton school stuff/Fall 2018/Advanced Quantitative Methods","no","mono","no","18","no","white","no","yes","768","legacy","27","27","C:/Users/Brad/OneDrive/Desktop/Tarleton school stuff/Fall 2018/Advanced Quantitative Methods/bh-subject-3.csv","legacy","Kafkaesque Koffka","3.2.5","0","s","NA","NA","s","NA","s","636","NA","NA","47928","NA","636","2","legacy","1024","2","48000","-16","experiment","HHSHH","3","odd","52448","NA","NA","100720","NA","NA","4513","NA","NA","101788","4519","NA","101889","102526","101786","101889","Flanker task","28","17973","28","yes","1024"
"100","100","638.172413793","638.172413793","black","legacy","legacy","legacy","0","Congruent","uniform","1","undefined","1","h","0","0","0","28","0","28","0","28","0","28","0","0","28","28","28","28","09/06/18 20:12:06","1500","The main experiment item","yes","Flankertask.osexp","C:/Users/Brad/OneDrive/Desktop/Tarleton school stuff/Fall 2018/Advanced Quantitative Methods","no","mono","no","18","no","white","no","yes","768","legacy","28","28","C:/Users/Brad/OneDrive/Desktop/Tarleton school stuff/Fall 2018/Advanced Quantitative Methods/bh-subject-3.csv","legacy","Kafkaesque Koffka","3.2.5","0","h","NA","NA","s","NA","h","534","NA","NA","47928","NA","534","2","legacy","1024","2","48000","-16","experiment","HHHHH","3","odd","52448","NA","NA","102537","NA","NA","4513","NA","NA","103607","4519","NA","103708","104243","103604","103708","Flanker task","29","18507","29","yes","1024"
"100","100","633.033333333","633.033333333","black","legacy","legacy","legacy","0","Congruent","uniform","1","undefined","1","h","0","0","0","29","0","29","0","29","0","29","0","0","29","29","29","29","09/06/18 20:12:06","1500","The main experiment item","yes","Flankertask.osexp","C:/Users/Brad/OneDrive/Desktop/Tarleton school stuff/Fall 2018/Advanced Quantitative Methods","no","mono","no","18","no","white","no","yes","768","legacy","29","29","C:/Users/Brad/OneDrive/Desktop/Tarleton school stuff/Fall 2018/Advanced Quantitative Methods/bh-subject-3.csv","legacy","Kafkaesque Koffka","3.2.5","0","h","NA","NA","s","NA","h","484","NA","NA","47928","NA","484","2","legacy","1024","2","48000","-16","experiment","HHHHH","3","odd","52448","NA","NA","104254","NA","NA","4513","NA","NA","105320","4519","NA","105421","105905","105317","105421","Flanker task","30","18991","30","yes","1024"
"100","100","626.419354839","626.419354839","black","legacy","legacy","legacy","0","Congruent","uniform","1","undefined","1","h","0","0","0","30","0","30","0","30","0","30","0","0","30","30","30","30","09/06/18 20:12:06","1500","The main experiment item","yes","Flankertask.osexp","C:/Users/Brad/OneDrive/Desktop/Tarleton school stuff/Fall 2018/Advanced Quantitative Methods","no","mono","no","18","no","white","no","yes","768","legacy","30","30","C:/Users/Brad/OneDrive/Desktop/Tarleton school stuff/Fall 2018/Advanced Quantitative Methods/bh-subject-3.csv","legacy","Kafkaesque Koffka","3.2.5","0","h","NA","NA","s","NA","h","428","NA","NA","47928","NA","428","2","legacy","1024","2","48000","-16","experiment","HHHHH","3","odd","52448","NA","NA","105910","NA","NA","4513","NA","NA","106975","4519","NA","107076","107505","106972","107076","Flanker task","31","19419","31","yes","1024"
"100","100","622.34375","622.34375","black","legacy","legacy","legacy","0","Congruent","uniform","1","undefined","1","s","0","0","0","31","0","31","0","31","0","31","0","0","31","31","31","31","09/06/18 20:12:06","1500","The main experiment item","yes","Flankertask.osexp","C:/Users/Brad/OneDrive/Desktop/Tarleton school stuff/Fall 2018/Advanced Quantitative Methods","no","mono","no","18","no","white","no","yes","768","legacy","31","31","C:/Users/Brad/OneDrive/Desktop/Tarleton school stuff/Fall 2018/Advanced Quantitative Methods/bh-subject-3.csv","legacy","Kafkaesque Koffka","3.2.5","0","s","NA","NA","s","NA","s","496","NA","NA","47928","NA","496","2","legacy","1024","2","48000","-16","experiment","SSSSS","3","odd","52448","NA","NA","107516","NA","NA","4513","NA","NA","108582","4519","NA","108684","109181","108579","108684","Flanker task","32","19915","32","yes","1024"
"100","100","620.787878788","620.787878788","black","legacy","legacy","legacy","0","Incongruent","uniform","1","undefined","1","h","0","0","0","32","0","32","0","32","0","32","0","0","32","32","32","32","09/06/18 20:12:06","1500","The main experiment item","yes","Flankertask.osexp","C:/Users/Brad/OneDrive/Desktop/Tarleton school stuff/Fall 2018/Advanced Quantitative Methods","no","mono","no","18","no","white","no","yes","768","legacy","32","32","C:/Users/Brad/OneDrive/Desktop/Tarleton school stuff/Fall 2018/Advanced Quantitative Methods/bh-subject-3.csv","legacy","Kafkaesque Koffka","3.2.5","0","h","NA","NA","s","NA","h","571","NA","NA","47928","NA","571","2","legacy","1024","2","48000","-16","experiment","SSHSS","3","odd","52448","NA","NA","109192","NA","NA","4513","NA","NA","110259","4519","NA","110360","110932","110256","110360","Flanker task","33","20486","33","yes","1024"
"100","100","627.029411765","627.029411765","black","legacy","legacy","legacy","0","Incongruent","uniform","1","undefined","1","s","0","0","0","33","0","33","0","33","0","33","0","0","33","33","33","33","09/06/18 20:12:06","1500","The main experiment item","yes","Flankertask.osexp","C:/Users/Brad/OneDrive/Desktop/Tarleton school stuff/Fall 2018/Advanced Quantitative Methods","no","mono","no","18","no","white","no","yes","768","legacy","33","33","C:/Users/Brad/OneDrive/Desktop/Tarleton school stuff/Fall 2018/Advanced Quantitative Methods/bh-subject-3.csv","legacy","Kafkaesque Koffka","3.2.5","0","s","NA","NA","s","NA","s","833","NA","NA","47928","NA","833","2","legacy","1024","2","48000","-16","experiment","HHSHH","3","odd","52448","NA","NA","110943","NA","NA","4513","NA","NA","112010","4519","NA","112112","112946","112007","112112","Flanker task","34","21319","34","yes","1024"
"100","100","625.085714286","625.085714286","black","legacy","legacy","legacy","0","Congruent","uniform","1","undefined","1","s","0","0","0","34","0","34","0","34","0","34","0","0","34","34","34","34","09/06/18 20:12:06","1500","The main experiment item","yes","Flankertask.osexp","C:/Users/Brad/OneDrive/Desktop/Tarleton school stuff/Fall 2018/Advanced Quantitative Methods","no","mono","no","18","no","white","no","yes","768","legacy","34","34","C:/Users/Brad/OneDrive/Desktop/Tarleton school stuff/Fall 2018/Advanced Quantitative Methods/bh-subject-3.csv","legacy","Kafkaesque Koffka","3.2.5","0","s","NA","NA","s","NA","s","559","NA","NA","47928","NA","559","2","legacy","1024","2","48000","-16","experiment","SSSSS","3","odd","52448","NA","NA","112957","NA","NA","4513","NA","NA","114024","4519","NA","114125","114685","114021","114125","Flanker task","35","21878","35","yes","1024"
"100","100","623.388888889","623.388888889","black","legacy","legacy","legacy","0","Incongruent","uniform","1","undefined","1","h","0","0","0","35","0","35","0","35","0","35","0","0","35","35","35","35","09/06/18 20:12:06","1500","The main experiment item","yes","Flankertask.osexp","C:/Users/Brad/OneDrive/Desktop/Tarleton school stuff/Fall 2018/Advanced Quantitative Methods","no","mono","no","18","no","white","no","yes","768","legacy","35","35","C:/Users/Brad/OneDrive/Desktop/Tarleton school stuff/Fall 2018/Advanced Quantitative Methods/bh-subject-3.csv","legacy","Kafkaesque Koffka","3.2.5","0","h","NA","NA","s","NA","h","564","NA","NA","47928","NA","564","2","legacy","1024","2","48000","-16","experiment","SSHSS","3","odd","52448","NA","NA","114696","NA","NA","4513","NA","NA","115764","4519","NA","115866","116431","115761","115866","Flanker task","36","22442","36","yes","1024"
"100","100","620.756756757","620.756756757","black","legacy","legacy","legacy","0","Congruent","uniform","1","undefined","1","h","0","0","0","36","0","36","0","36","0","36","0","0","36","36","36","36","09/06/18 20:12:06","1500","The main experiment item","yes","Flankertask.osexp","C:/Users/Brad/OneDrive/Desktop/Tarleton school stuff/Fall 2018/Advanced Quantitative Methods","no","mono","no","18","no","white","no","yes","768","legacy","36","36","C:/Users/Brad/OneDrive/Desktop/Tarleton school stuff/Fall 2018/Advanced Quantitative Methods/bh-subject-3.csv","legacy","Kafkaesque Koffka","3.2.5","0","h","NA","NA","s","NA","h","526","NA","NA","47928","NA","526","2","legacy","1024","2","48000","-16","experiment","HHHHH","3","odd","52448","NA","NA","116444","NA","NA","4513","NA","NA","117509","4519","NA","117610","118137","117506","117610","Flanker task","37","22968","37","yes","1024"
"100","100","618.131578947","618.131578947","black","legacy","legacy","legacy","0","Congruent","uniform","1","undefined","1","h","0","0","0","37","0","37","0","37","0","37","0","0","37","37","37","37","09/06/18 20:12:06","1500","The main experiment item","yes","Flankertask.osexp","C:/Users/Brad/OneDrive/Desktop/Tarleton school stuff/Fall 2018/Advanced Quantitative Methods","no","mono","no","18","no","white","no","yes","768","legacy","37","37","C:/Users/Brad/OneDrive/Desktop/Tarleton school stuff/Fall 2018/Advanced Quantitative Methods/bh-subject-3.csv","legacy","Kafkaesque Koffka","3.2.5","0","h","NA","NA","s","NA","h","521","NA","NA","47928","NA","521","2","legacy","1024","2","48000","-16","experiment","HHHHH","3","odd","52448","NA","NA","118148","NA","NA","4513","NA","NA","119214","4519","NA","119315","119837","119211","119315","Flanker task","38","23489","38","yes","1024"
"100","100","616.923076923","616.923076923","black","legacy","legacy","legacy","0","Incongruent","uniform","1","undefined","1","s","0","0","0","38","0","38","0","38","0","38","0","0","38","38","38","38","09/06/18 20:12:06","1500","The main experiment item","yes","Flankertask.osexp","C:/Users/Brad/OneDrive/Desktop/Tarleton school stuff/Fall 2018/Advanced Quantitative Methods","no","mono","no","18","no","white","no","yes","768","legacy","38","38","C:/Users/Brad/OneDrive/Desktop/Tarleton school stuff/Fall 2018/Advanced Quantitative Methods/bh-subject-3.csv","legacy","Kafkaesque Koffka","3.2.5","0","s","NA","NA","s","NA","s","571","NA","NA","47928","NA","571","2","legacy","1024","2","48000","-16","experiment","HHSHH","3","odd","52448","NA","NA","119842","NA","NA","4513","NA","NA","120907","4519","NA","121009","121581","120904","121009","Flanker task","39","24060","39","yes","1024"
"100","100","613.6","613.6","black","legacy","legacy","legacy","0","Congruent","uniform","1","undefined","1","h","0","0","0","39","0","39","0","39","0","39","0","0","39","39","39","39","09/06/18 20:12:06","1500","The main experiment item","yes","Flankertask.osexp","C:/Users/Brad/OneDrive/Desktop/Tarleton school stuff/Fall 2018/Advanced Quantitative Methods","no","mono","no","18","no","white","no","yes","768","legacy","39","39","C:/Users/Brad/OneDrive/Desktop/Tarleton school stuff/Fall 2018/Advanced Quantitative Methods/bh-subject-3.csv","legacy","Kafkaesque Koffka","3.2.5","0","h","NA","NA","s","NA","h","484","NA","NA","47928","NA","484","2","legacy","1024","2","48000","-16","experiment","HHHHH","3","odd","52448","NA","NA","121592","NA","NA","4513","NA","NA","122656","4519","NA","122757","123242","122654","122757","Flanker task","40","24544","40","yes","1024"
"100","100","612.634146341","612.634146341","black","legacy","legacy","legacy","0","Incongruent","uniform","1","undefined","1","s","0","0","0","40","0","40","0","40","0","40","0","0","40","40","40","40","09/06/18 20:12:06","1500","The main experiment item","yes","Flankertask.osexp","C:/Users/Brad/OneDrive/Desktop/Tarleton school stuff/Fall 2018/Advanced Quantitative Methods","no","mono","no","18","no","white","no","yes","768","legacy","40","40","C:/Users/Brad/OneDrive/Desktop/Tarleton school stuff/Fall 2018/Advanced Quantitative Methods/bh-subject-3.csv","legacy","Kafkaesque Koffka","3.2.5","0","s","NA","NA","s","NA","s","574","NA","NA","47928","NA","574","2","legacy","1024","2","48000","-16","experiment","HHSHH","3","odd","52448","NA","NA","123253","NA","NA","4513","NA","NA","124320","4519","NA","124421","124996","124317","124421","Flanker task","41","25118","41","yes","1024"
"100","100","610.357142857","610.357142857","black","legacy","legacy","legacy","0","Incongruent","uniform","1","undefined","1","s","0","0","0","41","0","41","0","41","0","41","0","0","41","41","41","41","09/06/18 20:12:06","1500","The main experiment item","yes","Flankertask.osexp","C:/Users/Brad/OneDrive/Desktop/Tarleton school stuff/Fall 2018/Advanced Quantitative Methods","no","mono","no","18","no","white","no","yes","768","legacy","41","41","C:/Users/Brad/OneDrive/Desktop/Tarleton school stuff/Fall 2018/Advanced Quantitative Methods/bh-subject-3.csv","legacy","Kafkaesque Koffka","3.2.5","0","s","NA","NA","s","NA","s","517","NA","NA","47928","NA","517","2","legacy","1024","2","48000","-16","experiment","HHSHH","3","odd","52448","NA","NA","125007","NA","NA","4513","NA","NA","126072","4519","NA","126176","126694","126070","126176","Flanker task","42","25635","42","yes","1024"
"100","100","607.534883721","607.534883721","black","legacy","legacy","legacy","0","Incongruent","uniform","1","undefined","1","s","0","0","0","42","0","42","0","42","0","42","0","0","42","42","42","42","09/06/18 20:12:06","1500","The main experiment item","yes","Flankertask.osexp","C:/Users/Brad/OneDrive/Desktop/Tarleton school stuff/Fall 2018/Advanced Quantitative Methods","no","mono","no","18","no","white","no","yes","768","legacy","42","42","C:/Users/Brad/OneDrive/Desktop/Tarleton school stuff/Fall 2018/Advanced Quantitative Methods/bh-subject-3.csv","legacy","Kafkaesque Koffka","3.2.5","0","s","NA","NA","s","NA","s","489","NA","NA","47928","NA","489","2","legacy","1024","2","48000","-16","experiment","HHSHH","3","odd","52448","NA","NA","126699","NA","NA","4513","NA","NA","127766","4519","NA","127867","128357","127763","127867","Flanker task","43","26124","43","yes","1024"
"100","100","606.227272727","606.227272727","black","legacy","legacy","legacy","0","Incongruent","uniform","1","undefined","1","h","0","0","0","43","0","43","0","43","0","43","0","0","43","43","43","43","09/06/18 20:12:06","1500","The main experiment item","yes","Flankertask.osexp","C:/Users/Brad/OneDrive/Desktop/Tarleton school stuff/Fall 2018/Advanced Quantitative Methods","no","mono","no","18","no","white","no","yes","768","legacy","43","43","C:/Users/Brad/OneDrive/Desktop/Tarleton school stuff/Fall 2018/Advanced Quantitative Methods/bh-subject-3.csv","legacy","Kafkaesque Koffka","3.2.5","0","h","NA","NA","s","NA","h","550","NA","NA","47928","NA","550","2","legacy","1024","2","48000","-16","experiment","SSHSS","3","odd","52448","NA","NA","128368","NA","NA","4513","NA","NA","129438","4519","NA","129539","130089","129435","129539","Flanker task","44","26674","44","yes","1024"
"100","100","606.066666667","606.066666667","black","legacy","legacy","legacy","0","Incongruent","uniform","1","undefined","1","h","0","0","0","44","0","44","0","44","0","44","0","0","44","44","44","44","09/06/18 20:12:06","1500","The main experiment item","yes","Flankertask.osexp","C:/Users/Brad/OneDrive/Desktop/Tarleton school stuff/Fall 2018/Advanced Quantitative Methods","no","mono","no","18","no","white","no","yes","768","legacy","44","44","C:/Users/Brad/OneDrive/Desktop/Tarleton school stuff/Fall 2018/Advanced Quantitative Methods/bh-subject-3.csv","legacy","Kafkaesque Koffka","3.2.5","0","h","NA","NA","s","NA","h","599","NA","NA","47928","NA","599","2","legacy","1024","2","48000","-16","experiment","SSHSS","3","odd","52448","NA","NA","130101","NA","NA","4513","NA","NA","131166","4519","NA","131267","131866","131163","131267","Flanker task","45","27273","45","yes","1024"
"100","100","604.02173913","604.02173913","black","legacy","legacy","legacy","0","Congruent","uniform","1","undefined","1","h","0","0","0","45","0","45","0","45","0","45","0","0","45","45","45","45","09/06/18 20:12:06","1500","The main experiment item","yes","Flankertask.osexp","C:/Users/Brad/OneDrive/Desktop/Tarleton school stuff/Fall 2018/Advanced Quantitative Methods","no","mono","no","18","no","white","no","yes","768","legacy","45","45","C:/Users/Brad/OneDrive/Desktop/Tarleton school stuff/Fall 2018/Advanced Quantitative Methods/bh-subject-3.csv","legacy","Kafkaesque Koffka","3.2.5","0","h","NA","NA","s","NA","h","512","NA","NA","47928","NA","512","2","legacy","1024","2","48000","-16","experiment","HHHHH","3","odd","52448","NA","NA","131877","NA","NA","4513","NA","NA","132943","4519","NA","133044","133557","132940","133044","Flanker task","46","27785","46","yes","1024"
"100","100","604.29787234","604.29787234","black","legacy","legacy","legacy","0","Congruent","uniform","1","undefined","1","h","0","0","0","46","0","46","0","46","0","46","0","0","46","46","46","46","09/06/18 20:12:06","1500","The main experiment item","yes","Flankertask.osexp","C:/Users/Brad/OneDrive/Desktop/Tarleton school stuff/Fall 2018/Advanced Quantitative Methods","no","mono","no","18","no","white","no","yes","768","legacy","46","46","C:/Users/Brad/OneDrive/Desktop/Tarleton school stuff/Fall 2018/Advanced Quantitative Methods/bh-subject-3.csv","legacy","Kafkaesque Koffka","3.2.5","0","h","NA","NA","s","NA","h","617","NA","NA","47928","NA","617","2","legacy","1024","2","48000","-16","experiment","HHHHH","3","odd","52448","NA","NA","133568","NA","NA","4513","NA","NA","134639","4519","NA","134740","135357","134636","134740","Flanker task","47","28402","47","yes","1024"
"100","100","603.583333333","603.583333333","black","legacy","legacy","legacy","0","Incongruent","uniform","1","undefined","1","s","0","0","0","47","0","47","0","47","0","47","0","0","47","47","47","47","09/06/18 20:12:06","1500","The main experiment item","yes","Flankertask.osexp","C:/Users/Brad/OneDrive/Desktop/Tarleton school stuff/Fall 2018/Advanced Quantitative Methods","no","mono","no","18","no","white","no","yes","768","legacy","47","47","C:/Users/Brad/OneDrive/Desktop/Tarleton school stuff/Fall 2018/Advanced Quantitative Methods/bh-subject-3.csv","legacy","Kafkaesque Koffka","3.2.5","0","s","NA","NA","s","NA","s","570","NA","NA","47928","NA","570","2","legacy","1024","2","48000","-16","experiment","HHSHH","3","odd","52448","NA","NA","135369","NA","NA","4513","NA","NA","136436","4519","NA","136537","137108","136434","136537","Flanker task","48","28972","48","yes","1024"
"100","100","605.285714286","605.285714286","black","legacy","legacy","legacy","0","Incongruent","uniform","1","undefined","1","h","0","0","0","48","0","48","0","48","0","48","0","0","48","48","48","48","09/06/18 20:12:06","1500","The main experiment item","yes","Flankertask.osexp","C:/Users/Brad/OneDrive/Desktop/Tarleton school stuff/Fall 2018/Advanced Quantitative Methods","no","mono","no","18","no","white","no","yes","768","legacy","48","48","C:/Users/Brad/OneDrive/Desktop/Tarleton school stuff/Fall 2018/Advanced Quantitative Methods/bh-subject-3.csv","legacy","Kafkaesque Koffka","3.2.5","0","h","NA","NA","s","NA","h","687","NA","NA","47928","NA","687","2","legacy","1024","2","48000","-16","experiment","SSHSS","3","odd","52448","NA","NA","137119","NA","NA","4513","NA","NA","138185","4519","NA","138286","138974","138182","138286","Flanker task","49","29659","49","yes","1024"
"100","100","603.96","603.96","black","legacy","legacy","legacy","0","Congruent","uniform","1","undefined","1","s","0","0","0","49","0","49","0","49","0","49","0","0","49","49","49","49","09/06/18 20:12:06","1500","The main experiment item","yes","Flankertask.osexp","C:/Users/Brad/OneDrive/Desktop/Tarleton school stuff/Fall 2018/Advanced Quantitative Methods","no","mono","no","18","no","white","no","yes","768","legacy","49","49","C:/Users/Brad/OneDrive/Desktop/Tarleton school stuff/Fall 2018/Advanced Quantitative Methods/bh-subject-3.csv","legacy","Kafkaesque Koffka","3.2.5","0","s","NA","NA","s","NA","s","539","NA","NA","47928","NA","539","2","legacy","1024","2","48000","-16","experiment","SSSSS","3","odd","52448","NA","NA","138985","NA","NA","4513","NA","NA","140053","4519","NA","140154","140694","140050","140154","Flanker task","50","30198","50","yes","1024"
"100","100","603.392156863","603.392156863","black","legacy","legacy","legacy","0","Congruent","uniform","1","undefined","1","s","0","0","0","50","0","50","0","50","0","50","0","0","50","50","50","50","09/06/18 20:12:06","1500","The main experiment item","yes","Flankertask.osexp","C:/Users/Brad/OneDrive/Desktop/Tarleton school stuff/Fall 2018/Advanced Quantitative Methods","no","mono","no","18","no","white","no","yes","768","legacy","50","50","C:/Users/Brad/OneDrive/Desktop/Tarleton school stuff/Fall 2018/Advanced Quantitative Methods/bh-subject-3.csv","legacy","Kafkaesque Koffka","3.2.5","0","s","NA","NA","s","NA","s","575","NA","NA","47928","NA","575","2","legacy","1024","2","48000","-16","experiment","SSSSS","3","odd","52448","NA","NA","140705","NA","NA","4513","NA","NA","141772","4519","NA","141874","142453","141769","141874","Flanker task","51","30773","51","yes","1024"
"100","100","601.538461538","601.538461538","black","legacy","legacy","legacy","0","Incongruent","uniform","1","undefined","1","s","0","0","0","51","0","51","0","51","0","51","0","0","51","51","51","51","09/06/18 20:12:06","1500","The main experiment item","yes","Flankertask.osexp","C:/Users/Brad/OneDrive/Desktop/Tarleton school stuff/Fall 2018/Advanced Quantitative Methods","no","mono","no","18","no","white","no","yes","768","legacy","51","51","C:/Users/Brad/OneDrive/Desktop/Tarleton school stuff/Fall 2018/Advanced Quantitative Methods/bh-subject-3.csv","legacy","Kafkaesque Koffka","3.2.5","0","s","NA","NA","s","NA","s","507","NA","NA","47928","NA","507","2","legacy","1024","2","48000","-16","experiment","HHSHH","3","odd","52448","NA","NA","142464","NA","NA","4513","NA","NA","143530","4519","NA","143631","144139","143527","143631","Flanker task","52","31280","52","yes","1024"
"100","100","600.320754717","600.320754717","black","legacy","legacy","legacy","0","Congruent","uniform","1","undefined","1","s","0","0","0","52","0","52","0","52","0","52","0","0","52","52","52","52","09/06/18 20:12:06","1500","The main experiment item","yes","Flankertask.osexp","C:/Users/Brad/OneDrive/Desktop/Tarleton school stuff/Fall 2018/Advanced Quantitative Methods","no","mono","no","18","no","white","no","yes","768","legacy","52","52","C:/Users/Brad/OneDrive/Desktop/Tarleton school stuff/Fall 2018/Advanced Quantitative Methods/bh-subject-3.csv","legacy","Kafkaesque Koffka","3.2.5","0","s","NA","NA","s","NA","s","537","NA","NA","47928","NA","537","2","legacy","1024","2","48000","-16","experiment","SSSSS","3","odd","52448","NA","NA","144150","NA","NA","4513","NA","NA","145216","4519","NA","145317","145854","145213","145317","Flanker task","53","31817","53","yes","1024"
"100","100","598.759259259","598.759259259","black","legacy","legacy","legacy","0","Incongruent","uniform","1","undefined","1","s","0","0","0","53","0","53","0","53","0","53","0","0","53","53","53","53","09/06/18 20:12:06","1500","The main experiment item","yes","Flankertask.osexp","C:/Users/Brad/OneDrive/Desktop/Tarleton school stuff/Fall 2018/Advanced Quantitative Methods","no","mono","no","18","no","white","no","yes","768","legacy","53","53","C:/Users/Brad/OneDrive/Desktop/Tarleton school stuff/Fall 2018/Advanced Quantitative Methods/bh-subject-3.csv","legacy","Kafkaesque Koffka","3.2.5","0","s","NA","NA","s","NA","s","516","NA","NA","47928","NA","516","2","legacy","1024","2","48000","-16","experiment","HHSHH","3","odd","52448","NA","NA","145865","NA","NA","4513","NA","NA","146933","4519","NA","147034","147551","146930","147034","Flanker task","54","32333","54","yes","1024"
"100","100","601.945454545","601.945454545","black","legacy","legacy","legacy","0","Incongruent","uniform","1","undefined","1","h","0","0","0","54","0","54","0","54","0","54","0","0","54","54","54","54","09/06/18 20:12:06","1500","The main experiment item","yes","Flankertask.osexp","C:/Users/Brad/OneDrive/Desktop/Tarleton school stuff/Fall 2018/Advanced Quantitative Methods","no","mono","no","18","no","white","no","yes","768","legacy","54","54","C:/Users/Brad/OneDrive/Desktop/Tarleton school stuff/Fall 2018/Advanced Quantitative Methods/bh-subject-3.csv","legacy","Kafkaesque Koffka","3.2.5","0","h","NA","NA","s","NA","h","774","NA","NA","47928","NA","774","2","legacy","1024","2","48000","-16","experiment","SSHSS","3","odd","52448","NA","NA","147563","NA","NA","4513","NA","NA","148628","4519","NA","148731","149506","148626","148731","Flanker task","55","33107","55","yes","1024"
"100","100","599.678571429","599.678571429","black","legacy","legacy","legacy","0","Congruent","uniform","1","undefined","1","h","0","0","0","55","0","55","0","55","0","55","0","0","55","55","55","55","09/06/18 20:12:06","1500","The main experiment item","yes","Flankertask.osexp","C:/Users/Brad/OneDrive/Desktop/Tarleton school stuff/Fall 2018/Advanced Quantitative Methods","no","mono","no","18","no","white","no","yes","768","legacy","55","55","C:/Users/Brad/OneDrive/Desktop/Tarleton school stuff/Fall 2018/Advanced Quantitative Methods/bh-subject-3.csv","legacy","Kafkaesque Koffka","3.2.5","0","h","NA","NA","s","NA","h","475","NA","NA","47928","NA","475","2","legacy","1024","2","48000","-16","experiment","HHHHH","3","odd","52448","NA","NA","149517","NA","NA","4513","NA","NA","150582","4519","NA","150684","151160","150579","150683","Flanker task","56","33582","56","yes","1024"
"100","100","598.824561404","598.824561404","black","legacy","legacy","legacy","0","Incongruent","uniform","1","undefined","1","s","0","0","0","56","0","56","0","56","0","56","0","0","56","56","56","56","09/06/18 20:12:06","1500","The main experiment item","yes","Flankertask.osexp","C:/Users/Brad/OneDrive/Desktop/Tarleton school stuff/Fall 2018/Advanced Quantitative Methods","no","mono","no","18","no","white","no","yes","768","legacy","56","56","C:/Users/Brad/OneDrive/Desktop/Tarleton school stuff/Fall 2018/Advanced Quantitative Methods/bh-subject-3.csv","legacy","Kafkaesque Koffka","3.2.5","0","s","NA","NA","s","NA","s","551","NA","NA","47928","NA","551","2","legacy","1024","2","48000","-16","experiment","HHSHH","3","odd","52448","NA","NA","151165","NA","NA","4513","NA","NA","152231","4519","NA","152333","152885","152228","152332","Flanker task","57","34133","57","yes","1024"
"100","100","597.827586207","597.827586207","black","legacy","legacy","legacy","0","Congruent","uniform","1","undefined","1","h","0","0","0","57","0","57","0","57","0","57","0","0","57","57","57","57","09/06/18 20:12:06","1500","The main experiment item","yes","Flankertask.osexp","C:/Users/Brad/OneDrive/Desktop/Tarleton school stuff/Fall 2018/Advanced Quantitative Methods","no","mono","no","18","no","white","no","yes","768","legacy","57","57","C:/Users/Brad/OneDrive/Desktop/Tarleton school stuff/Fall 2018/Advanced Quantitative Methods/bh-subject-3.csv","legacy","Kafkaesque Koffka","3.2.5","0","h","NA","NA","s","NA","h","541","NA","NA","47928","NA","541","2","legacy","1024","2","48000","-16","experiment","HHHHH","3","odd","52448","NA","NA","152897","NA","NA","4513","NA","NA","153965","4519","NA","154066","154607","153962","154066","Flanker task","58","34674","58","yes","1024"
"100","100","601.86440678","601.86440678","black","legacy","legacy","legacy","0","Incongruent","uniform","1","undefined","1","h","0","0","0","58","0","58","0","58","0","58","0","0","58","58","58","58","09/06/18 20:12:06","1500","The main experiment item","yes","Flankertask.osexp","C:/Users/Brad/OneDrive/Desktop/Tarleton school stuff/Fall 2018/Advanced Quantitative Methods","no","mono","no","18","no","white","no","yes","768","legacy","58","58","C:/Users/Brad/OneDrive/Desktop/Tarleton school stuff/Fall 2018/Advanced Quantitative Methods/bh-subject-3.csv","legacy","Kafkaesque Koffka","3.2.5","0","h","NA","NA","s","NA","h","836","NA","NA","47928","NA","836","2","legacy","1024","2","48000","-16","experiment","SSHSS","3","odd","52448","NA","NA","154619","NA","NA","4513","NA","NA","155685","4519","NA","155786","156623","155682","155786","Flanker task","59","35510","59","yes","1024"
"100","100","601.233333333","601.233333333","black","legacy","legacy","legacy","0","Congruent","uniform","1","undefined","1","h","0","0","0","59","0","59","0","59","0","59","0","0","59","59","59","59","09/06/18 20:12:06","1500","The main experiment item","yes","Flankertask.osexp","C:/Users/Brad/OneDrive/Desktop/Tarleton school stuff/Fall 2018/Advanced Quantitative Methods","no","mono","no","18","no","white","no","yes","768","legacy","59","59","C:/Users/Brad/OneDrive/Desktop/Tarleton school stuff/Fall 2018/Advanced Quantitative Methods/bh-subject-3.csv","legacy","Kafkaesque Koffka","3.2.5","0","h","NA","NA","s","NA","h","564","NA","NA","47928","NA","564","2","legacy","1024","2","48000","-16","experiment","HHHHH","3","odd","52448","NA","NA","156628","NA","NA","4513","NA","NA","157699","4519","NA","157800","158365","157696","157800","Flanker task","60","36074","60","yes","1024"
"100","100","599.803278689","599.803278689","black","legacy","legacy","legacy","0","Congruent","uniform","1","undefined","1","s","0","0","0","60","0","60","0","60","0","60","0","0","60","60","60","60","09/06/18 20:12:06","1500","The main experiment item","yes","Flankertask.osexp","C:/Users/Brad/OneDrive/Desktop/Tarleton school stuff/Fall 2018/Advanced Quantitative Methods","no","mono","no","18","no","white","no","yes","768","legacy","60","60","C:/Users/Brad/OneDrive/Desktop/Tarleton school stuff/Fall 2018/Advanced Quantitative Methods/bh-subject-3.csv","legacy","Kafkaesque Koffka","3.2.5","0","s","NA","NA","s","NA","s","514","NA","NA","47928","NA","514","2","legacy","1024","2","48000","-16","experiment","SSSSS","3","odd","52448","NA","NA","158376","NA","NA","4513","NA","NA","159441","4519","NA","159543","160058","159439","159543","Flanker task","61","36588","61","yes","1024"
"100","100","598.387096774","598.387096774","black","legacy","legacy","legacy","0","Incongruent","uniform","1","undefined","1","s","0","0","0","61","0","61","0","61","0","61","0","0","61","61","61","61","09/06/18 20:12:06","1500","The main experiment item","yes","Flankertask.osexp","C:/Users/Brad/OneDrive/Desktop/Tarleton school stuff/Fall 2018/Advanced Quantitative Methods","no","mono","no","18","no","white","no","yes","768","legacy","61","61","C:/Users/Brad/OneDrive/Desktop/Tarleton school stuff/Fall 2018/Advanced Quantitative Methods/bh-subject-3.csv","legacy","Kafkaesque Koffka","3.2.5","0","s","NA","NA","s","NA","s","512","NA","NA","47928","NA","512","2","legacy","1024","2","48000","-16","experiment","HHSHH","3","odd","52448","NA","NA","160069","NA","NA","4513","NA","NA","161135","4519","NA","161236","161749","161132","161236","Flanker task","62","37100","62","yes","1024"
"100","100","597.777777778","597.777777778","black","legacy","legacy","legacy","0","Congruent","uniform","1","undefined","1","s","0","0","0","62","0","62","0","62","0","62","0","0","62","62","62","62","09/06/18 20:12:06","1500","The main experiment item","yes","Flankertask.osexp","C:/Users/Brad/OneDrive/Desktop/Tarleton school stuff/Fall 2018/Advanced Quantitative Methods","no","mono","no","18","no","white","no","yes","768","legacy","62","62","C:/Users/Brad/OneDrive/Desktop/Tarleton school stuff/Fall 2018/Advanced Quantitative Methods/bh-subject-3.csv","legacy","Kafkaesque Koffka","3.2.5","0","s","NA","NA","s","NA","s","560","NA","NA","47928","NA","560","2","legacy","1024","2","48000","-16","experiment","SSSSS","3","odd","52448","NA","NA","161760","NA","NA","4513","NA","NA","162825","4519","NA","162928","163489","162823","162927","Flanker task","63","37660","63","yes","1024"
"100","100","596.6875","596.6875","black","legacy","legacy","legacy","0","Incongruent","uniform","1","undefined","1","h","0","0","0","63","0","63","0","63","0","63","0","0","63","63","63","63","09/06/18 20:12:06","1500","The main experiment item","yes","Flankertask.osexp","C:/Users/Brad/OneDrive/Desktop/Tarleton school stuff/Fall 2018/Advanced Quantitative Methods","no","mono","no","18","no","white","no","yes","768","legacy","63","63","C:/Users/Brad/OneDrive/Desktop/Tarleton school stuff/Fall 2018/Advanced Quantitative Methods/bh-subject-3.csv","legacy","Kafkaesque Koffka","3.2.5","0","h","NA","NA","s","NA","h","528","NA","NA","47928","NA","528","2","legacy","1024","2","48000","-16","experiment","SSHSS","3","odd","52448","NA","NA","163500","NA","NA","4513","NA","NA","164567","4519","NA","164668","165197","164564","164668","Flanker task","64","38188","64","yes","1024"
"100","100","596.246153846","596.246153846","black","legacy","legacy","legacy","0","Congruent","uniform","1","undefined","1","s","0","0","0","64","0","64","0","64","0","64","0","0","64","64","64","64","09/06/18 20:12:06","1500","The main experiment item","yes","Flankertask.osexp","C:/Users/Brad/OneDrive/Desktop/Tarleton school stuff/Fall 2018/Advanced Quantitative Methods","no","mono","no","18","no","white","no","yes","768","legacy","64","64","C:/Users/Brad/OneDrive/Desktop/Tarleton school stuff/Fall 2018/Advanced Quantitative Methods/bh-subject-3.csv","legacy","Kafkaesque Koffka","3.2.5","0","s","NA","NA","s","NA","s","568","NA","NA","47928","NA","568","2","legacy","1024","2","48000","-16","experiment","SSSSS","3","odd","52448","NA","NA","165209","NA","NA","4513","NA","NA","166275","4519","NA","166376","166945","166272","166376","Flanker task","65","38756","65","yes","1024"
"100","100","596.878787879","596.878787879","black","legacy","legacy","legacy","0","Congruent","uniform","1","undefined","1","s","0","0","0","65","0","65","0","65","0","65","0","0","65","65","65","65","09/06/18 20:12:06","1500","The main experiment item","yes","Flankertask.osexp","C:/Users/Brad/OneDrive/Desktop/Tarleton school stuff/Fall 2018/Advanced Quantitative Methods","no","mono","no","18","no","white","no","yes","768","legacy","65","65","C:/Users/Brad/OneDrive/Desktop/Tarleton school stuff/Fall 2018/Advanced Quantitative Methods/bh-subject-3.csv","legacy","Kafkaesque Koffka","3.2.5","0","s","NA","NA","s","NA","s","638","NA","NA","47928","NA","638","2","legacy","1024","2","48000","-16","experiment","SSSSS","3","odd","52448","NA","NA","166956","NA","NA","4513","NA","NA","168021","4519","NA","168124","168763","168019","168123","Flanker task","66","39394","66","yes","1024"
"100","100","594.940298507","594.940298507","black","legacy","legacy","legacy","0","Congruent","uniform","1","undefined","1","s","0","0","0","66","0","66","0","66","0","66","0","0","66","66","66","66","09/06/18 20:12:06","1500","The main experiment item","yes","Flankertask.osexp","C:/Users/Brad/OneDrive/Desktop/Tarleton school stuff/Fall 2018/Advanced Quantitative Methods","no","mono","no","18","no","white","no","yes","768","legacy","66","66","C:/Users/Brad/OneDrive/Desktop/Tarleton school stuff/Fall 2018/Advanced Quantitative Methods/bh-subject-3.csv","legacy","Kafkaesque Koffka","3.2.5","0","s","NA","NA","s","NA","s","467","NA","NA","47928","NA","467","2","legacy","1024","2","48000","-16","experiment","SSSSS","3","odd","52448","NA","NA","168774","NA","NA","4513","NA","NA","169840","4519","NA","169941","170409","169837","169941","Flanker task","67","39861","67","yes","1024"
"100","100","594.411764706","594.411764706","black","legacy","legacy","legacy","0","Incongruent","uniform","1","undefined","1","h","0","0","0","67","0","67","0","67","0","67","0","0","67","67","67","67","09/06/18 20:12:06","1500","The main experiment item","yes","Flankertask.osexp","C:/Users/Brad/OneDrive/Desktop/Tarleton school stuff/Fall 2018/Advanced Quantitative Methods","no","mono","no","18","no","white","no","yes","768","legacy","67","67","C:/Users/Brad/OneDrive/Desktop/Tarleton school stuff/Fall 2018/Advanced Quantitative Methods/bh-subject-3.csv","legacy","Kafkaesque Koffka","3.2.5","0","h","NA","NA","s","NA","h","559","NA","NA","47928","NA","559","2","legacy","1024","2","48000","-16","experiment","SSHSS","3","odd","52448","NA","NA","170420","NA","NA","4513","NA","NA","171485","4519","NA","171586","172146","171482","171586","Flanker task","68","40420","68","yes","1024"
"100","100","594.057971014","594.057971014","black","legacy","legacy","legacy","0","Incongruent","uniform","1","undefined","1","s","0","0","0","68","0","68","0","68","0","68","0","0","68","68","68","68","09/06/18 20:12:06","1500","The main experiment item","yes","Flankertask.osexp","C:/Users/Brad/OneDrive/Desktop/Tarleton school stuff/Fall 2018/Advanced Quantitative Methods","no","mono","no","18","no","white","no","yes","768","legacy","68","68","C:/Users/Brad/OneDrive/Desktop/Tarleton school stuff/Fall 2018/Advanced Quantitative Methods/bh-subject-3.csv","legacy","Kafkaesque Koffka","3.2.5","0","s","NA","NA","s","NA","s","570","NA","NA","47928","NA","570","2","legacy","1024","2","48000","-16","experiment","HHSHH","3","odd","52448","NA","NA","172157","NA","NA","4513","NA","NA","173226","4519","NA","173327","173898","173223","173327","Flanker task","69","40990","69","yes","1024"
"100","100","594.271428571","594.271428571","black","legacy","legacy","legacy","0","Incongruent","uniform","1","undefined","1","s","0","0","0","69","0","69","0","69","0","69","0","0","69","69","69","69","09/06/18 20:12:06","1500","The main experiment item","yes","Flankertask.osexp","C:/Users/Brad/OneDrive/Desktop/Tarleton school stuff/Fall 2018/Advanced Quantitative Methods","no","mono","no","18","no","white","no","yes","768","legacy","69","69","C:/Users/Brad/OneDrive/Desktop/Tarleton school stuff/Fall 2018/Advanced Quantitative Methods/bh-subject-3.csv","legacy","Kafkaesque Koffka","3.2.5","0","s","NA","NA","s","NA","s","609","NA","NA","47928","NA","609","2","legacy","1024","2","48000","-16","experiment","HHSHH","3","odd","52448","NA","NA","173909","NA","NA","4513","NA","NA","174973","4519","NA","175075","175685","174971","175075","Flanker task","70","41599","70","yes","1024"
"100","100","593.718309859","593.718309859","black","legacy","legacy","legacy","0","Incongruent","uniform","1","undefined","1","s","0","0","0","70","0","70","0","70","0","70","0","0","70","70","70","70","09/06/18 20:12:06","1500","The main experiment item","yes","Flankertask.osexp","C:/Users/Brad/OneDrive/Desktop/Tarleton school stuff/Fall 2018/Advanced Quantitative Methods","no","mono","no","18","no","white","no","yes","768","legacy","70","70","C:/Users/Brad/OneDrive/Desktop/Tarleton school stuff/Fall 2018/Advanced Quantitative Methods/bh-subject-3.csv","legacy","Kafkaesque Koffka","3.2.5","0","s","NA","NA","s","NA","s","555","NA","NA","47928","NA","555","2","legacy","1024","2","48000","-16","experiment","HHSHH","3","odd","52448","NA","NA","175693","NA","NA","4513","NA","NA","176760","4519","NA","176862","177418","176757","176861","Flanker task","71","42154","71","yes","1024"
"100","100","592.833333333","592.833333333","black","legacy","legacy","legacy","0","Incongruent","uniform","1","undefined","1","h","0","0","0","71","0","71","0","71","0","71","0","0","71","71","71","71","09/06/18 20:12:06","1500","The main experiment item","yes","Flankertask.osexp","C:/Users/Brad/OneDrive/Desktop/Tarleton school stuff/Fall 2018/Advanced Quantitative Methods","no","mono","no","18","no","white","no","yes","768","legacy","71","71","C:/Users/Brad/OneDrive/Desktop/Tarleton school stuff/Fall 2018/Advanced Quantitative Methods/bh-subject-3.csv","legacy","Kafkaesque Koffka","3.2.5","0","h","NA","NA","s","NA","h","530","NA","NA","47928","NA","530","2","legacy","1024","2","48000","-16","experiment","SSHSS","3","odd","52448","NA","NA","177429","NA","NA","4513","NA","NA","178497","4519","NA","178598","179129","178494","178598","Flanker task","72","42684","72","yes","1024"
"100","100","592.698630137","592.698630137","black","legacy","legacy","legacy","0","Congruent","uniform","1","undefined","1","s","0","0","0","72","0","72","0","72","0","72","0","0","72","72","72","72","09/06/18 20:12:06","1500","The main experiment item","yes","Flankertask.osexp","C:/Users/Brad/OneDrive/Desktop/Tarleton school stuff/Fall 2018/Advanced Quantitative Methods","no","mono","no","18","no","white","no","yes","768","legacy","72","72","C:/Users/Brad/OneDrive/Desktop/Tarleton school stuff/Fall 2018/Advanced Quantitative Methods/bh-subject-3.csv","legacy","Kafkaesque Koffka","3.2.5","0","s","NA","NA","s","NA","s","583","NA","NA","47928","NA","583","2","legacy","1024","2","48000","-16","experiment","SSSSS","3","odd","52448","NA","NA","179133","NA","NA","4513","NA","NA","180197","4519","NA","180298","180882","180194","180298","Flanker task","73","43267","73","yes","1024"
"100","100","591.702702703","591.702702703","black","legacy","legacy","legacy","0","Incongruent","uniform","1","undefined","1","s","0","0","0","73","0","73","0","73","0","73","0","0","73","73","73","73","09/06/18 20:12:06","1500","The main experiment item","yes","Flankertask.osexp","C:/Users/Brad/OneDrive/Desktop/Tarleton school stuff/Fall 2018/Advanced Quantitative Methods","no","mono","no","18","no","white","no","yes","768","legacy","73","73","C:/Users/Brad/OneDrive/Desktop/Tarleton school stuff/Fall 2018/Advanced Quantitative Methods/bh-subject-3.csv","legacy","Kafkaesque Koffka","3.2.5","0","s","NA","NA","s","NA","s","519","NA","NA","47928","NA","519","2","legacy","1024","2","48000","-16","experiment","HHSHH","3","odd","52448","NA","NA","180893","NA","NA","4513","NA","NA","181958","4519","NA","182059","182579","181955","182059","Flanker task","74","43786","74","yes","1024"
"100","100","590.173333333","590.173333333","black","legacy","legacy","legacy","0","Incongruent","uniform","1","undefined","1","h","0","0","0","74","0","74","0","74","0","74","0","0","74","74","74","74","09/06/18 20:12:06","1500","The main experiment item","yes","Flankertask.osexp","C:/Users/Brad/OneDrive/Desktop/Tarleton school stuff/Fall 2018/Advanced Quantitative Methods","no","mono","no","18","no","white","no","yes","768","legacy","74","74","C:/Users/Brad/OneDrive/Desktop/Tarleton school stuff/Fall 2018/Advanced Quantitative Methods/bh-subject-3.csv","legacy","Kafkaesque Koffka","3.2.5","0","h","NA","NA","s","NA","h","477","NA","NA","47928","NA","477","2","legacy","1024","2","48000","-16","experiment","SSHSS","3","odd","52448","NA","NA","182590","NA","NA","4513","NA","NA","183655","4519","NA","183756","184234","183653","183756","Flanker task","75","44263","75","yes","1024"
"100","100","590.815789474","590.815789474","black","legacy","legacy","legacy","0","Incongruent","uniform","1","undefined","1","h","0","0","0","75","0","75","0","75","0","75","0","0","75","75","75","75","09/06/18 20:12:06","1500","The main experiment item","yes","Flankertask.osexp","C:/Users/Brad/OneDrive/Desktop/Tarleton school stuff/Fall 2018/Advanced Quantitative Methods","no","mono","no","18","no","white","no","yes","768","legacy","75","75","C:/Users/Brad/OneDrive/Desktop/Tarleton school stuff/Fall 2018/Advanced Quantitative Methods/bh-subject-3.csv","legacy","Kafkaesque Koffka","3.2.5","0","h","NA","NA","s","NA","h","639","NA","NA","47928","NA","639","2","legacy","1024","2","48000","-16","experiment","SSHSS","3","odd","52448","NA","NA","184245","NA","NA","4513","NA","NA","185312","4519","NA","185413","186053","185310","185413","Flanker task","76","44902","76","yes","1024"
"100","100","591.064935065","591.064935065","black","legacy","legacy","legacy","0","Congruent","uniform","1","undefined","1","h","0","0","0","76","0","76","0","76","0","76","0","0","76","76","76","76","09/06/18 20:12:06","1500","The main experiment item","yes","Flankertask.osexp","C:/Users/Brad/OneDrive/Desktop/Tarleton school stuff/Fall 2018/Advanced Quantitative Methods","no","mono","no","18","no","white","no","yes","768","legacy","76","76","C:/Users/Brad/OneDrive/Desktop/Tarleton school stuff/Fall 2018/Advanced Quantitative Methods/bh-subject-3.csv","legacy","Kafkaesque Koffka","3.2.5","0","h","NA","NA","s","NA","h","610","NA","NA","47928","NA","610","2","legacy","1024","2","48000","-16","experiment","HHHHH","3","odd","52448","NA","NA","186058","NA","NA","4513","NA","NA","187145","4519","NA","187247","187858","187142","187247","Flanker task","77","45512","77","yes","1024"
"100","100","590.692307692","590.692307692","black","legacy","legacy","legacy","0","Congruent","uniform","1","undefined","1","s","0","0","0","77","0","77","0","77","0","77","0","0","77","77","77","77","09/06/18 20:12:06","1500","The main experiment item","yes","Flankertask.osexp","C:/Users/Brad/OneDrive/Desktop/Tarleton school stuff/Fall 2018/Advanced Quantitative Methods","no","mono","no","18","no","white","no","yes","768","legacy","77","77","C:/Users/Brad/OneDrive/Desktop/Tarleton school stuff/Fall 2018/Advanced Quantitative Methods/bh-subject-3.csv","legacy","Kafkaesque Koffka","3.2.5","0","s","NA","NA","s","NA","s","562","NA","NA","47928","NA","562","2","legacy","1024","2","48000","-16","experiment","SSSSS","3","odd","52448","NA","NA","187869","NA","NA","4513","NA","NA","188939","4519","NA","189040","189603","188937","189040","Flanker task","78","46074","78","yes","1024"
"100","100","590.708860759","590.708860759","black","legacy","legacy","legacy","0","Incongruent","uniform","1","undefined","1","h","0","0","0","78","0","78","0","78","0","78","0","0","78","78","78","78","09/06/18 20:12:06","1500","The main experiment item","yes","Flankertask.osexp","C:/Users/Brad/OneDrive/Desktop/Tarleton school stuff/Fall 2018/Advanced Quantitative Methods","no","mono","no","18","no","white","no","yes","768","legacy","78","78","C:/Users/Brad/OneDrive/Desktop/Tarleton school stuff/Fall 2018/Advanced Quantitative Methods/bh-subject-3.csv","legacy","Kafkaesque Koffka","3.2.5","0","h","NA","NA","s","NA","h","592","NA","NA","47928","NA","592","2","legacy","1024","2","48000","-16","experiment","SSHSS","3","odd","52448","NA","NA","189613","NA","NA","4513","NA","NA","190679","4519","NA","190780","191373","190676","190780","Flanker task","79","46666","79","yes","1024"
"100","100","590.475","590.475","black","legacy","legacy","legacy","0","Congruent","uniform","1","undefined","1","s","0","0","0","79","0","79","0","79","0","79","0","0","79","79","79","79","09/06/18 20:12:06","1500","The main experiment item","yes","Flankertask.osexp","C:/Users/Brad/OneDrive/Desktop/Tarleton school stuff/Fall 2018/Advanced Quantitative Methods","no","mono","no","18","no","white","no","yes","768","legacy","79","79","C:/Users/Brad/OneDrive/Desktop/Tarleton school stuff/Fall 2018/Advanced Quantitative Methods/bh-subject-3.csv","legacy","Kafkaesque Koffka","3.2.5","0","s","NA","NA","s","NA","s","572","NA","NA","47928","NA","572","2","legacy","1024","2","48000","-16","experiment","SSSSS","3","odd","52448","NA","NA","191384","NA","NA","4513","NA","NA","192451","4519","NA","192553","193126","192448","192552","Flanker task","80","47238","80","yes","1024"
"100","100","593.061728395","593.061728395","black","legacy","legacy","legacy","0","Incongruent","uniform","1","undefined","1","s","0","0","0","80","0","80","0","80","0","80","0","0","80","80","80","80","09/06/18 20:12:06","600","The main experiment item","yes","Flankertask.osexp","C:/Users/Brad/OneDrive/Desktop/Tarleton school stuff/Fall 2018/Advanced Quantitative Methods","no","mono","no","18","no","white","no","yes","768","legacy","0","79","C:/Users/Brad/OneDrive/Desktop/Tarleton school stuff/Fall 2018/Advanced Quantitative Methods/bh-subject-3.csv","legacy","Kafkaesque Koffka","3.2.5","0","s","NA","NA","s","s","s","800","NA","NA","47928","45063","800","2","legacy","1024","2","48000","-16","experiment","HHSHH","3","odd","52448","239214","NA","193137","NA","NA","4513","NA","NA","239292","4519","194150","239394","240195","239290","239393","Flanker task","81","48038","81","yes","1024"
"100","100","592.597560976","592.597560976","black","legacy","legacy","legacy","0","Congruent","uniform","1","undefined","1","h","0","0","0","81","0","81","0","81","0","81","0","0","81","81","81","81","09/06/18 20:12:06","600","The main experiment item","yes","Flankertask.osexp","C:/Users/Brad/OneDrive/Desktop/Tarleton school stuff/Fall 2018/Advanced Quantitative Methods","no","mono","no","18","no","white","no","yes","768","legacy","1","79","C:/Users/Brad/OneDrive/Desktop/Tarleton school stuff/Fall 2018/Advanced Quantitative Methods/bh-subject-3.csv","legacy","Kafkaesque Koffka","3.2.5","0","h","NA","NA","s","s","h","555","NA","NA","47928","45063","555","2","legacy","1024","2","48000","-16","experiment","HHHHH","3","odd","52448","239214","NA","240707","NA","NA","4513","240206","NA","241775","4519","194150","241877","242433","241773","241877","Flanker task","82","48593","82","yes","1024"
"100","100","592.277108434","592.277108434","black","legacy","legacy","legacy","0","Incongruent","uniform","1","undefined","1","s","0","0","0","82","0","82","0","82","0","82","0","0","82","82","82","82","09/06/18 20:12:06","600","The main experiment item","yes","Flankertask.osexp","C:/Users/Brad/OneDrive/Desktop/Tarleton school stuff/Fall 2018/Advanced Quantitative Methods","no","mono","no","18","no","white","no","yes","768","legacy","2","79","C:/Users/Brad/OneDrive/Desktop/Tarleton school stuff/Fall 2018/Advanced Quantitative Methods/bh-subject-3.csv","legacy","Kafkaesque Koffka","3.2.5","0","s","NA","NA","s","s","s","566","NA","NA","47928","45063","566","2","legacy","1024","2","48000","-16","experiment","HHSHH","3","odd","52448","239214","NA","242445","NA","NA","4513","240206","NA","243512","4519","194150","243614","244181","243509","243614","Flanker task","83","49159","83","yes","1024"
"100","100","591.035714286","591.035714286","black","legacy","legacy","legacy","0","Congruent","uniform","1","undefined","1","s","0","0","0","83","0","83","0","83","0","83","0","0","83","83","83","83","09/06/18 20:12:06","600","The main experiment item","yes","Flankertask.osexp","C:/Users/Brad/OneDrive/Desktop/Tarleton school stuff/Fall 2018/Advanced Quantitative Methods","no","mono","no","18","no","white","no","yes","768","legacy","3","79","C:/Users/Brad/OneDrive/Desktop/Tarleton school stuff/Fall 2018/Advanced Quantitative Methods/bh-subject-3.csv","legacy","Kafkaesque Koffka","3.2.5","0","s","NA","NA","s","s","s","488","NA","NA","47928","45063","488","2","legacy","1024","2","48000","-16","experiment","SSSSS","3","odd","52448","239214","NA","244185","NA","NA","4513","240206","NA","245251","4519","194150","245352","245841","245248","245352","Flanker task","84","49647","84","yes","1024"
"100","100","590.482352941","590.482352941","black","legacy","legacy","legacy","0","Incongruent","uniform","1","undefined","1","h","0","0","0","84","0","84","0","84","0","84","0","0","84","84","84","84","09/06/18 20:12:06","600","The main experiment item","yes","Flankertask.osexp","C:/Users/Brad/OneDrive/Desktop/Tarleton school stuff/Fall 2018/Advanced Quantitative Methods","no","mono","no","18","no","white","no","yes","768","legacy","4","79","C:/Users/Brad/OneDrive/Desktop/Tarleton school stuff/Fall 2018/Advanced Quantitative Methods/bh-subject-3.csv","legacy","Kafkaesque Koffka","3.2.5","0","h","NA","NA","s","s","h","544","NA","NA","47928","45063","544","2","legacy","1024","2","48000","-16","experiment","SSHSS","3","odd","52448","239214","NA","245852","NA","NA","4513","240206","NA","246916","4519","194150","247017","247562","246913","247017","Flanker task","85","50191","85","yes","1024"
"100","100","588.848837209","588.848837209","black","legacy","legacy","legacy","0","Congruent","uniform","1","undefined","1","h","0","0","0","85","0","85","0","85","0","85","0","0","85","85","85","85","09/06/18 20:12:06","600","The main experiment item","yes","Flankertask.osexp","C:/Users/Brad/OneDrive/Desktop/Tarleton school stuff/Fall 2018/Advanced Quantitative Methods","no","mono","no","18","no","white","no","yes","768","legacy","5","79","C:/Users/Brad/OneDrive/Desktop/Tarleton school stuff/Fall 2018/Advanced Quantitative Methods/bh-subject-3.csv","legacy","Kafkaesque Koffka","3.2.5","0","h","NA","NA","s","s","h","450","NA","NA","47928","45063","450","2","legacy","1024","2","48000","-16","experiment","HHHHH","3","odd","52448","239214","NA","247573","NA","NA","4513","240206","NA","248641","4519","194150","248745","249197","248638","248745","Flanker task","86","50641","86","yes","1024"
"100","100","587.781609195","587.781609195","black","legacy","legacy","legacy","0","Incongruent","uniform","1","undefined","1","s","0","0","0","86","0","86","0","86","0","86","0","0","86","86","86","86","09/06/18 20:12:06","600","The main experiment item","yes","Flankertask.osexp","C:/Users/Brad/OneDrive/Desktop/Tarleton school stuff/Fall 2018/Advanced Quantitative Methods","no","mono","no","18","no","white","no","yes","768","legacy","6","79","C:/Users/Brad/OneDrive/Desktop/Tarleton school stuff/Fall 2018/Advanced Quantitative Methods/bh-subject-3.csv","legacy","Kafkaesque Koffka","3.2.5","0","s","NA","NA","s","s","s","496","NA","NA","47928","45063","496","2","legacy","1024","2","48000","-16","experiment","HHSHH","3","odd","52448","239214","NA","249201","NA","NA","4513","240206","NA","250268","4519","194150","250370","250867","250265","250369","Flanker task","87","51137","87","yes","1024"
"100","100","585.681818182","585.681818182","black","legacy","legacy","legacy","0","Incongruent","uniform","1","undefined","1","h","0","0","0","87","0","87","0","87","0","87","0","0","87","87","87","87","09/06/18 20:12:06","600","The main experiment item","yes","Flankertask.osexp","C:/Users/Brad/OneDrive/Desktop/Tarleton school stuff/Fall 2018/Advanced Quantitative Methods","no","mono","no","18","no","white","no","yes","768","legacy","7","79","C:/Users/Brad/OneDrive/Desktop/Tarleton school stuff/Fall 2018/Advanced Quantitative Methods/bh-subject-3.csv","legacy","Kafkaesque Koffka","3.2.5","0","h","NA","NA","s","s","h","403","NA","NA","47928","45063","403","2","legacy","1024","2","48000","-16","experiment","SSHSS","3","odd","52448","239214","NA","250878","NA","NA","4513","240206","NA","251943","4519","194150","252044","252448","251941","252044","Flanker task","88","51540","88","yes","1024"
"98.8764044944","98.8764044944","583.426966292","583.426966292","black","legacy","legacy","legacy","0","Incongruent","uniform","0","undefined","0","h","0","0","0","88","0","88","0","88","0","88","0","0","88","88","88","88","09/06/18 20:12:06","600","The main experiment item","yes","Flankertask.osexp","C:/Users/Brad/OneDrive/Desktop/Tarleton school stuff/Fall 2018/Advanced Quantitative Methods","no","mono","no","18","no","white","no","yes","768","legacy","8","79","C:/Users/Brad/OneDrive/Desktop/Tarleton school stuff/Fall 2018/Advanced Quantitative Methods/bh-subject-3.csv","legacy","Kafkaesque Koffka","3.2.5","0","s","NA","NA","s","s","s","385","NA","NA","47928","45063","385","2","legacy","1024","2","48000","-16","experiment","SSHSS","3","odd","52448","239214","NA","252459","NA","NA","4513","240206","NA","253525","4519","194150","253626","254013","253522","253626","Flanker task","88","51925","89","yes","1024"
"98.8888888889","98.8888888889","583.622222222","583.622222222","black","legacy","legacy","legacy","0","Incongruent","uniform","1","undefined","1","s","0","0","0","89","0","89","0","89","0","89","0","0","89","89","89","89","09/06/18 20:12:06","600","The main experiment item","yes","Flankertask.osexp","C:/Users/Brad/OneDrive/Desktop/Tarleton school stuff/Fall 2018/Advanced Quantitative Methods","no","mono","no","18","no","white","no","yes","768","legacy","9","79","C:/Users/Brad/OneDrive/Desktop/Tarleton school stuff/Fall 2018/Advanced Quantitative Methods/bh-subject-3.csv","legacy","Kafkaesque Koffka","3.2.5","0","s","NA","NA","s","s","s","601","NA","NA","47928","45063","601","2","legacy","1024","2","48000","-16","experiment","HHSHH","3","odd","52448","239214","NA","254526","NA","254023","4513","240206","NA","255590","4519","194150","255693","256295","255588","255692","Flanker task","89","52526","90","yes","1024"
"98.9010989011","98.9010989011","583.175824176","583.175824176","black","legacy","legacy","legacy","0","Incongruent","uniform","1","undefined","1","h","0","0","0","90","0","90","0","90","0","90","0","0","90","90","90","90","09/06/18 20:12:06","600","The main experiment item","yes","Flankertask.osexp","C:/Users/Brad/OneDrive/Desktop/Tarleton school stuff/Fall 2018/Advanced Quantitative Methods","no","mono","no","18","no","white","no","yes","768","legacy","10","79","C:/Users/Brad/OneDrive/Desktop/Tarleton school stuff/Fall 2018/Advanced Quantitative Methods/bh-subject-3.csv","legacy","Kafkaesque Koffka","3.2.5","0","h","NA","NA","s","s","h","543","NA","NA","47928","45063","543","2","legacy","1024","2","48000","-16","experiment","SSHSS","3","odd","52448","239214","NA","256808","NA","254023","4513","256306","NA","257874","4519","194150","257975","258519","257871","257975","Flanker task","90","53069","91","yes","1024"
"98.9130434783","98.9130434783","582.489130435","582.489130435","black","legacy","legacy","legacy","0","Incongruent","uniform","1","undefined","1","h","0","0","0","91","0","91","0","91","0","91","0","0","91","91","91","91","09/06/18 20:12:06","600","The main experiment item","yes","Flankertask.osexp","C:/Users/Brad/OneDrive/Desktop/Tarleton school stuff/Fall 2018/Advanced Quantitative Methods","no","mono","no","18","no","white","no","yes","768","legacy","11","79","C:/Users/Brad/OneDrive/Desktop/Tarleton school stuff/Fall 2018/Advanced Quantitative Methods/bh-subject-3.csv","legacy","Kafkaesque Koffka","3.2.5","0","h","NA","NA","s","s","h","520","NA","NA","47928","45063","520","2","legacy","1024","2","48000","-16","experiment","SSHSS","3","odd","52448","239214","NA","258530","NA","254023","4513","256306","NA","259597","4519","194150","259698","260219","259594","259698","Flanker task","91","53589","92","yes","1024"
"98.9247311828","98.9247311828","581.075268817","581.075268817","black","legacy","legacy","legacy","0","Incongruent","uniform","1","undefined","1","h","0","0","0","92","0","92","0","92","0","92","0","0","92","92","92","92","09/06/18 20:12:06","600","The main experiment item","yes","Flankertask.osexp","C:/Users/Brad/OneDrive/Desktop/Tarleton school stuff/Fall 2018/Advanced Quantitative Methods","no","mono","no","18","no","white","no","yes","768","legacy","12","79","C:/Users/Brad/OneDrive/Desktop/Tarleton school stuff/Fall 2018/Advanced Quantitative Methods/bh-subject-3.csv","legacy","Kafkaesque Koffka","3.2.5","0","h","NA","NA","s","s","h","451","NA","NA","47928","45063","451","2","legacy","1024","2","48000","-16","experiment","SSHSS","3","odd","52448","239214","NA","260223","NA","254023","4513","256306","NA","261291","4519","194150","261393","261845","261289","261392","Flanker task","92","54040","93","yes","1024"
"98.9361702128","98.9361702128","579.446808511","579.446808511","black","legacy","legacy","legacy","0","Congruent","uniform","1","undefined","1","h","0","0","0","93","0","93","0","93","0","93","0","0","93","93","93","93","09/06/18 20:12:06","600","The main experiment item","yes","Flankertask.osexp","C:/Users/Brad/OneDrive/Desktop/Tarleton school stuff/Fall 2018/Advanced Quantitative Methods","no","mono","no","18","no","white","no","yes","768","legacy","13","79","C:/Users/Brad/OneDrive/Desktop/Tarleton school stuff/Fall 2018/Advanced Quantitative Methods/bh-subject-3.csv","legacy","Kafkaesque Koffka","3.2.5","0","h","NA","NA","s","s","h","428","NA","NA","47928","45063","428","2","legacy","1024","2","48000","-16","experiment","HHHHH","3","odd","52448","239214","NA","261856","NA","254023","4513","256306","NA","262921","4519","194150","263023","263452","262918","263022","Flanker task","93","54468","94","yes","1024"
"98.9473684211","98.9473684211","578.747368421","578.747368421","black","legacy","legacy","legacy","0","Congruent","uniform","1","undefined","1","s","0","0","0","94","0","94","0","94","0","94","0","0","94","94","94","94","09/06/18 20:12:06","600","The main experiment item","yes","Flankertask.osexp","C:/Users/Brad/OneDrive/Desktop/Tarleton school stuff/Fall 2018/Advanced Quantitative Methods","no","mono","no","18","no","white","no","yes","768","legacy","14","79","C:/Users/Brad/OneDrive/Desktop/Tarleton school stuff/Fall 2018/Advanced Quantitative Methods/bh-subject-3.csv","legacy","Kafkaesque Koffka","3.2.5","0","s","NA","NA","s","s","s","513","NA","NA","47928","45063","513","2","legacy","1024","2","48000","-16","experiment","SSSSS","3","odd","52448","239214","NA","263463","NA","254023","4513","256306","NA","264528","4519","194150","264629","265143","264526","264629","Flanker task","94","54981","95","yes","1024"
"98.9583333333","98.9583333333","577.770833333","577.770833333","black","legacy","legacy","legacy","0","Incongruent","uniform","1","undefined","1","s","0","0","0","95","0","95","0","95","0","95","0","0","95","95","95","95","09/06/18 20:12:06","600","The main experiment item","yes","Flankertask.osexp","C:/Users/Brad/OneDrive/Desktop/Tarleton school stuff/Fall 2018/Advanced Quantitative Methods","no","mono","no","18","no","white","no","yes","768","legacy","15","79","C:/Users/Brad/OneDrive/Desktop/Tarleton school stuff/Fall 2018/Advanced Quantitative Methods/bh-subject-3.csv","legacy","Kafkaesque Koffka","3.2.5","0","s","NA","NA","s","s","s","485","NA","NA","47928","45063","485","2","legacy","1024","2","48000","-16","experiment","HHSHH","3","odd","52448","239214","NA","265154","NA","254023","4513","256306","NA","266220","4519","194150","266322","266808","266217","266321","Flanker task","95","55466","96","yes","1024"
"98.9690721649","98.9690721649","575.824742268","575.824742268","black","legacy","legacy","legacy","0","Congruent","uniform","1","undefined","1","h","0","0","0","96","0","96","0","96","0","96","0","0","96","96","96","96","09/06/18 20:12:06","600","The main experiment item","yes","Flankertask.osexp","C:/Users/Brad/OneDrive/Desktop/Tarleton school stuff/Fall 2018/Advanced Quantitative Methods","no","mono","no","18","no","white","no","yes","768","legacy","16","79","C:/Users/Brad/OneDrive/Desktop/Tarleton school stuff/Fall 2018/Advanced Quantitative Methods/bh-subject-3.csv","legacy","Kafkaesque Koffka","3.2.5","0","h","NA","NA","s","s","h","389","NA","NA","47928","45063","389","2","legacy","1024","2","48000","-16","experiment","HHHHH","3","odd","52448","239214","NA","266819","NA","254023","4513","256306","NA","267887","4519","194150","267988","268378","267884","267988","Flanker task","96","55855","97","yes","1024"
"98.9795918367","98.9795918367","575.306122449","575.306122449","black","legacy","legacy","legacy","0","Incongruent","uniform","1","undefined","1","s","0","0","0","97","0","97","0","97","0","97","0","0","97","97","97","97","09/06/18 20:12:06","600","The main experiment item","yes","Flankertask.osexp","C:/Users/Brad/OneDrive/Desktop/Tarleton school stuff/Fall 2018/Advanced Quantitative Methods","no","mono","no","18","no","white","no","yes","768","legacy","17","79","C:/Users/Brad/OneDrive/Desktop/Tarleton school stuff/Fall 2018/Advanced Quantitative Methods/bh-subject-3.csv","legacy","Kafkaesque Koffka","3.2.5","0","s","NA","NA","s","s","s","525","NA","NA","47928","45063","525","2","legacy","1024","2","48000","-16","experiment","HHSHH","3","odd","52448","239214","NA","268387","NA","254023","4513","256306","NA","269453","4519","194150","269554","270080","269450","269554","Flanker task","97","56380","98","yes","1024"
"98.9898989899","98.9898989899","574.626262626","574.626262626","black","legacy","legacy","legacy","0","Congruent","uniform","1","undefined","1","h","0","0","0","98","0","98","0","98","0","98","0","0","98","98","98","98","09/06/18 20:12:06","600","The main experiment item","yes","Flankertask.osexp","C:/Users/Brad/OneDrive/Desktop/Tarleton school stuff/Fall 2018/Advanced Quantitative Methods","no","mono","no","18","no","white","no","yes","768","legacy","18","79","C:/Users/Brad/OneDrive/Desktop/Tarleton school stuff/Fall 2018/Advanced Quantitative Methods/bh-subject-3.csv","legacy","Kafkaesque Koffka","3.2.5","0","h","NA","NA","s","s","h","508","NA","NA","47928","45063","508","2","legacy","1024","2","48000","-16","experiment","HHHHH","3","odd","52448","239214","NA","270091","NA","254023","4513","256306","NA","271157","4519","194150","271259","271770","271155","271259","Flanker task","98","56888","99","yes","1024"
"99","99","573.2","573.2","black","legacy","legacy","legacy","0","Congruent","uniform","1","undefined","1","h","0","0","0","99","0","99","0","99","0","99","0","0","99","99","99","99","09/06/18 20:12:06","600","The main experiment item","yes","Flankertask.osexp","C:/Users/Brad/OneDrive/Desktop/Tarleton school stuff/Fall 2018/Advanced Quantitative Methods","no","mono","no","18","no","white","no","yes","768","legacy","19","79","C:/Users/Brad/OneDrive/Desktop/Tarleton school stuff/Fall 2018/Advanced Quantitative Methods/bh-subject-3.csv","legacy","Kafkaesque Koffka","3.2.5","0","h","NA","NA","s","s","h","432","NA","NA","47928","45063","432","2","legacy","1024","2","48000","-16","experiment","HHHHH","3","odd","52448","239214","NA","271780","NA","254023","4513","256306","NA","272847","4519","194150","272948","273381","272844","272948","Flanker task","99","57320","100","yes","1024"
"99.0099009901","99.0099009901","571.683168317","571.683168317","black","legacy","legacy","legacy","0","Congruent","uniform","1","undefined","1","h","0","0","0","100","0","100","0","100","0","100","0","0","100","100","100","100","09/06/18 20:12:06","600","The main experiment item","yes","Flankertask.osexp","C:/Users/Brad/OneDrive/Desktop/Tarleton school stuff/Fall 2018/Advanced Quantitative Methods","no","mono","no","18","no","white","no","yes","768","legacy","20","79","C:/Users/Brad/OneDrive/Desktop/Tarleton school stuff/Fall 2018/Advanced Quantitative Methods/bh-subject-3.csv","legacy","Kafkaesque Koffka","3.2.5","0","h","NA","NA","s","s","h","420","NA","NA","47928","45063","420","2","legacy","1024","2","48000","-16","experiment","HHHHH","3","odd","52448","239214","NA","273392","NA","254023","4513","256306","NA","274458","4519","194150","274559","274981","274455","274559","Flanker task","100","57740","101","yes","1024"
"99.0196078431","99.0196078431","571.705882353","571.705882353","black","legacy","legacy","legacy","0","Incongruent","uniform","1","undefined","1","h","0","0","0","101","0","101","0","101","0","101","0","0","101","101","101","101","09/06/18 20:12:06","600","The main experiment item","yes","Flankertask.osexp","C:/Users/Brad/OneDrive/Desktop/Tarleton school stuff/Fall 2018/Advanced Quantitative Methods","no","mono","no","18","no","white","no","yes","768","legacy","21","79","C:/Users/Brad/OneDrive/Desktop/Tarleton school stuff/Fall 2018/Advanced Quantitative Methods/bh-subject-3.csv","legacy","Kafkaesque Koffka","3.2.5","0","h","NA","NA","s","s","h","574","NA","NA","47928","45063","574","2","legacy","1024","2","48000","-16","experiment","SSHSS","3","odd","52448","239214","NA","274992","NA","254023","4513","256306","NA","276067","4519","194150","276168","276743","276064","276168","Flanker task","101","58314","102","yes","1024"
"99.0291262136","99.0291262136","570.893203883","570.893203883","black","legacy","legacy","legacy","0","Congruent","uniform","1","undefined","1","s","0","0","0","102","0","102","0","102","0","102","0","0","102","102","102","102","09/06/18 20:12:06","600","The main experiment item","yes","Flankertask.osexp","C:/Users/Brad/OneDrive/Desktop/Tarleton school stuff/Fall 2018/Advanced Quantitative Methods","no","mono","no","18","no","white","no","yes","768","legacy","22","79","C:/Users/Brad/OneDrive/Desktop/Tarleton school stuff/Fall 2018/Advanced Quantitative Methods/bh-subject-3.csv","legacy","Kafkaesque Koffka","3.2.5","0","s","NA","NA","s","s","s","488","NA","NA","47928","45063","488","2","legacy","1024","2","48000","-16","experiment","SSSSS","3","odd","52448","239214","NA","276754","NA","254023","4513","256306","NA","277820","4519","194150","277922","278411","277818","277922","Flanker task","102","58802","103","yes","1024"
"99.0384615385","99.0384615385","569.759615385","569.759615385","black","legacy","legacy","legacy","0","Congruent","uniform","1","undefined","1","s","0","0","0","103","0","103","0","103","0","103","0","0","103","103","103","103","09/06/18 20:12:06","600","The main experiment item","yes","Flankertask.osexp","C:/Users/Brad/OneDrive/Desktop/Tarleton school stuff/Fall 2018/Advanced Quantitative Methods","no","mono","no","18","no","white","no","yes","768","legacy","23","79","C:/Users/Brad/OneDrive/Desktop/Tarleton school stuff/Fall 2018/Advanced Quantitative Methods/bh-subject-3.csv","legacy","Kafkaesque Koffka","3.2.5","0","s","NA","NA","s","s","s","453","NA","NA","47928","45063","453","2","legacy","1024","2","48000","-16","experiment","SSSSS","3","odd","52448","239214","NA","278422","NA","254023","4513","256306","NA","279488","4519","194150","279589","280043","279485","279589","Flanker task","103","59255","104","yes","1024"
"99.0476190476","99.0476190476","569.123809524","569.123809524","black","legacy","legacy","legacy","0","Incongruent","uniform","1","undefined","1","s","0","0","0","104","0","104","0","104","0","104","0","0","104","104","104","104","09/06/18 20:12:06","600","The main experiment item","yes","Flankertask.osexp","C:/Users/Brad/OneDrive/Desktop/Tarleton school stuff/Fall 2018/Advanced Quantitative Methods","no","mono","no","18","no","white","no","yes","768","legacy","24","79","C:/Users/Brad/OneDrive/Desktop/Tarleton school stuff/Fall 2018/Advanced Quantitative Methods/bh-subject-3.csv","legacy","Kafkaesque Koffka","3.2.5","0","s","NA","NA","s","s","s","503","NA","NA","47928","45063","503","2","legacy","1024","2","48000","-16","experiment","HHSHH","3","odd","52448","239214","NA","280054","NA","254023","4513","256306","NA","281118","4519","194150","281220","281724","281117","281220","Flanker task","104","59758","105","yes","1024"
"99.0566037736","99.0566037736","568.047169811","568.047169811","black","legacy","legacy","legacy","0","Incongruent","uniform","1","undefined","1","s","0","0","0","105","0","105","0","105","0","105","0","0","105","105","105","105","09/06/18 20:12:06","600","The main experiment item","yes","Flankertask.osexp","C:/Users/Brad/OneDrive/Desktop/Tarleton school stuff/Fall 2018/Advanced Quantitative Methods","no","mono","no","18","no","white","no","yes","768","legacy","25","79","C:/Users/Brad/OneDrive/Desktop/Tarleton school stuff/Fall 2018/Advanced Quantitative Methods/bh-subject-3.csv","legacy","Kafkaesque Koffka","3.2.5","0","s","NA","NA","s","s","s","455","NA","NA","47928","45063","455","2","legacy","1024","2","48000","-16","experiment","HHSHH","3","odd","52448","239214","NA","281735","NA","254023","4513","256306","NA","282800","4519","194150","282902","283358","282797","282901","Flanker task","105","60213","106","yes","1024"
"99.0654205607","99.0654205607","566.710280374","566.710280374","black","legacy","legacy","legacy","0","Congruent","uniform","1","undefined","1","s","0","0","0","106","0","106","0","106","0","106","0","0","106","106","106","106","09/06/18 20:12:06","600","The main experiment item","yes","Flankertask.osexp","C:/Users/Brad/OneDrive/Desktop/Tarleton school stuff/Fall 2018/Advanced Quantitative Methods","no","mono","no","18","no","white","no","yes","768","legacy","26","79","C:/Users/Brad/OneDrive/Desktop/Tarleton school stuff/Fall 2018/Advanced Quantitative Methods/bh-subject-3.csv","legacy","Kafkaesque Koffka","3.2.5","0","s","NA","NA","s","s","s","425","NA","NA","47928","45063","425","2","legacy","1024","2","48000","-16","experiment","SSSSS","3","odd","52448","239214","NA","283369","NA","254023","4513","256306","NA","284435","4519","194150","284536","284962","284433","284536","Flanker task","106","60638","107","yes","1024"
"99.0740740741","99.0740740741","565.527777778","565.527777778","black","legacy","legacy","legacy","0","Incongruent","uniform","1","undefined","1","s","0","0","0","107","0","107","0","107","0","107","0","0","107","107","107","107","09/06/18 20:12:06","600","The main experiment item","yes","Flankertask.osexp","C:/Users/Brad/OneDrive/Desktop/Tarleton school stuff/Fall 2018/Advanced Quantitative Methods","no","mono","no","18","no","white","no","yes","768","legacy","27","79","C:/Users/Brad/OneDrive/Desktop/Tarleton school stuff/Fall 2018/Advanced Quantitative Methods/bh-subject-3.csv","legacy","Kafkaesque Koffka","3.2.5","0","s","NA","NA","s","s","s","439","NA","NA","47928","45063","439","2","legacy","1024","2","48000","-16","experiment","HHSHH","3","odd","52448","239214","NA","284973","NA","254023","4513","256306","NA","286039","4519","194150","286140","286581","286037","286140","Flanker task","107","61077","108","yes","1024"
"98.1651376147","98.1651376147","564.422018349","564.422018349","black","legacy","legacy","legacy","0","Incongruent","uniform","0","undefined","0","h","0","0","0","108","0","108","0","108","0","108","0","0","108","108","108","108","09/06/18 20:12:06","600","The main experiment item","yes","Flankertask.osexp","C:/Users/Brad/OneDrive/Desktop/Tarleton school stuff/Fall 2018/Advanced Quantitative Methods","no","mono","no","18","no","white","no","yes","768","legacy","28","79","C:/Users/Brad/OneDrive/Desktop/Tarleton school stuff/Fall 2018/Advanced Quantitative Methods/bh-subject-3.csv","legacy","Kafkaesque Koffka","3.2.5","0","s","NA","NA","s","s","s","445","NA","NA","47928","45063","445","2","legacy","1024","2","48000","-16","experiment","SSHSS","3","odd","52448","239214","NA","286592","NA","254023","4513","256306","NA","287657","4519","194150","287758","288204","287654","287758","Flanker task","107","61522","109","yes","1024"
