acc,accuracy,average_response_time,avg_rt,background,block,canvas_backend,clock_backend,color_backend,compensation,coordinates,correct,correct_instruction1,correct_keyboard_response,correct_response,count_ISI,count_correctFeedback,count_expSequence,count_experiment,count_experimentLoop,count_fixation,count_incorrectFeedback,count_instruction1,count_instructions2,count_keyboard_response,count_logger,count_memorySet,count_practiceLoop,count_probe,count_thankYou,datetime,description,disable_garbage_collection,experiment_file,experiment_path,font_bold,font_family,font_italic,font_size,font_underline,foreground,form_clicks,fullscreen,height,keyboard_backend,live_row,live_row_practiceLoop,logfile,mouse_backend,numberSet,opensesame_codename,opensesame_version,posInSet,present,repeat_cycle,response,response_instruction1,response_instructions2,response_keyboard_response,response_thankYou,response_time,response_time_instruction1,response_time_instructions2,response_time_keyboard_response,response_time_thankYou,round_decimals,sampler_backend,setSize,sound_buf_size,sound_channels,sound_freq,sound_sample_size,start,subject_nr,subject_parity,target,time_ISI,time_correctFeedback,time_expSequence,time_experiment,time_experimentLoop,time_fixation,time_incorrectFeedback,time_instruction1,time_instructions2,time_keyboard_response,time_logger,time_memorySet,time_practiceLoop,time_probe,time_thankYou,title,total_correct,total_response_time,total_responses,uniform_coordinates,width
100,100,914,914,black,practice,legacy,legacy,legacy,0,uniform,1,undefined,1,right,0,0,0,0,0,0,0,0,0,0,0,0,0,0,0,10/23/19 18:14,The main experiment item,yes,Sternbergtask SL.osexp,C:/Users/Sarah Linan/Desktop,no,mono,no,18,no,white,no,yes,768,legacy,0,0,C:/Users/Sarah Linan/Desktop/subject-S2.csv,legacy,4 1 5,Kafkaesque Koffka,3.2.8,0,n,0,right,right,NA,right,NA,914,2290,NA,914,NA,2,legacy,3,1024,2,48000,-16,experiment,2,even,2,7290,NA,5079,1908,NA,5084,NA,1915,NA,9294,10208,6086,4206,9293,NA,Sternberg task,1,914,1,yes,1024
100,100,912.5,912.5,black,practice,legacy,legacy,legacy,0,uniform,1,undefined,1,right,1,1,1,0,0,1,1,0,0,1,1,1,0,1,0,10/23/19 18:14,The main experiment item,yes,Sternbergtask SL.osexp,C:/Users/Sarah Linan/Desktop,no,mono,no,18,no,white,no,yes,768,legacy,1,1,C:/Users/Sarah Linan/Desktop/subject-S2.csv,legacy,5,Kafkaesque Koffka,3.2.8,0,n,0,right,right,NA,right,NA,911,2290,NA,911,NA,2,legacy,1,1024,2,48000,-16,experiment,2,even,3,13745,10370,11535,1908,NA,11537,NA,1915,NA,15748,16659,12541,4206,15748,NA,Sternberg task,2,1825,2,yes,1024
100,100,944.3333333,944.3333333,black,practice,legacy,legacy,legacy,0,uniform,1,undefined,1,right,2,2,2,0,0,2,2,0,0,2,2,2,0,2,0,10/23/19 18:14,The main experiment item,yes,Sternbergtask SL.osexp,C:/Users/Sarah Linan/Desktop,no,mono,no,18,no,white,no,yes,768,legacy,2,2,C:/Users/Sarah Linan/Desktop/subject-S2.csv,legacy,3 1 9 4,Kafkaesque Koffka,3.2.8,0,n,0,right,right,NA,right,NA,1008,2290,NA,1008,NA,2,legacy,4,1024,2,48000,-16,experiment,2,even,6,20150,16753,17940,1908,NA,17942,NA,1915,NA,22156,23164,18946,4206,22155,NA,Sternberg task,3,2833,3,yes,1024
75,75,927,927,black,practice,legacy,legacy,legacy,0,uniform,0,undefined,0,left,3,3,3,0,0,3,3,0,0,3,3,3,0,3,0,10/23/19 18:14,The main experiment item,yes,Sternbergtask SL.osexp,C:/Users/Sarah Linan/Desktop,no,mono,no,18,no,white,no,yes,768,legacy,3,3,C:/Users/Sarah Linan/Desktop/subject-S2.csv,legacy,4 3 1 7 9 8,Kafkaesque Koffka,3.2.8,1,y,0,right,right,NA,right,NA,875,2290,NA,875,NA,2,legacy,6,1024,2,48000,-16,experiment,2,even,4,26676,23277,24465,1908,NA,24467,NA,1915,NA,28680,29556,25471,4206,28680,NA,Sternberg task,3,3708,4,yes,1024
80,80,853.6,853.6,black,practice,legacy,legacy,legacy,0,uniform,1,undefined,1,left,4,4,4,0,0,4,4,0,0,4,4,4,0,4,0,10/23/19 18:14,The main experiment item,yes,Sternbergtask SL.osexp,C:/Users/Sarah Linan/Desktop,no,mono,no,18,no,white,no,yes,768,legacy,4,4,C:/Users/Sarah Linan/Desktop/subject-S2.csv,legacy,1 5 2 9,Kafkaesque Koffka,3.2.8,2,y,0,left,right,NA,left,NA,560,2290,NA,560,NA,2,legacy,4,1024,2,48000,-16,experiment,2,even,5,33027,23277,30816,1908,NA,30819,29646,1915,NA,35032,35592,31823,4206,35031,NA,Sternberg task,4,4268,5,yes,1024
83.33333333,83.33333333,837.5,837.5,black,practice,legacy,legacy,legacy,0,uniform,1,undefined,1,left,5,5,5,0,0,5,5,0,0,5,5,5,0,5,0,10/23/19 18:14,The main experiment item,yes,Sternbergtask SL.osexp,C:/Users/Sarah Linan/Desktop,no,mono,no,18,no,white,no,yes,768,legacy,5,5,C:/Users/Sarah Linan/Desktop/subject-S2.csv,legacy,2 9 4,Kafkaesque Koffka,3.2.8,3,y,0,left,right,NA,left,NA,757,2290,NA,757,NA,2,legacy,3,1024,2,48000,-16,experiment,2,even,4,39060,35674,36849,1908,NA,36851,29646,1915,NA,41064,41821,37854,4206,41064,NA,Sternberg task,5,5025,6,yes,1024
71.42857143,71.42857143,875.2857143,875.2857143,black,practice,legacy,legacy,legacy,0,uniform,0,undefined,0,left,6,6,6,0,0,6,6,0,0,6,6,6,0,6,0,10/23/19 18:14,The main experiment item,yes,Sternbergtask SL.osexp,C:/Users/Sarah Linan/Desktop,no,mono,no,18,no,white,no,yes,768,legacy,6,6,C:/Users/Sarah Linan/Desktop/subject-S2.csv,legacy,1 7 9 8 5,Kafkaesque Koffka,3.2.8,4,y,0,right,right,NA,right,NA,1102,2290,NA,1102,NA,2,legacy,5,1024,2,48000,-16,experiment,2,even,8,45322,41942,43110,1908,NA,43113,29646,1915,NA,47326,48428,44118,4206,47325,NA,Sternberg task,5,6127,7,yes,1024
62.5,62.5,853.75,853.75,black,practice,legacy,legacy,legacy,0,uniform,0,undefined,0,right,7,7,7,0,0,7,7,0,0,7,7,7,0,7,0,10/23/19 18:14,The main experiment item,yes,Sternbergtask SL.osexp,C:/Users/Sarah Linan/Desktop,no,mono,no,18,no,white,no,yes,768,legacy,7,7,C:/Users/Sarah Linan/Desktop/subject-S2.csv,legacy,5 7 8 4 1 2,Kafkaesque Koffka,3.2.8,0,n,0,left,right,NA,left,NA,703,2290,NA,703,NA,2,legacy,6,1024,2,48000,-16,experiment,2,even,6,51893,41942,49681,1908,NA,49683,48511,1915,NA,53897,54600,50689,4206,53897,NA,Sternberg task,5,6830,8,yes,1024
55.55555556,55.55555556,829,829,black,practice,legacy,legacy,legacy,0,uniform,0,undefined,0,right,8,8,8,0,0,8,8,0,0,8,8,8,0,8,0,10/23/19 18:14,The main experiment item,yes,Sternbergtask SL.osexp,C:/Users/Sarah Linan/Desktop,no,mono,no,18,no,white,no,yes,768,legacy,8,8,C:/Users/Sarah Linan/Desktop/subject-S2.csv,legacy,2 1,Kafkaesque Koffka,3.2.8,0,n,0,left,right,NA,left,NA,631,2290,NA,631,NA,2,legacy,2,1024,2,48000,-16,experiment,2,even,5,58021,41942,55811,1908,NA,55814,54635,1915,NA,60026,60657,56817,4206,60026,NA,Sternberg task,5,7461,9,yes,1024
60,60,840.8,840.8,black,practice,legacy,legacy,legacy,0,uniform,1,undefined,1,left,9,9,9,0,0,9,9,0,0,9,9,9,0,9,0,10/23/19 18:14,The main experiment item,yes,Sternbergtask SL.osexp,C:/Users/Sarah Linan/Desktop,no,mono,no,18,no,white,no,yes,768,legacy,9,9,C:/Users/Sarah Linan/Desktop/subject-S2.csv,legacy,4 8,Kafkaesque Koffka,3.2.8,1,y,0,left,right,NA,left,NA,947,2290,NA,947,NA,2,legacy,2,1024,2,48000,-16,experiment,2,even,4,64144,41942,61935,1908,NA,61938,60738,1915,NA,66148,67096,62940,4206,66148,NA,Sternberg task,6,8408,10,yes,1024
54.54545455,54.54545455,872.5454545,872.5454545,black,practice,legacy,legacy,legacy,0,uniform,0,undefined,0,left,10,10,10,0,0,10,10,0,0,10,10,10,0,10,0,10/23/19 18:14,The main experiment item,yes,Sternbergtask SL.osexp,C:/Users/Sarah Linan/Desktop,no,mono,no,18,no,white,no,yes,768,legacy,10,10,C:/Users/Sarah Linan/Desktop/subject-S2.csv,legacy,6,Kafkaesque Koffka,3.2.8,1,y,0,right,right,NA,right,NA,1190,2290,NA,1190,NA,2,legacy,1,1024,2,48000,-16,experiment,2,even,6,70533,67172,68323,1908,NA,68325,60738,1915,NA,72538,73729,69329,4206,72537,NA,Sternberg task,6,9598,11,yes,1024
50,50,844.25,844.25,black,practice,legacy,legacy,legacy,0,uniform,0,undefined,0,right,11,11,11,0,0,11,11,0,0,11,11,11,0,11,0,10/23/19 18:14,The main experiment item,yes,Sternbergtask SL.osexp,C:/Users/Sarah Linan/Desktop,no,mono,no,18,no,white,no,yes,768,legacy,11,11,C:/Users/Sarah Linan/Desktop/subject-S2.csv,legacy,9 6 7 4 5,Kafkaesque Koffka,3.2.8,0,n,0,left,right,NA,left,NA,533,2290,NA,533,NA,2,legacy,5,1024,2,48000,-16,experiment,2,even,3,77163,67172,74953,1908,NA,74955,73778,1915,NA,79167,79701,75959,4206,79167,NA,Sternberg task,6,10131,12,yes,1024
53.84615385,53.84615385,858.3076923,858.3076923,black,experiment,legacy,legacy,legacy,0,uniform,1,undefined,1,right,12,12,12,0,0,12,12,0,0,12,12,12,0,12,0,10/23/19 18:14,The main experiment item,yes,Sternbergtask SL.osexp,C:/Users/Sarah Linan/Desktop,no,mono,no,18,no,white,no,yes,768,legacy,0,11,C:/Users/Sarah Linan/Desktop/subject-S2.csv,legacy,6 9 4 5 3 2,Kafkaesque Koffka,3.2.8,0,n,0,right,right,right,right,NA,1027,2290,34210,1027,NA,2,legacy,6,1024,2,48000,-16,experiment,2,even,8,117391,67172,115181,1908,115012,115184,79778,1915,80802,119395,120423,116187,4206,119395,NA,Sternberg task,7,11158,13,yes,1024
50,50,845.6428571,845.6428571,black,experiment,legacy,legacy,legacy,0,uniform,0,undefined,0,left,13,13,13,0,0,13,13,0,0,13,13,13,0,13,0,10/23/19 18:14,The main experiment item,yes,Sternbergtask SL.osexp,C:/Users/Sarah Linan/Desktop,no,mono,no,18,no,white,no,yes,768,legacy,1,11,C:/Users/Sarah Linan/Desktop/subject-S2.csv,legacy,5 7 8 2 3 8,Kafkaesque Koffka,3.2.8,5,y,0,right,right,right,right,NA,681,2290,34210,681,NA,2,legacy,6,1024,2,48000,-16,experiment,2,even,3,123921,120505,121712,1908,115012,121714,79778,1915,80802,125926,126607,122718,4206,125926,NA,Sternberg task,7,11839,14,yes,1024
53.33333333,53.33333333,845.2666667,845.2666667,black,experiment,legacy,legacy,legacy,0,uniform,1,undefined,1,right,14,14,14,0,0,14,14,0,0,14,14,14,0,14,0,10/23/19 18:14,The main experiment item,yes,Sternbergtask SL.osexp,C:/Users/Sarah Linan/Desktop,no,mono,no,18,no,white,no,yes,768,legacy,2,11,C:/Users/Sarah Linan/Desktop/subject-S2.csv,legacy,6 9 7 3 8 2,Kafkaesque Koffka,3.2.8,0,n,0,right,right,right,right,NA,840,2290,34210,840,NA,2,legacy,6,1024,2,48000,-16,experiment,2,even,5,130063,120505,127854,1908,115012,127856,126689,1915,80802,132067,132908,128858,4206,132067,NA,Sternberg task,8,12679,15,yes,1024
56.25,56.25,824.25,824.25,black,experiment,legacy,legacy,legacy,0,uniform,1,undefined,1,left,15,15,15,0,0,15,15,0,0,15,15,15,0,15,0,10/23/19 18:14,The main experiment item,yes,Sternbergtask SL.osexp,C:/Users/Sarah Linan/Desktop,no,mono,no,18,no,white,no,yes,768,legacy,3,11,C:/Users/Sarah Linan/Desktop/subject-S2.csv,legacy,6 9 3 1,Kafkaesque Koffka,3.2.8,4,y,0,left,right,right,left,NA,509,2290,34210,509,NA,2,legacy,4,1024,2,48000,-16,experiment,2,even,1,136364,132990,134153,1908,115012,134156,126689,1915,80802,138370,138879,135160,4206,138369,NA,Sternberg task,9,13188,16,yes,1024
58.82352941,58.82352941,813.5294118,813.5294118,black,experiment,legacy,legacy,legacy,0,uniform,1,undefined,1,left,16,16,16,0,0,16,16,0,0,16,16,16,0,16,0,10/23/19 18:14,The main experiment item,yes,Sternbergtask SL.osexp,C:/Users/Sarah Linan/Desktop,no,mono,no,18,no,white,no,yes,768,legacy,4,11,C:/Users/Sarah Linan/Desktop/subject-S2.csv,legacy,6 8 9 3 4 9,Kafkaesque Koffka,3.2.8,5,y,0,left,right,right,left,NA,642,2290,34210,642,NA,2,legacy,6,1024,2,48000,-16,experiment,2,even,4,142339,138960,140128,1908,115012,140130,126689,1915,80802,144342,144985,141135,4206,144342,NA,Sternberg task,10,13830,17,yes,1024
61.11111111,61.11111111,807,807,black,experiment,legacy,legacy,legacy,0,uniform,1,undefined,1,right,17,17,17,0,0,17,17,0,0,17,17,17,0,17,0,10/23/19 18:14,The main experiment item,yes,Sternbergtask SL.osexp,C:/Users/Sarah Linan/Desktop,no,mono,no,18,no,white,no,yes,768,legacy,5,11,C:/Users/Sarah Linan/Desktop/subject-S2.csv,legacy,2 8 9 4 1,Kafkaesque Koffka,3.2.8,0,n,0,right,right,right,right,NA,696,2290,34210,696,NA,2,legacy,5,1024,2,48000,-16,experiment,2,even,5,148430,145062,146220,1908,115012,146222,126689,1915,80802,150434,151130,147226,4206,150434,NA,Sternberg task,11,14526,18,yes,1024
63.15789474,63.15789474,801.0526316,801.0526316,black,experiment,legacy,legacy,legacy,0,uniform,1,undefined,1,right,18,18,18,0,0,18,18,0,0,18,18,18,0,18,0,10/23/19 18:14,The main experiment item,yes,Sternbergtask SL.osexp,C:/Users/Sarah Linan/Desktop,no,mono,no,18,no,white,no,yes,768,legacy,6,11,C:/Users/Sarah Linan/Desktop/subject-S2.csv,legacy,7 8 6 1,Kafkaesque Koffka,3.2.8,0,n,0,right,right,right,right,NA,694,2290,34210,694,NA,2,legacy,4,1024,2,48000,-16,experiment,2,even,3,154588,151210,152376,1908,115012,152379,126689,1915,80802,156592,157286,153384,4206,156592,NA,Sternberg task,12,15220,19,yes,1024
65,65,795.55,795.55,black,experiment,legacy,legacy,legacy,0,uniform,1,undefined,1,right,19,19,19,0,0,19,19,0,0,19,19,19,0,19,0,10/23/19 18:14,The main experiment item,yes,Sternbergtask SL.osexp,C:/Users/Sarah Linan/Desktop,no,mono,no,18,no,white,no,yes,768,legacy,7,11,C:/Users/Sarah Linan/Desktop/subject-S2.csv,legacy,7 9 1 6,Kafkaesque Koffka,3.2.8,0,n,0,right,right,right,right,NA,691,2290,34210,691,NA,2,legacy,4,1024,2,48000,-16,experiment,2,even,4,160812,157415,158600,1908,115012,158603,126689,1915,80802,162815,163506,159608,4206,162815,NA,Sternberg task,13,15911,20,yes,1024
66.66666667,66.66666667,783.5238095,783.5238095,black,experiment,legacy,legacy,legacy,0,uniform,1,undefined,1,right,20,20,20,0,0,20,20,0,0,20,20,20,0,20,0,10/23/19 18:14,The main experiment item,yes,Sternbergtask SL.osexp,C:/Users/Sarah Linan/Desktop,no,mono,no,18,no,white,no,yes,768,legacy,8,11,C:/Users/Sarah Linan/Desktop/subject-S2.csv,legacy,8 9,Kafkaesque Koffka,3.2.8,0,n,0,right,right,right,right,NA,543,2290,34210,543,NA,2,legacy,2,1024,2,48000,-16,experiment,2,even,5,166996,163589,164784,1908,115012,164787,126689,1915,80802,169000,169543,165791,4206,169000,NA,Sternberg task,14,16454,21,yes,1024
68.18181818,68.18181818,782.0454545,782.0454545,black,experiment,legacy,legacy,legacy,0,uniform,1,undefined,1,right,21,21,21,0,0,21,21,0,0,21,21,21,0,21,0,10/23/19 18:14,The main experiment item,yes,Sternbergtask SL.osexp,C:/Users/Sarah Linan/Desktop,no,mono,no,18,no,white,no,yes,768,legacy,9,11,C:/Users/Sarah Linan/Desktop/subject-S2.csv,legacy,3 4 9 6 7 8,Kafkaesque Koffka,3.2.8,0,n,0,right,right,right,right,NA,751,2290,34210,751,NA,2,legacy,6,1024,2,48000,-16,experiment,2,even,2,173002,169628,170793,1908,115012,170796,126689,1915,80802,175006,175758,171798,4206,175006,NA,Sternberg task,15,17205,22,yes,1024
69.56521739,69.56521739,775.173913,775.173913,black,experiment,legacy,legacy,legacy,0,uniform,1,undefined,1,left,22,22,22,0,0,22,22,0,0,22,22,22,0,22,0,10/23/19 18:14,The main experiment item,yes,Sternbergtask SL.osexp,C:/Users/Sarah Linan/Desktop,no,mono,no,18,no,white,no,yes,768,legacy,10,11,C:/Users/Sarah Linan/Desktop/subject-S2.csv,legacy,7 8 6 3 1,Kafkaesque Koffka,3.2.8,5,y,0,left,right,right,left,NA,624,2290,34210,624,NA,2,legacy,5,1024,2,48000,-16,experiment,2,even,1,179207,175839,176996,1908,115012,176999,126689,1915,80802,181211,181836,178003,4206,181211,NA,Sternberg task,16,17829,23,yes,1024
70.83333333,70.83333333,774,774,black,experiment,legacy,legacy,legacy,0,uniform,1,undefined,1,left,23,23,23,0,0,23,23,0,0,23,23,23,0,23,0,10/23/19 18:14,The main experiment item,yes,Sternbergtask SL.osexp,C:/Users/Sarah Linan/Desktop,no,mono,no,18,no,white,no,yes,768,legacy,11,11,C:/Users/Sarah Linan/Desktop/subject-S2.csv,legacy,6 5,Kafkaesque Koffka,3.2.8,2,y,0,left,right,right,left,NA,747,2290,34210,747,NA,2,legacy,2,1024,2,48000,-16,experiment,2,even,5,185300,181920,183089,1908,115012,183091,126689,1915,80802,187305,188052,184095,4206,187304,NA,Sternberg task,17,18576,24,yes,1024
72,72,772.24,772.24,black,experiment,legacy,legacy,legacy,0,uniform,1,undefined,1,right,24,24,24,0,0,24,24,0,0,24,24,24,0,24,0,10/23/19 18:14,The main experiment item,yes,Sternbergtask SL.osexp,C:/Users/Sarah Linan/Desktop,no,mono,no,18,no,white,no,yes,768,legacy,12,11,C:/Users/Sarah Linan/Desktop/subject-S2.csv,legacy,6 8,Kafkaesque Koffka,3.2.8,0,n,0,right,right,right,right,NA,730,2290,34210,730,NA,2,legacy,2,1024,2,48000,-16,experiment,2,even,9,191539,188134,189328,1908,115012,189331,126689,1915,80802,193545,194276,190335,4206,193545,NA,Sternberg task,18,19306,25,yes,1024
73.07692308,73.07692308,778.7307692,778.7307692,black,experiment,legacy,legacy,legacy,0,uniform,1,undefined,1,left,25,25,25,0,0,25,25,0,0,25,25,25,0,25,0,10/23/19 18:14,The main experiment item,yes,Sternbergtask SL.osexp,C:/Users/Sarah Linan/Desktop,no,mono,no,18,no,white,no,yes,768,legacy,13,11,C:/Users/Sarah Linan/Desktop/subject-S2.csv,legacy,4,Kafkaesque Koffka,3.2.8,1,y,0,left,right,right,left,NA,941,2290,34210,941,NA,2,legacy,1,1024,2,48000,-16,experiment,2,even,4,197737,194355,195526,1908,115012,195528,126689,1915,80802,199742,200683,196532,4206,199741,NA,Sternberg task,19,20247,26,yes,1024
74.07407407,74.07407407,782.8888889,782.8888889,black,experiment,legacy,legacy,legacy,0,uniform,1,undefined,1,right,26,26,26,0,0,26,26,0,0,26,26,26,0,26,0,10/23/19 18:14,The main experiment item,yes,Sternbergtask SL.osexp,C:/Users/Sarah Linan/Desktop,no,mono,no,18,no,white,no,yes,768,legacy,14,11,C:/Users/Sarah Linan/Desktop/subject-S2.csv,legacy,4 8 1 2,Kafkaesque Koffka,3.2.8,0,n,0,right,right,right,right,NA,891,2290,34210,891,NA,2,legacy,4,1024,2,48000,-16,experiment,2,even,7,204156,200775,201946,1908,115012,201948,126689,1915,80802,206158,207050,202951,4206,206158,NA,Sternberg task,20,21138,27,yes,1024
75,75,787.2142857,787.2142857,black,experiment,legacy,legacy,legacy,0,uniform,1,undefined,1,right,27,27,27,0,0,27,27,0,0,27,27,27,0,27,0,10/23/19 18:14,The main experiment item,yes,Sternbergtask SL.osexp,C:/Users/Sarah Linan/Desktop,no,mono,no,18,no,white,no,yes,768,legacy,15,11,C:/Users/Sarah Linan/Desktop/subject-S2.csv,legacy,2 8 7 9 5 3,Kafkaesque Koffka,3.2.8,0,n,0,right,right,right,right,NA,904,2290,34210,904,NA,2,legacy,6,1024,2,48000,-16,experiment,2,even,6,210513,207129,208302,1908,115012,208304,126689,1915,80802,212517,213422,209309,4206,212517,NA,Sternberg task,21,22042,28,yes,1024
72.4137931,72.4137931,790,790,black,experiment,legacy,legacy,legacy,0,uniform,0,undefined,0,left,28,28,28,0,0,28,28,0,0,28,28,28,0,28,0,10/23/19 18:14,The main experiment item,yes,Sternbergtask SL.osexp,C:/Users/Sarah Linan/Desktop,no,mono,no,18,no,white,no,yes,768,legacy,16,11,C:/Users/Sarah Linan/Desktop/subject-S2.csv,legacy,1 4 9 3 2 5,Kafkaesque Koffka,3.2.8,3,y,0,right,right,right,right,NA,868,2290,34210,868,NA,2,legacy,6,1024,2,48000,-16,experiment,2,even,9,216908,213486,214697,1908,115012,214700,126689,1915,80802,218910,219779,215704,4206,218910,NA,Sternberg task,21,22910,29,yes,1024
73.33333333,73.33333333,789.8333333,789.8333333,black,experiment,legacy,legacy,legacy,0,uniform,1,undefined,1,left,29,29,29,0,0,29,29,0,0,29,29,29,0,29,0,10/23/19 18:14,The main experiment item,yes,Sternbergtask SL.osexp,C:/Users/Sarah Linan/Desktop,no,mono,no,18,no,white,no,yes,768,legacy,17,11,C:/Users/Sarah Linan/Desktop/subject-S2.csv,legacy,5 2 9 6 1 7,Kafkaesque Koffka,3.2.8,3,y,0,left,right,right,left,NA,785,2290,34210,785,NA,2,legacy,6,1024,2,48000,-16,experiment,2,even,9,223248,213486,221037,1908,115012,221039,219866,1915,80802,225252,226037,222043,4206,225252,NA,Sternberg task,22,23695,30,yes,1024
70.96774194,70.96774194,793.8709677,793.8709677,black,experiment,legacy,legacy,legacy,0,uniform,0,undefined,0,left,30,30,30,0,0,30,30,0,0,30,30,30,0,30,0,10/23/19 18:14,The main experiment item,yes,Sternbergtask SL.osexp,C:/Users/Sarah Linan/Desktop,no,mono,no,18,no,white,no,yes,768,legacy,18,11,C:/Users/Sarah Linan/Desktop/subject-S2.csv,legacy,7 8 4 6 9 5,Kafkaesque Koffka,3.2.8,4,y,0,right,right,right,right,NA,915,2290,34210,915,NA,2,legacy,6,1024,2,48000,-16,experiment,2,even,6,229505,226123,227294,1908,115012,227297,219866,1915,80802,231509,232424,228301,4206,231509,NA,Sternberg task,22,24610,31,yes,1024
71.875,71.875,802.96875,802.96875,black,experiment,legacy,legacy,legacy,0,uniform,1,undefined,1,right,31,31,31,0,0,31,31,0,0,31,31,31,0,31,0,10/23/19 18:14,The main experiment item,yes,Sternbergtask SL.osexp,C:/Users/Sarah Linan/Desktop,no,mono,no,18,no,white,no,yes,768,legacy,19,11,C:/Users/Sarah Linan/Desktop/subject-S2.csv,legacy,5 9 2 3,Kafkaesque Koffka,3.2.8,0,n,0,right,right,right,right,NA,1085,2290,34210,1085,NA,2,legacy,4,1024,2,48000,-16,experiment,2,even,8,235874,226123,233666,1908,115012,233668,232502,1915,80802,237878,238963,234672,4206,237878,NA,Sternberg task,23,25695,32,yes,1024
69.6969697,69.6969697,839.2424242,839.2424242,black,experiment,legacy,legacy,legacy,0,uniform,0,undefined,0,left,32,32,32,0,0,32,32,0,0,32,32,32,0,32,0,10/23/19 18:14,The main experiment item,yes,Sternbergtask SL.osexp,C:/Users/Sarah Linan/Desktop,no,mono,no,18,no,white,no,yes,768,legacy,20,11,C:/Users/Sarah Linan/Desktop/subject-S2.csv,legacy,9 3 8 2 1 4,Kafkaesque Koffka,3.2.8,3,y,0,None,right,right,None,NA,2000,2290,34210,2000,NA,2,legacy,6,1024,2,48000,-16,experiment,2,even,8,242431,239050,240222,1908,115012,240224,232502,1915,80802,244436,246436,241228,4206,244436,NA,Sternberg task,23,27695,33,yes,1024
67.64705882,67.64705882,873.3823529,873.3823529,black,experiment,legacy,legacy,legacy,0,uniform,0,undefined,0,right,33,33,33,0,0,33,33,0,0,33,33,33,0,33,0,10/23/19 18:14,The main experiment item,yes,Sternbergtask SL.osexp,C:/Users/Sarah Linan/Desktop,no,mono,no,18,no,white,no,yes,768,legacy,21,11,C:/Users/Sarah Linan/Desktop/subject-S2.csv,legacy,1 6 4 3 9 7,Kafkaesque Koffka,3.2.8,0,n,0,None,right,right,None,NA,2000,2290,34210,2000,NA,2,legacy,6,1024,2,48000,-16,experiment,2,even,8,249894,239050,247687,1908,115012,247689,246516,1915,80802,251898,253898,248691,4206,251898,NA,Sternberg task,23,29695,34,yes,1024
65.71428571,65.71428571,905.5714286,905.5714286,black,experiment,legacy,legacy,legacy,0,uniform,0,undefined,0,left,34,34,34,0,0,34,34,0,0,34,34,34,0,34,0,10/23/19 18:14,The main experiment item,yes,Sternbergtask SL.osexp,C:/Users/Sarah Linan/Desktop,no,mono,no,18,no,white,no,yes,768,legacy,22,11,C:/Users/Sarah Linan/Desktop/subject-S2.csv,legacy,7 6,Kafkaesque Koffka,3.2.8,2,y,0,None,right,right,None,NA,2000,2290,34210,2000,NA,2,legacy,2,1024,2,48000,-16,experiment,2,even,6,257358,239050,255149,1908,115012,255151,253983,1915,80802,259363,261363,256155,4206,259363,NA,Sternberg task,23,31695,35,yes,1024
66.66666667,66.66666667,905.0833333,905.0833333,black,experiment,legacy,legacy,legacy,0,uniform,1,undefined,1,right,35,35,35,0,0,35,35,0,0,35,35,35,0,35,0,10/23/19 18:14,The main experiment item,yes,Sternbergtask SL.osexp,C:/Users/Sarah Linan/Desktop,no,mono,no,18,no,white,no,yes,768,legacy,23,11,C:/Users/Sarah Linan/Desktop/subject-S2.csv,legacy,1,Kafkaesque Koffka,3.2.8,0,n,0,right,right,right,right,NA,888,2290,34210,888,NA,2,legacy,1,1024,2,48000,-16,experiment,2,even,7,264771,239050,262560,1908,115012,262562,261393,1915,80802,266776,267664,263566,4206,266776,NA,Sternberg task,24,32583,36,yes,1024
64.86486486,64.86486486,934.6756757,934.6756757,black,experiment,legacy,legacy,legacy,0,uniform,0,undefined,0,left,36,36,36,0,0,36,36,0,0,36,36,36,0,36,0,10/23/19 18:14,The main experiment item,yes,Sternbergtask SL.osexp,C:/Users/Sarah Linan/Desktop,no,mono,no,18,no,white,no,yes,768,legacy,24,11,C:/Users/Sarah Linan/Desktop/subject-S2.csv,legacy,9 1 6 7 8,Kafkaesque Koffka,3.2.8,1,y,0,None,right,right,None,NA,2000,2290,34210,2000,NA,2,legacy,5,1024,2,48000,-16,experiment,2,even,9,271086,267684,268875,1908,115012,268877,261393,1915,80802,273090,275090,269882,4206,273090,NA,Sternberg task,24,34583,37,yes,1024
65.78947368,65.78947368,936.5,936.5,black,experiment,legacy,legacy,legacy,0,uniform,1,undefined,1,left,37,37,37,0,0,37,37,0,0,37,37,37,0,37,0,10/23/19 18:14,The main experiment item,yes,Sternbergtask SL.osexp,C:/Users/Sarah Linan/Desktop,no,mono,no,18,no,white,no,yes,768,legacy,25,11,C:/Users/Sarah Linan/Desktop/subject-S2.csv,legacy,2 3,Kafkaesque Koffka,3.2.8,1,y,0,left,right,right,left,NA,1004,2290,34210,1004,NA,2,legacy,2,1024,2,48000,-16,experiment,2,even,2,278551,267684,276343,1908,115012,276345,275164,1915,80802,280552,281557,277347,4206,280552,NA,Sternberg task,25,35587,38,yes,1024
64.1025641,64.1025641,963.7692308,963.7692308,black,experiment,legacy,legacy,legacy,0,uniform,0,undefined,0,left,38,38,38,0,0,38,38,0,0,38,38,38,0,38,0,10/23/19 18:14,The main experiment item,yes,Sternbergtask SL.osexp,C:/Users/Sarah Linan/Desktop,no,mono,no,18,no,white,no,yes,768,legacy,26,11,C:/Users/Sarah Linan/Desktop/subject-S2.csv,legacy,6 7 9 3 1 2,Kafkaesque Koffka,3.2.8,1,y,0,None,right,right,None,NA,2000,2290,34210,2000,NA,2,legacy,6,1024,2,48000,-16,experiment,2,even,6,284953,281591,282743,1908,115012,282746,275164,1915,80802,286958,288958,283750,4206,286957,NA,Sternberg task,25,37587,39,yes,1024
65,65,957.025,957.025,black,experiment,legacy,legacy,legacy,0,uniform,1,undefined,1,left,39,39,39,0,0,39,39,0,0,39,39,39,0,39,0,10/23/19 18:14,The main experiment item,yes,Sternbergtask SL.osexp,C:/Users/Sarah Linan/Desktop,no,mono,no,18,no,white,no,yes,768,legacy,27,11,C:/Users/Sarah Linan/Desktop/subject-S2.csv,legacy,9 5 8 1,Kafkaesque Koffka,3.2.8,2,y,0,left,right,right,left,NA,694,2290,34210,694,NA,2,legacy,4,1024,2,48000,-16,experiment,2,even,5,292418,281591,290208,1908,115012,290210,289044,1915,80802,294422,295117,291214,4206,294422,NA,Sternberg task,26,38281,40,yes,1024
65.85365854,65.85365854,968.8780488,968.8780488,black,experiment,legacy,legacy,legacy,0,uniform,1,undefined,1,left,40,40,40,0,0,40,40,0,0,40,40,40,0,40,0,10/23/19 18:14,The main experiment item,yes,Sternbergtask SL.osexp,C:/Users/Sarah Linan/Desktop,no,mono,no,18,no,white,no,yes,768,legacy,28,11,C:/Users/Sarah Linan/Desktop/subject-S2.csv,legacy,4 6 5 8,Kafkaesque Koffka,3.2.8,1,y,0,left,right,right,left,NA,1443,2290,34210,1443,NA,2,legacy,4,1024,2,48000,-16,experiment,2,even,4,298577,295210,296368,1908,115012,296371,289044,1915,80802,300581,302024,297373,4206,300581,NA,Sternberg task,27,39724,41,yes,1024
66.66666667,66.66666667,965.2142857,965.2142857,black,experiment,legacy,legacy,legacy,0,uniform,1,undefined,1,right,41,41,41,0,0,41,41,0,0,41,41,41,0,41,0,10/23/19 18:14,The main experiment item,yes,Sternbergtask SL.osexp,C:/Users/Sarah Linan/Desktop,no,mono,no,18,no,white,no,yes,768,legacy,29,11,C:/Users/Sarah Linan/Desktop/subject-S2.csv,legacy,1 3 2 6 9,Kafkaesque Koffka,3.2.8,0,n,0,right,right,right,right,NA,815,2290,34210,815,NA,2,legacy,5,1024,2,48000,-16,experiment,2,even,5,305489,302110,303278,1908,115012,303281,289044,1915,80802,307493,308309,304285,4206,307493,NA,Sternberg task,28,40539,42,yes,1024
67.44186047,67.44186047,958.0930233,958.0930233,black,experiment,legacy,legacy,legacy,0,uniform,1,undefined,1,left,42,42,42,0,0,42,42,0,0,42,42,42,0,42,0,10/23/19 18:14,The main experiment item,yes,Sternbergtask SL.osexp,C:/Users/Sarah Linan/Desktop,no,mono,no,18,no,white,no,yes,768,legacy,30,11,C:/Users/Sarah Linan/Desktop/subject-S2.csv,legacy,4 7 6 8 2 3,Kafkaesque Koffka,3.2.8,6,y,0,left,right,right,left,NA,659,2290,34210,659,NA,2,legacy,6,1024,2,48000,-16,experiment,2,even,3,311787,308403,309577,1908,115012,309579,289044,1915,80802,313793,314452,310583,4206,313792,NA,Sternberg task,29,41198,43,yes,1024
65.90909091,65.90909091,958.0909091,958.0909091,black,experiment,legacy,legacy,legacy,0,uniform,0,undefined,0,left,43,43,43,0,0,43,43,0,0,43,43,43,0,43,0,10/23/19 18:14,The main experiment item,yes,Sternbergtask SL.osexp,C:/Users/Sarah Linan/Desktop,no,mono,no,18,no,white,no,yes,768,legacy,31,11,C:/Users/Sarah Linan/Desktop/subject-S2.csv,legacy,8 9 5 6 7,Kafkaesque Koffka,3.2.8,1,y,0,right,right,right,right,NA,958,2290,34210,958,NA,2,legacy,5,1024,2,48000,-16,experiment,2,even,8,317876,314488,315667,1908,115012,315670,289044,1915,80802,319880,320838,316674,4206,319880,NA,Sternberg task,29,42156,44,yes,1024
64.44444444,64.44444444,954.4888889,954.4888889,black,experiment,legacy,legacy,legacy,0,uniform,0,undefined,0,right,44,44,44,0,0,44,44,0,0,44,44,44,0,44,0,10/23/19 18:14,The main experiment item,yes,Sternbergtask SL.osexp,C:/Users/Sarah Linan/Desktop,no,mono,no,18,no,white,no,yes,768,legacy,32,11,C:/Users/Sarah Linan/Desktop/subject-S2.csv,legacy,7 1 5 6 3,Kafkaesque Koffka,3.2.8,0,n,0,left,right,right,left,NA,796,2290,34210,796,NA,2,legacy,5,1024,2,48000,-16,experiment,2,even,8,324264,314488,322054,1908,115012,322056,320883,1915,80802,326268,327065,323060,4206,326267,NA,Sternberg task,29,42952,45,yes,1024
63.04347826,63.04347826,955.5,955.5,black,experiment,legacy,legacy,legacy,0,uniform,0,undefined,0,left,45,45,45,0,0,45,45,0,0,45,45,45,0,45,0,10/23/19 18:14,The main experiment item,yes,Sternbergtask SL.osexp,C:/Users/Sarah Linan/Desktop,no,mono,no,18,no,white,no,yes,768,legacy,33,11,C:/Users/Sarah Linan/Desktop/subject-S2.csv,legacy,4 1 5,Kafkaesque Koffka,3.2.8,2,y,0,right,right,right,right,NA,1001,2290,34210,1001,NA,2,legacy,3,1024,2,48000,-16,experiment,2,even,1,330532,314488,328323,1908,115012,328326,327153,1915,80802,332537,333539,329330,4206,332536,NA,Sternberg task,29,43953,46,yes,1024
61.70212766,61.70212766,977.7234043,977.7234043,black,experiment,legacy,legacy,legacy,0,uniform,0,undefined,0,right,46,46,46,0,0,46,46,0,0,46,46,46,0,46,0,10/23/19 18:14,The main experiment item,yes,Sternbergtask SL.osexp,C:/Users/Sarah Linan/Desktop,no,mono,no,18,no,white,no,yes,768,legacy,34,11,C:/Users/Sarah Linan/Desktop/subject-S2.csv,legacy,9 8 2 7 4,Kafkaesque Koffka,3.2.8,0,n,0,None,right,right,None,NA,2000,2290,34210,2000,NA,2,legacy,5,1024,2,48000,-16,experiment,2,even,5,337025,314488,334814,1908,115012,334816,333633,1915,80802,339027,341027,335821,4206,339027,NA,Sternberg task,29,45953,47,yes,1024
60.41666667,60.41666667,999.0208333,999.0208333,black,experiment,legacy,legacy,legacy,0,uniform,0,undefined,0,right,47,47,47,0,0,47,47,0,0,47,47,47,0,47,0,10/23/19 18:14,The main experiment item,yes,Sternbergtask SL.osexp,C:/Users/Sarah Linan/Desktop,no,mono,no,18,no,white,no,yes,768,legacy,35,11,C:/Users/Sarah Linan/Desktop/subject-S2.csv,legacy,6 9 4 5 2,Kafkaesque Koffka,3.2.8,0,n,0,None,right,right,None,NA,2000,2290,34210,2000,NA,2,legacy,5,1024,2,48000,-16,experiment,2,even,1,344496,314488,342286,1908,115012,342288,341122,1915,80802,346500,348500,343292,4206,346500,NA,Sternberg task,29,47953,48,yes,1024
59.18367347,59.18367347,1019.44898,1019.44898,black,experiment,legacy,legacy,legacy,0,uniform,0,undefined,0,right,48,48,48,0,0,48,48,0,0,48,48,48,0,48,0,10/23/19 18:14,The main experiment item,yes,Sternbergtask SL.osexp,C:/Users/Sarah Linan/Desktop,no,mono,no,18,no,white,no,yes,768,legacy,36,11,C:/Users/Sarah Linan/Desktop/subject-S2.csv,legacy,5 3 8 7 2 4,Kafkaesque Koffka,3.2.8,0,n,0,None,right,right,None,NA,2000,2290,34210,2000,NA,2,legacy,6,1024,2,48000,-16,experiment,2,even,9,352010,314488,349798,1908,115012,349801,348589,1915,80802,354014,356015,350805,4206,354014,NA,Sternberg task,29,49953,49,yes,1024
58,58,1039.06,1039.06,black,experiment,legacy,legacy,legacy,0,uniform,0,undefined,0,right,49,49,49,0,0,49,49,0,0,49,49,49,0,49,0,10/23/19 18:14,The main experiment item,yes,Sternbergtask SL.osexp,C:/Users/Sarah Linan/Desktop,no,mono,no,18,no,white,no,yes,768,legacy,37,11,C:/Users/Sarah Linan/Desktop/subject-S2.csv,legacy,1 4 3 6 5,Kafkaesque Koffka,3.2.8,0,n,0,None,right,right,None,NA,2000,2290,34210,2000,NA,2,legacy,5,1024,2,48000,-16,experiment,2,even,8,359480,314488,357272,1908,115012,357273,356122,1915,80802,361485,363485,358276,4206,361484,NA,Sternberg task,29,51953,50,yes,1024
56.8627451,56.8627451,1057.901961,1057.901961,black,experiment,legacy,legacy,legacy,0,uniform,0,undefined,0,left,50,50,50,0,0,50,50,0,0,50,50,50,0,50,0,10/23/19 18:14,The main experiment item,yes,Sternbergtask SL.osexp,C:/Users/Sarah Linan/Desktop,no,mono,no,18,no,white,no,yes,768,legacy,38,11,C:/Users/Sarah Linan/Desktop/subject-S2.csv,legacy,8 5 4 7 3 1,Kafkaesque Koffka,3.2.8,2,y,0,None,right,right,None,NA,2000,2290,34210,2000,NA,2,legacy,6,1024,2,48000,-16,experiment,2,even,5,366978,314488,364767,1908,115012,364770,363579,1915,80802,368982,370982,365774,4206,368982,NA,Sternberg task,29,53953,51,yes,1024
55.76923077,55.76923077,1049.538462,1049.538462,black,experiment,legacy,legacy,legacy,0,uniform,0,undefined,0,right,51,51,51,0,0,51,51,0,0,51,51,51,0,51,0,10/23/19 18:14,The main experiment item,yes,Sternbergtask SL.osexp,C:/Users/Sarah Linan/Desktop,no,mono,no,18,no,white,no,yes,768,legacy,39,11,C:/Users/Sarah Linan/Desktop/subject-S2.csv,legacy,4 2 6 9,Kafkaesque Koffka,3.2.8,0,n,0,left,right,right,left,NA,623,2290,34210,623,NA,2,legacy,4,1024,2,48000,-16,experiment,2,even,7,374443,314488,372232,1908,115012,372235,371068,1915,80802,376448,377072,373238,4206,376447,NA,Sternberg task,29,54576,52,yes,1024
56.60377358,56.60377358,1040.54717,1040.54717,black,experiment,legacy,legacy,legacy,0,uniform,1,undefined,1,right,52,52,52,0,0,52,52,0,0,52,52,52,0,52,0,10/23/19 18:14,The main experiment item,yes,Sternbergtask SL.osexp,C:/Users/Sarah Linan/Desktop,no,mono,no,18,no,white,no,yes,768,legacy,40,11,C:/Users/Sarah Linan/Desktop/subject-S2.csv,legacy,6 8 4,Kafkaesque Koffka,3.2.8,0,n,0,right,right,right,right,NA,573,2290,34210,573,NA,2,legacy,3,1024,2,48000,-16,experiment,2,even,1,380536,314488,378327,1908,115012,378329,377159,1915,80802,382541,383115,379333,4206,382539,NA,Sternberg task,30,55149,53,yes,1024
55.55555556,55.55555556,1048,1048,black,experiment,legacy,legacy,legacy,0,uniform,0,undefined,0,right,53,53,53,0,0,53,53,0,0,53,53,53,0,53,0,10/23/19 18:14,The main experiment item,yes,Sternbergtask SL.osexp,C:/Users/Sarah Linan/Desktop,no,mono,no,18,no,white,no,yes,768,legacy,41,11,C:/Users/Sarah Linan/Desktop/subject-S2.csv,legacy,3 9 8 1 6 4,Kafkaesque Koffka,3.2.8,0,n,0,left,right,right,left,NA,1443,2290,34210,1443,NA,2,legacy,6,1024,2,48000,-16,experiment,2,even,7,386577,383206,384367,1908,115012,384369,377159,1915,80802,388581,390024,385373,4206,388581,NA,Sternberg task,30,56592,54,yes,1024
56.36363636,56.36363636,1035.6,1035.6,black,experiment,legacy,legacy,legacy,0,uniform,1,undefined,1,right,54,54,54,0,0,54,54,0,0,54,54,54,0,54,0,10/23/19 18:14,The main experiment item,yes,Sternbergtask SL.osexp,C:/Users/Sarah Linan/Desktop,no,mono,no,18,no,white,no,yes,768,legacy,42,11,C:/Users/Sarah Linan/Desktop/subject-S2.csv,legacy,9 7 4 5 8,Kafkaesque Koffka,3.2.8,0,n,0,right,right,right,right,NA,366,2290,34210,366,NA,2,legacy,5,1024,2,48000,-16,experiment,2,even,6,393491,383206,391281,1908,115012,391283,390119,1915,80802,395495,395862,392287,4206,395495,NA,Sternberg task,31,56958,55,yes,1024
55.35714286,55.35714286,1027.107143,1027.107143,black,experiment,legacy,legacy,legacy,0,uniform,0,undefined,0,right,55,55,55,0,0,55,55,0,0,55,55,55,0,55,0,10/23/19 18:14,The main experiment item,yes,Sternbergtask SL.osexp,C:/Users/Sarah Linan/Desktop,no,mono,no,18,no,white,no,yes,768,legacy,43,11,C:/Users/Sarah Linan/Desktop/subject-S2.csv,legacy,2 7 5,Kafkaesque Koffka,3.2.8,0,n,0,left,right,right,left,NA,560,2290,34210,560,NA,2,legacy,3,1024,2,48000,-16,experiment,2,even,8,399324,395954,397112,1908,115012,397115,390119,1915,80802,401329,401890,398120,4206,401329,NA,Sternberg task,31,57518,56,yes,1024
54.38596491,54.38596491,1044.175439,1044.175439,black,experiment,legacy,legacy,legacy,0,uniform,0,undefined,0,left,56,56,56,0,0,56,56,0,0,56,56,56,0,56,0,10/23/19 18:14,The main experiment item,yes,Sternbergtask SL.osexp,C:/Users/Sarah Linan/Desktop,no,mono,no,18,no,white,no,yes,768,legacy,44,11,C:/Users/Sarah Linan/Desktop/subject-S2.csv,legacy,2 8 5 1,Kafkaesque Koffka,3.2.8,4,y,0,None,right,right,None,NA,2000,2290,34210,2000,NA,2,legacy,4,1024,2,48000,-16,experiment,2,even,1,405297,395954,403087,1908,115012,403089,401923,1915,80802,407301,409301,404093,4206,407301,NA,Sternberg task,31,59518,57,yes,1024
55.17241379,55.17241379,1035.689655,1035.689655,black,experiment,legacy,legacy,legacy,0,uniform,1,undefined,1,left,57,57,57,0,0,57,57,0,0,57,57,57,0,57,0,10/23/19 18:14,The main experiment item,yes,Sternbergtask SL.osexp,C:/Users/Sarah Linan/Desktop,no,mono,no,18,no,white,no,yes,768,legacy,45,11,C:/Users/Sarah Linan/Desktop/subject-S2.csv,legacy,2 3 7 4,Kafkaesque Koffka,3.2.8,1,y,0,left,right,right,left,NA,552,2290,34210,552,NA,2,legacy,4,1024,2,48000,-16,experiment,2,even,2,412772,395954,410561,1908,115012,410564,409391,1915,80802,414774,415327,411568,4206,414774,NA,Sternberg task,32,60070,58,yes,1024
55.93220339,55.93220339,1027.898305,1027.898305,black,experiment,legacy,legacy,legacy,0,uniform,1,undefined,1,left,58,58,58,0,0,58,58,0,0,58,58,58,0,58,0,10/23/19 18:14,The main experiment item,yes,Sternbergtask SL.osexp,C:/Users/Sarah Linan/Desktop,no,mono,no,18,no,white,no,yes,768,legacy,46,11,C:/Users/Sarah Linan/Desktop/subject-S2.csv,legacy,8 5 1 3 9,Kafkaesque Koffka,3.2.8,4,y,0,left,right,right,left,NA,576,2290,34210,576,NA,2,legacy,5,1024,2,48000,-16,experiment,2,even,3,418794,415416,416584,1908,115012,416586,409391,1915,80802,420797,421375,417589,4206,420797,NA,Sternberg task,33,60646,59,yes,1024
55,55,1044.1,1044.1,black,experiment,legacy,legacy,legacy,0,uniform,0,undefined,0,right,59,59,59,0,0,59,59,0,0,59,59,59,0,59,0,10/23/19 18:14,The main experiment item,yes,Sternbergtask SL.osexp,C:/Users/Sarah Linan/Desktop,no,mono,no,18,no,white,no,yes,768,legacy,47,11,C:/Users/Sarah Linan/Desktop/subject-S2.csv,legacy,1 4 9 2 5,Kafkaesque Koffka,3.2.8,0,n,0,None,right,right,None,NA,2000,2290,34210,2000,NA,2,legacy,5,1024,2,48000,-16,experiment,2,even,7,424965,421589,422756,1908,115012,422759,409391,1915,80802,426971,428971,423763,4206,426970,NA,Sternberg task,33,62646,60,yes,1024
55.73770492,55.73770492,1052.901639,1052.901639,black,experiment,legacy,legacy,legacy,0,uniform,1,undefined,1,left,60,60,60,0,0,60,60,0,0,60,60,60,0,60,0,10/23/19 18:14,The main experiment item,yes,Sternbergtask SL.osexp,C:/Users/Sarah Linan/Desktop,no,mono,no,18,no,white,no,yes,768,legacy,48,11,C:/Users/Sarah Linan/Desktop/subject-S2.csv,legacy,2 4 8 5 1 3,Kafkaesque Koffka,3.2.8,1,y,0,left,right,right,left,NA,1581,2290,34210,1581,NA,2,legacy,6,1024,2,48000,-16,experiment,2,even,2,432400,421589,430190,1908,115012,430192,429006,1915,80802,434404,435986,431195,4206,434404,NA,Sternberg task,34,64227,61,yes,1024
56.4516129,56.4516129,1050.83871,1050.83871,black,experiment,legacy,legacy,legacy,0,uniform,1,undefined,1,left,61,61,61,0,0,61,61,0,0,61,61,61,0,61,0,10/23/19 18:14,The main experiment item,yes,Sternbergtask SL.osexp,C:/Users/Sarah Linan/Desktop,no,mono,no,18,no,white,no,yes,768,legacy,49,11,C:/Users/Sarah Linan/Desktop/subject-S2.csv,legacy,8 3,Kafkaesque Koffka,3.2.8,2,y,0,left,right,right,left,NA,925,2290,34210,925,NA,2,legacy,2,1024,2,48000,-16,experiment,2,even,3,439455,436074,437243,1908,115012,437246,429006,1915,80802,441459,442385,438249,4206,441459,NA,Sternberg task,35,65152,62,yes,1024
55.55555556,55.55555556,1065.904762,1065.904762,black,experiment,legacy,legacy,legacy,0,uniform,0,undefined,0,left,62,62,62,0,0,62,62,0,0,62,62,62,0,62,0,10/23/19 18:14,The main experiment item,yes,Sternbergtask SL.osexp,C:/Users/Sarah Linan/Desktop,no,mono,no,18,no,white,no,yes,768,legacy,50,11,C:/Users/Sarah Linan/Desktop/subject-S2.csv,legacy,9 4 2,Kafkaesque Koffka,3.2.8,1,y,0,None,right,right,None,NA,2000,2290,34210,2000,NA,2,legacy,3,1024,2,48000,-16,experiment,2,even,9,445856,442477,443646,1908,115012,443649,429006,1915,80802,447860,449861,444652,4206,447860,NA,Sternberg task,35,67152,63,yes,1024
54.6875,54.6875,1080.5,1080.5,black,experiment,legacy,legacy,legacy,0,uniform,0,undefined,0,left,63,63,63,0,0,63,63,0,0,63,63,63,0,63,0,10/23/19 18:14,The main experiment item,yes,Sternbergtask SL.osexp,C:/Users/Sarah Linan/Desktop,no,mono,no,18,no,white,no,yes,768,legacy,51,11,C:/Users/Sarah Linan/Desktop/subject-S2.csv,legacy,7 1 3,Kafkaesque Koffka,3.2.8,2,y,0,None,right,right,None,NA,2000,2290,34210,2000,NA,2,legacy,3,1024,2,48000,-16,experiment,2,even,1,453330,442477,451119,1908,115012,451121,449955,1915,80802,455336,457337,452126,4206,455335,NA,Sternberg task,35,69152,64,yes,1024
53.84615385,53.84615385,1075.461538,1075.461538,black,experiment,legacy,legacy,legacy,0,uniform,0,undefined,0,left,64,64,64,0,0,64,64,0,0,64,64,64,0,64,0,10/23/19 18:14,The main experiment item,yes,Sternbergtask SL.osexp,C:/Users/Sarah Linan/Desktop,no,mono,no,18,no,white,no,yes,768,legacy,52,11,C:/Users/Sarah Linan/Desktop/subject-S2.csv,legacy,8 1 6,Kafkaesque Koffka,3.2.8,3,y,0,right,right,right,right,NA,753,2290,34210,753,NA,2,legacy,3,1024,2,48000,-16,experiment,2,even,6,460808,442477,458598,1908,115012,458600,457422,1915,80802,462813,463567,459604,4206,462812,NA,Sternberg task,35,69905,65,yes,1024
53.03030303,53.03030303,1089.469697,1089.469697,black,experiment,legacy,legacy,legacy,0,uniform,0,undefined,0,left,65,65,65,0,0,65,65,0,0,65,65,65,0,65,0,10/23/19 18:14,The main experiment item,yes,Sternbergtask SL.osexp,C:/Users/Sarah Linan/Desktop,no,mono,no,18,no,white,no,yes,768,legacy,53,11,C:/Users/Sarah Linan/Desktop/subject-S2.csv,legacy,2 6 1 7 4,Kafkaesque Koffka,3.2.8,2,y,0,None,right,right,None,NA,2000,2290,34210,2000,NA,2,legacy,5,1024,2,48000,-16,experiment,2,even,6,467034,442477,464823,1908,115012,464826,463625,1915,80802,469038,471038,465830,4206,469038,NA,Sternberg task,35,71905,66,yes,1024
52.23880597,52.23880597,1083.820896,1083.820896,black,experiment,legacy,legacy,legacy,0,uniform,0,undefined,0,right,66,66,66,0,0,66,66,0,0,66,66,66,0,66,0,10/23/19 18:14,The main experiment item,yes,Sternbergtask SL.osexp,C:/Users/Sarah Linan/Desktop,no,mono,no,18,no,white,no,yes,768,legacy,54,11,C:/Users/Sarah Linan/Desktop/subject-S2.csv,legacy,5 2,Kafkaesque Koffka,3.2.8,0,n,0,left,right,right,left,NA,711,2290,34210,711,NA,2,legacy,2,1024,2,48000,-16,experiment,2,even,7,474506,442477,472296,1908,115012,472298,471126,1915,80802,476510,477222,473301,4206,476510,NA,Sternberg task,35,72616,67,yes,1024
52.94117647,52.94117647,1080.941176,1080.941176,black,experiment,legacy,legacy,legacy,0,uniform,1,undefined,1,right,67,67,67,0,0,67,67,0,0,67,67,67,0,67,0,10/23/19 18:14,The main experiment item,yes,Sternbergtask SL.osexp,C:/Users/Sarah Linan/Desktop,no,mono,no,18,no,white,no,yes,768,legacy,55,11,C:/Users/Sarah Linan/Desktop/subject-S2.csv,legacy,7 1 8 4 9 3,Kafkaesque Koffka,3.2.8,0,n,0,right,right,right,right,NA,888,2290,34210,888,NA,2,legacy,6,1024,2,48000,-16,experiment,2,even,6,480688,442477,478479,1908,115012,478482,477316,1915,80802,482693,483582,479486,4206,482692,NA,Sternberg task,36,73504,68,yes,1024
52.17391304,52.17391304,1094.26087,1094.26087,black,experiment,legacy,legacy,legacy,0,uniform,0,undefined,0,left,68,68,68,0,0,68,68,0,0,68,68,68,0,68,0,10/23/19 18:14,The main experiment item,yes,Sternbergtask SL.osexp,C:/Users/Sarah Linan/Desktop,no,mono,no,18,no,white,no,yes,768,legacy,56,11,C:/Users/Sarah Linan/Desktop/subject-S2.csv,legacy,8 5 3 7 4 6,Kafkaesque Koffka,3.2.8,6,y,0,None,right,right,None,NA,2000,2290,34210,2000,NA,2,legacy,6,1024,2,48000,-16,experiment,2,even,6,487084,483674,484873,1908,115012,484875,477316,1915,80802,489088,491088,485880,4206,489088,NA,Sternberg task,36,75504,69,yes,1024
51.42857143,51.42857143,1107.2,1107.2,black,experiment,legacy,legacy,legacy,0,uniform,0,undefined,0,left,69,69,69,0,0,69,69,0,0,69,69,69,0,69,0,10/23/19 18:14,The main experiment item,yes,Sternbergtask SL.osexp,C:/Users/Sarah Linan/Desktop,no,mono,no,18,no,white,no,yes,768,legacy,57,11,C:/Users/Sarah Linan/Desktop/subject-S2.csv,legacy,9 3 1 2 5,Kafkaesque Koffka,3.2.8,4,y,0,None,right,right,None,NA,2000,2290,34210,2000,NA,2,legacy,5,1024,2,48000,-16,experiment,2,even,2,494558,483674,492348,1908,115012,492350,491174,1915,80802,496562,498562,493354,4206,496562,NA,Sternberg task,36,77504,70,yes,1024
50.70422535,50.70422535,1119.774648,1119.774648,black,experiment,legacy,legacy,legacy,0,uniform,0,undefined,0,right,70,70,70,0,0,70,70,0,0,70,70,70,0,70,0,10/23/19 18:14,The main experiment item,yes,Sternbergtask SL.osexp,C:/Users/Sarah Linan/Desktop,no,mono,no,18,no,white,no,yes,768,legacy,58,11,C:/Users/Sarah Linan/Desktop/subject-S2.csv,legacy,7 6 4 8 1 2,Kafkaesque Koffka,3.2.8,0,n,0,None,right,right,None,NA,2000,2290,34210,2000,NA,2,legacy,6,1024,2,48000,-16,experiment,2,even,9,502033,483674,499824,1908,115012,499826,498652,1915,80802,504038,506038,500828,4206,504037,NA,Sternberg task,36,79504,71,yes,1024
50,50,1132,1132,black,experiment,legacy,legacy,legacy,0,uniform,0,undefined,0,right,71,71,71,0,0,71,71,0,0,71,71,71,0,71,0,10/23/19 18:14,The main experiment item,yes,Sternbergtask SL.osexp,C:/Users/Sarah Linan/Desktop,no,mono,no,18,no,white,no,yes,768,legacy,59,11,C:/Users/Sarah Linan/Desktop/subject-S2.csv,legacy,8 2 1 4 5 9,Kafkaesque Koffka,3.2.8,0,n,0,None,right,right,None,NA,2000,2290,34210,2000,NA,2,legacy,6,1024,2,48000,-16,experiment,2,even,7,509510,483674,507300,1908,115012,507302,506130,1915,80802,511514,513514,508306,4206,511514,NA,Sternberg task,36,81504,72,yes,1024
49.31506849,49.31506849,1143.890411,1143.890411,black,experiment,legacy,legacy,legacy,0,uniform,0,undefined,0,left,72,72,72,0,0,72,72,0,0,72,72,72,0,72,0,10/23/19 18:14,The main experiment item,yes,Sternbergtask SL.osexp,C:/Users/Sarah Linan/Desktop,no,mono,no,18,no,white,no,yes,768,legacy,60,11,C:/Users/Sarah Linan/Desktop/subject-S2.csv,legacy,8 9 5 7 1 6,Kafkaesque Koffka,3.2.8,4,y,0,None,right,right,None,NA,2000,2290,34210,2000,NA,2,legacy,6,1024,2,48000,-16,experiment,2,even,7,516964,483674,514754,1908,115012,514756,513575,1915,80802,518968,520969,515760,4206,518968,NA,Sternberg task,36,83504,73,yes,1024
48.64864865,48.64864865,1143.162162,1143.162162,black,experiment,legacy,legacy,legacy,0,uniform,0,undefined,0,right,73,73,73,0,0,73,73,0,0,73,73,73,0,73,0,10/23/19 18:14,The main experiment item,yes,Sternbergtask SL.osexp,C:/Users/Sarah Linan/Desktop,no,mono,no,18,no,white,no,yes,768,legacy,61,11,C:/Users/Sarah Linan/Desktop/subject-S2.csv,legacy,8 4 3 5,Kafkaesque Koffka,3.2.8,0,n,0,left,right,right,left,NA,1090,2290,34210,1090,NA,2,legacy,4,1024,2,48000,-16,experiment,2,even,6,524452,483674,522242,1908,115012,522244,521064,1915,80802,526458,527549,523248,4206,526457,NA,Sternberg task,36,84594,74,yes,1024
48,48,1136.613333,1136.613333,black,experiment,legacy,legacy,legacy,0,uniform,0,undefined,0,right,74,74,74,0,0,74,74,0,0,74,74,74,0,74,0,10/23/19 18:14,The main experiment item,yes,Sternbergtask SL.osexp,C:/Users/Sarah Linan/Desktop,no,mono,no,18,no,white,no,yes,768,legacy,62,11,C:/Users/Sarah Linan/Desktop/subject-S2.csv,legacy,9 5 3 2 8 6,Kafkaesque Koffka,3.2.8,0,n,0,left,right,right,left,NA,652,2290,34210,652,NA,2,legacy,6,1024,2,48000,-16,experiment,2,even,7,531020,483674,528808,1908,115012,528811,527644,1915,80802,533025,533678,529815,4206,533024,NA,Sternberg task,36,85246,75,yes,1024
48.68421053,48.68421053,1136.131579,1136.131579,black,experiment,legacy,legacy,legacy,0,uniform,1,undefined,1,right,75,75,75,0,0,75,75,0,0,75,75,75,0,75,0,10/23/19 18:14,The main experiment item,yes,Sternbergtask SL.osexp,C:/Users/Sarah Linan/Desktop,no,mono,no,18,no,white,no,yes,768,legacy,63,11,C:/Users/Sarah Linan/Desktop/subject-S2.csv,legacy,1 5 3 2 8,Kafkaesque Koffka,3.2.8,0,n,0,right,right,right,right,NA,1100,2290,34210,1100,NA,2,legacy,5,1024,2,48000,-16,experiment,2,even,4,537206,483674,534996,1908,115012,534998,533833,1915,80802,539208,540309,536002,4206,539208,NA,Sternberg task,37,86346,76,yes,1024
49.35064935,49.35064935,1144.246753,1144.246753,black,experiment,legacy,legacy,legacy,0,uniform,1,undefined,1,left,76,76,76,0,0,76,76,0,0,76,76,76,0,76,0,10/23/19 18:14,The main experiment item,yes,Sternbergtask SL.osexp,C:/Users/Sarah Linan/Desktop,no,mono,no,18,no,white,no,yes,768,legacy,64,11,C:/Users/Sarah Linan/Desktop/subject-S2.csv,legacy,9 6 2 4 1,Kafkaesque Koffka,3.2.8,4,y,0,left,right,right,left,NA,1761,2290,34210,1761,NA,2,legacy,5,1024,2,48000,-16,experiment,2,even,4,543790,540403,541579,1908,115012,541582,533833,1915,80802,545796,547557,542586,4206,545796,NA,Sternberg task,38,88107,77,yes,1024
50,50,1139.307692,1139.307692,black,experiment,legacy,legacy,legacy,0,uniform,1,undefined,1,left,77,77,77,0,0,77,77,0,0,77,77,77,0,77,0,10/23/19 18:14,The main experiment item,yes,Sternbergtask SL.osexp,C:/Users/Sarah Linan/Desktop,no,mono,no,18,no,white,no,yes,768,legacy,65,11,C:/Users/Sarah Linan/Desktop/subject-S2.csv,legacy,2 4 6 9,Kafkaesque Koffka,3.2.8,3,y,0,left,right,right,left,NA,759,2290,34210,759,NA,2,legacy,4,1024,2,48000,-16,experiment,2,even,6,551035,547649,548825,1908,115012,548827,533833,1915,80802,553039,553799,549831,4206,553039,NA,Sternberg task,39,88866,78,yes,1024
49.36708861,49.36708861,1150.202532,1150.202532,black,experiment,legacy,legacy,legacy,0,uniform,0,undefined,0,left,78,78,78,0,0,78,78,0,0,78,78,78,0,78,0,10/23/19 18:14,The main experiment item,yes,Sternbergtask SL.osexp,C:/Users/Sarah Linan/Desktop,no,mono,no,18,no,white,no,yes,768,legacy,66,11,C:/Users/Sarah Linan/Desktop/subject-S2.csv,legacy,4 1 8 7 5,Kafkaesque Koffka,3.2.8,3,y,0,None,right,right,None,NA,2000,2290,34210,2000,NA,2,legacy,5,1024,2,48000,-16,experiment,2,even,8,557215,553833,555004,1908,115012,555006,533833,1915,80802,559217,561218,556011,4206,559217,NA,Sternberg task,39,90866,79,yes,1024
50,50,1142.8875,1142.8875,black,experiment,legacy,legacy,legacy,0,uniform,1,undefined,1,right,79,79,79,0,0,79,79,0,0,79,79,79,0,79,0,10/23/19 18:14,The main experiment item,yes,Sternbergtask SL.osexp,C:/Users/Sarah Linan/Desktop,no,mono,no,18,no,white,no,yes,768,legacy,67,11,C:/Users/Sarah Linan/Desktop/subject-S2.csv,legacy,5 7 3,Kafkaesque Koffka,3.2.8,0,n,0,right,right,right,right,NA,565,2290,34210,565,NA,2,legacy,3,1024,2,48000,-16,experiment,2,even,9,564667,553833,562457,1908,115012,562460,561250,1915,80802,566670,567236,563463,4206,566670,NA,Sternberg task,40,91431,80,yes,1024
49.38271605,49.38271605,1153.469136,1153.469136,black,experiment,legacy,legacy,legacy,0,uniform,0,undefined,0,right,80,80,80,0,0,80,80,0,0,80,80,80,0,80,0,10/23/19 18:14,The main experiment item,yes,Sternbergtask SL.osexp,C:/Users/Sarah Linan/Desktop,no,mono,no,18,no,white,no,yes,768,legacy,68,11,C:/Users/Sarah Linan/Desktop/subject-S2.csv,legacy,1 7 5 2,Kafkaesque Koffka,3.2.8,0,n,0,None,right,right,None,NA,2000,2290,34210,2000,NA,2,legacy,4,1024,2,48000,-16,experiment,2,even,3,570677,567299,568468,1908,115012,568471,561250,1915,80802,572681,574682,569473,4206,572681,NA,Sternberg task,40,93431,81,yes,1024
50,50,1148.04878,1148.04878,black,experiment,legacy,legacy,legacy,0,uniform,1,undefined,1,left,81,81,81,0,0,81,81,0,0,81,81,81,0,81,0,10/23/19 18:14,The main experiment item,yes,Sternbergtask SL.osexp,C:/Users/Sarah Linan/Desktop,no,mono,no,18,no,white,no,yes,768,legacy,69,11,C:/Users/Sarah Linan/Desktop/subject-S2.csv,legacy,3 5 7 1,Kafkaesque Koffka,3.2.8,3,y,0,left,right,right,left,NA,709,2290,34210,709,NA,2,legacy,4,1024,2,48000,-16,experiment,2,even,7,578155,567299,575945,1908,115012,575947,574775,1915,80802,580159,580869,576951,4206,580159,NA,Sternberg task,41,94140,82,yes,1024
50.60240964,50.60240964,1143.927711,1143.927711,black,experiment,legacy,legacy,legacy,0,uniform,1,undefined,1,left,82,82,82,0,0,82,82,0,0,82,82,82,0,82,0,10/23/19 18:14,The main experiment item,yes,Sternbergtask SL.osexp,C:/Users/Sarah Linan/Desktop,no,mono,no,18,no,white,no,yes,768,legacy,70,11,C:/Users/Sarah Linan/Desktop/subject-S2.csv,legacy,8,Kafkaesque Koffka,3.2.8,1,y,0,left,right,right,left,NA,806,2290,34210,806,NA,2,legacy,1,1024,2,48000,-16,experiment,2,even,8,584338,580956,582127,1908,115012,582130,574775,1915,80802,586342,587149,583134,4206,586342,NA,Sternberg task,42,94946,83,yes,1024
51.19047619,51.19047619,1139.869048,1139.869048,black,experiment,legacy,legacy,legacy,0,uniform,1,undefined,1,left,83,83,83,0,0,83,83,0,0,83,83,83,0,83,0,10/23/19 18:14,The main experiment item,yes,Sternbergtask SL.osexp,C:/Users/Sarah Linan/Desktop,no,mono,no,18,no,white,no,yes,768,legacy,71,11,C:/Users/Sarah Linan/Desktop/subject-S2.csv,legacy,2 5 4 8 7,Kafkaesque Koffka,3.2.8,3,y,0,left,right,right,left,NA,803,2290,34210,803,NA,2,legacy,5,1024,2,48000,-16,experiment,2,even,4,590614,587236,588406,1908,115012,588408,574775,1915,80802,592617,593422,589411,4206,592617,NA,Sternberg task,43,95749,84,yes,1024
51.76470588,51.76470588,1135.458824,1135.458824,black,experiment,legacy,legacy,legacy,0,uniform,1,undefined,1,left,84,84,84,0,0,84,84,0,0,84,84,84,0,84,0,10/23/19 18:14,The main experiment item,yes,Sternbergtask SL.osexp,C:/Users/Sarah Linan/Desktop,no,mono,no,18,no,white,no,yes,768,legacy,72,11,C:/Users/Sarah Linan/Desktop/subject-S2.csv,legacy,4 3 2 5 8,Kafkaesque Koffka,3.2.8,2,y,0,left,right,right,left,NA,765,2290,34210,765,NA,2,legacy,5,1024,2,48000,-16,experiment,2,even,3,596902,593516,594693,1908,115012,594694,574775,1915,80802,598906,599673,595698,4206,598906,NA,Sternberg task,44,96514,85,yes,1024
51.1627907,51.1627907,1133.093023,1133.093023,black,experiment,legacy,legacy,legacy,0,uniform,0,undefined,0,right,85,85,85,0,0,85,85,0,0,85,85,85,0,85,0,10/23/19 18:14,The main experiment item,yes,Sternbergtask SL.osexp,C:/Users/Sarah Linan/Desktop,no,mono,no,18,no,white,no,yes,768,legacy,73,11,C:/Users/Sarah Linan/Desktop/subject-S2.csv,legacy,1 4 9 3,Kafkaesque Koffka,3.2.8,0,n,0,left,right,right,left,NA,932,2290,34210,932,NA,2,legacy,4,1024,2,48000,-16,experiment,2,even,5,603140,599763,600929,1908,115012,600932,574775,1915,80802,605145,606079,601936,4206,605145,NA,Sternberg task,44,97446,86,yes,1024
51.72413793,51.72413793,1127.850575,1127.850575,black,experiment,legacy,legacy,legacy,0,uniform,1,undefined,1,left,86,86,86,0,0,86,86,0,0,86,86,86,0,86,0,10/23/19 18:14,The main experiment item,yes,Sternbergtask SL.osexp,C:/Users/Sarah Linan/Desktop,no,mono,no,18,no,white,no,yes,768,legacy,74,11,C:/Users/Sarah Linan/Desktop/subject-S2.csv,legacy,6 1 2,Kafkaesque Koffka,3.2.8,3,y,0,left,right,right,left,NA,677,2290,34210,677,NA,2,legacy,3,1024,2,48000,-16,experiment,2,even,2,609541,599763,607330,1908,115012,607333,606164,1915,80802,611545,612223,608337,4206,611545,NA,Sternberg task,45,98123,87,yes,1024
51.13636364,51.13636364,1125.079545,1125.079545,black,experiment,legacy,legacy,legacy,0,uniform,0,undefined,0,right,87,87,87,0,0,87,87,0,0,87,87,87,0,87,0,10/23/19 18:14,The main experiment item,yes,Sternbergtask SL.osexp,C:/Users/Sarah Linan/Desktop,no,mono,no,18,no,white,no,yes,768,legacy,75,11,C:/Users/Sarah Linan/Desktop/subject-S2.csv,legacy,3 4 2,Kafkaesque Koffka,3.2.8,0,n,0,left,right,right,left,NA,884,2290,34210,884,NA,2,legacy,3,1024,2,48000,-16,experiment,2,even,5,615686,612311,613478,1908,115012,613480,606164,1915,80802,617689,618574,614484,4206,617689,NA,Sternberg task,45,99007,88,yes,1024
51.68539326,51.68539326,1119.842697,1119.842697,black,experiment,legacy,legacy,legacy,0,uniform,1,undefined,1,left,88,88,88,0,0,88,88,0,0,88,88,88,0,88,0,10/23/19 18:14,The main experiment item,yes,Sternbergtask SL.osexp,C:/Users/Sarah Linan/Desktop,no,mono,no,18,no,white,no,yes,768,legacy,76,11,C:/Users/Sarah Linan/Desktop/subject-S2.csv,legacy,8 7 3,Kafkaesque Koffka,3.2.8,1,y,0,left,right,right,left,NA,659,2290,34210,659,NA,2,legacy,3,1024,2,48000,-16,experiment,2,even,8,622051,612311,619841,1908,115012,619843,618669,1915,80802,624056,624717,620847,4206,624056,NA,Sternberg task,46,99666,89,yes,1024
51.11111111,51.11111111,1117.877778,1117.877778,black,experiment,legacy,legacy,legacy,0,uniform,0,undefined,0,left,89,89,89,0,0,89,89,0,0,89,89,89,0,89,0,10/23/19 18:14,The main experiment item,yes,Sternbergtask SL.osexp,C:/Users/Sarah Linan/Desktop,no,mono,no,18,no,white,no,yes,768,legacy,77,11,C:/Users/Sarah Linan/Desktop/subject-S2.csv,legacy,5 7 3 6 2,Kafkaesque Koffka,3.2.8,5,y,0,right,right,right,right,NA,943,2290,34210,943,NA,2,legacy,5,1024,2,48000,-16,experiment,2,even,2,628183,624813,625973,1908,115012,625975,618669,1915,80802,630188,631133,626979,4206,630187,NA,Sternberg task,46,100609,90,yes,1024
50.54945055,50.54945055,1112.197802,1112.197802,black,experiment,legacy,legacy,legacy,0,uniform,0,undefined,0,right,90,90,90,0,0,90,90,0,0,90,90,90,0,90,0,10/23/19 18:14,The main experiment item,yes,Sternbergtask SL.osexp,C:/Users/Sarah Linan/Desktop,no,mono,no,18,no,white,no,yes,768,legacy,78,11,C:/Users/Sarah Linan/Desktop/subject-S2.csv,legacy,9,Kafkaesque Koffka,3.2.8,0,n,0,left,right,right,left,NA,601,2290,34210,601,NA,2,legacy,1,1024,2,48000,-16,experiment,2,even,6,634574,624813,632363,1908,115012,632365,631184,1915,80802,636578,637180,633370,4206,636577,NA,Sternberg task,46,101210,91,yes,1024
51.08695652,51.08695652,1115.51087,1115.51087,black,experiment,legacy,legacy,legacy,0,uniform,1,undefined,1,left,91,91,91,0,0,91,91,0,0,91,91,91,0,91,0,10/23/19 18:14,The main experiment item,yes,Sternbergtask SL.osexp,C:/Users/Sarah Linan/Desktop,no,mono,no,18,no,white,no,yes,768,legacy,79,11,C:/Users/Sarah Linan/Desktop/subject-S2.csv,legacy,3 9 7 6 4,Kafkaesque Koffka,3.2.8,3,y,0,left,right,right,left,NA,1417,2290,34210,1417,NA,2,legacy,5,1024,2,48000,-16,experiment,2,even,7,640696,624813,638487,1908,115012,638490,637322,1915,80802,642700,644119,639492,4206,642700,NA,Sternberg task,47,102627,92,yes,1024
50.53763441,50.53763441,1125.021505,1125.021505,black,experiment,legacy,legacy,legacy,0,uniform,0,undefined,0,left,92,92,92,0,0,92,92,0,0,92,92,92,0,92,0,10/23/19 18:14,The main experiment item,yes,Sternbergtask SL.osexp,C:/Users/Sarah Linan/Desktop,no,mono,no,18,no,white,no,yes,768,legacy,80,11,C:/Users/Sarah Linan/Desktop/subject-S2.csv,legacy,3 5 4 7,Kafkaesque Koffka,3.2.8,1,y,0,None,right,right,None,NA,2000,2290,34210,2000,NA,2,legacy,4,1024,2,48000,-16,experiment,2,even,3,647597,644214,645386,1908,115012,645388,637322,1915,80802,649602,651603,646392,4206,649602,NA,Sternberg task,47,104627,93,yes,1024
50,50,1117.946809,1117.946809,black,experiment,legacy,legacy,legacy,0,uniform,0,undefined,0,right,93,93,93,0,0,93,93,0,0,93,93,93,0,93,0,10/23/19 18:14,The main experiment item,yes,Sternbergtask SL.osexp,C:/Users/Sarah Linan/Desktop,no,mono,no,18,no,white,no,yes,768,legacy,81,11,C:/Users/Sarah Linan/Desktop/subject-S2.csv,legacy,7 3 2 8,Kafkaesque Koffka,3.2.8,0,n,0,left,right,right,left,NA,460,2290,34210,460,NA,2,legacy,4,1024,2,48000,-16,experiment,2,even,4,655063,644214,652851,1908,115012,652854,651678,1915,80802,657066,657528,653858,4206,657066,NA,Sternberg task,47,105087,94,yes,1024
49.47368421,49.47368421,1111.768421,1111.768421,black,experiment,legacy,legacy,legacy,0,uniform,0,undefined,0,right,94,94,94,0,0,94,94,0,0,94,94,94,0,94,0,10/23/19 18:14,The main experiment item,yes,Sternbergtask SL.osexp,C:/Users/Sarah Linan/Desktop,no,mono,no,18,no,white,no,yes,768,legacy,82,11,C:/Users/Sarah Linan/Desktop/subject-S2.csv,legacy,5 3 2 6 9 8,Kafkaesque Koffka,3.2.8,0,n,0,left,right,right,left,NA,531,2290,34210,531,NA,2,legacy,6,1024,2,48000,-16,experiment,2,even,4,660981,644214,658773,1908,115012,658775,657604,1915,80802,662986,663519,659777,4206,662985,NA,Sternberg task,47,105618,95,yes,1024
48.95833333,48.95833333,1108.479167,1108.479167,black,experiment,legacy,legacy,legacy,0,uniform,0,undefined,0,right,95,95,95,0,0,95,95,0,0,95,95,95,0,95,0,10/23/19 18:14,The main experiment item,yes,Sternbergtask SL.osexp,C:/Users/Sarah Linan/Desktop,no,mono,no,18,no,white,no,yes,768,legacy,83,11,C:/Users/Sarah Linan/Desktop/subject-S2.csv,legacy,8 5 7 3 6,Kafkaesque Koffka,3.2.8,0,n,0,left,right,right,left,NA,796,2290,34210,796,NA,2,legacy,5,1024,2,48000,-16,experiment,2,even,9,666990,644214,664779,1908,115012,664782,663604,1915,80802,668994,669791,665786,4206,668994,NA,Sternberg task,47,106414,96,yes,1024
49.48453608,49.48453608,1103.226804,1103.226804,black,experiment,legacy,legacy,legacy,0,uniform,1,undefined,1,right,96,96,96,0,0,96,96,0,0,96,96,96,0,96,0,10/23/19 18:14,The main experiment item,yes,Sternbergtask SL.osexp,C:/Users/Sarah Linan/Desktop,no,mono,no,18,no,white,no,yes,768,legacy,84,11,C:/Users/Sarah Linan/Desktop/subject-S2.csv,legacy,3 9 1,Kafkaesque Koffka,3.2.8,0,n,0,right,right,right,right,NA,599,2290,34210,599,NA,2,legacy,3,1024,2,48000,-16,experiment,2,even,7,673245,644214,671034,1908,115012,671037,669868,1915,80802,675249,675849,672041,4206,675249,NA,Sternberg task,48,107013,97,yes,1024
50,50,1099.132653,1099.132653,black,experiment,legacy,legacy,legacy,0,uniform,1,undefined,1,left,97,97,97,0,0,97,97,0,0,97,97,97,0,97,0,10/23/19 18:14,The main experiment item,yes,Sternbergtask SL.osexp,C:/Users/Sarah Linan/Desktop,no,mono,no,18,no,white,no,yes,768,legacy,85,11,C:/Users/Sarah Linan/Desktop/subject-S2.csv,legacy,7 2 3,Kafkaesque Koffka,3.2.8,3,y,0,left,right,right,left,NA,702,2290,34210,702,NA,2,legacy,3,1024,2,48000,-16,experiment,2,even,3,679322,675942,677111,1908,115012,677114,669868,1915,80802,681326,682030,678117,4206,681326,NA,Sternberg task,49,107715,98,yes,1024
50.50505051,50.50505051,1094.828283,1094.828283,black,experiment,legacy,legacy,legacy,0,uniform,1,undefined,1,right,98,98,98,0,0,98,98,0,0,98,98,98,0,98,0,10/23/19 18:14,The main experiment item,yes,Sternbergtask SL.osexp,C:/Users/Sarah Linan/Desktop,no,mono,no,18,no,white,no,yes,768,legacy,86,11,C:/Users/Sarah Linan/Desktop/subject-S2.csv,legacy,8 6 3 4 7,Kafkaesque Koffka,3.2.8,0,n,0,right,right,right,right,NA,673,2290,34210,673,NA,2,legacy,5,1024,2,48000,-16,experiment,2,even,1,685510,682125,683300,1908,115012,683302,669868,1915,80802,687515,688190,684306,4206,687515,NA,Sternberg task,50,108388,99,yes,1024
51,51,1089.67,1089.67,black,experiment,legacy,legacy,legacy,0,uniform,1,undefined,1,right,99,99,99,0,0,99,99,0,0,99,99,99,0,99,0,10/23/19 18:14,The main experiment item,yes,Sternbergtask SL.osexp,C:/Users/Sarah Linan/Desktop,no,mono,no,18,no,white,no,yes,768,legacy,87,11,C:/Users/Sarah Linan/Desktop/subject-S2.csv,legacy,6 2 9 3 8 4,Kafkaesque Koffka,3.2.8,0,n,0,right,right,right,right,NA,579,2290,34210,579,NA,2,legacy,6,1024,2,48000,-16,experiment,2,even,1,691687,688280,689477,1908,115012,689479,669868,1915,80802,693692,694272,690483,4206,693692,NA,Sternberg task,51,108967,100,yes,1024
51.48514851,51.48514851,1084.475248,1084.475248,black,experiment,legacy,legacy,legacy,0,uniform,1,undefined,1,right,100,100,100,0,0,100,100,0,0,100,100,100,0,100,0,10/23/19 18:14,The main experiment item,yes,Sternbergtask SL.osexp,C:/Users/Sarah Linan/Desktop,no,mono,no,18,no,white,no,yes,768,legacy,88,11,C:/Users/Sarah Linan/Desktop/subject-S2.csv,legacy,4 1,Kafkaesque Koffka,3.2.8,0,n,0,right,right,right,right,NA,565,2290,34210,565,NA,2,legacy,2,1024,2,48000,-16,experiment,2,even,6,697730,694361,695520,1908,115012,695523,669868,1915,80802,699734,700300,696527,4206,699734,NA,Sternberg task,52,109532,101,yes,1024
51.96078431,51.96078431,1082.794118,1082.794118,black,experiment,legacy,legacy,legacy,0,uniform,1,undefined,1,right,101,101,101,0,0,101,101,0,0,101,101,101,0,101,0,10/23/19 18:14,The main experiment item,yes,Sternbergtask SL.osexp,C:/Users/Sarah Linan/Desktop,no,mono,no,18,no,white,no,yes,768,legacy,89,11,C:/Users/Sarah Linan/Desktop/subject-S2.csv,legacy,7 4 2 8 1 9,Kafkaesque Koffka,3.2.8,0,n,0,right,right,right,right,NA,913,2290,34210,913,NA,2,legacy,6,1024,2,48000,-16,experiment,2,even,5,703791,700397,701580,1908,115012,701582,669868,1915,80802,705794,706709,702586,4206,705794,NA,Sternberg task,53,110445,102,yes,1024
52.42718447,52.42718447,1079.378641,1079.378641,black,experiment,legacy,legacy,legacy,0,uniform,1,undefined,1,left,102,102,102,0,0,102,102,0,0,102,102,102,0,102,0,10/23/19 18:14,The main experiment item,yes,Sternbergtask SL.osexp,C:/Users/Sarah Linan/Desktop,no,mono,no,18,no,white,no,yes,768,legacy,90,11,C:/Users/Sarah Linan/Desktop/subject-S2.csv,legacy,9 8 4,Kafkaesque Koffka,3.2.8,1,y,0,left,right,right,left,NA,731,2290,34210,731,NA,2,legacy,3,1024,2,48000,-16,experiment,2,even,9,710181,706798,707972,1908,115012,707974,669868,1915,80802,712185,712918,708976,4206,712185,NA,Sternberg task,54,111176,103,yes,1024
52.88461538,52.88461538,1079.048077,1079.048077,black,experiment,legacy,legacy,legacy,0,uniform,1,undefined,1,right,103,103,103,0,0,103,103,0,0,103,103,103,0,103,0,10/23/19 18:14,The main experiment item,yes,Sternbergtask SL.osexp,C:/Users/Sarah Linan/Desktop,no,mono,no,18,no,white,no,yes,768,legacy,91,11,C:/Users/Sarah Linan/Desktop/subject-S2.csv,legacy,2 6 4 3 9,Kafkaesque Koffka,3.2.8,0,n,0,right,right,right,right,NA,1045,2290,34210,1045,NA,2,legacy,5,1024,2,48000,-16,experiment,2,even,1,716376,713012,714166,1908,115012,714169,669868,1915,80802,718380,719428,715171,4206,718380,NA,Sternberg task,55,112221,104,yes,1024
53.33333333,53.33333333,1079.92381,1079.92381,black,experiment,legacy,legacy,legacy,0,uniform,1,undefined,1,left,104,104,104,0,0,104,104,0,0,104,104,104,0,104,0,10/23/19 18:14,The main experiment item,yes,Sternbergtask SL.osexp,C:/Users/Sarah Linan/Desktop,no,mono,no,18,no,white,no,yes,768,legacy,92,11,C:/Users/Sarah Linan/Desktop/subject-S2.csv,legacy,4 6 2 5 1,Kafkaesque Koffka,3.2.8,5,y,0,left,right,right,left,NA,1171,2290,34210,1171,NA,2,legacy,5,1024,2,48000,-16,experiment,2,even,1,722828,719456,720617,1908,115012,720619,669868,1915,80802,724834,726006,721624,4206,724833,NA,Sternberg task,56,113392,105,yes,1024
53.77358491,53.77358491,1077.886792,1077.886792,black,experiment,legacy,legacy,legacy,0,uniform,1,undefined,1,right,105,105,105,0,0,105,105,0,0,105,105,105,0,105,0,10/23/19 18:14,The main experiment item,yes,Sternbergtask SL.osexp,C:/Users/Sarah Linan/Desktop,no,mono,no,18,no,white,no,yes,768,legacy,93,11,C:/Users/Sarah Linan/Desktop/subject-S2.csv,legacy,6 3 1 7 9 8,Kafkaesque Koffka,3.2.8,0,n,0,right,right,right,right,NA,864,2290,34210,864,NA,2,legacy,6,1024,2,48000,-16,experiment,2,even,4,729454,726093,727246,1908,115012,727249,669868,1915,80802,731458,732323,728251,4206,731458,NA,Sternberg task,57,114256,106,yes,1024
54.20560748,54.20560748,1074.317757,1074.317757,black,experiment,legacy,legacy,legacy,0,uniform,1,undefined,1,right,106,106,106,0,0,106,106,0,0,106,106,106,0,106,0,10/23/19 18:14,The main experiment item,yes,Sternbergtask SL.osexp,C:/Users/Sarah Linan/Desktop,no,mono,no,18,no,white,no,yes,768,legacy,94,11,C:/Users/Sarah Linan/Desktop/subject-S2.csv,legacy,1 6 4,Kafkaesque Koffka,3.2.8,0,n,0,right,right,right,right,NA,696,2290,34210,696,NA,2,legacy,3,1024,2,48000,-16,experiment,2,even,7,735796,732418,733585,1908,115012,733587,669868,1915,80802,737800,738497,734591,4206,737799,NA,Sternberg task,58,114952,107,yes,1024
53.7037037,53.7037037,1082.888889,1082.888889,black,experiment,legacy,legacy,legacy,0,uniform,0,undefined,0,left,107,107,107,0,0,107,107,0,0,107,107,107,0,107,0,10/23/19 18:14,The main experiment item,yes,Sternbergtask SL.osexp,C:/Users/Sarah Linan/Desktop,no,mono,no,18,no,white,no,yes,768,legacy,95,11,C:/Users/Sarah Linan/Desktop/subject-S2.csv,legacy,4 9 7 8 5 3,Kafkaesque Koffka,3.2.8,4,y,0,None,right,right,None,NA,2000,2290,34210,2000,NA,2,legacy,6,1024,2,48000,-16,experiment,2,even,8,741992,738586,739781,1908,115012,739784,669868,1915,80802,743995,745996,740788,4206,743995,NA,Sternberg task,58,116952,108,yes,1024
53.21100917,53.21100917,1079.798165,1079.798165,black,experiment,legacy,legacy,legacy,0,uniform,0,undefined,0,right,108,108,108,0,0,108,108,0,0,108,108,108,0,108,0,10/23/19 18:14,The main experiment item,yes,Sternbergtask SL.osexp,C:/Users/Sarah Linan/Desktop,no,mono,no,18,no,white,no,yes,768,legacy,96,11,C:/Users/Sarah Linan/Desktop/subject-S2.csv,legacy,8 4 3 9,Kafkaesque Koffka,3.2.8,0,n,0,left,right,right,left,NA,746,2290,34210,746,NA,2,legacy,4,1024,2,48000,-16,experiment,2,even,5,749456,738586,747243,1908,115012,747245,746086,1915,80802,751459,752206,748250,4206,751459,NA,Sternberg task,58,117698,109,yes,1024
52.72727273,52.72727273,1074.963636,1074.963636,black,experiment,legacy,legacy,legacy,0,uniform,0,undefined,0,right,109,109,109,0,0,109,109,0,0,109,109,109,0,109,0,10/23/19 18:14,The main experiment item,yes,Sternbergtask SL.osexp,C:/Users/Sarah Linan/Desktop,no,mono,no,18,no,white,no,yes,768,legacy,97,11,C:/Users/Sarah Linan/Desktop/subject-S2.csv,legacy,1 8 7,Kafkaesque Koffka,3.2.8,0,n,0,left,right,right,left,NA,548,2290,34210,548,NA,2,legacy,3,1024,2,48000,-16,experiment,2,even,4,755680,738586,753468,1908,115012,753471,752299,1915,80802,757684,758233,754476,4206,757684,NA,Sternberg task,58,118246,110,yes,1024
53.15315315,53.15315315,1071.720721,1071.720721,black,experiment,legacy,legacy,legacy,0,uniform,1,undefined,1,right,110,110,110,0,0,110,110,0,0,110,110,110,0,110,0,10/23/19 18:14,The main experiment item,yes,Sternbergtask SL.osexp,C:/Users/Sarah Linan/Desktop,no,mono,no,18,no,white,no,yes,768,legacy,98,11,C:/Users/Sarah Linan/Desktop/subject-S2.csv,legacy,6 9 5,Kafkaesque Koffka,3.2.8,0,n,0,right,right,right,right,NA,715,2290,34210,715,NA,2,legacy,3,1024,2,48000,-16,experiment,2,even,8,761716,738586,759505,1908,115012,759507,758325,1915,80802,763720,764436,760511,4206,763720,NA,Sternberg task,59,118961,111,yes,1024
53.57142857,53.57142857,1067.482143,1067.482143,black,experiment,legacy,legacy,legacy,0,uniform,1,undefined,1,left,111,111,111,0,0,111,111,0,0,111,111,111,0,111,0,10/23/19 18:14,The main experiment item,yes,Sternbergtask SL.osexp,C:/Users/Sarah Linan/Desktop,no,mono,no,18,no,white,no,yes,768,legacy,99,11,C:/Users/Sarah Linan/Desktop/subject-S2.csv,legacy,6 9 7 4 5 1,Kafkaesque Koffka,3.2.8,2,y,0,left,right,right,left,NA,597,2290,34210,597,NA,2,legacy,6,1024,2,48000,-16,experiment,2,even,9,767844,764469,765636,1908,115012,765638,758325,1915,80802,769848,770446,766642,4206,769848,NA,Sternberg task,60,119558,112,yes,1024
53.98230089,53.98230089,1063.929204,1063.929204,black,experiment,legacy,legacy,legacy,0,uniform,1,undefined,1,left,112,112,112,0,0,112,112,0,0,112,112,112,0,112,0,10/23/19 18:14,The main experiment item,yes,Sternbergtask SL.osexp,C:/Users/Sarah Linan/Desktop,no,mono,no,18,no,white,no,yes,768,legacy,100,11,C:/Users/Sarah Linan/Desktop/subject-S2.csv,legacy,7 4 2 6 3 5,Kafkaesque Koffka,3.2.8,6,y,0,left,right,right,left,NA,666,2290,34210,666,NA,2,legacy,6,1024,2,48000,-16,experiment,2,even,5,773862,770484,771651,1908,115012,771654,758325,1915,80802,775866,776533,772658,4206,775866,NA,Sternberg task,61,120224,113,yes,1024
54.38596491,54.38596491,1058.947368,1058.947368,black,experiment,legacy,legacy,legacy,0,uniform,1,undefined,1,left,113,113,113,0,0,113,113,0,0,113,113,113,0,113,0,10/23/19 18:14,The main experiment item,yes,Sternbergtask SL.osexp,C:/Users/Sarah Linan/Desktop,no,mono,no,18,no,white,no,yes,768,legacy,101,11,C:/Users/Sarah Linan/Desktop/subject-S2.csv,legacy,6 2,Kafkaesque Koffka,3.2.8,1,y,0,left,right,right,left,NA,496,2290,34210,496,NA,2,legacy,2,1024,2,48000,-16,experiment,2,even,6,779995,776620,777783,1908,115012,777786,758325,1915,80802,782000,782497,778790,4206,781999,NA,Sternberg task,62,120720,114,yes,1024
54.7826087,54.7826087,1059.130435,1059.130435,black,experiment,legacy,legacy,legacy,0,uniform,1,undefined,1,right,114,114,114,0,0,114,114,0,0,114,114,114,0,114,0,10/23/19 18:14,The main experiment item,yes,Sternbergtask SL.osexp,C:/Users/Sarah Linan/Desktop,no,mono,no,18,no,white,no,yes,768,legacy,102,11,C:/Users/Sarah Linan/Desktop/subject-S2.csv,legacy,7 1,Kafkaesque Koffka,3.2.8,0,n,0,right,right,right,right,NA,1080,2290,34210,1080,NA,2,legacy,2,1024,2,48000,-16,experiment,2,even,8,785963,782590,783752,1908,115012,783755,758325,1915,80802,787967,789049,784759,4206,787967,NA,Sternberg task,63,121800,115,yes,1024
55.17241379,55.17241379,1055.155172,1055.155172,black,experiment,legacy,legacy,legacy,0,uniform,1,undefined,1,left,115,115,115,0,0,115,115,0,0,115,115,115,0,115,0,10/23/19 18:14,The main experiment item,yes,Sternbergtask SL.osexp,C:/Users/Sarah Linan/Desktop,no,mono,no,18,no,white,no,yes,768,legacy,103,11,C:/Users/Sarah Linan/Desktop/subject-S2.csv,legacy,3 5 9 6 2 4,Kafkaesque Koffka,3.2.8,1,y,0,left,right,right,left,NA,598,2290,34210,598,NA,2,legacy,6,1024,2,48000,-16,experiment,2,even,3,792513,789136,790304,1908,115012,790306,758325,1915,80802,794517,795116,791308,4206,794517,NA,Sternberg task,64,122398,116,yes,1024
54.7008547,54.7008547,1063.230769,1063.230769,black,experiment,legacy,legacy,legacy,0,uniform,0,undefined,0,right,116,116,116,0,0,116,116,0,0,116,116,116,0,116,0,10/23/19 18:14,The main experiment item,yes,Sternbergtask SL.osexp,C:/Users/Sarah Linan/Desktop,no,mono,no,18,no,white,no,yes,768,legacy,104,11,C:/Users/Sarah Linan/Desktop/subject-S2.csv,legacy,2 5 1 4,Kafkaesque Koffka,3.2.8,0,n,0,None,right,right,None,NA,2000,2290,34210,2000,NA,2,legacy,4,1024,2,48000,-16,experiment,2,even,6,798571,795206,796361,1908,115012,796364,758325,1915,80802,800576,802577,797368,4206,800576,NA,Sternberg task,64,124398,117,yes,1024
54.23728814,54.23728814,1065.067797,1065.067797,black,experiment,legacy,legacy,legacy,0,uniform,0,undefined,0,right,117,117,117,0,0,117,117,0,0,117,117,117,0,117,0,10/23/19 18:14,The main experiment item,yes,Sternbergtask SL.osexp,C:/Users/Sarah Linan/Desktop,no,mono,no,18,no,white,no,yes,768,legacy,105,11,C:/Users/Sarah Linan/Desktop/subject-S2.csv,legacy,8 5 4 2 9 6,Kafkaesque Koffka,3.2.8,0,n,0,left,right,right,left,NA,1280,2290,34210,1280,NA,2,legacy,6,1024,2,48000,-16,experiment,2,even,3,806041,795206,803832,1908,115012,803834,802671,1915,80802,808046,809329,804837,4206,808046,NA,Sternberg task,64,125678,118,yes,1024
54.62184874,54.62184874,1064.092437,1064.092437,black,experiment,legacy,legacy,legacy,0,uniform,1,undefined,1,left,118,118,118,0,0,118,118,0,0,118,118,118,0,118,0,10/23/19 18:14,The main experiment item,yes,Sternbergtask SL.osexp,C:/Users/Sarah Linan/Desktop,no,mono,no,18,no,white,no,yes,768,legacy,106,11,C:/Users/Sarah Linan/Desktop/subject-S2.csv,legacy,7,Kafkaesque Koffka,3.2.8,1,y,0,left,right,right,left,NA,949,2290,34210,949,NA,2,legacy,1,1024,2,48000,-16,experiment,2,even,7,812791,795206,810578,1908,115012,810580,809416,1915,80802,814797,815749,811586,4206,814797,NA,Sternberg task,65,126627,119,yes,1024
54.16666667,54.16666667,1062.1,1062.1,black,experiment,legacy,legacy,legacy,0,uniform,0,undefined,0,left,119,119,119,0,0,119,119,0,0,119,119,119,0,119,0,10/23/19 18:14,The main experiment item,yes,Sternbergtask SL.osexp,C:/Users/Sarah Linan/Desktop,no,mono,no,18,no,white,no,yes,768,legacy,107,11,C:/Users/Sarah Linan/Desktop/subject-S2.csv,legacy,7 1 8 5 6 2,Kafkaesque Koffka,3.2.8,2,y,0,right,right,right,right,NA,825,2290,34210,825,NA,2,legacy,6,1024,2,48000,-16,experiment,2,even,1,819213,815842,817002,1908,115012,817004,809416,1915,80802,821215,822041,818008,4206,821215,NA,Sternberg task,65,127452,120,yes,1024
53.71900826,53.71900826,1069.85124,1069.85124,black,experiment,legacy,legacy,legacy,0,uniform,0,undefined,0,left,120,120,120,0,0,120,120,0,0,120,120,120,0,120,0,10/23/19 18:14,The main experiment item,yes,Sternbergtask SL.osexp,C:/Users/Sarah Linan/Desktop,no,mono,no,18,no,white,no,yes,768,legacy,108,11,C:/Users/Sarah Linan/Desktop/subject-S2.csv,legacy,3 2 1 4 7,Kafkaesque Koffka,3.2.8,2,y,0,None,right,right,None,NA,2000,2290,34210,2000,NA,2,legacy,5,1024,2,48000,-16,experiment,2,even,2,825467,815842,823256,1908,115012,823259,822082,1915,80802,827471,829472,824263,4206,827471,NA,Sternberg task,65,129452,121,yes,1024
53.27868852,53.27868852,1077.47541,1077.47541,black,experiment,legacy,legacy,legacy,0,uniform,0,undefined,0,right,121,121,121,0,0,121,121,0,0,121,121,121,0,121,0,10/23/19 18:14,The main experiment item,yes,Sternbergtask SL.osexp,C:/Users/Sarah Linan/Desktop,no,mono,no,18,no,white,no,yes,768,legacy,109,11,C:/Users/Sarah Linan/Desktop/subject-S2.csv,legacy,7 9,Kafkaesque Koffka,3.2.8,0,n,0,None,right,right,None,NA,2000,2290,34210,2000,NA,2,legacy,2,1024,2,48000,-16,experiment,2,even,1,832951,815842,830740,1908,115012,830742,829566,1915,80802,834955,836956,831747,4206,834955,NA,Sternberg task,65,131452,122,yes,1024
52.84552846,52.84552846,1084.97561,1084.97561,black,experiment,legacy,legacy,legacy,0,uniform,0,undefined,0,right,122,122,122,0,0,122,122,0,0,122,122,122,0,122,0,10/23/19 18:14,The main experiment item,yes,Sternbergtask SL.osexp,C:/Users/Sarah Linan/Desktop,no,mono,no,18,no,white,no,yes,768,legacy,110,11,C:/Users/Sarah Linan/Desktop/subject-S2.csv,legacy,2 8 9,Kafkaesque Koffka,3.2.8,0,n,0,None,right,right,None,NA,2000,2290,34210,2000,NA,2,legacy,3,1024,2,48000,-16,experiment,2,even,6,840388,815842,838177,1908,115012,838180,837005,1915,80802,842391,844392,839184,4206,842391,NA,Sternberg task,65,133452,123,yes,1024
52.41935484,52.41935484,1092.354839,1092.354839,black,experiment,legacy,legacy,legacy,0,uniform,0,undefined,0,left,123,123,123,0,0,123,123,0,0,123,123,123,0,123,0,10/23/19 18:14,The main experiment item,yes,Sternbergtask SL.osexp,C:/Users/Sarah Linan/Desktop,no,mono,no,18,no,white,no,yes,768,legacy,111,11,C:/Users/Sarah Linan/Desktop/subject-S2.csv,legacy,8 9 6 1,Kafkaesque Koffka,3.2.8,2,y,0,None,right,right,None,NA,2000,2290,34210,2000,NA,2,legacy,4,1024,2,48000,-16,experiment,2,even,9,847852,815842,845643,1908,115012,845645,844478,1915,80802,849854,851855,846649,4206,849854,NA,Sternberg task,65,135452,124,yes,1024
52,52,1099.616,1099.616,black,experiment,legacy,legacy,legacy,0,uniform,0,undefined,0,right,124,124,124,0,0,124,124,0,0,124,124,124,0,124,0,10/23/19 18:14,The main experiment item,yes,Sternbergtask SL.osexp,C:/Users/Sarah Linan/Desktop,no,mono,no,18,no,white,no,yes,768,legacy,112,11,C:/Users/Sarah Linan/Desktop/subject-S2.csv,legacy,6 7 5 9,Kafkaesque Koffka,3.2.8,0,n,0,None,right,right,None,NA,2000,2290,34210,2000,NA,2,legacy,4,1024,2,48000,-16,experiment,2,even,2,855348,815842,853139,1908,115012,853141,851974,1915,80802,857351,859352,854144,4206,857351,NA,Sternberg task,65,137452,125,yes,1024
51.58730159,51.58730159,1106.761905,1106.761905,black,experiment,legacy,legacy,legacy,0,uniform,0,undefined,0,right,125,125,125,0,0,125,125,0,0,125,125,125,0,125,0,10/23/19 18:14,The main experiment item,yes,Sternbergtask SL.osexp,C:/Users/Sarah Linan/Desktop,no,mono,no,18,no,white,no,yes,768,legacy,113,11,C:/Users/Sarah Linan/Desktop/subject-S2.csv,legacy,1 7 8 3 9,Kafkaesque Koffka,3.2.8,0,n,0,None,right,right,None,NA,2000,2290,34210,2000,NA,2,legacy,5,1024,2,48000,-16,experiment,2,even,2,862826,815842,860616,1908,115012,860618,859446,1915,80802,864832,866833,861622,4206,864831,NA,Sternberg task,65,139452,126,yes,1024
51.18110236,51.18110236,1113.795276,1113.795276,black,experiment,legacy,legacy,legacy,0,uniform,0,undefined,0,left,126,126,126,0,0,126,126,0,0,126,126,126,0,126,0,10/23/19 18:14,The main experiment item,yes,Sternbergtask SL.osexp,C:/Users/Sarah Linan/Desktop,no,mono,no,18,no,white,no,yes,768,legacy,114,11,C:/Users/Sarah Linan/Desktop/subject-S2.csv,legacy,3 4,Kafkaesque Koffka,3.2.8,1,y,0,None,right,right,None,NA,2000,2290,34210,2000,NA,2,legacy,2,1024,2,48000,-16,experiment,2,even,3,870296,815842,868087,1908,115012,868089,866924,1915,80802,872301,874302,869092,4206,872301,NA,Sternberg task,65,141452,127,yes,1024
50.78125,50.78125,1120.71875,1120.71875,black,experiment,legacy,legacy,legacy,0,uniform,0,undefined,0,right,127,127,127,0,0,127,127,0,0,127,127,127,0,127,0,10/23/19 18:14,The main experiment item,yes,Sternbergtask SL.osexp,C:/Users/Sarah Linan/Desktop,no,mono,no,18,no,white,no,yes,768,legacy,115,11,C:/Users/Sarah Linan/Desktop/subject-S2.csv,legacy,1 7 5 2 9,Kafkaesque Koffka,3.2.8,0,n,0,None,right,right,None,NA,2000,2290,34210,2000,NA,2,legacy,5,1024,2,48000,-16,experiment,2,even,3,877782,815842,875572,1908,115012,875574,874391,1915,80802,879787,881788,876578,4206,879787,NA,Sternberg task,65,143452,128,yes,1024
50.3875969,50.3875969,1127.534884,1127.534884,black,experiment,legacy,legacy,legacy,0,uniform,0,undefined,0,left,128,128,128,0,0,128,128,0,0,128,128,128,0,128,0,10/23/19 18:14,The main experiment item,yes,Sternbergtask SL.osexp,C:/Users/Sarah Linan/Desktop,no,mono,no,18,no,white,no,yes,768,legacy,116,11,C:/Users/Sarah Linan/Desktop/subject-S2.csv,legacy,3 4 9 6 2 9,Kafkaesque Koffka,3.2.8,5,y,0,None,right,right,None,NA,2000,2290,34210,2000,NA,2,legacy,6,1024,2,48000,-16,experiment,2,even,2,885260,815842,883050,1908,115012,883052,881880,1915,80802,887264,889265,884056,4206,887264,NA,Sternberg task,65,145452,129,yes,1024
50,50,1134.246154,1134.246154,black,experiment,legacy,legacy,legacy,0,uniform,0,undefined,0,right,129,129,129,0,0,129,129,0,0,129,129,129,0,129,0,10/23/19 18:14,The main experiment item,yes,Sternbergtask SL.osexp,C:/Users/Sarah Linan/Desktop,no,mono,no,18,no,white,no,yes,768,legacy,117,11,C:/Users/Sarah Linan/Desktop/subject-S2.csv,legacy,4 2 7 6 1 3,Kafkaesque Koffka,3.2.8,0,n,0,None,right,right,None,NA,2000,2290,34210,2000,NA,2,legacy,6,1024,2,48000,-16,experiment,2,even,8,892728,815842,890518,1908,115012,890520,889358,1915,80802,894732,896733,891523,4206,894732,NA,Sternberg task,65,147452,130,yes,1024
49.61832061,49.61832061,1140.854962,1140.854962,black,experiment,legacy,legacy,legacy,0,uniform,0,undefined,0,left,130,130,130,0,0,130,130,0,0,130,130,130,0,130,0,10/23/19 18:14,The main experiment item,yes,Sternbergtask SL.osexp,C:/Users/Sarah Linan/Desktop,no,mono,no,18,no,white,no,yes,768,legacy,118,11,C:/Users/Sarah Linan/Desktop/subject-S2.csv,legacy,3 9 6 2,Kafkaesque Koffka,3.2.8,4,y,0,None,right,right,None,NA,2000,2290,34210,2000,NA,2,legacy,4,1024,2,48000,-16,experiment,2,even,2,900152,815842,897944,1908,115012,897946,896781,1915,80802,902156,904158,898950,4206,902156,NA,Sternberg task,65,149452,131,yes,1024
49.24242424,49.24242424,1147.363636,1147.363636,black,experiment,legacy,legacy,legacy,0,uniform,0,undefined,0,right,131,131,131,0,0,131,131,0,0,131,131,131,0,131,0,10/23/19 18:14,The main experiment item,yes,Sternbergtask SL.osexp,C:/Users/Sarah Linan/Desktop,no,mono,no,18,no,white,no,yes,768,legacy,119,11,C:/Users/Sarah Linan/Desktop/subject-S2.csv,legacy,2 3 8 5 6 7,Kafkaesque Koffka,3.2.8,0,n,0,None,right,right,None,NA,2000,2290,34210,2000,NA,2,legacy,6,1024,2,48000,-16,experiment,2,even,1,907621,815842,905412,1908,115012,905415,904248,1915,80802,909626,911627,906418,4206,909626,NA,Sternberg task,65,151452,132,yes,1024
48.87218045,48.87218045,1153.774436,1153.774436,black,experiment,legacy,legacy,legacy,0,uniform,0,undefined,0,left,132,132,132,0,0,132,132,0,0,132,132,132,0,132,0,10/23/19 18:14,The main experiment item,yes,Sternbergtask SL.osexp,C:/Users/Sarah Linan/Desktop,no,mono,no,18,no,white,no,yes,768,legacy,120,11,C:/Users/Sarah Linan/Desktop/subject-S2.csv,legacy,9 1 7 2,Kafkaesque Koffka,3.2.8,2,y,0,None,right,right,None,NA,2000,2290,34210,2000,NA,2,legacy,4,1024,2,48000,-16,experiment,2,even,1,915039,815842,912831,1908,115012,912834,911664,1915,80802,917044,919046,913836,4206,917044,NA,Sternberg task,65,153452,133,yes,1024
48.50746269,48.50746269,1160.089552,1160.089552,black,experiment,legacy,legacy,legacy,0,uniform,0,undefined,0,left,133,133,133,0,0,133,133,0,0,133,133,133,0,133,0,10/23/19 18:14,The main experiment item,yes,Sternbergtask SL.osexp,C:/Users/Sarah Linan/Desktop,no,mono,no,18,no,white,no,yes,768,legacy,121,11,C:/Users/Sarah Linan/Desktop/subject-S2.csv,legacy,9 5 3 8 4,Kafkaesque Koffka,3.2.8,1,y,0,None,right,right,None,NA,2000,2290,34210,2000,NA,2,legacy,5,1024,2,48000,-16,experiment,2,even,9,922510,815842,920300,1908,115012,920302,919137,1915,80802,924514,926516,921306,4206,924514,NA,Sternberg task,65,155452,134,yes,1024
48.14814815,48.14814815,1166.318519,1166.318519,black,experiment,legacy,legacy,legacy,0,uniform,0,undefined,0,right,134,134,134,0,0,134,134,0,0,134,134,134,0,134,0,10/23/19 18:14,The main experiment item,yes,Sternbergtask SL.osexp,C:/Users/Sarah Linan/Desktop,no,mono,no,18,no,white,no,yes,768,legacy,122,11,C:/Users/Sarah Linan/Desktop/subject-S2.csv,legacy,2 8 6 3 1,Kafkaesque Koffka,3.2.8,0,n,0,None,right,right,None,NA,2001,2290,34210,2001,NA,2,legacy,5,1024,2,48000,-16,experiment,2,even,7,929974,815842,927764,1908,115012,927766,926605,1915,80802,931977,933979,928769,4206,931977,NA,Sternberg task,65,157453,135,yes,1024
47.79411765,47.79411765,1172.448529,1172.448529,black,experiment,legacy,legacy,legacy,0,uniform,0,undefined,0,right,135,135,135,0,0,135,135,0,0,135,135,135,0,135,0,10/23/19 18:14,The main experiment item,yes,Sternbergtask SL.osexp,C:/Users/Sarah Linan/Desktop,no,mono,no,18,no,white,no,yes,768,legacy,123,11,C:/Users/Sarah Linan/Desktop/subject-S2.csv,legacy,5,Kafkaesque Koffka,3.2.8,0,n,0,None,right,right,None,NA,2000,2290,34210,2000,NA,2,legacy,1,1024,2,48000,-16,experiment,2,even,8,937469,815842,935258,1908,115012,935260,934072,1915,80802,939473,941474,936264,4206,939472,NA,Sternberg task,65,159453,136,yes,1024
47.44525547,47.44525547,1178.489051,1178.489051,black,experiment,legacy,legacy,legacy,0,uniform,0,undefined,0,left,136,136,136,0,0,136,136,0,0,136,136,136,0,136,0,10/23/19 18:14,The main experiment item,yes,Sternbergtask SL.osexp,C:/Users/Sarah Linan/Desktop,no,mono,no,18,no,white,no,yes,768,legacy,124,11,C:/Users/Sarah Linan/Desktop/subject-S2.csv,legacy,6 7 8 5,Kafkaesque Koffka,3.2.8,3,y,0,None,right,right,None,NA,2000,2290,34210,2000,NA,2,legacy,4,1024,2,48000,-16,experiment,2,even,8,944934,815842,942724,1908,115012,942726,941561,1915,80802,946940,948941,943730,4206,946940,NA,Sternberg task,65,161453,137,yes,1024
47.10144928,47.10144928,1184.442029,1184.442029,black,experiment,legacy,legacy,legacy,0,uniform,0,undefined,0,left,137,137,137,0,0,137,137,0,0,137,137,137,0,137,0,10/23/19 18:14,The main experiment item,yes,Sternbergtask SL.osexp,C:/Users/Sarah Linan/Desktop,no,mono,no,18,no,white,no,yes,768,legacy,125,11,C:/Users/Sarah Linan/Desktop/subject-S2.csv,legacy,5 2 6,Kafkaesque Koffka,3.2.8,2,y,0,None,right,right,None,NA,2000,2290,34210,2000,NA,2,legacy,3,1024,2,48000,-16,experiment,2,even,2,952438,815842,950225,1908,115012,950228,949028,1915,80802,954442,956443,951232,4206,954442,NA,Sternberg task,65,163453,138,yes,1024