acc,accuracy,average_response_time,avg_rt,background,block,canvas_backend,clock_backend,color_backend,compensation,coordinates,correct,correct_instruction1,correct_keyboard_response,correct_response,count_ISI,count_correctFeedback,count_expSequence,count_experiment,count_experimentLoop,count_fixation,count_incorrectFeedback,count_instruction1,count_instructions2,count_keyboard_response,count_memorySet,count_new_logger,count_new_sketchpad,count_practiceLoop,count_probe,count_thankYou,datetime,description,disable_garbage_collection,experiment_file,experiment_path,font_bold,font_family,font_italic,font_size,font_underline,foreground,form_clicks,fullscreen,height,keyboard_backend,live_row,live_row_practiceLoop,logfile,mouse_backend,numberSet,opensesame_codename,opensesame_version,posInSet,present,repeat_cycle,response,response_instruction1,response_instructions2,response_keyboard_response,response_new_sketchpad,response_thankYou,response_time,response_time_instruction1,response_time_instructions2,response_time_keyboard_response,response_time_new_sketchpad,response_time_thankYou,round_decimals,sampler_backend,setSize,sound_buf_size,sound_channels,sound_freq,sound_sample_size,start,subject_nr,subject_parity,target,time_ISI,time_correctFeedback,time_expSequence,time_experiment,time_experimentLoop,time_fixation,time_incorrectFeedback,time_instruction1,time_instructions2,time_keyboard_response,time_memorySet,time_new_logger,time_new_sketchpad,time_practiceLoop,time_probe,time_thankYou,title,total_correct,total_response_time,total_responses,uniform_coordinates,width
0,0,610,610,black,practice,legacy,legacy,legacy,0,uniform,0,undefined,0,right,0,0,0,0,0,0,0,0,0,0,0,0,NA,0,0,0,10/18/19 9:55,The main experiment item,yes,SternbergTask.osexp,C:\Users\Jeanette\Desktop\Jeanette Master's\AQM&ED,no,mono,no,18,no,white,no,yes,768,legacy,0,0,C:/Users/Jeanette/Desktop/Jeanette Master's/AQM&ED/jh-subject-1.csv,legacy,5,Kafkaesque Koffka,3.2.8,0,n,0,left,right,NA,left,NA,NA,610,10411,NA,610,NA,NA,2,legacy,1,1024,2,48000,-16,experiment,1,odd,3,15664,NA,13451,2486,NA,13453,NA,2508,NA,17669,14458,18280,NA,12920,17669,NA,Sternberg Task,0,610,1,yes,1024
50,50,800.5,800.5,black,practice,legacy,legacy,legacy,0,uniform,1,undefined,1,left,1,1,1,0,0,1,1,0,0,1,1,1,NA,0,1,0,10/18/19 9:55,The main experiment item,yes,SternbergTask.osexp,C:\Users\Jeanette\Desktop\Jeanette Master's\AQM&ED,no,mono,no,18,no,white,no,yes,768,legacy,1,1,C:/Users/Jeanette/Desktop/Jeanette Master's/AQM&ED/jh-subject-1.csv,legacy,1 5 2 9,Kafkaesque Koffka,3.2.8,2,y,0,left,right,NA,left,NA,NA,991,10411,NA,991,NA,NA,2,legacy,4,1024,2,48000,-16,experiment,1,odd,5,21706,NA,19492,2486,NA,19494,18382,2508,NA,23712,20499,24704,NA,12920,23711,NA,Sternberg Task,1,1601,2,yes,1024
66.66666667,66.66666667,765,765,black,practice,legacy,legacy,legacy,0,uniform,1,undefined,1,left,2,2,2,0,0,2,2,0,0,2,2,2,NA,0,2,0,10/18/19 9:55,The main experiment item,yes,SternbergTask.osexp,C:\Users\Jeanette\Desktop\Jeanette Master's\AQM&ED,no,mono,no,18,no,white,no,yes,768,legacy,2,2,C:/Users/Jeanette/Desktop/Jeanette Master's/AQM&ED/jh-subject-1.csv,legacy,1 7 9 8 5,Kafkaesque Koffka,3.2.8,4,y,0,left,right,NA,left,NA,NA,694,10411,NA,694,NA,NA,2,legacy,5,1024,2,48000,-16,experiment,1,odd,8,28076,24733,25861,2486,NA,25863,18382,2508,NA,30081,26869,30775,NA,12920,30081,NA,Sternberg Task,2,2295,3,yes,1024
75,75,760.75,760.75,black,practice,legacy,legacy,legacy,0,uniform,1,undefined,1,right,3,3,3,0,0,3,3,0,0,3,3,3,NA,0,3,0,10/18/19 9:55,The main experiment item,yes,SternbergTask.osexp,C:\Users\Jeanette\Desktop\Jeanette Master's\AQM&ED,no,mono,no,18,no,white,no,yes,768,legacy,3,3,C:/Users/Jeanette/Desktop/Jeanette Master's/AQM&ED/jh-subject-1.csv,legacy,4 1 5,Kafkaesque Koffka,3.2.8,0,n,0,right,right,NA,right,NA,NA,748,10411,NA,748,NA,NA,2,legacy,3,1024,2,48000,-16,experiment,1,odd,2,34142,30817,31929,2486,NA,31931,18382,2508,NA,36148,32937,36896,NA,12920,36147,NA,Sternberg Task,3,3043,4,yes,1024
80,80,716.4,716.4,black,practice,legacy,legacy,legacy,0,uniform,1,undefined,1,left,4,4,4,0,0,4,4,0,0,4,4,4,NA,0,4,0,10/18/19 9:55,The main experiment item,yes,SternbergTask.osexp,C:\Users\Jeanette\Desktop\Jeanette Master's\AQM&ED,no,mono,no,18,no,white,no,yes,768,legacy,4,4,C:/Users/Jeanette/Desktop/Jeanette Master's/AQM&ED/jh-subject-1.csv,legacy,4 8,Kafkaesque Koffka,3.2.8,1,y,0,left,right,NA,left,NA,NA,539,10411,NA,539,NA,NA,2,legacy,2,1024,2,48000,-16,experiment,1,odd,4,40256,36919,38042,2486,NA,38044,18382,2508,NA,42261,39049,42800,NA,12920,42261,NA,Sternberg Task,4,3582,5,yes,1024
83.33333333,83.33333333,708,708,black,practice,legacy,legacy,legacy,0,uniform,1,undefined,1,left,5,5,5,0,0,5,5,0,0,5,5,5,NA,0,5,0,10/18/19 9:55,The main experiment item,yes,SternbergTask.osexp,C:\Users\Jeanette\Desktop\Jeanette Master's\AQM&ED,no,mono,no,18,no,white,no,yes,768,legacy,5,5,C:/Users/Jeanette/Desktop/Jeanette Master's/AQM&ED/jh-subject-1.csv,legacy,6,Kafkaesque Koffka,3.2.8,1,y,0,left,right,NA,left,NA,NA,666,10411,NA,666,NA,NA,2,legacy,1,1024,2,48000,-16,experiment,1,odd,6,46144,42819,43931,2486,NA,43933,18382,2508,NA,48150,44938,48816,NA,12920,48149,NA,Sternberg Task,5,4248,6,yes,1024
85.71428571,85.71428571,700,700,black,practice,legacy,legacy,legacy,0,uniform,1,undefined,1,right,6,6,6,0,0,6,6,0,0,6,6,6,NA,0,6,0,10/18/19 9:55,The main experiment item,yes,SternbergTask.osexp,C:\Users\Jeanette\Desktop\Jeanette Master's\AQM&ED,no,mono,no,18,no,white,no,yes,768,legacy,6,6,C:/Users/Jeanette/Desktop/Jeanette Master's/AQM&ED/jh-subject-1.csv,legacy,3 1 9 4,Kafkaesque Koffka,3.2.8,0,n,0,right,right,NA,right,NA,NA,652,10411,NA,652,NA,NA,2,legacy,4,1024,2,48000,-16,experiment,1,odd,6,52165,48844,49953,2486,NA,49955,18382,2508,NA,54171,50960,54824,NA,12920,54170,NA,Sternberg Task,6,4900,7,yes,1024
87.5,87.5,706,706,black,practice,legacy,legacy,legacy,0,uniform,1,undefined,1,right,7,7,7,0,0,7,7,0,0,7,7,7,NA,0,7,0,10/18/19 9:55,The main experiment item,yes,SternbergTask.osexp,C:\Users\Jeanette\Desktop\Jeanette Master's\AQM&ED,no,mono,no,18,no,white,no,yes,768,legacy,7,7,C:/Users/Jeanette/Desktop/Jeanette Master's/AQM&ED/jh-subject-1.csv,legacy,2 1,Kafkaesque Koffka,3.2.8,0,n,0,right,right,NA,right,NA,NA,748,10411,NA,748,NA,NA,2,legacy,2,1024,2,48000,-16,experiment,1,odd,5,58167,54846,55953,2486,NA,55955,18382,2508,NA,60172,56961,60920,NA,12920,60172,NA,Sternberg Task,7,5648,8,yes,1024
88.88888889,88.88888889,703.3333333,703.3333333,black,practice,legacy,legacy,legacy,0,uniform,1,undefined,1,right,8,8,8,0,0,8,8,0,0,8,8,8,NA,0,8,0,10/18/19 9:55,The main experiment item,yes,SternbergTask.osexp,C:\Users\Jeanette\Desktop\Jeanette Master's\AQM&ED,no,mono,no,18,no,white,no,yes,768,legacy,8,8,C:/Users/Jeanette/Desktop/Jeanette Master's/AQM&ED/jh-subject-1.csv,legacy,5 7 8 4 1 2,Kafkaesque Koffka,3.2.8,0,n,0,right,right,NA,right,NA,NA,682,10411,NA,682,NA,NA,2,legacy,6,1024,2,48000,-16,experiment,1,odd,6,64264,60946,62049,2486,NA,62052,18382,2508,NA,66269,63058,66952,NA,12920,66269,NA,Sternberg Task,8,6330,9,yes,1024
90,90,702.5,702.5,black,practice,legacy,legacy,legacy,0,uniform,1,undefined,1,left,9,9,9,0,0,9,9,0,0,9,9,9,NA,0,9,0,10/18/19 9:55,The main experiment item,yes,SternbergTask.osexp,C:\Users\Jeanette\Desktop\Jeanette Master's\AQM&ED,no,mono,no,18,no,white,no,yes,768,legacy,9,9,C:/Users/Jeanette/Desktop/Jeanette Master's/AQM&ED/jh-subject-1.csv,legacy,4 3 1 7 9 8,Kafkaesque Koffka,3.2.8,1,y,0,left,right,NA,left,NA,NA,695,10411,NA,695,NA,NA,2,legacy,6,1024,2,48000,-16,experiment,1,odd,4,70299,66979,68087,2486,NA,68089,18382,2508,NA,72305,69094,73000,NA,12920,72304,NA,Sternberg Task,9,7025,10,yes,1024
81.81818182,81.81818182,683.3636364,683.3636364,black,practice,legacy,legacy,legacy,0,uniform,0,undefined,0,left,10,10,10,0,0,10,10,0,0,10,10,10,NA,0,10,0,10/18/19 9:55,The main experiment item,yes,SternbergTask.osexp,C:\Users\Jeanette\Desktop\Jeanette Master's\AQM&ED,no,mono,no,18,no,white,no,yes,768,legacy,10,10,C:/Users/Jeanette/Desktop/Jeanette Master's/AQM&ED/jh-subject-1.csv,legacy,2 9 4,Kafkaesque Koffka,3.2.8,3,y,0,right,right,NA,right,NA,NA,492,10411,NA,492,NA,NA,2,legacy,3,1024,2,48000,-16,experiment,1,odd,4,76348,73023,74136,2486,NA,74138,18382,2508,NA,78355,75143,78848,NA,12920,78355,NA,Sternberg Task,9,7517,11,yes,1024
83.33333333,83.33333333,678.5833333,678.5833333,black,practice,legacy,legacy,legacy,0,uniform,1,undefined,1,right,11,11,11,0,0,11,11,0,0,11,11,11,NA,0,11,0,10/18/19 9:55,The main experiment item,yes,SternbergTask.osexp,C:\Users\Jeanette\Desktop\Jeanette Master's\AQM&ED,no,mono,no,18,no,white,no,yes,768,legacy,11,11,C:/Users/Jeanette/Desktop/Jeanette Master's/AQM&ED/jh-subject-1.csv,legacy,9 6 7 4 5,Kafkaesque Koffka,3.2.8,0,n,0,right,right,NA,right,NA,NA,626,10411,NA,626,NA,NA,2,legacy,5,1024,2,48000,-16,experiment,1,odd,3,82176,73023,79966,2486,NA,79968,78873,2508,NA,84182,80971,84808,NA,12920,84181,NA,Sternberg Task,10,8143,12,yes,1024
76.92307692,76.92307692,681.3846154,681.3846154,black,experiment,legacy,legacy,legacy,0,uniform,0,undefined,0,left,12,12,12,0,0,12,12,0,0,12,12,12,NA,0,12,0,10/18/19 9:55,The main experiment item,yes,SternbergTask.osexp,C:\Users\Jeanette\Desktop\Jeanette Master's\AQM&ED,no,mono,no,18,no,white,no,yes,768,legacy,0,11,C:/Users/Jeanette/Desktop/Jeanette Master's/AQM&ED/jh-subject-1.csv,legacy,9 3 1 2 5,Kafkaesque Koffka,3.2.8,4,y,0,right,right,right,right,NA,NA,715,10411,12131,715,NA,NA,2,legacy,5,1024,2,48000,-16,experiment,1,odd,2,100318,84833,98103,2486,98000,98106,78873,2508,85868,102324,99112,103039,NA,12920,102323,NA,Sternberg Task,10,8858,13,yes,1024
78.57142857,78.57142857,697.0714286,697.0714286,black,experiment,legacy,legacy,legacy,0,uniform,1,undefined,1,left,13,13,13,0,0,13,13,0,0,13,13,13,NA,0,13,0,10/18/19 9:55,The main experiment item,yes,SternbergTask.osexp,C:\Users\Jeanette\Desktop\Jeanette Master's\AQM&ED,no,mono,no,18,no,white,no,yes,768,legacy,1,11,C:/Users/Jeanette/Desktop/Jeanette Master's/AQM&ED/jh-subject-1.csv,legacy,5 2 6,Kafkaesque Koffka,3.2.8,2,y,0,left,right,right,left,NA,NA,901,10411,12131,901,NA,NA,2,legacy,3,1024,2,48000,-16,experiment,1,odd,2,106382,84833,104170,2486,98000,104172,103059,2508,85868,108387,105177,109288,NA,12920,108387,NA,Sternberg Task,11,9759,14,yes,1024
73.33333333,73.33333333,703.0666667,703.0666667,black,experiment,legacy,legacy,legacy,0,uniform,0,undefined,0,left,14,14,14,0,0,14,14,0,0,14,14,14,NA,0,14,0,10/18/19 9:55,The main experiment item,yes,SternbergTask.osexp,C:\Users\Jeanette\Desktop\Jeanette Master's\AQM&ED,no,mono,no,18,no,white,no,yes,768,legacy,2,11,C:/Users/Jeanette/Desktop/Jeanette Master's/AQM&ED/jh-subject-1.csv,legacy,2 5 4 8 7,Kafkaesque Koffka,3.2.8,3,y,0,right,right,right,right,NA,NA,787,10411,12131,787,NA,NA,2,legacy,5,1024,2,48000,-16,experiment,1,odd,4,112631,109310,110416,2486,98000,110419,103059,2508,85868,114636,111426,115424,NA,12920,114636,NA,Sternberg Task,11,10546,15,yes,1024
75,75,708.875,708.875,black,experiment,legacy,legacy,legacy,0,uniform,1,undefined,1,right,15,15,15,0,0,15,15,0,0,15,15,15,NA,0,15,0,10/18/19 9:55,The main experiment item,yes,SternbergTask.osexp,C:\Users\Jeanette\Desktop\Jeanette Master's\AQM&ED,no,mono,no,18,no,white,no,yes,768,legacy,3,11,C:/Users/Jeanette/Desktop/Jeanette Master's/AQM&ED/jh-subject-1.csv,legacy,2 8 7 9 5 3,Kafkaesque Koffka,3.2.8,0,n,0,right,right,right,right,NA,NA,796,10411,12131,796,NA,NA,2,legacy,6,1024,2,48000,-16,experiment,1,odd,6,118766,109310,116553,2486,98000,116555,115444,2508,85868,120771,117560,121568,NA,12920,120771,NA,Sternberg Task,12,11342,16,yes,1024
76.47058824,76.47058824,717.8823529,717.8823529,black,experiment,legacy,legacy,legacy,0,uniform,1,undefined,1,right,16,16,16,0,0,16,16,0,0,16,16,16,NA,0,16,0,10/18/19 9:55,The main experiment item,yes,SternbergTask.osexp,C:\Users\Jeanette\Desktop\Jeanette Master's\AQM&ED,no,mono,no,18,no,white,no,yes,768,legacy,4,11,C:/Users/Jeanette/Desktop/Jeanette Master's/AQM&ED/jh-subject-1.csv,legacy,5 3 2 6 9 8,Kafkaesque Koffka,3.2.8,0,n,0,right,right,right,right,NA,NA,862,10411,12131,862,NA,NA,2,legacy,6,1024,2,48000,-16,experiment,1,odd,4,124899,121586,122686,2486,98000,122688,115444,2508,85868,126905,123694,127768,NA,12920,126905,NA,Sternberg Task,13,12204,17,yes,1024
77.77777778,77.77777778,731.9444444,731.9444444,black,experiment,legacy,legacy,legacy,0,uniform,1,undefined,1,right,17,17,17,0,0,17,17,0,0,17,17,17,NA,0,17,0,10/18/19 9:55,The main experiment item,yes,SternbergTask.osexp,C:\Users\Jeanette\Desktop\Jeanette Master's\AQM&ED,no,mono,no,18,no,white,no,yes,768,legacy,5,11,C:/Users/Jeanette/Desktop/Jeanette Master's/AQM&ED/jh-subject-1.csv,legacy,8 5 7 3 6,Kafkaesque Koffka,3.2.8,0,n,0,right,right,right,right,NA,NA,971,10411,12131,971,NA,NA,2,legacy,5,1024,2,48000,-16,experiment,1,odd,9,131126,127786,128917,2486,98000,128919,115444,2508,85868,133132,129921,134104,NA,12920,133131,NA,Sternberg Task,14,13175,18,yes,1024
78.94736842,78.94736842,735.3157895,735.3157895,black,experiment,legacy,legacy,legacy,0,uniform,1,undefined,1,right,18,18,18,0,0,18,18,0,0,18,18,18,NA,0,18,0,10/18/19 9:55,The main experiment item,yes,SternbergTask.osexp,C:\Users\Jeanette\Desktop\Jeanette Master's\AQM&ED,no,mono,no,18,no,white,no,yes,768,legacy,6,11,C:/Users/Jeanette/Desktop/Jeanette Master's/AQM&ED/jh-subject-1.csv,legacy,8 4 3 5,Kafkaesque Koffka,3.2.8,0,n,0,right,right,right,right,NA,NA,796,10411,12131,796,NA,NA,2,legacy,4,1024,2,48000,-16,experiment,1,odd,6,137437,134121,135224,2486,98000,135227,115444,2508,85868,139444,136232,140240,NA,12920,139444,NA,Sternberg Task,15,13971,19,yes,1024
80,80,747.9,747.9,black,experiment,legacy,legacy,legacy,0,uniform,1,undefined,1,left,19,19,19,0,0,19,19,0,0,19,19,19,NA,0,19,0,10/18/19 9:55,The main experiment item,yes,SternbergTask.osexp,C:\Users\Jeanette\Desktop\Jeanette Master's\AQM&ED,no,mono,no,18,no,white,no,yes,768,legacy,7,11,C:/Users/Jeanette/Desktop/Jeanette Master's/AQM&ED/jh-subject-1.csv,legacy,8 5 3 7 4 6,Kafkaesque Koffka,3.2.8,6,y,0,left,right,right,left,NA,NA,987,10411,12131,987,NA,NA,2,legacy,6,1024,2,48000,-16,experiment,1,odd,6,143598,140264,141386,2486,98000,141388,115444,2508,85868,145604,142393,146592,NA,12920,145604,NA,Sternberg Task,16,14958,20,yes,1024
80.95238095,80.95238095,749.4761905,749.4761905,black,experiment,legacy,legacy,legacy,0,uniform,1,undefined,1,right,20,20,20,0,0,20,20,0,0,20,20,20,NA,0,20,0,10/18/19 9:55,The main experiment item,yes,SternbergTask.osexp,C:\Users\Jeanette\Desktop\Jeanette Master's\AQM&ED,no,mono,no,18,no,white,no,yes,768,legacy,8,11,C:/Users/Jeanette/Desktop/Jeanette Master's/AQM&ED/jh-subject-1.csv,legacy,7 9 1 6,Kafkaesque Koffka,3.2.8,0,n,0,right,right,right,right,NA,NA,781,10411,12131,781,NA,NA,2,legacy,4,1024,2,48000,-16,experiment,1,odd,4,149966,146624,147752,2486,98000,147754,115444,2508,85868,151971,148759,152752,NA,12920,151971,NA,Sternberg Task,17,15739,21,yes,1024
81.81818182,81.81818182,760.4090909,760.4090909,black,experiment,legacy,legacy,legacy,0,uniform,1,undefined,1,right,21,21,21,0,0,21,21,0,0,21,21,21,NA,0,21,0,10/18/19 9:55,The main experiment item,yes,SternbergTask.osexp,C:\Users\Jeanette\Desktop\Jeanette Master's\AQM&ED,no,mono,no,18,no,white,no,yes,768,legacy,9,11,C:/Users/Jeanette/Desktop/Jeanette Master's/AQM&ED/jh-subject-1.csv,legacy,7 6 4 8 1 2,Kafkaesque Koffka,3.2.8,0,n,0,right,right,right,right,NA,NA,990,10411,12131,990,NA,NA,2,legacy,6,1024,2,48000,-16,experiment,1,odd,9,156115,152773,153902,2486,98000,153904,115444,2508,85868,158121,154910,159112,NA,12920,158120,NA,Sternberg Task,18,16729,22,yes,1024
82.60869565,82.60869565,775.0869565,775.0869565,black,experiment,legacy,legacy,legacy,0,uniform,1,undefined,1,right,22,22,22,0,0,22,22,0,0,22,22,22,NA,0,22,0,10/18/19 9:55,The main experiment item,yes,SternbergTask.osexp,C:\Users\Jeanette\Desktop\Jeanette Master's\AQM&ED,no,mono,no,18,no,white,no,yes,768,legacy,10,11,C:/Users/Jeanette/Desktop/Jeanette Master's/AQM&ED/jh-subject-1.csv,legacy,6 9 5,Kafkaesque Koffka,3.2.8,0,n,0,right,right,right,right,NA,NA,1098,10411,12131,1098,NA,NA,2,legacy,3,1024,2,48000,-16,experiment,1,odd,8,162470,159139,160256,2486,98000,160258,115444,2508,85868,164477,161263,165576,NA,12920,164477,NA,Sternberg Task,19,17827,23,yes,1024
83.33333333,83.33333333,779.25,779.25,black,experiment,legacy,legacy,legacy,0,uniform,1,undefined,1,right,23,23,23,0,0,23,23,0,0,23,23,23,NA,0,23,0,10/18/19 9:55,The main experiment item,yes,SternbergTask.osexp,C:\Users\Jeanette\Desktop\Jeanette Master's\AQM&ED,no,mono,no,18,no,white,no,yes,768,legacy,11,11,C:/Users/Jeanette/Desktop/Jeanette Master's/AQM&ED/jh-subject-1.csv,legacy,1 7 5 2,Kafkaesque Koffka,3.2.8,0,n,0,right,right,right,right,NA,NA,875,10411,12131,875,NA,NA,2,legacy,4,1024,2,48000,-16,experiment,1,odd,3,168903,165599,166690,2486,98000,166692,115444,2508,85868,170909,167697,171784,NA,12920,170909,NA,Sternberg Task,20,18702,24,yes,1024
84,84,773.84,773.84,black,experiment,legacy,legacy,legacy,0,uniform,1,undefined,1,left,24,24,24,0,0,24,24,0,0,24,24,24,NA,0,24,0,10/18/19 9:55,The main experiment item,yes,SternbergTask.osexp,C:\Users\Jeanette\Desktop\Jeanette Master's\AQM&ED,no,mono,no,18,no,white,no,yes,768,legacy,12,11,C:/Users/Jeanette/Desktop/Jeanette Master's/AQM&ED/jh-subject-1.csv,legacy,8 9 5 6 7,Kafkaesque Koffka,3.2.8,1,y,0,left,right,right,left,NA,NA,644,10411,12131,644,NA,NA,2,legacy,5,1024,2,48000,-16,experiment,1,odd,8,175158,171828,172945,2486,98000,172947,115444,2508,85868,177164,173953,177808,NA,12920,177164,NA,Sternberg Task,21,19346,25,yes,1024
84.61538462,84.61538462,770.6153846,770.6153846,black,experiment,legacy,legacy,legacy,0,uniform,1,undefined,1,left,25,25,25,0,0,25,25,0,0,25,25,25,NA,0,25,0,10/18/19 9:55,The main experiment item,yes,SternbergTask.osexp,C:\Users\Jeanette\Desktop\Jeanette Master's\AQM&ED,no,mono,no,18,no,white,no,yes,768,legacy,13,11,C:/Users/Jeanette/Desktop/Jeanette Master's/AQM&ED/jh-subject-1.csv,legacy,3 4,Kafkaesque Koffka,3.2.8,1,y,0,left,right,right,left,NA,NA,690,10411,12131,690,NA,NA,2,legacy,2,1024,2,48000,-16,experiment,1,odd,3,181143,177826,178930,2486,98000,178932,115444,2508,85868,183150,179938,183840,NA,12920,183150,NA,Sternberg Task,22,20036,26,yes,1024
85.18518519,85.18518519,767.8518519,767.8518519,black,experiment,legacy,legacy,legacy,0,uniform,1,undefined,1,left,26,26,26,0,0,26,26,0,0,26,26,26,NA,0,26,0,10/18/19 9:55,The main experiment item,yes,SternbergTask.osexp,C:\Users\Jeanette\Desktop\Jeanette Master's\AQM&ED,no,mono,no,18,no,white,no,yes,768,legacy,14,11,C:/Users/Jeanette/Desktop/Jeanette Master's/AQM&ED/jh-subject-1.csv,legacy,4 1 5,Kafkaesque Koffka,3.2.8,2,y,0,left,right,right,left,NA,NA,696,10411,12131,696,NA,NA,2,legacy,3,1024,2,48000,-16,experiment,1,odd,1,187177,183868,184964,2486,98000,184967,115444,2508,85868,189183,185972,189880,NA,12920,189182,NA,Sternberg Task,23,20732,27,yes,1024
85.71428571,85.71428571,767.7142857,767.7142857,black,experiment,legacy,legacy,legacy,0,uniform,1,undefined,1,right,27,27,27,0,0,27,27,0,0,27,27,27,NA,0,27,0,10/18/19 9:55,The main experiment item,yes,SternbergTask.osexp,C:\Users\Jeanette\Desktop\Jeanette Master's\AQM&ED,no,mono,no,18,no,white,no,yes,768,legacy,15,11,C:/Users/Jeanette/Desktop/Jeanette Master's/AQM&ED/jh-subject-1.csv,legacy,7 4 2 8 1 9,Kafkaesque Koffka,3.2.8,0,n,0,right,right,right,right,NA,NA,764,10411,12131,764,NA,NA,2,legacy,6,1024,2,48000,-16,experiment,1,odd,5,193254,189921,191041,2486,98000,191043,115444,2508,85868,195259,192049,196024,NA,12920,195259,NA,Sternberg Task,24,21496,28,yes,1024
86.20689655,86.20689655,776.4827586,776.4827586,black,experiment,legacy,legacy,legacy,0,uniform,1,undefined,1,left,28,28,28,0,0,28,28,0,0,28,28,28,NA,0,28,0,10/18/19 9:55,The main experiment item,yes,SternbergTask.osexp,C:\Users\Jeanette\Desktop\Jeanette Master's\AQM&ED,no,mono,no,18,no,white,no,yes,768,legacy,16,11,C:/Users/Jeanette/Desktop/Jeanette Master's/AQM&ED/jh-subject-1.csv,legacy,6 1 2,Kafkaesque Koffka,3.2.8,3,y,0,left,right,right,left,NA,NA,1022,10411,12131,1022,NA,NA,2,legacy,3,1024,2,48000,-16,experiment,1,odd,2,199380,196044,197167,2486,98000,197170,115444,2508,85868,201386,198175,202408,NA,12920,201386,NA,Sternberg Task,25,22518,29,yes,1024
86.66666667,86.66666667,791.7666667,791.7666667,black,experiment,legacy,legacy,legacy,0,uniform,1,undefined,1,left,29,29,29,0,0,29,29,0,0,29,29,29,NA,0,29,0,10/18/19 9:55,The main experiment item,yes,SternbergTask.osexp,C:\Users\Jeanette\Desktop\Jeanette Master's\AQM&ED,no,mono,no,18,no,white,no,yes,768,legacy,17,11,C:/Users/Jeanette/Desktop/Jeanette Master's/AQM&ED/jh-subject-1.csv,legacy,6 7 8 5,Kafkaesque Koffka,3.2.8,3,y,0,left,right,right,left,NA,NA,1235,10411,12131,1235,NA,NA,2,legacy,4,1024,2,48000,-16,experiment,1,odd,8,205767,202429,203554,2486,98000,203556,115444,2508,85868,207772,204561,209008,NA,12920,207772,NA,Sternberg Task,26,23753,30,yes,1024
87.09677419,87.09677419,786.1935484,786.1935484,black,experiment,legacy,legacy,legacy,0,uniform,1,undefined,1,left,30,30,30,0,0,30,30,0,0,30,30,30,NA,0,30,0,10/18/19 9:55,The main experiment item,yes,SternbergTask.osexp,C:\Users\Jeanette\Desktop\Jeanette Master's\AQM&ED,no,mono,no,18,no,white,no,yes,768,legacy,18,11,C:/Users/Jeanette/Desktop/Jeanette Master's/AQM&ED/jh-subject-1.csv,legacy,3 5 4 7,Kafkaesque Koffka,3.2.8,1,y,0,left,right,right,left,NA,NA,619,10411,12131,619,NA,NA,2,legacy,4,1024,2,48000,-16,experiment,1,odd,3,212342,209029,210130,2486,98000,210132,115444,2508,85868,214349,211137,214968,NA,12920,214348,NA,Sternberg Task,27,24372,31,yes,1024
87.5,87.5,781.90625,781.90625,black,experiment,legacy,legacy,legacy,0,uniform,1,undefined,1,left,31,31,31,0,0,31,31,0,0,31,31,31,NA,0,31,0,10/18/19 9:55,The main experiment item,yes,SternbergTask.osexp,C:\Users\Jeanette\Desktop\Jeanette Master's\AQM&ED,no,mono,no,18,no,white,no,yes,768,legacy,19,11,C:/Users/Jeanette/Desktop/Jeanette Master's/AQM&ED/jh-subject-1.csv,legacy,2 3 7 4,Kafkaesque Koffka,3.2.8,1,y,0,left,right,right,left,NA,NA,649,10411,12131,649,NA,NA,2,legacy,4,1024,2,48000,-16,experiment,1,odd,2,218314,214988,216099,2486,98000,216102,115444,2508,85868,220319,217107,220968,NA,12920,220319,NA,Sternberg Task,28,25021,32,yes,1024
87.87878788,87.87878788,783.6363636,783.6363636,black,experiment,legacy,legacy,legacy,0,uniform,1,undefined,1,left,32,32,32,0,0,32,32,0,0,32,32,32,NA,0,32,0,10/18/19 9:55,The main experiment item,yes,SternbergTask.osexp,C:\Users\Jeanette\Desktop\Jeanette Master's\AQM&ED,no,mono,no,18,no,white,no,yes,768,legacy,20,11,C:/Users/Jeanette/Desktop/Jeanette Master's/AQM&ED/jh-subject-1.csv,legacy,7 4 2 6 3 5,Kafkaesque Koffka,3.2.8,6,y,0,left,right,right,left,NA,NA,839,10411,12131,839,NA,NA,2,legacy,6,1024,2,48000,-16,experiment,1,odd,5,224331,220996,222118,2486,98000,222121,115444,2508,85868,226337,223126,227177,NA,12920,226337,NA,Sternberg Task,29,25860,33,yes,1024
88.23529412,88.23529412,788.3235294,788.3235294,black,experiment,legacy,legacy,legacy,0,uniform,1,undefined,1,right,33,33,33,0,0,33,33,0,0,33,33,33,NA,0,33,0,10/18/19 9:55,The main experiment item,yes,SternbergTask.osexp,C:\Users\Jeanette\Desktop\Jeanette Master's\AQM&ED,no,mono,no,18,no,white,no,yes,768,legacy,21,11,C:/Users/Jeanette/Desktop/Jeanette Master's/AQM&ED/jh-subject-1.csv,legacy,2 8 9 4 1,Kafkaesque Koffka,3.2.8,0,n,0,right,right,right,right,NA,NA,943,10411,12131,943,NA,NA,2,legacy,5,1024,2,48000,-16,experiment,1,odd,5,230546,227205,228333,2486,98000,228335,115444,2508,85868,232552,229340,233496,NA,12920,232551,NA,Sternberg Task,30,26803,34,yes,1024
88.57142857,88.57142857,786.2,786.2,black,experiment,legacy,legacy,legacy,0,uniform,1,undefined,1,left,34,34,34,0,0,34,34,0,0,34,34,34,NA,0,34,0,10/18/19 9:55,The main experiment item,yes,SternbergTask.osexp,C:\Users\Jeanette\Desktop\Jeanette Master's\AQM&ED,no,mono,no,18,no,white,no,yes,768,legacy,22,11,C:/Users/Jeanette/Desktop/Jeanette Master's/AQM&ED/jh-subject-1.csv,legacy,3 5 9 6 2 4,Kafkaesque Koffka,3.2.8,1,y,0,left,right,right,left,NA,NA,714,10411,12131,714,NA,NA,2,legacy,6,1024,2,48000,-16,experiment,1,odd,3,236846,233515,234633,2486,98000,234635,115444,2508,85868,238853,235640,239568,NA,12920,238853,NA,Sternberg Task,31,27517,35,yes,1024
88.88888889,88.88888889,780.7777778,780.7777778,black,experiment,legacy,legacy,legacy,0,uniform,1,undefined,1,right,35,35,35,0,0,35,35,0,0,35,35,35,NA,0,35,0,10/18/19 9:55,The main experiment item,yes,SternbergTask.osexp,C:\Users\Jeanette\Desktop\Jeanette Master's\AQM&ED,no,mono,no,18,no,white,no,yes,768,legacy,23,11,C:/Users/Jeanette/Desktop/Jeanette Master's/AQM&ED/jh-subject-1.csv,legacy,1 4 9 3,Kafkaesque Koffka,3.2.8,0,n,0,right,right,right,right,NA,NA,591,10411,12131,591,NA,NA,2,legacy,4,1024,2,48000,-16,experiment,1,odd,5,242930,239591,240718,2486,98000,240720,115444,2508,85868,244937,241724,245528,NA,12920,244937,NA,Sternberg Task,32,28108,36,yes,1024
89.18918919,89.18918919,772.8918919,772.8918919,black,experiment,legacy,legacy,legacy,0,uniform,1,undefined,1,left,36,36,36,0,0,36,36,0,0,36,36,36,NA,0,36,0,10/18/19 9:55,The main experiment item,yes,SternbergTask.osexp,C:\Users\Jeanette\Desktop\Jeanette Master's\AQM&ED,no,mono,no,18,no,white,no,yes,768,legacy,24,11,C:/Users/Jeanette/Desktop/Jeanette Master's/AQM&ED/jh-subject-1.csv,legacy,9 4 2,Kafkaesque Koffka,3.2.8,1,y,0,left,right,right,left,NA,NA,489,10411,12131,489,NA,NA,2,legacy,3,1024,2,48000,-16,experiment,1,odd,9,248879,245550,246665,2486,98000,246667,115444,2508,85868,250886,247673,251376,NA,12920,250885,NA,Sternberg Task,33,28597,37,yes,1024
89.47368421,89.47368421,768.7631579,768.7631579,black,experiment,legacy,legacy,legacy,0,uniform,1,undefined,1,left,37,37,37,0,0,37,37,0,0,37,37,37,NA,0,37,0,10/18/19 9:55,The main experiment item,yes,SternbergTask.osexp,C:\Users\Jeanette\Desktop\Jeanette Master's\AQM&ED,no,mono,no,18,no,white,no,yes,768,legacy,25,11,C:/Users/Jeanette/Desktop/Jeanette Master's/AQM&ED/jh-subject-1.csv,legacy,9 1 7 2,Kafkaesque Koffka,3.2.8,2,y,0,left,right,right,left,NA,NA,616,10411,12131,616,NA,NA,2,legacy,4,1024,2,48000,-16,experiment,1,odd,1,254705,251392,252491,2486,98000,252493,115444,2508,85868,256711,253498,257328,NA,12920,256711,NA,Sternberg Task,34,29213,38,yes,1024
89.74358974,89.74358974,767.0512821,767.0512821,black,experiment,legacy,legacy,legacy,0,uniform,1,undefined,1,left,38,38,38,0,0,38,38,0,0,38,38,38,NA,0,38,0,10/18/19 9:55,The main experiment item,yes,SternbergTask.osexp,C:\Users\Jeanette\Desktop\Jeanette Master's\AQM&ED,no,mono,no,18,no,white,no,yes,768,legacy,26,11,C:/Users/Jeanette/Desktop/Jeanette Master's/AQM&ED/jh-subject-1.csv,legacy,2 8 5 1,Kafkaesque Koffka,3.2.8,4,y,0,left,right,right,left,NA,NA,702,10411,12131,702,NA,NA,2,legacy,4,1024,2,48000,-16,experiment,1,odd,1,260675,257358,258463,2486,98000,258465,115444,2508,85868,262681,259470,263384,NA,12920,262680,NA,Sternberg Task,35,29915,39,yes,1024
90,90,770.6,770.6,black,experiment,legacy,legacy,legacy,0,uniform,1,undefined,1,right,39,39,39,0,0,39,39,0,0,39,39,39,NA,0,39,0,10/18/19 9:55,The main experiment item,yes,SternbergTask.osexp,C:\Users\Jeanette\Desktop\Jeanette Master's\AQM&ED,no,mono,no,18,no,white,no,yes,768,legacy,27,11,C:/Users/Jeanette/Desktop/Jeanette Master's/AQM&ED/jh-subject-1.csv,legacy,2 6 4 3 9,Kafkaesque Koffka,3.2.8,0,n,0,right,right,right,right,NA,NA,909,10411,12131,909,NA,NA,2,legacy,5,1024,2,48000,-16,experiment,1,odd,1,266708,263401,264498,2486,98000,264500,115444,2508,85868,268715,265506,269624,NA,12920,268715,NA,Sternberg Task,36,30824,40,yes,1024
90.24390244,90.24390244,768.1463415,768.1463415,black,experiment,legacy,legacy,legacy,0,uniform,1,undefined,1,left,40,40,40,0,0,40,40,0,0,40,40,40,NA,0,40,0,10/18/19 9:55,The main experiment item,yes,SternbergTask.osexp,C:\Users\Jeanette\Desktop\Jeanette Master's\AQM&ED,no,mono,no,18,no,white,no,yes,768,legacy,28,11,C:/Users/Jeanette/Desktop/Jeanette Master's/AQM&ED/jh-subject-1.csv,legacy,4 6 5 8,Kafkaesque Koffka,3.2.8,1,y,0,left,right,right,left,NA,NA,670,10411,12131,670,NA,NA,2,legacy,4,1024,2,48000,-16,experiment,1,odd,4,272965,269644,270752,2486,98000,270754,115444,2508,85868,274970,271760,275640,NA,12920,274970,NA,Sternberg Task,37,31494,41,yes,1024
90.47619048,90.47619048,771.7142857,771.7142857,black,experiment,legacy,legacy,legacy,0,uniform,1,undefined,1,left,41,41,41,0,0,41,41,0,0,41,41,41,NA,0,41,0,10/18/19 9:55,The main experiment item,yes,SternbergTask.osexp,C:\Users\Jeanette\Desktop\Jeanette Master's\AQM&ED,no,mono,no,18,no,white,no,yes,768,legacy,29,11,C:/Users/Jeanette/Desktop/Jeanette Master's/AQM&ED/jh-subject-1.csv,legacy,6 7 9 3 1 2,Kafkaesque Koffka,3.2.8,1,y,0,left,right,right,left,NA,NA,918,10411,12131,918,NA,NA,2,legacy,6,1024,2,48000,-16,experiment,1,odd,6,278976,275673,276764,2486,98000,276766,115444,2508,85868,280978,277771,281896,NA,12920,280978,NA,Sternberg Task,38,32412,42,yes,1024
90.69767442,90.69767442,772.4651163,772.4651163,black,experiment,legacy,legacy,legacy,0,uniform,1,undefined,1,right,42,42,42,0,0,42,42,0,0,42,42,42,NA,0,42,0,10/18/19 9:55,The main experiment item,yes,SternbergTask.osexp,C:\Users\Jeanette\Desktop\Jeanette Master's\AQM&ED,no,mono,no,18,no,white,no,yes,768,legacy,30,11,C:/Users/Jeanette/Desktop/Jeanette Master's/AQM&ED/jh-subject-1.csv,legacy,2 8 9,Kafkaesque Koffka,3.2.8,0,n,0,right,right,right,right,NA,NA,804,10411,12131,804,NA,NA,2,legacy,3,1024,2,48000,-16,experiment,1,odd,6,285238,281915,283026,2486,98000,283028,115444,2508,85868,287244,284033,288049,NA,12920,287244,NA,Sternberg Task,39,33216,43,yes,1024
90.90909091,90.90909091,771.1363636,771.1363636,black,experiment,legacy,legacy,legacy,0,uniform,1,undefined,1,right,43,43,43,0,0,43,43,0,0,43,43,43,NA,0,43,0,10/18/19 9:55,The main experiment item,yes,SternbergTask.osexp,C:\Users\Jeanette\Desktop\Jeanette Master's\AQM&ED,no,mono,no,18,no,white,no,yes,768,legacy,31,11,C:/Users/Jeanette/Desktop/Jeanette Master's/AQM&ED/jh-subject-1.csv,legacy,8 9,Kafkaesque Koffka,3.2.8,0,n,0,right,right,right,right,NA,NA,714,10411,12131,714,NA,NA,2,legacy,2,1024,2,48000,-16,experiment,1,odd,5,291392,288074,289181,2486,98000,289184,115444,2508,85868,293397,290189,294112,NA,12920,293397,NA,Sternberg Task,40,33930,44,yes,1024
91.11111111,91.11111111,775.5777778,775.5777778,black,experiment,legacy,legacy,legacy,0,uniform,1,undefined,1,right,44,44,44,0,0,44,44,0,0,44,44,44,NA,0,44,0,10/18/19 9:55,The main experiment item,yes,SternbergTask.osexp,C:\Users\Jeanette\Desktop\Jeanette Master's\AQM&ED,no,mono,no,18,no,white,no,yes,768,legacy,32,11,C:/Users/Jeanette/Desktop/Jeanette Master's/AQM&ED/jh-subject-1.csv,legacy,3 9 8 1 6 4,Kafkaesque Koffka,3.2.8,0,n,0,right,right,right,right,NA,NA,971,10411,12131,971,NA,NA,2,legacy,6,1024,2,48000,-16,experiment,1,odd,7,297471,294133,295259,2486,98000,295261,115444,2508,85868,299477,296266,300448,NA,12920,299477,NA,Sternberg Task,41,34901,45,yes,1024
91.30434783,91.30434783,778.5434783,778.5434783,black,experiment,legacy,legacy,legacy,0,uniform,1,undefined,1,right,45,45,45,0,0,45,45,0,0,45,45,45,NA,0,45,0,10/18/19 9:55,The main experiment item,yes,SternbergTask.osexp,C:\Users\Jeanette\Desktop\Jeanette Master's\AQM&ED,no,mono,no,18,no,white,no,yes,768,legacy,33,11,C:/Users/Jeanette/Desktop/Jeanette Master's/AQM&ED/jh-subject-1.csv,legacy,9 8 2 7 4,Kafkaesque Koffka,3.2.8,0,n,0,right,right,right,right,NA,NA,912,10411,12131,912,NA,NA,2,legacy,5,1024,2,48000,-16,experiment,1,odd,5,303787,300476,301574,2486,98000,301576,115444,2508,85868,305792,302581,306705,NA,12920,305791,NA,Sternberg Task,42,35813,46,yes,1024
91.4893617,91.4893617,779.5106383,779.5106383,black,experiment,legacy,legacy,legacy,0,uniform,1,undefined,1,right,46,46,46,0,0,46,46,0,0,46,46,46,NA,0,46,0,10/18/19 9:55,The main experiment item,yes,SternbergTask.osexp,C:\Users\Jeanette\Desktop\Jeanette Master's\AQM&ED,no,mono,no,18,no,white,no,yes,768,legacy,34,11,C:/Users/Jeanette/Desktop/Jeanette Master's/AQM&ED/jh-subject-1.csv,legacy,8 4 3 9,Kafkaesque Koffka,3.2.8,0,n,0,right,right,right,right,NA,NA,824,10411,12131,824,NA,NA,2,legacy,4,1024,2,48000,-16,experiment,1,odd,5,310048,306726,307835,2486,98000,307838,115444,2508,85868,312055,308843,312880,NA,12920,312054,NA,Sternberg Task,43,36637,47,yes,1024
91.66666667,91.66666667,778.0208333,778.0208333,black,experiment,legacy,legacy,legacy,0,uniform,1,undefined,1,right,47,47,47,0,0,47,47,0,0,47,47,47,NA,0,47,0,10/18/19 9:55,The main experiment item,yes,SternbergTask.osexp,C:\Users\Jeanette\Desktop\Jeanette Master's\AQM&ED,no,mono,no,18,no,white,no,yes,768,legacy,35,11,C:/Users/Jeanette/Desktop/Jeanette Master's/AQM&ED/jh-subject-1.csv,legacy,1 3 2 6 9,Kafkaesque Koffka,3.2.8,0,n,0,right,right,right,right,NA,NA,708,10411,12131,708,NA,NA,2,legacy,5,1024,2,48000,-16,experiment,1,odd,5,316206,312902,313993,2486,98000,313995,115444,2508,85868,318212,315000,318921,NA,12920,318211,NA,Sternberg Task,44,37345,48,yes,1024
91.83673469,91.83673469,779.7959184,779.7959184,black,experiment,legacy,legacy,legacy,0,uniform,1,undefined,1,right,48,48,48,0,0,48,48,0,0,48,48,48,NA,0,48,0,10/18/19 9:55,The main experiment item,yes,SternbergTask.osexp,C:\Users\Jeanette\Desktop\Jeanette Master's\AQM&ED,no,mono,no,18,no,white,no,yes,768,legacy,36,11,C:/Users/Jeanette/Desktop/Jeanette Master's/AQM&ED/jh-subject-1.csv,legacy,1 5 3 2 8,Kafkaesque Koffka,3.2.8,0,n,0,right,right,right,right,NA,NA,865,10411,12131,865,NA,NA,2,legacy,5,1024,2,48000,-16,experiment,1,odd,4,322264,318944,320050,2486,98000,320052,115444,2508,85868,324270,321057,325136,NA,12920,324269,NA,Sternberg Task,45,38210,49,yes,1024
92,92,777.6,777.6,black,experiment,legacy,legacy,legacy,0,uniform,1,undefined,1,left,49,49,49,0,0,49,49,0,0,49,49,49,NA,0,49,0,10/18/19 9:55,The main experiment item,yes,SternbergTask.osexp,C:\Users\Jeanette\Desktop\Jeanette Master's\AQM&ED,no,mono,no,18,no,white,no,yes,768,legacy,37,11,C:/Users/Jeanette/Desktop/Jeanette Master's/AQM&ED/jh-subject-1.csv,legacy,4 3 2 5 8,Kafkaesque Koffka,3.2.8,2,y,0,left,right,right,left,NA,NA,670,10411,12131,670,NA,NA,2,legacy,5,1024,2,48000,-16,experiment,1,odd,3,328499,325162,326286,2486,98000,326288,115444,2508,85868,330506,327294,331176,NA,12920,330505,NA,Sternberg Task,46,38880,50,yes,1024
92.15686275,92.15686275,778.8823529,778.8823529,black,experiment,legacy,legacy,legacy,0,uniform,1,undefined,1,left,50,50,50,0,0,50,50,0,0,50,50,50,NA,0,50,0,10/18/19 9:55,The main experiment item,yes,SternbergTask.osexp,C:\Users\Jeanette\Desktop\Jeanette Master's\AQM&ED,no,mono,no,18,no,white,no,yes,768,legacy,38,11,C:/Users/Jeanette/Desktop/Jeanette Master's/AQM&ED/jh-subject-1.csv,legacy,3 9 7 6 4,Kafkaesque Koffka,3.2.8,3,y,0,left,right,right,left,NA,NA,843,10411,12131,843,NA,NA,2,legacy,5,1024,2,48000,-16,experiment,1,odd,7,334528,331204,332315,2486,98000,332318,115444,2508,85868,336533,333323,337376,NA,12920,336533,NA,Sternberg Task,47,39723,51,yes,1024
92.30769231,92.30769231,776.3846154,776.3846154,black,experiment,legacy,legacy,legacy,0,uniform,1,undefined,1,left,51,51,51,0,0,51,51,0,0,51,51,51,NA,0,51,0,10/18/19 9:55,The main experiment item,yes,SternbergTask.osexp,C:\Users\Jeanette\Desktop\Jeanette Master's\AQM&ED,no,mono,no,18,no,white,no,yes,768,legacy,39,11,C:/Users/Jeanette/Desktop/Jeanette Master's/AQM&ED/jh-subject-1.csv,legacy,8 9 6 1,Kafkaesque Koffka,3.2.8,2,y,0,left,right,right,left,NA,NA,649,10411,12131,649,NA,NA,2,legacy,4,1024,2,48000,-16,experiment,1,odd,9,340713,337397,338499,2486,98000,338502,115444,2508,85868,342718,339507,343368,NA,12920,342718,NA,Sternberg Task,48,40372,52,yes,1024
92.45283019,92.45283019,775.245283,775.245283,black,experiment,legacy,legacy,legacy,0,uniform,1,undefined,1,left,52,52,52,0,0,52,52,0,0,52,52,52,NA,0,52,0,10/18/19 9:55,The main experiment item,yes,SternbergTask.osexp,C:\Users\Jeanette\Desktop\Jeanette Master's\AQM&ED,no,mono,no,18,no,white,no,yes,768,legacy,40,11,C:/Users/Jeanette/Desktop/Jeanette Master's/AQM&ED/jh-subject-1.csv,legacy,6 5,Kafkaesque Koffka,3.2.8,2,y,0,left,right,right,left,NA,NA,716,10411,12131,716,NA,NA,2,legacy,2,1024,2,48000,-16,experiment,1,odd,5,346692,343388,344480,2486,98000,344482,115444,2508,85868,348699,345487,349416,NA,12920,348698,NA,Sternberg Task,49,41088,53,yes,1024
92.59259259,92.59259259,772.8148148,772.8148148,black,experiment,legacy,legacy,legacy,0,uniform,1,undefined,1,left,53,53,53,0,0,53,53,0,0,53,53,53,NA,0,53,0,10/18/19 9:55,The main experiment item,yes,SternbergTask.osexp,C:\Users\Jeanette\Desktop\Jeanette Master's\AQM&ED,no,mono,no,18,no,white,no,yes,768,legacy,41,11,C:/Users/Jeanette/Desktop/Jeanette Master's/AQM&ED/jh-subject-1.csv,legacy,2 4 8 5 1 3,Kafkaesque Koffka,3.2.8,1,y,0,left,right,right,left,NA,NA,644,10411,12131,644,NA,NA,2,legacy,6,1024,2,48000,-16,experiment,1,odd,2,352757,349439,350544,2486,98000,350546,115444,2508,85868,354763,351551,355408,NA,12920,354762,NA,Sternberg Task,50,41732,54,yes,1024
92.72727273,92.72727273,785.5636364,785.5636364,black,experiment,legacy,legacy,legacy,0,uniform,1,undefined,1,right,54,54,54,0,0,54,54,0,0,54,54,54,NA,0,54,0,10/18/19 9:55,The main experiment item,yes,SternbergTask.osexp,C:\Users\Jeanette\Desktop\Jeanette Master's\AQM&ED,no,mono,no,18,no,white,no,yes,768,legacy,42,11,C:/Users/Jeanette/Desktop/Jeanette Master's/AQM&ED/jh-subject-1.csv,legacy,1 4 3 6 5,Kafkaesque Koffka,3.2.8,0,n,0,right,right,right,right,NA,NA,1474,10411,12131,1474,NA,NA,2,legacy,5,1024,2,48000,-16,experiment,1,odd,8,358768,355435,356554,2486,98000,356557,115444,2508,85868,360774,357563,362249,NA,12920,360774,NA,Sternberg Task,51,43206,55,yes,1024
92.85714286,92.85714286,790,790,black,experiment,legacy,legacy,legacy,0,uniform,1,undefined,1,left,55,55,55,0,0,55,55,0,0,55,55,55,NA,0,55,0,10/18/19 9:55,The main experiment item,yes,SternbergTask.osexp,C:\Users\Jeanette\Desktop\Jeanette Master's\AQM&ED,no,mono,no,18,no,white,no,yes,768,legacy,43,11,C:/Users/Jeanette/Desktop/Jeanette Master's/AQM&ED/jh-subject-1.csv,legacy,7 8 6 3 1,Kafkaesque Koffka,3.2.8,5,y,0,left,right,right,left,NA,NA,1034,10411,12131,1034,NA,NA,2,legacy,5,1024,2,48000,-16,experiment,1,odd,1,365608,362274,363394,2486,98000,363396,115444,2508,85868,367613,364401,368648,NA,12920,367613,NA,Sternberg Task,52,44240,56,yes,1024
92.98245614,92.98245614,792.0526316,792.0526316,black,experiment,legacy,legacy,legacy,0,uniform,1,undefined,1,left,56,56,56,0,0,56,56,0,0,56,56,56,NA,0,56,0,10/18/19 9:55,The main experiment item,yes,SternbergTask.osexp,C:\Users\Jeanette\Desktop\Jeanette Master's\AQM&ED,no,mono,no,18,no,white,no,yes,768,legacy,44,11,C:/Users/Jeanette/Desktop/Jeanette Master's/AQM&ED/jh-subject-1.csv,legacy,2 4 6 9,Kafkaesque Koffka,3.2.8,3,y,0,left,right,right,left,NA,NA,907,10411,12131,907,NA,NA,2,legacy,4,1024,2,48000,-16,experiment,1,odd,6,371997,368666,369784,2486,98000,369786,115444,2508,85868,374004,370791,374912,NA,12920,374003,NA,Sternberg Task,53,45147,57,yes,1024
93.10344828,93.10344828,791.362069,791.362069,black,experiment,legacy,legacy,legacy,0,uniform,1,undefined,1,left,57,57,57,0,0,57,57,0,0,57,57,57,NA,0,57,0,10/18/19 9:55,The main experiment item,yes,SternbergTask.osexp,C:\Users\Jeanette\Desktop\Jeanette Master's\AQM&ED,no,mono,no,18,no,white,no,yes,768,legacy,45,11,C:/Users/Jeanette/Desktop/Jeanette Master's/AQM&ED/jh-subject-1.csv,legacy,4 1 8 7 5,Kafkaesque Koffka,3.2.8,3,y,0,left,right,right,left,NA,NA,752,10411,12131,752,NA,NA,2,legacy,5,1024,2,48000,-16,experiment,1,odd,8,378266,374934,376052,2486,98000,376055,115444,2508,85868,380271,377060,381024,NA,12920,380271,NA,Sternberg Task,54,45899,58,yes,1024
93.22033898,93.22033898,795.3559322,795.3559322,black,experiment,legacy,legacy,legacy,0,uniform,1,undefined,1,right,58,58,58,0,0,58,58,0,0,58,58,58,NA,0,58,0,10/18/19 9:55,The main experiment item,yes,SternbergTask.osexp,C:\Users\Jeanette\Desktop\Jeanette Master's\AQM&ED,no,mono,no,18,no,white,no,yes,768,legacy,46,11,C:/Users/Jeanette/Desktop/Jeanette Master's/AQM&ED/jh-subject-1.csv,legacy,3 9 1,Kafkaesque Koffka,3.2.8,0,n,0,right,right,right,right,NA,NA,1027,10411,12131,1027,NA,NA,2,legacy,3,1024,2,48000,-16,experiment,1,odd,7,384391,381051,382178,2486,98000,382180,115444,2508,85868,386396,383185,387424,NA,12920,386396,NA,Sternberg Task,55,46926,59,yes,1024
93.33333333,93.33333333,795.2,795.2,black,experiment,legacy,legacy,legacy,0,uniform,1,undefined,1,right,59,59,59,0,0,59,59,0,0,59,59,59,NA,0,59,0,10/18/19 9:55,The main experiment item,yes,SternbergTask.osexp,C:\Users\Jeanette\Desktop\Jeanette Master's\AQM&ED,no,mono,no,18,no,white,no,yes,768,legacy,47,11,C:/Users/Jeanette/Desktop/Jeanette Master's/AQM&ED/jh-subject-1.csv,legacy,3 4 9 6 7 8,Kafkaesque Koffka,3.2.8,0,n,0,right,right,right,right,NA,NA,786,10411,12131,786,NA,NA,2,legacy,6,1024,2,48000,-16,experiment,1,odd,2,390776,387443,388562,2486,98000,388564,115444,2508,85868,392781,389570,393568,NA,12920,392781,NA,Sternberg Task,56,47712,60,yes,1024
93.44262295,93.44262295,793.3934426,793.3934426,black,experiment,legacy,legacy,legacy,0,uniform,1,undefined,1,left,60,60,60,0,0,60,60,0,0,60,60,60,NA,0,60,0,10/18/19 9:55,The main experiment item,yes,SternbergTask.osexp,C:\Users\Jeanette\Desktop\Jeanette Master's\AQM&ED,no,mono,no,18,no,white,no,yes,768,legacy,48,11,C:/Users/Jeanette/Desktop/Jeanette Master's/AQM&ED/jh-subject-1.csv,legacy,3 5 7 1,Kafkaesque Koffka,3.2.8,3,y,0,left,right,right,left,NA,NA,685,10411,12131,685,NA,NA,2,legacy,4,1024,2,48000,-16,experiment,1,odd,7,396909,393594,394698,2486,98000,394700,115444,2508,85868,398914,395706,399600,NA,12920,398914,NA,Sternberg Task,57,48397,61,yes,1024
93.5483871,93.5483871,790.9677419,790.9677419,black,experiment,legacy,legacy,legacy,0,uniform,1,undefined,1,right,61,61,61,0,0,61,61,0,0,61,61,61,NA,0,61,0,10/18/19 9:55,The main experiment item,yes,SternbergTask.osexp,C:\Users\Jeanette\Desktop\Jeanette Master's\AQM&ED,no,mono,no,18,no,white,no,yes,768,legacy,49,11,C:/Users/Jeanette/Desktop/Jeanette Master's/AQM&ED/jh-subject-1.csv,legacy,1,Kafkaesque Koffka,3.2.8,0,n,0,right,right,right,right,NA,NA,643,10411,12131,643,NA,NA,2,legacy,1,1024,2,48000,-16,experiment,1,odd,7,402957,399628,400744,2486,98000,400746,115444,2508,85868,404964,401751,405608,NA,12920,404964,NA,Sternberg Task,58,49040,62,yes,1024
93.65079365,93.65079365,789.3174603,789.3174603,black,experiment,legacy,legacy,legacy,0,uniform,1,undefined,1,right,62,62,62,0,0,62,62,0,0,62,62,62,NA,0,62,0,10/18/19 9:55,The main experiment item,yes,SternbergTask.osexp,C:\Users\Jeanette\Desktop\Jeanette Master's\AQM&ED,no,mono,no,18,no,white,no,yes,768,legacy,50,11,C:/Users/Jeanette/Desktop/Jeanette Master's/AQM&ED/jh-subject-1.csv,legacy,8 6 3 4 7,Kafkaesque Koffka,3.2.8,0,n,0,right,right,right,right,NA,NA,687,10411,12131,687,NA,NA,2,legacy,5,1024,2,48000,-16,experiment,1,odd,1,408940,405641,406729,2486,98000,406732,115444,2508,85868,410945,407734,411633,NA,12920,410945,NA,Sternberg Task,59,49727,63,yes,1024
93.75,93.75,784.90625,784.90625,black,experiment,legacy,legacy,legacy,0,uniform,1,undefined,1,right,63,63,63,0,0,63,63,0,0,63,63,63,NA,0,63,0,10/18/19 9:55,The main experiment item,yes,SternbergTask.osexp,C:\Users\Jeanette\Desktop\Jeanette Master's\AQM&ED,no,mono,no,18,no,white,no,yes,768,legacy,51,11,C:/Users/Jeanette/Desktop/Jeanette Master's/AQM&ED/jh-subject-1.csv,legacy,2 5 1 4,Kafkaesque Koffka,3.2.8,0,n,0,right,right,right,right,NA,NA,507,10411,12131,507,NA,NA,2,legacy,4,1024,2,48000,-16,experiment,1,odd,6,414983,411655,412770,2486,98000,412772,115444,2508,85868,416988,413777,417496,NA,12920,416988,NA,Sternberg Task,60,50234,64,yes,1024
93.84615385,93.84615385,780.7230769,780.7230769,black,experiment,legacy,legacy,legacy,0,uniform,1,undefined,1,right,64,64,64,0,0,64,64,0,0,64,64,64,NA,0,64,0,10/18/19 9:55,The main experiment item,yes,SternbergTask.osexp,C:\Users\Jeanette\Desktop\Jeanette Master's\AQM&ED,no,mono,no,18,no,white,no,yes,768,legacy,52,11,C:/Users/Jeanette/Desktop/Jeanette Master's/AQM&ED/jh-subject-1.csv,legacy,1 8 7,Kafkaesque Koffka,3.2.8,0,n,0,right,right,right,right,NA,NA,513,10411,12131,513,NA,NA,2,legacy,3,1024,2,48000,-16,experiment,1,odd,4,420865,417528,418653,2486,98000,418655,115444,2508,85868,422870,419660,423384,NA,12920,422870,NA,Sternberg Task,61,50747,65,yes,1024
93.93939394,93.93939394,778.1969697,778.1969697,black,experiment,legacy,legacy,legacy,0,uniform,1,undefined,1,right,65,65,65,0,0,65,65,0,0,65,65,65,NA,0,65,0,10/18/19 9:55,The main experiment item,yes,SternbergTask.osexp,C:\Users\Jeanette\Desktop\Jeanette Master's\AQM&ED,no,mono,no,18,no,white,no,yes,768,legacy,53,11,C:/Users/Jeanette/Desktop/Jeanette Master's/AQM&ED/jh-subject-1.csv,legacy,4 2 6 9,Kafkaesque Koffka,3.2.8,0,n,0,right,right,right,right,NA,NA,614,10411,12131,614,NA,NA,2,legacy,4,1024,2,48000,-16,experiment,1,odd,7,426724,423406,424512,2486,98000,424514,115444,2508,85868,428730,425519,429345,NA,12920,428729,NA,Sternberg Task,62,51361,66,yes,1024
94.02985075,94.02985075,775.3283582,775.3283582,black,experiment,legacy,legacy,legacy,0,uniform,1,undefined,1,right,66,66,66,0,0,66,66,0,0,66,66,66,NA,0,66,0,10/18/19 9:55,The main experiment item,yes,SternbergTask.osexp,C:\Users\Jeanette\Desktop\Jeanette Master's\AQM&ED,no,mono,no,18,no,white,no,yes,768,legacy,54,11,C:/Users/Jeanette/Desktop/Jeanette Master's/AQM&ED/jh-subject-1.csv,legacy,7 1 5 6 3,Kafkaesque Koffka,3.2.8,0,n,0,right,right,right,right,NA,NA,586,10411,12131,586,NA,NA,2,legacy,5,1024,2,48000,-16,experiment,1,odd,8,432686,429365,430473,2486,98000,430475,115444,2508,85868,434693,431480,435280,NA,12920,434693,NA,Sternberg Task,63,51947,67,yes,1024
94.11764706,94.11764706,776.8235294,776.8235294,black,experiment,legacy,legacy,legacy,0,uniform,1,undefined,1,left,67,67,67,0,0,67,67,0,0,67,67,67,NA,0,67,0,10/18/19 9:55,The main experiment item,yes,SternbergTask.osexp,C:\Users\Jeanette\Desktop\Jeanette Master's\AQM&ED,no,mono,no,18,no,white,no,yes,768,legacy,55,11,C:/Users/Jeanette/Desktop/Jeanette Master's/AQM&ED/jh-subject-1.csv,legacy,8,Kafkaesque Koffka,3.2.8,1,y,0,left,right,right,left,NA,NA,877,10411,12131,877,NA,NA,2,legacy,1,1024,2,48000,-16,experiment,1,odd,8,438613,435299,436400,2486,98000,436402,115444,2508,85868,440619,437407,441497,NA,12920,440618,NA,Sternberg Task,64,52824,68,yes,1024
94.20289855,94.20289855,776.6086957,776.6086957,black,experiment,legacy,legacy,legacy,0,uniform,1,undefined,1,right,68,68,68,0,0,68,68,0,0,68,68,68,NA,0,68,0,10/18/19 9:55,The main experiment item,yes,SternbergTask.osexp,C:\Users\Jeanette\Desktop\Jeanette Master's\AQM&ED,no,mono,no,18,no,white,no,yes,768,legacy,56,11,C:/Users/Jeanette/Desktop/Jeanette Master's/AQM&ED/jh-subject-1.csv,legacy,8 5 4 2 9 6,Kafkaesque Koffka,3.2.8,0,n,0,right,right,right,right,NA,NA,762,10411,12131,762,NA,NA,2,legacy,6,1024,2,48000,-16,experiment,1,odd,3,444847,441530,442633,2486,98000,442636,115444,2508,85868,446853,443641,447616,NA,12920,446852,NA,Sternberg Task,65,53586,69,yes,1024
94.28571429,94.28571429,775.1428571,775.1428571,black,experiment,legacy,legacy,legacy,0,uniform,1,undefined,1,left,69,69,69,0,0,69,69,0,0,69,69,69,NA,0,69,0,10/18/19 9:55,The main experiment item,yes,SternbergTask.osexp,C:\Users\Jeanette\Desktop\Jeanette Master's\AQM&ED,no,mono,no,18,no,white,no,yes,768,legacy,57,11,C:/Users/Jeanette/Desktop/Jeanette Master's/AQM&ED/jh-subject-1.csv,legacy,8 7 3,Kafkaesque Koffka,3.2.8,1,y,0,left,right,right,left,NA,NA,674,10411,12131,674,NA,NA,2,legacy,3,1024,2,48000,-16,experiment,1,odd,8,450960,447642,448747,2486,98000,448750,115444,2508,85868,452965,449755,453640,NA,12920,452965,NA,Sternberg Task,66,54260,70,yes,1024
94.36619718,94.36619718,773.6197183,773.6197183,black,experiment,legacy,legacy,legacy,0,uniform,1,undefined,1,right,70,70,70,0,0,70,70,0,0,70,70,70,NA,0,70,0,10/18/19 9:55,The main experiment item,yes,SternbergTask.osexp,C:\Users\Jeanette\Desktop\Jeanette Master's\AQM&ED,no,mono,no,18,no,white,no,yes,768,legacy,58,11,C:/Users/Jeanette/Desktop/Jeanette Master's/AQM&ED/jh-subject-1.csv,legacy,7 1,Kafkaesque Koffka,3.2.8,0,n,0,right,right,right,right,NA,NA,667,10411,12131,667,NA,NA,2,legacy,2,1024,2,48000,-16,experiment,1,odd,8,456990,453667,454777,2486,98000,454779,115444,2508,85868,458997,455785,459665,NA,12920,458996,NA,Sternberg Task,67,54927,71,yes,1024
94.44444444,94.44444444,774.3055556,774.3055556,black,experiment,legacy,legacy,legacy,0,uniform,1,undefined,1,left,71,71,71,0,0,71,71,0,0,71,71,71,NA,0,71,0,10/18/19 9:55,The main experiment item,yes,SternbergTask.osexp,C:\Users\Jeanette\Desktop\Jeanette Master's\AQM&ED,no,mono,no,18,no,white,no,yes,768,legacy,59,11,C:/Users/Jeanette/Desktop/Jeanette Master's/AQM&ED/jh-subject-1.csv,legacy,3 9 6 2,Kafkaesque Koffka,3.2.8,4,y,0,left,right,right,left,NA,NA,823,10411,12131,823,NA,NA,2,legacy,4,1024,2,48000,-16,experiment,1,odd,2,463017,459685,460804,2486,98000,460806,115444,2508,85868,465024,461811,465848,NA,12920,465023,NA,Sternberg Task,68,55750,72,yes,1024
94.52054795,94.52054795,777.5342466,777.5342466,black,experiment,legacy,legacy,legacy,0,uniform,1,undefined,1,left,72,72,72,0,0,72,72,0,0,72,72,72,NA,0,72,0,10/18/19 9:55,The main experiment item,yes,SternbergTask.osexp,C:\Users\Jeanette\Desktop\Jeanette Master's\AQM&ED,no,mono,no,18,no,white,no,yes,768,legacy,60,11,C:/Users/Jeanette/Desktop/Jeanette Master's/AQM&ED/jh-subject-1.csv,legacy,7 2 3,Kafkaesque Koffka,3.2.8,3,y,0,left,right,right,left,NA,NA,1010,10411,12131,1010,NA,NA,2,legacy,3,1024,2,48000,-16,experiment,1,odd,3,469183,465873,466971,2486,98000,466973,115444,2508,85868,471189,467978,472200,NA,12920,471188,NA,Sternberg Task,69,56760,73,yes,1024
94.59459459,94.59459459,778.8918919,778.8918919,black,experiment,legacy,legacy,legacy,0,uniform,1,undefined,1,right,73,73,73,0,0,73,73,0,0,73,73,73,NA,0,73,0,10/18/19 9:55,The main experiment item,yes,SternbergTask.osexp,C:\Users\Jeanette\Desktop\Jeanette Master's\AQM&ED,no,mono,no,18,no,white,no,yes,768,legacy,61,11,C:/Users/Jeanette/Desktop/Jeanette Master's/AQM&ED/jh-subject-1.csv,legacy,7 3 2 8,Kafkaesque Koffka,3.2.8,0,n,0,right,right,right,right,NA,NA,878,10411,12131,878,NA,NA,2,legacy,4,1024,2,48000,-16,experiment,1,odd,4,475531,472219,473318,2486,98000,473320,115444,2508,85868,477537,474326,478416,NA,12920,477537,NA,Sternberg Task,70,57638,74,yes,1024
94.66666667,94.66666667,779.52,779.52,black,experiment,legacy,legacy,legacy,0,uniform,1,undefined,1,right,74,74,74,0,0,74,74,0,0,74,74,74,NA,0,74,0,10/18/19 9:55,The main experiment item,yes,SternbergTask.osexp,C:\Users\Jeanette\Desktop\Jeanette Master's\AQM&ED,no,mono,no,18,no,white,no,yes,768,legacy,62,11,C:/Users/Jeanette/Desktop/Jeanette Master's/AQM&ED/jh-subject-1.csv,legacy,9 7 4 5 8,Kafkaesque Koffka,3.2.8,0,n,0,right,right,right,right,NA,NA,826,10411,12131,826,NA,NA,2,legacy,5,1024,2,48000,-16,experiment,1,odd,6,481775,478437,479562,2486,98000,479564,115444,2508,85868,483781,480569,484608,NA,12920,483781,NA,Sternberg Task,71,58464,75,yes,1024
94.73684211,94.73684211,775.9078947,775.9078947,black,experiment,legacy,legacy,legacy,0,uniform,1,undefined,1,left,75,75,75,0,0,75,75,0,0,75,75,75,NA,0,75,0,10/18/19 9:55,The main experiment item,yes,SternbergTask.osexp,C:\Users\Jeanette\Desktop\Jeanette Master's\AQM&ED,no,mono,no,18,no,white,no,yes,768,legacy,63,11,C:/Users/Jeanette/Desktop/Jeanette Master's/AQM&ED/jh-subject-1.csv,legacy,9 5 3 8 4,Kafkaesque Koffka,3.2.8,1,y,0,left,right,right,left,NA,NA,505,10411,12131,505,NA,NA,2,legacy,5,1024,2,48000,-16,experiment,1,odd,9,487977,484637,485763,2486,98000,485765,115444,2508,85868,489983,486770,490489,NA,12920,489983,NA,Sternberg Task,72,58969,76,yes,1024
94.80519481,94.80519481,774.3506494,774.3506494,black,experiment,legacy,legacy,legacy,0,uniform,1,undefined,1,right,76,76,76,0,0,76,76,0,0,76,76,76,NA,0,76,0,10/18/19 9:55,The main experiment item,yes,SternbergTask.osexp,C:\Users\Jeanette\Desktop\Jeanette Master's\AQM&ED,no,mono,no,18,no,white,no,yes,768,legacy,64,11,C:/Users/Jeanette/Desktop/Jeanette Master's/AQM&ED/jh-subject-1.csv,legacy,4 8 1 2,Kafkaesque Koffka,3.2.8,0,n,0,right,right,right,right,NA,NA,656,10411,12131,656,NA,NA,2,legacy,4,1024,2,48000,-16,experiment,1,odd,7,493856,490518,491643,2486,98000,491645,115444,2508,85868,495863,492650,496520,NA,12920,495863,NA,Sternberg Task,73,59625,77,yes,1024
94.87179487,94.87179487,773.0128205,773.0128205,black,experiment,legacy,legacy,legacy,0,uniform,1,undefined,1,right,77,77,77,0,0,77,77,0,0,77,77,77,NA,0,77,0,10/18/19 9:55,The main experiment item,yes,SternbergTask.osexp,C:\Users\Jeanette\Desktop\Jeanette Master's\AQM&ED,no,mono,no,18,no,white,no,yes,768,legacy,65,11,C:/Users/Jeanette/Desktop/Jeanette Master's/AQM&ED/jh-subject-1.csv,legacy,6 8,Kafkaesque Koffka,3.2.8,0,n,0,right,right,right,right,NA,NA,670,10411,12131,670,NA,NA,2,legacy,2,1024,2,48000,-16,experiment,1,odd,9,499885,496547,497672,2486,98000,497675,115444,2508,85868,501890,498680,502561,NA,12920,501890,NA,Sternberg Task,74,60295,78,yes,1024
94.93670886,94.93670886,773.5316456,773.5316456,black,experiment,legacy,legacy,legacy,0,uniform,1,undefined,1,right,78,78,78,0,0,78,78,0,0,78,78,78,NA,0,78,0,10/18/19 9:55,The main experiment item,yes,SternbergTask.osexp,C:\Users\Jeanette\Desktop\Jeanette Master's\AQM&ED,no,mono,no,18,no,white,no,yes,768,legacy,66,11,C:/Users/Jeanette/Desktop/Jeanette Master's/AQM&ED/jh-subject-1.csv,legacy,1 6 4 3 9 7,Kafkaesque Koffka,3.2.8,0,n,0,right,right,right,right,NA,NA,814,10411,12131,814,NA,NA,2,legacy,6,1024,2,48000,-16,experiment,1,odd,8,505903,502581,503689,2486,98000,503691,115444,2508,85868,507906,504696,508721,NA,12920,507906,NA,Sternberg Task,75,61109,79,yes,1024
95,95,775.85,775.85,black,experiment,legacy,legacy,legacy,0,uniform,1,undefined,1,right,79,79,79,0,0,79,79,0,0,79,79,79,NA,0,79,0,10/18/19 9:55,The main experiment item,yes,SternbergTask.osexp,C:\Users\Jeanette\Desktop\Jeanette Master's\AQM&ED,no,mono,no,18,no,white,no,yes,768,legacy,67,11,C:/Users/Jeanette/Desktop/Jeanette Master's/AQM&ED/jh-subject-1.csv,legacy,4 2 7 6 1 3,Kafkaesque Koffka,3.2.8,0,n,0,right,right,right,right,NA,NA,959,10411,12131,959,NA,NA,2,legacy,6,1024,2,48000,-16,experiment,1,odd,8,512067,508740,509854,2486,98000,509857,115444,2508,85868,514072,510862,515032,NA,12920,514072,NA,Sternberg Task,76,62068,80,yes,1024
95.0617284,95.0617284,778.1975309,778.1975309,black,experiment,legacy,legacy,legacy,0,uniform,1,undefined,1,left,80,80,80,0,0,80,80,0,0,80,80,80,NA,0,80,0,10/18/19 9:55,The main experiment item,yes,SternbergTask.osexp,C:\Users\Jeanette\Desktop\Jeanette Master's\AQM&ED,no,mono,no,18,no,white,no,yes,768,legacy,68,11,C:/Users/Jeanette/Desktop/Jeanette Master's/AQM&ED/jh-subject-1.csv,legacy,9 6 2 4 1,Kafkaesque Koffka,3.2.8,4,y,0,left,right,right,left,NA,NA,966,10411,12131,966,NA,NA,2,legacy,5,1024,2,48000,-16,experiment,1,odd,4,518411,515061,516199,2486,98000,516201,115444,2508,85868,520417,517206,521384,NA,12920,520417,NA,Sternberg Task,77,63034,81,yes,1024
95.12195122,95.12195122,778.6463415,778.6463415,black,experiment,legacy,legacy,legacy,0,uniform,1,undefined,1,right,81,81,81,0,0,81,81,0,0,81,81,81,NA,0,81,0,10/18/19 9:55,The main experiment item,yes,SternbergTask.osexp,C:\Users\Jeanette\Desktop\Jeanette Master's\AQM&ED,no,mono,no,18,no,white,no,yes,768,legacy,69,11,C:/Users/Jeanette/Desktop/Jeanette Master's/AQM&ED/jh-subject-1.csv,legacy,8 2 1 4 5 9,Kafkaesque Koffka,3.2.8,0,n,0,right,right,right,right,NA,NA,815,10411,12131,815,NA,NA,2,legacy,6,1024,2,48000,-16,experiment,1,odd,7,524755,521412,522543,2486,98000,522545,115444,2508,85868,526761,523550,527577,NA,12920,526761,NA,Sternberg Task,78,63849,82,yes,1024
95.18072289,95.18072289,779.6385542,779.6385542,black,experiment,legacy,legacy,legacy,0,uniform,1,undefined,1,left,82,82,82,0,0,82,82,0,0,82,82,82,NA,0,82,0,10/18/19 9:55,The main experiment item,yes,SternbergTask.osexp,C:\Users\Jeanette\Desktop\Jeanette Master's\AQM&ED,no,mono,no,18,no,white,no,yes,768,legacy,70,11,C:/Users/Jeanette/Desktop/Jeanette Master's/AQM&ED/jh-subject-1.csv,legacy,6 9 7 4 5 1,Kafkaesque Koffka,3.2.8,2,y,0,left,right,right,left,NA,NA,861,10411,12131,861,NA,NA,2,legacy,6,1024,2,48000,-16,experiment,1,odd,9,530941,527613,528726,2486,98000,528729,115444,2508,85868,532947,529736,533809,NA,12920,532947,NA,Sternberg Task,79,64710,83,yes,1024
95.23809524,95.23809524,780.5119048,780.5119048,black,experiment,legacy,legacy,legacy,0,uniform,1,undefined,1,right,83,83,83,0,0,83,83,0,0,83,83,83,NA,0,83,0,10/18/19 9:55,The main experiment item,yes,SternbergTask.osexp,C:\Users\Jeanette\Desktop\Jeanette Master's\AQM&ED,no,mono,no,18,no,white,no,yes,768,legacy,71,11,C:/Users/Jeanette/Desktop/Jeanette Master's/AQM&ED/jh-subject-1.csv,legacy,9 5 3 2 8 6,Kafkaesque Koffka,3.2.8,0,n,0,right,right,right,right,NA,NA,853,10411,12131,853,NA,NA,2,legacy,6,1024,2,48000,-16,experiment,1,odd,7,537156,533839,534944,2486,98000,534946,115444,2508,85868,539163,535951,540017,NA,12920,539163,NA,Sternberg Task,80,65563,84,yes,1024
95.29411765,95.29411765,778.9647059,778.9647059,black,experiment,legacy,legacy,legacy,0,uniform,1,undefined,1,left,84,84,84,0,0,84,84,0,0,84,84,84,NA,0,84,0,10/18/19 9:55,The main experiment item,yes,SternbergTask.osexp,C:\Users\Jeanette\Desktop\Jeanette Master's\AQM&ED,no,mono,no,18,no,white,no,yes,768,legacy,72,11,C:/Users/Jeanette/Desktop/Jeanette Master's/AQM&ED/jh-subject-1.csv,legacy,6 2,Kafkaesque Koffka,3.2.8,1,y,0,left,right,right,left,NA,NA,649,10411,12131,649,NA,NA,2,legacy,2,1024,2,48000,-16,experiment,1,odd,6,543360,540036,541147,2486,98000,541149,115444,2508,85868,545367,542155,546017,NA,12920,545366,NA,Sternberg Task,81,66212,85,yes,1024
94.18604651,94.18604651,784.4186047,784.4186047,black,experiment,legacy,legacy,legacy,0,uniform,0,undefined,0,left,85,85,85,0,0,85,85,0,0,85,85,85,NA,0,85,0,10/18/19 9:55,The main experiment item,yes,SternbergTask.osexp,C:\Users\Jeanette\Desktop\Jeanette Master's\AQM&ED,no,mono,no,18,no,white,no,yes,768,legacy,73,11,C:/Users/Jeanette/Desktop/Jeanette Master's/AQM&ED/jh-subject-1.csv,legacy,8 3,Kafkaesque Koffka,3.2.8,2,y,0,right,right,right,right,NA,NA,1248,10411,12131,1248,NA,NA,2,legacy,2,1024,2,48000,-16,experiment,1,odd,3,549337,546036,547124,2486,98000,547126,115444,2508,85868,551343,548131,552592,NA,12920,551342,NA,Sternberg Task,81,67460,86,yes,1024
94.25287356,94.25287356,784.5057471,784.5057471,black,experiment,legacy,legacy,legacy,0,uniform,1,undefined,1,left,86,86,86,0,0,86,86,0,0,86,86,86,NA,0,86,0,10/18/19 9:55,The main experiment item,yes,SternbergTask.osexp,C:\Users\Jeanette\Desktop\Jeanette Master's\AQM&ED,no,mono,no,18,no,white,no,yes,768,legacy,74,11,C:/Users/Jeanette/Desktop/Jeanette Master's/AQM&ED/jh-subject-1.csv,legacy,3 2 1 4 7,Kafkaesque Koffka,3.2.8,2,y,0,left,right,right,left,NA,NA,792,10411,12131,792,NA,NA,2,legacy,5,1024,2,48000,-16,experiment,1,odd,2,555970,546036,553758,2486,98000,553760,552623,2508,85868,557975,554765,558768,NA,12920,557975,NA,Sternberg Task,82,68252,87,yes,1024
94.31818182,94.31818182,781.9659091,781.9659091,black,experiment,legacy,legacy,legacy,0,uniform,1,undefined,1,left,87,87,87,0,0,87,87,0,0,87,87,87,NA,0,87,0,10/18/19 9:55,The main experiment item,yes,SternbergTask.osexp,C:\Users\Jeanette\Desktop\Jeanette Master's\AQM&ED,no,mono,no,18,no,white,no,yes,768,legacy,75,11,C:/Users/Jeanette/Desktop/Jeanette Master's/AQM&ED/jh-subject-1.csv,legacy,4,Kafkaesque Koffka,3.2.8,1,y,0,left,right,right,left,NA,NA,561,10411,12131,561,NA,NA,2,legacy,1,1024,2,48000,-16,experiment,1,odd,4,562112,558787,559898,2486,98000,559901,552623,2508,85868,564118,560907,564681,NA,12920,564118,NA,Sternberg Task,83,68813,88,yes,1024
94.38202247,94.38202247,781.2022472,781.2022472,black,experiment,legacy,legacy,legacy,0,uniform,1,undefined,1,left,88,88,88,0,0,88,88,0,0,88,88,88,NA,0,88,0,10/18/19 9:55,The main experiment item,yes,SternbergTask.osexp,C:\Users\Jeanette\Desktop\Jeanette Master's\AQM&ED,no,mono,no,18,no,white,no,yes,768,legacy,76,11,C:/Users/Jeanette/Desktop/Jeanette Master's/AQM&ED/jh-subject-1.csv,legacy,2 6 1 7 4,Kafkaesque Koffka,3.2.8,2,y,0,left,right,right,left,NA,NA,714,10411,12131,714,NA,NA,2,legacy,5,1024,2,48000,-16,experiment,1,odd,6,568022,564705,565808,2486,98000,565811,552623,2508,85868,570030,566816,570745,NA,12920,570030,NA,Sternberg Task,84,69527,89,yes,1024
93.33333333,93.33333333,782.2222222,782.2222222,black,experiment,legacy,legacy,legacy,0,uniform,0,undefined,0,right,89,89,89,0,0,89,89,0,0,89,89,89,NA,0,89,0,10/18/19 9:55,The main experiment item,yes,SternbergTask.osexp,C:\Users\Jeanette\Desktop\Jeanette Master's\AQM&ED,no,mono,no,18,no,white,no,yes,768,legacy,77,11,C:/Users/Jeanette/Desktop/Jeanette Master's/AQM&ED/jh-subject-1.csv,legacy,7 1 8 4 9 3,Kafkaesque Koffka,3.2.8,0,n,0,left,right,right,left,NA,NA,873,10411,12131,873,NA,NA,2,legacy,6,1024,2,48000,-16,experiment,1,odd,6,574083,570764,571869,2486,98000,571872,552623,2508,85868,576086,572877,576961,NA,12920,576086,NA,Sternberg Task,84,70400,90,yes,1024
93.40659341,93.40659341,783.021978,783.021978,black,experiment,legacy,legacy,legacy,0,uniform,1,undefined,1,right,90,90,90,0,0,90,90,0,0,90,90,90,NA,0,90,0,10/18/19 9:55,The main experiment item,yes,SternbergTask.osexp,C:\Users\Jeanette\Desktop\Jeanette Master's\AQM&ED,no,mono,no,18,no,white,no,yes,768,legacy,78,11,C:/Users/Jeanette/Desktop/Jeanette Master's/AQM&ED/jh-subject-1.csv,legacy,5 9 2 3,Kafkaesque Koffka,3.2.8,0,n,0,right,right,right,right,NA,NA,855,10411,12131,855,NA,NA,2,legacy,4,1024,2,48000,-16,experiment,1,odd,8,580315,570764,578102,2486,98000,578104,576981,2508,85868,582320,579109,583176,NA,12920,582320,NA,Sternberg Task,85,71255,91,yes,1024
93.47826087,93.47826087,783.9891304,783.9891304,black,experiment,legacy,legacy,legacy,0,uniform,1,undefined,1,right,91,91,91,0,0,91,91,0,0,91,91,91,NA,0,91,0,10/18/19 9:55,The main experiment item,yes,SternbergTask.osexp,C:\Users\Jeanette\Desktop\Jeanette Master's\AQM&ED,no,mono,no,18,no,white,no,yes,768,legacy,79,11,C:/Users/Jeanette/Desktop/Jeanette Master's/AQM&ED/jh-subject-1.csv,legacy,1 4 9 2 5,Kafkaesque Koffka,3.2.8,0,n,0,right,right,right,right,NA,NA,872,10411,12131,872,NA,NA,2,legacy,5,1024,2,48000,-16,experiment,1,odd,7,586546,583198,584333,2486,98000,584335,576981,2508,85868,588551,585340,589424,NA,12920,588551,NA,Sternberg Task,86,72127,92,yes,1024
93.5483871,93.5483871,786.9462366,786.9462366,black,experiment,legacy,legacy,legacy,0,uniform,1,undefined,1,right,92,92,92,0,0,92,92,0,0,92,92,92,NA,0,92,0,10/18/19 9:55,The main experiment item,yes,SternbergTask.osexp,C:\Users\Jeanette\Desktop\Jeanette Master's\AQM&ED,no,mono,no,18,no,white,no,yes,768,legacy,80,11,C:/Users/Jeanette/Desktop/Jeanette Master's/AQM&ED/jh-subject-1.csv,legacy,1 7 5 2 9,Kafkaesque Koffka,3.2.8,0,n,0,right,right,right,right,NA,NA,1059,10411,12131,1059,NA,NA,2,legacy,5,1024,2,48000,-16,experiment,1,odd,3,592797,589462,590584,2486,98000,590586,576981,2508,85868,594804,591591,595864,NA,12920,594804,NA,Sternberg Task,87,73186,93,yes,1024
93.61702128,93.61702128,787.4042553,787.4042553,black,experiment,legacy,legacy,legacy,0,uniform,1,undefined,1,left,93,93,93,0,0,93,93,0,0,93,93,93,NA,0,93,0,10/18/19 9:55,The main experiment item,yes,SternbergTask.osexp,C:\Users\Jeanette\Desktop\Jeanette Master's\AQM&ED,no,mono,no,18,no,white,no,yes,768,legacy,81,11,C:/Users/Jeanette/Desktop/Jeanette Master's/AQM&ED/jh-subject-1.csv,legacy,9 3 8 2 1 4,Kafkaesque Koffka,3.2.8,3,y,0,left,right,right,left,NA,NA,830,10411,12131,830,NA,NA,2,legacy,6,1024,2,48000,-16,experiment,1,odd,8,599218,595891,597005,2486,98000,597007,576981,2508,85868,601225,598013,602056,NA,12920,601225,NA,Sternberg Task,88,74016,94,yes,1024
93.68421053,93.68421053,787.3157895,787.3157895,black,experiment,legacy,legacy,legacy,0,uniform,1,undefined,1,left,94,94,94,0,0,94,94,0,0,94,94,94,NA,0,94,0,10/18/19 9:55,The main experiment item,yes,SternbergTask.osexp,C:\Users\Jeanette\Desktop\Jeanette Master's\AQM&ED,no,mono,no,18,no,white,no,yes,768,legacy,82,11,C:/Users/Jeanette/Desktop/Jeanette Master's/AQM&ED/jh-subject-1.csv,legacy,5 7 3 6 2,Kafkaesque Koffka,3.2.8,5,y,0,left,right,right,left,NA,NA,779,10411,12131,779,NA,NA,2,legacy,5,1024,2,48000,-16,experiment,1,odd,2,605401,602075,603188,2486,98000,603190,576981,2508,85868,607404,604196,608184,NA,12920,607404,NA,Sternberg Task,89,74795,95,yes,1024
93.75,93.75,786.4375,786.4375,black,experiment,legacy,legacy,legacy,0,uniform,1,undefined,1,right,95,95,95,0,0,95,95,0,0,95,95,95,NA,0,95,0,10/18/19 9:55,The main experiment item,yes,SternbergTask.osexp,C:\Users\Jeanette\Desktop\Jeanette Master's\AQM&ED,no,mono,no,18,no,white,no,yes,768,legacy,83,11,C:/Users/Jeanette/Desktop/Jeanette Master's/AQM&ED/jh-subject-1.csv,legacy,2 3 8 5 6 7,Kafkaesque Koffka,3.2.8,0,n,0,right,right,right,right,NA,NA,703,10411,12131,703,NA,NA,2,legacy,6,1024,2,48000,-16,experiment,1,odd,1,611547,608209,609334,2486,98000,609336,576981,2508,85868,613553,610341,614257,NA,12920,613552,NA,Sternberg Task,90,75498,96,yes,1024
93.81443299,93.81443299,784.9175258,784.9175258,black,experiment,legacy,legacy,legacy,0,uniform,1,undefined,1,left,96,96,96,0,0,96,96,0,0,96,96,96,NA,0,96,0,10/18/19 9:55,The main experiment item,yes,SternbergTask.osexp,C:\Users\Jeanette\Desktop\Jeanette Master's\AQM&ED,no,mono,no,18,no,white,no,yes,768,legacy,84,11,C:/Users/Jeanette/Desktop/Jeanette Master's/AQM&ED/jh-subject-1.csv,legacy,7 1 8 5 6 2,Kafkaesque Koffka,3.2.8,2,y,0,left,right,right,left,NA,NA,639,10411,12131,639,NA,NA,2,legacy,6,1024,2,48000,-16,experiment,1,odd,1,617618,614289,615405,2486,98000,615407,576981,2508,85868,619624,616413,620264,NA,12920,619623,NA,Sternberg Task,91,76137,97,yes,1024
93.87755102,93.87755102,783.6122449,783.6122449,black,experiment,legacy,legacy,legacy,0,uniform,1,undefined,1,left,97,97,97,0,0,97,97,0,0,97,97,97,NA,0,97,0,10/18/19 9:55,The main experiment item,yes,SternbergTask.osexp,C:\Users\Jeanette\Desktop\Jeanette Master's\AQM&ED,no,mono,no,18,no,white,no,yes,768,legacy,85,11,C:/Users/Jeanette/Desktop/Jeanette Master's/AQM&ED/jh-subject-1.csv,legacy,8 5 1 3 9,Kafkaesque Koffka,3.2.8,4,y,0,left,right,right,left,NA,NA,657,10411,12131,657,NA,NA,2,legacy,5,1024,2,48000,-16,experiment,1,odd,3,623608,620286,621396,2486,98000,621398,576981,2508,85868,625614,622403,626272,NA,12920,625614,NA,Sternberg Task,92,76794,98,yes,1024
93.93939394,93.93939394,782.5656566,782.5656566,black,experiment,legacy,legacy,legacy,0,uniform,1,undefined,1,left,98,98,98,0,0,98,98,0,0,98,98,98,NA,0,98,0,10/18/19 9:55,The main experiment item,yes,SternbergTask.osexp,C:\Users\Jeanette\Desktop\Jeanette Master's\AQM&ED,no,mono,no,18,no,white,no,yes,768,legacy,86,11,C:/Users/Jeanette/Desktop/Jeanette Master's/AQM&ED/jh-subject-1.csv,legacy,5 7 8 2 3 8,Kafkaesque Koffka,3.2.8,5,y,0,left,right,right,left,NA,NA,680,10411,12131,680,NA,NA,2,legacy,6,1024,2,48000,-16,experiment,1,odd,3,629633,626295,627420,2486,98000,627422,576981,2508,85868,631639,628427,632321,NA,12920,631639,NA,Sternberg Task,93,77474,99,yes,1024
94,94,781.09,781.09,black,experiment,legacy,legacy,legacy,0,uniform,1,undefined,1,left,99,99,99,0,0,99,99,0,0,99,99,99,NA,0,99,0,10/18/19 9:55,The main experiment item,yes,SternbergTask.osexp,C:\Users\Jeanette\Desktop\Jeanette Master's\AQM&ED,no,mono,no,18,no,white,no,yes,768,legacy,87,11,C:/Users/Jeanette/Desktop/Jeanette Master's/AQM&ED/jh-subject-1.csv,legacy,4 9 7 8 5 3,Kafkaesque Koffka,3.2.8,4,y,0,left,right,right,left,NA,NA,635,10411,12131,635,NA,NA,2,legacy,6,1024,2,48000,-16,experiment,1,odd,8,635669,632345,633456,2486,98000,633458,576981,2508,85868,637677,634464,638313,NA,12920,637677,NA,Sternberg Task,94,78109,100,yes,1024
94.05940594,94.05940594,783.0594059,783.0594059,black,experiment,legacy,legacy,legacy,0,uniform,1,undefined,1,left,100,100,100,0,0,100,100,0,0,100,100,100,NA,0,100,0,10/18/19 9:55,The main experiment item,yes,SternbergTask.osexp,C:\Users\Jeanette\Desktop\Jeanette Master's\AQM&ED,no,mono,no,18,no,white,no,yes,768,legacy,88,11,C:/Users/Jeanette/Desktop/Jeanette Master's/AQM&ED/jh-subject-1.csv,legacy,8 5 4 7 3 1,Kafkaesque Koffka,3.2.8,2,y,0,left,right,right,left,NA,NA,980,10411,12131,980,NA,NA,2,legacy,6,1024,2,48000,-16,experiment,1,odd,5,641669,638347,639457,2486,98000,639459,576981,2508,85868,643675,640464,644656,NA,12920,643675,NA,Sternberg Task,95,79089,101,yes,1024
94.11764706,94.11764706,786.7156863,786.7156863,black,experiment,legacy,legacy,legacy,0,uniform,1,undefined,1,right,101,101,101,0,0,101,101,0,0,101,101,101,NA,0,101,0,10/18/19 9:55,The main experiment item,yes,SternbergTask.osexp,C:\Users\Jeanette\Desktop\Jeanette Master's\AQM&ED,no,mono,no,18,no,white,no,yes,768,legacy,89,11,C:/Users/Jeanette/Desktop/Jeanette Master's/AQM&ED/jh-subject-1.csv,legacy,6 9 4 5 3 2,Kafkaesque Koffka,3.2.8,0,n,0,right,right,right,right,NA,NA,1156,10411,12131,1156,NA,NA,2,legacy,6,1024,2,48000,-16,experiment,1,odd,8,648022,644680,645808,2486,98000,645811,576981,2508,85868,650027,646817,651184,NA,12920,650027,NA,Sternberg Task,96,80245,102,yes,1024
94.17475728,94.17475728,788.3106796,788.3106796,black,experiment,legacy,legacy,legacy,0,uniform,1,undefined,1,right,102,102,102,0,0,102,102,0,0,102,102,102,NA,0,102,0,10/18/19 9:55,The main experiment item,yes,SternbergTask.osexp,C:\Users\Jeanette\Desktop\Jeanette Master's\AQM&ED,no,mono,no,18,no,white,no,yes,768,legacy,90,11,C:/Users/Jeanette/Desktop/Jeanette Master's/AQM&ED/jh-subject-1.csv,legacy,1 6 4,Kafkaesque Koffka,3.2.8,0,n,0,right,right,right,right,NA,NA,951,10411,12131,951,NA,NA,2,legacy,3,1024,2,48000,-16,experiment,1,odd,7,654563,651225,652349,2486,98000,652352,576981,2508,85868,656568,653357,657521,NA,12920,656568,NA,Sternberg Task,97,81196,103,yes,1024
94.23076923,94.23076923,792.3653846,792.3653846,black,experiment,legacy,legacy,legacy,0,uniform,1,undefined,1,right,103,103,103,0,0,103,103,0,0,103,103,103,NA,0,103,0,10/18/19 9:55,The main experiment item,yes,SternbergTask.osexp,C:\Users\Jeanette\Desktop\Jeanette Master's\AQM&ED,no,mono,no,18,no,white,no,yes,768,legacy,91,11,C:/Users/Jeanette/Desktop/Jeanette Master's/AQM&ED/jh-subject-1.csv,legacy,6 9 4 5 2,Kafkaesque Koffka,3.2.8,0,n,0,right,right,right,right,NA,NA,1210,10411,12131,1210,NA,NA,2,legacy,5,1024,2,48000,-16,experiment,1,odd,1,660870,657544,658657,2486,98000,658659,576981,2508,85868,662877,659664,664088,NA,12920,662876,NA,Sternberg Task,98,82406,104,yes,1024
94.28571429,94.28571429,793,793,black,experiment,legacy,legacy,legacy,0,uniform,1,undefined,1,right,104,104,104,0,0,104,104,0,0,104,104,104,NA,0,104,0,10/18/19 9:55,The main experiment item,yes,SternbergTask.osexp,C:\Users\Jeanette\Desktop\Jeanette Master's\AQM&ED,no,mono,no,18,no,white,no,yes,768,legacy,92,11,C:/Users/Jeanette/Desktop/Jeanette Master's/AQM&ED/jh-subject-1.csv,legacy,5 3 8 7 2 4,Kafkaesque Koffka,3.2.8,0,n,0,right,right,right,right,NA,NA,859,10411,12131,859,NA,NA,2,legacy,6,1024,2,48000,-16,experiment,1,odd,9,667440,664116,665226,2486,98000,665229,576981,2508,85868,669445,666235,670305,NA,12920,669445,NA,Sternberg Task,99,83265,105,yes,1024
94.33962264,94.33962264,794.4433962,794.4433962,black,experiment,legacy,legacy,legacy,0,uniform,1,undefined,1,left,105,105,105,0,0,105,105,0,0,105,105,105,NA,0,105,0,10/18/19 9:55,The main experiment item,yes,SternbergTask.osexp,C:\Users\Jeanette\Desktop\Jeanette Master's\AQM&ED,no,mono,no,18,no,white,no,yes,768,legacy,93,11,C:/Users/Jeanette/Desktop/Jeanette Master's/AQM&ED/jh-subject-1.csv,legacy,6 9 3 1,Kafkaesque Koffka,3.2.8,4,y,0,left,right,right,left,NA,NA,946,10411,12131,946,NA,NA,2,legacy,4,1024,2,48000,-16,experiment,1,odd,1,673664,670325,671452,2486,98000,671454,576981,2508,85868,675669,672459,676617,NA,12920,675669,NA,Sternberg Task,100,84211,106,yes,1024
94.39252336,94.39252336,795.3457944,795.3457944,black,experiment,legacy,legacy,legacy,0,uniform,1,undefined,1,left,106,106,106,0,0,106,106,0,0,106,106,106,NA,0,106,0,10/18/19 9:55,The main experiment item,yes,SternbergTask.osexp,C:\Users\Jeanette\Desktop\Jeanette Master's\AQM&ED,no,mono,no,18,no,white,no,yes,768,legacy,94,11,C:/Users/Jeanette/Desktop/Jeanette Master's/AQM&ED/jh-subject-1.csv,legacy,7 1 3,Kafkaesque Koffka,3.2.8,2,y,0,left,right,right,left,NA,NA,891,10411,12131,891,NA,NA,2,legacy,3,1024,2,48000,-16,experiment,1,odd,1,679974,676642,677762,2486,98000,677764,576981,2508,85868,681980,678769,682872,NA,12920,681980,NA,Sternberg Task,101,85102,107,yes,1024
94.44444444,94.44444444,795.3148148,795.3148148,black,experiment,legacy,legacy,legacy,0,uniform,1,undefined,1,left,107,107,107,0,0,107,107,0,0,107,107,107,NA,0,107,0,10/18/19 9:55,The main experiment item,yes,SternbergTask.osexp,C:\Users\Jeanette\Desktop\Jeanette Master's\AQM&ED,no,mono,no,18,no,white,no,yes,768,legacy,95,11,C:/Users/Jeanette/Desktop/Jeanette Master's/AQM&ED/jh-subject-1.csv,legacy,9 8 4,Kafkaesque Koffka,3.2.8,1,y,0,left,right,right,left,NA,NA,792,10411,12131,792,NA,NA,2,legacy,3,1024,2,48000,-16,experiment,1,odd,9,686217,682901,684003,2486,98000,684006,576981,2508,85868,688223,685012,689016,NA,12920,688223,NA,Sternberg Task,102,85894,108,yes,1024
94.49541284,94.49541284,797.0275229,797.0275229,black,experiment,legacy,legacy,legacy,0,uniform,1,undefined,1,left,108,108,108,0,0,108,108,0,0,108,108,108,NA,0,108,0,10/18/19 9:55,The main experiment item,yes,SternbergTask.osexp,C:\Users\Jeanette\Desktop\Jeanette Master's\AQM&ED,no,mono,no,18,no,white,no,yes,768,legacy,96,11,C:/Users/Jeanette/Desktop/Jeanette Master's/AQM&ED/jh-subject-1.csv,legacy,7 6,Kafkaesque Koffka,3.2.8,2,y,0,left,right,right,left,NA,NA,982,10411,12131,982,NA,NA,2,legacy,2,1024,2,48000,-16,experiment,1,odd,6,692372,689043,690163,2486,98000,690165,576981,2508,85868,694378,691167,695361,NA,12920,694377,NA,Sternberg Task,103,86876,109,yes,1024
94.54545455,94.54545455,799.5363636,799.5363636,black,experiment,legacy,legacy,legacy,0,uniform,1,undefined,1,left,109,109,109,0,0,109,109,0,0,109,109,109,NA,0,109,0,10/18/19 9:55,The main experiment item,yes,SternbergTask.osexp,C:\Users\Jeanette\Desktop\Jeanette Master's\AQM&ED,no,mono,no,18,no,white,no,yes,768,legacy,97,11,C:/Users/Jeanette/Desktop/Jeanette Master's/AQM&ED/jh-subject-1.csv,legacy,9 5 8 1,Kafkaesque Koffka,3.2.8,2,y,0,left,right,right,left,NA,NA,1073,10411,12131,1073,NA,NA,2,legacy,4,1024,2,48000,-16,experiment,1,odd,5,698705,695386,696492,2486,98000,696494,576981,2508,85868,700710,697500,701785,NA,12920,700710,NA,Sternberg Task,104,87949,110,yes,1024
94.59459459,94.59459459,800.5585586,800.5585586,black,experiment,legacy,legacy,legacy,0,uniform,1,undefined,1,right,110,110,110,0,0,110,110,0,0,110,110,110,NA,0,110,0,10/18/19 9:55,The main experiment item,yes,SternbergTask.osexp,C:\Users\Jeanette\Desktop\Jeanette Master's\AQM&ED,no,mono,no,18,no,white,no,yes,768,legacy,98,11,C:/Users/Jeanette/Desktop/Jeanette Master's/AQM&ED/jh-subject-1.csv,legacy,6 7 5 9,Kafkaesque Koffka,3.2.8,0,n,0,right,right,right,right,NA,NA,913,10411,12131,913,NA,NA,2,legacy,4,1024,2,48000,-16,experiment,1,odd,2,705144,701811,702932,2486,98000,702934,576981,2508,85868,707150,703939,708065,NA,12920,707150,NA,Sternberg Task,105,88862,111,yes,1024
94.64285714,94.64285714,801.2767857,801.2767857,black,experiment,legacy,legacy,legacy,0,uniform,1,undefined,1,left,111,111,111,0,0,111,111,0,0,111,111,111,NA,0,111,0,10/18/19 9:55,The main experiment item,yes,SternbergTask.osexp,C:\Users\Jeanette\Desktop\Jeanette Master's\AQM&ED,no,mono,no,18,no,white,no,yes,768,legacy,99,11,C:/Users/Jeanette/Desktop/Jeanette Master's/AQM&ED/jh-subject-1.csv,legacy,4 6 2 5 1,Kafkaesque Koffka,3.2.8,5,y,0,left,right,right,left,NA,NA,881,10411,12131,881,NA,NA,2,legacy,5,1024,2,48000,-16,experiment,1,odd,1,711415,708087,709204,2486,98000,709206,576981,2508,85868,713422,710211,714305,NA,12920,713421,NA,Sternberg Task,106,89743,112,yes,1024
94.69026549,94.69026549,803.3539823,803.3539823,black,experiment,legacy,legacy,legacy,0,uniform,1,undefined,1,right,112,112,112,0,0,112,112,0,0,112,112,112,NA,0,112,0,10/18/19 9:55,The main experiment item,yes,SternbergTask.osexp,C:\Users\Jeanette\Desktop\Jeanette Master's\AQM&ED,no,mono,no,18,no,white,no,yes,768,legacy,100,11,C:/Users/Jeanette/Desktop/Jeanette Master's/AQM&ED/jh-subject-1.csv,legacy,6 8 4,Kafkaesque Koffka,3.2.8,0,n,0,right,right,right,right,NA,NA,1036,10411,12131,1036,NA,NA,2,legacy,3,1024,2,48000,-16,experiment,1,odd,1,717662,714333,715446,2486,98000,715448,576981,2508,85868,719667,716456,720705,NA,12920,719667,NA,Sternberg Task,107,90779,113,yes,1024
94.73684211,94.73684211,805.1666667,805.1666667,black,experiment,legacy,legacy,legacy,0,uniform,1,undefined,1,right,113,113,113,0,0,113,113,0,0,113,113,113,NA,0,113,0,10/18/19 9:55,The main experiment item,yes,SternbergTask.osexp,C:\Users\Jeanette\Desktop\Jeanette Master's\AQM&ED,no,mono,no,18,no,white,no,yes,768,legacy,101,11,C:/Users/Jeanette/Desktop/Jeanette Master's/AQM&ED/jh-subject-1.csv,legacy,6 3 1 7 9 8,Kafkaesque Koffka,3.2.8,0,n,0,right,right,right,right,NA,NA,1010,10411,12131,1010,NA,NA,2,legacy,6,1024,2,48000,-16,experiment,1,odd,4,724079,720741,721865,2486,98000,721868,576981,2508,85868,726085,722874,727097,NA,12920,726085,NA,Sternberg Task,108,91789,114,yes,1024
94.7826087,94.7826087,805.2608696,805.2608696,black,experiment,legacy,legacy,legacy,0,uniform,1,undefined,1,left,114,114,114,0,0,114,114,0,0,114,114,114,NA,0,114,0,10/18/19 9:55,The main experiment item,yes,SternbergTask.osexp,C:\Users\Jeanette\Desktop\Jeanette Master's\AQM&ED,no,mono,no,18,no,white,no,yes,768,legacy,102,11,C:/Users/Jeanette/Desktop/Jeanette Master's/AQM&ED/jh-subject-1.csv,legacy,3 4 9 6 2 9,Kafkaesque Koffka,3.2.8,5,y,0,left,right,right,left,NA,NA,816,10411,12131,816,NA,NA,2,legacy,6,1024,2,48000,-16,experiment,1,odd,2,730466,727128,728253,2486,98000,728255,576981,2508,85868,732472,729260,733289,NA,12920,732472,NA,Sternberg Task,109,92605,115,yes,1024
94.82758621,94.82758621,806.4827586,806.4827586,black,experiment,legacy,legacy,legacy,0,uniform,1,undefined,1,right,115,115,115,0,0,115,115,0,0,115,115,115,NA,0,115,0,10/18/19 9:55,The main experiment item,yes,SternbergTask.osexp,C:\Users\Jeanette\Desktop\Jeanette Master's\AQM&ED,no,mono,no,18,no,white,no,yes,768,legacy,103,11,C:/Users/Jeanette/Desktop/Jeanette Master's/AQM&ED/jh-subject-1.csv,legacy,3 4 2,Kafkaesque Koffka,3.2.8,0,n,0,right,right,right,right,NA,NA,947,10411,12131,947,NA,NA,2,legacy,3,1024,2,48000,-16,experiment,1,odd,5,736647,733315,734433,2486,98000,734436,576981,2508,85868,738653,735441,739601,NA,12920,738652,NA,Sternberg Task,110,93552,116,yes,1024
94.87179487,94.87179487,810.974359,810.974359,black,experiment,legacy,legacy,legacy,0,uniform,1,undefined,1,right,116,116,116,0,0,116,116,0,0,116,116,116,NA,0,116,0,10/18/19 9:55,The main experiment item,yes,SternbergTask.osexp,C:\Users\Jeanette\Desktop\Jeanette Master's\AQM&ED,no,mono,no,18,no,white,no,yes,768,legacy,104,11,C:/Users/Jeanette/Desktop/Jeanette Master's/AQM&ED/jh-subject-1.csv,legacy,5,Kafkaesque Koffka,3.2.8,0,n,0,right,right,right,right,NA,NA,1332,10411,12131,1332,NA,NA,2,legacy,1,1024,2,48000,-16,experiment,1,odd,8,742949,739628,740737,2486,98000,740739,576981,2508,85868,744955,741744,746288,NA,12920,744955,NA,Sternberg Task,111,94884,117,yes,1024
94.91525424,94.91525424,811.3898305,811.3898305,black,experiment,legacy,legacy,legacy,0,uniform,1,undefined,1,left,117,117,117,0,0,117,117,0,0,117,117,117,NA,0,117,0,10/18/19 9:55,The main experiment item,yes,SternbergTask.osexp,C:\Users\Jeanette\Desktop\Jeanette Master's\AQM&ED,no,mono,no,18,no,white,no,yes,768,legacy,105,11,C:/Users/Jeanette/Desktop/Jeanette Master's/AQM&ED/jh-subject-1.csv,legacy,8 1 6,Kafkaesque Koffka,3.2.8,3,y,0,left,right,right,left,NA,NA,860,10411,12131,860,NA,NA,2,legacy,3,1024,2,48000,-16,experiment,1,odd,6,749606,746308,747393,2486,98000,747395,576981,2508,85868,751612,748400,752473,NA,12920,751611,NA,Sternberg Task,112,95744,118,yes,1024
94.95798319,94.95798319,811.8403361,811.8403361,black,experiment,legacy,legacy,legacy,0,uniform,1,undefined,1,left,118,118,118,0,0,118,118,0,0,118,118,118,NA,0,118,0,10/18/19 9:55,The main experiment item,yes,SternbergTask.osexp,C:\Users\Jeanette\Desktop\Jeanette Master's\AQM&ED,no,mono,no,18,no,white,no,yes,768,legacy,106,11,C:/Users/Jeanette/Desktop/Jeanette Master's/AQM&ED/jh-subject-1.csv,legacy,5 2 9 6 1 7,Kafkaesque Koffka,3.2.8,3,y,0,left,right,right,left,NA,NA,865,10411,12131,865,NA,NA,2,legacy,6,1024,2,48000,-16,experiment,1,odd,9,755848,752508,753633,2486,98000,753635,576981,2508,85868,757854,754642,758721,NA,12920,757854,NA,Sternberg Task,113,96609,119,yes,1024
95,95,811.6583333,811.6583333,black,experiment,legacy,legacy,legacy,0,uniform,1,undefined,1,right,119,119,119,0,0,119,119,0,0,119,119,119,NA,0,119,0,10/18/19 9:55,The main experiment item,yes,SternbergTask.osexp,C:\Users\Jeanette\Desktop\Jeanette Master's\AQM&ED,no,mono,no,18,no,white,no,yes,768,legacy,107,11,C:/Users/Jeanette/Desktop/Jeanette Master's/AQM&ED/jh-subject-1.csv,legacy,5 2,Kafkaesque Koffka,3.2.8,0,n,0,right,right,right,right,NA,NA,790,10411,12131,790,NA,NA,2,legacy,2,1024,2,48000,-16,experiment,1,odd,7,762060,758743,759847,2486,98000,759850,576981,2508,85868,764065,760855,764857,NA,12920,764065,NA,Sternberg Task,114,97399,120,yes,1024
95.04132231,95.04132231,812.1735537,812.1735537,black,experiment,legacy,legacy,legacy,0,uniform,1,undefined,1,right,120,120,120,0,0,120,120,0,0,120,120,120,NA,0,120,0,10/18/19 9:55,The main experiment item,yes,SternbergTask.osexp,C:\Users\Jeanette\Desktop\Jeanette Master's\AQM&ED,no,mono,no,18,no,white,no,yes,768,legacy,108,11,C:/Users/Jeanette/Desktop/Jeanette Master's/AQM&ED/jh-subject-1.csv,legacy,4 1,Kafkaesque Koffka,3.2.8,0,n,0,right,right,right,right,NA,NA,874,10411,12131,874,NA,NA,2,legacy,2,1024,2,48000,-16,experiment,1,odd,6,768199,764889,765984,2486,98000,765987,576981,2508,85868,770205,766993,771081,NA,12920,770205,NA,Sternberg Task,115,98273,121,yes,1024
95.08196721,95.08196721,813.4754098,813.4754098,black,experiment,legacy,legacy,legacy,0,uniform,1,undefined,1,right,121,121,121,0,0,121,121,0,0,121,121,121,NA,0,121,0,10/18/19 9:55,The main experiment item,yes,SternbergTask.osexp,C:\Users\Jeanette\Desktop\Jeanette Master's\AQM&ED,no,mono,no,18,no,white,no,yes,768,legacy,109,11,C:/Users/Jeanette/Desktop/Jeanette Master's/AQM&ED/jh-subject-1.csv,legacy,9,Kafkaesque Koffka,3.2.8,0,n,0,right,right,right,right,NA,NA,971,10411,12131,971,NA,NA,2,legacy,1,1024,2,48000,-16,experiment,1,odd,6,774439,771106,772227,2486,98000,772229,576981,2508,85868,776444,773234,777417,NA,12920,776444,NA,Sternberg Task,116,99244,122,yes,1024
95.12195122,95.12195122,814.0081301,814.0081301,black,experiment,legacy,legacy,legacy,0,uniform,1,undefined,1,right,122,122,122,0,0,122,122,0,0,122,122,122,NA,0,122,0,10/18/19 9:55,The main experiment item,yes,SternbergTask.osexp,C:\Users\Jeanette\Desktop\Jeanette Master's\AQM&ED,no,mono,no,18,no,white,no,yes,768,legacy,110,11,C:/Users/Jeanette/Desktop/Jeanette Master's/AQM&ED/jh-subject-1.csv,legacy,6 2 9 3 8 4,Kafkaesque Koffka,3.2.8,0,n,0,right,right,right,right,NA,NA,879,10411,12131,879,NA,NA,2,legacy,6,1024,2,48000,-16,experiment,1,odd,1,780754,777436,778540,2486,98000,778543,576981,2508,85868,782760,779548,783640,NA,12920,782759,NA,Sternberg Task,117,100123,123,yes,1024
95.16129032,95.16129032,814.8951613,814.8951613,black,experiment,legacy,legacy,legacy,0,uniform,1,undefined,1,right,123,123,123,0,0,123,123,0,0,123,123,123,NA,0,123,0,10/18/19 9:55,The main experiment item,yes,SternbergTask.osexp,C:\Users\Jeanette\Desktop\Jeanette Master's\AQM&ED,no,mono,no,18,no,white,no,yes,768,legacy,111,11,C:/Users/Jeanette/Desktop/Jeanette Master's/AQM&ED/jh-subject-1.csv,legacy,6 9 7 3 8 2,Kafkaesque Koffka,3.2.8,0,n,0,right,right,right,right,NA,NA,924,10411,12131,924,NA,NA,2,legacy,6,1024,2,48000,-16,experiment,1,odd,5,786989,783666,784776,2486,98000,784778,576981,2508,85868,788995,785783,789920,NA,12920,788995,NA,Sternberg Task,118,101047,124,yes,1024
95.2,95.2,817,817,black,experiment,legacy,legacy,legacy,0,uniform,1,undefined,1,left,124,124,124,0,0,124,124,0,0,124,124,124,NA,0,124,0,10/18/19 9:55,The main experiment item,yes,SternbergTask.osexp,C:\Users\Jeanette\Desktop\Jeanette Master's\AQM&ED,no,mono,no,18,no,white,no,yes,768,legacy,112,11,C:/Users/Jeanette/Desktop/Jeanette Master's/AQM&ED/jh-subject-1.csv,legacy,4 7 6 8 2 3,Kafkaesque Koffka,3.2.8,6,y,0,left,right,right,left,NA,NA,1078,10411,12131,1078,NA,NA,2,legacy,6,1024,2,48000,-16,experiment,1,odd,3,793286,789958,791073,2486,98000,791076,576981,2508,85868,795289,792081,796369,NA,12920,795289,NA,Sternberg Task,119,102125,125,yes,1024
95.23809524,95.23809524,817.8015873,817.8015873,black,experiment,legacy,legacy,legacy,0,uniform,1,undefined,1,right,125,125,125,0,0,125,125,0,0,125,125,125,NA,0,125,0,10/18/19 9:55,The main experiment item,yes,SternbergTask.osexp,C:\Users\Jeanette\Desktop\Jeanette Master's\AQM&ED,no,mono,no,18,no,white,no,yes,768,legacy,113,11,C:/Users/Jeanette/Desktop/Jeanette Master's/AQM&ED/jh-subject-1.csv,legacy,2 8 6 3 1,Kafkaesque Koffka,3.2.8,0,n,0,right,right,right,right,NA,NA,918,10411,12131,918,NA,NA,2,legacy,5,1024,2,48000,-16,experiment,1,odd,7,799707,796400,797494,2486,98000,797496,576981,2508,85868,801713,798502,802633,NA,12920,801713,NA,Sternberg Task,120,103043,126,yes,1024
95.27559055,95.27559055,818.4015748,818.4015748,black,experiment,legacy,legacy,legacy,0,uniform,1,undefined,1,right,126,126,126,0,0,126,126,0,0,126,126,126,NA,0,126,0,10/18/19 9:55,The main experiment item,yes,SternbergTask.osexp,C:\Users\Jeanette\Desktop\Jeanette Master's\AQM&ED,no,mono,no,18,no,white,no,yes,768,legacy,114,11,C:/Users/Jeanette/Desktop/Jeanette Master's/AQM&ED/jh-subject-1.csv,legacy,7 9,Kafkaesque Koffka,3.2.8,0,n,0,right,right,right,right,NA,NA,894,10411,12131,894,NA,NA,2,legacy,2,1024,2,48000,-16,experiment,1,odd,1,805979,802659,803766,2486,98000,803769,576981,2508,85868,807986,804774,808881,NA,12920,807986,NA,Sternberg Task,121,103937,127,yes,1024
95.3125,95.3125,818.671875,818.671875,black,experiment,legacy,legacy,legacy,0,uniform,1,undefined,1,left,127,127,127,0,0,127,127,0,0,127,127,127,NA,0,127,0,10/18/19 9:55,The main experiment item,yes,SternbergTask.osexp,C:\Users\Jeanette\Desktop\Jeanette Master's\AQM&ED,no,mono,no,18,no,white,no,yes,768,legacy,115,11,C:/Users/Jeanette/Desktop/Jeanette Master's/AQM&ED/jh-subject-1.csv,legacy,6 8 9 3 4 9,Kafkaesque Koffka,3.2.8,5,y,0,left,right,right,left,NA,NA,853,10411,12131,853,NA,NA,2,legacy,6,1024,2,48000,-16,experiment,1,odd,4,812220,808907,810007,2486,98000,810009,576981,2508,85868,814226,811014,815081,NA,12920,814226,NA,Sternberg Task,122,104790,128,yes,1024
95.34883721,95.34883721,819.3565891,819.3565891,black,experiment,legacy,legacy,legacy,0,uniform,1,undefined,1,right,128,128,128,0,0,128,128,0,0,128,128,128,NA,0,128,0,10/18/19 9:55,The main experiment item,yes,SternbergTask.osexp,C:\Users\Jeanette\Desktop\Jeanette Master's\AQM&ED,no,mono,no,18,no,white,no,yes,768,legacy,116,11,C:/Users/Jeanette/Desktop/Jeanette Master's/AQM&ED/jh-subject-1.csv,legacy,5 7 3,Kafkaesque Koffka,3.2.8,0,n,0,right,right,right,right,NA,NA,907,10411,12131,907,NA,NA,2,legacy,3,1024,2,48000,-16,experiment,1,odd,9,818429,815107,816216,2486,98000,816218,576981,2508,85868,820436,817224,821345,NA,12920,820435,NA,Sternberg Task,123,105697,129,yes,1024
95.38461538,95.38461538,819.7230769,819.7230769,black,experiment,legacy,legacy,legacy,0,uniform,1,undefined,1,left,129,129,129,0,0,129,129,0,0,129,129,129,NA,0,129,0,10/18/19 9:55,The main experiment item,yes,SternbergTask.osexp,C:\Users\Jeanette\Desktop\Jeanette Master's\AQM&ED,no,mono,no,18,no,white,no,yes,768,legacy,117,11,C:/Users/Jeanette/Desktop/Jeanette Master's/AQM&ED/jh-subject-1.csv,legacy,7,Kafkaesque Koffka,3.2.8,1,y,0,left,right,right,left,NA,NA,867,10411,12131,867,NA,NA,2,legacy,1,1024,2,48000,-16,experiment,1,odd,7,824678,821366,822464,2486,98000,822466,576981,2508,85868,826684,823471,827553,NA,12920,826684,NA,Sternberg Task,124,106564,130,yes,1024
95.41984733,95.41984733,819.8167939,819.8167939,black,experiment,legacy,legacy,legacy,0,uniform,1,undefined,1,right,130,130,130,0,0,130,130,0,0,130,130,130,NA,0,130,0,10/18/19 9:55,The main experiment item,yes,SternbergTask.osexp,C:\Users\Jeanette\Desktop\Jeanette Master's\AQM&ED,no,mono,no,18,no,white,no,yes,768,legacy,118,11,C:/Users/Jeanette/Desktop/Jeanette Master's/AQM&ED/jh-subject-1.csv,legacy,7 8 6 1,Kafkaesque Koffka,3.2.8,0,n,0,right,right,right,right,NA,NA,832,10411,12131,832,NA,NA,2,legacy,4,1024,2,48000,-16,experiment,1,odd,3,830890,827579,828677,2486,98000,828679,576981,2508,85868,832896,829684,833729,NA,12920,832896,NA,Sternberg Task,125,107396,131,yes,1024
95.45454545,95.45454545,820.4924242,820.4924242,black,experiment,legacy,legacy,legacy,0,uniform,1,undefined,1,left,131,131,131,0,0,131,131,0,0,131,131,131,NA,0,131,0,10/18/19 9:55,The main experiment item,yes,SternbergTask.osexp,C:\Users\Jeanette\Desktop\Jeanette Master's\AQM&ED,no,mono,no,18,no,white,no,yes,768,legacy,119,11,C:/Users/Jeanette/Desktop/Jeanette Master's/AQM&ED/jh-subject-1.csv,legacy,8 9 5 7 1 6,Kafkaesque Koffka,3.2.8,4,y,0,left,right,right,left,NA,NA,909,10411,12131,909,NA,NA,2,legacy,6,1024,2,48000,-16,experiment,1,odd,7,837094,833768,834880,2486,98000,834883,576981,2508,85868,839099,835888,840009,NA,12920,839099,NA,Sternberg Task,126,108305,132,yes,1024
95.4887218,95.4887218,821.9097744,821.9097744,black,experiment,legacy,legacy,legacy,0,uniform,1,undefined,1,right,132,132,132,0,0,132,132,0,0,132,132,132,NA,0,132,0,10/18/19 9:55,The main experiment item,yes,SternbergTask.osexp,C:\Users\Jeanette\Desktop\Jeanette Master's\AQM&ED,no,mono,no,18,no,white,no,yes,768,legacy,120,11,C:/Users/Jeanette/Desktop/Jeanette Master's/AQM&ED/jh-subject-1.csv,legacy,2 7 5,Kafkaesque Koffka,3.2.8,0,n,0,right,right,right,right,NA,NA,1009,10411,12131,1009,NA,NA,2,legacy,3,1024,2,48000,-16,experiment,1,odd,8,843359,840035,841145,2486,98000,841148,576981,2508,85868,845366,842154,846376,NA,12920,845366,NA,Sternberg Task,127,109314,133,yes,1024
95.52238806,95.52238806,822.9776119,822.9776119,black,experiment,legacy,legacy,legacy,0,uniform,1,undefined,1,left,133,133,133,0,0,133,133,0,0,133,133,133,NA,0,133,0,10/18/19 9:55,The main experiment item,yes,SternbergTask.osexp,C:\Users\Jeanette\Desktop\Jeanette Master's\AQM&ED,no,mono,no,18,no,white,no,yes,768,legacy,121,11,C:/Users/Jeanette/Desktop/Jeanette Master's/AQM&ED/jh-subject-1.csv,legacy,2 3,Kafkaesque Koffka,3.2.8,1,y,0,left,right,right,left,NA,NA,965,10411,12131,965,NA,NA,2,legacy,2,1024,2,48000,-16,experiment,1,odd,2,849707,846402,847494,2486,98000,847497,576981,2508,85868,851714,848501,852681,NA,12920,851714,NA,Sternberg Task,128,110279,134,yes,1024
95.55555556,95.55555556,823.3111111,823.3111111,black,experiment,legacy,legacy,legacy,0,uniform,1,undefined,1,left,134,134,134,0,0,134,134,0,0,134,134,134,NA,0,134,0,10/18/19 9:55,The main experiment item,yes,SternbergTask.osexp,C:\Users\Jeanette\Desktop\Jeanette Master's\AQM&ED,no,mono,no,18,no,white,no,yes,768,legacy,122,11,C:/Users/Jeanette/Desktop/Jeanette Master's/AQM&ED/jh-subject-1.csv,legacy,9 1 6 7 8,Kafkaesque Koffka,3.2.8,1,y,0,left,right,right,left,NA,NA,868,10411,12131,868,NA,NA,2,legacy,5,1024,2,48000,-16,experiment,1,odd,9,856037,852703,853824,2486,98000,853826,576981,2508,85868,858043,854831,858912,NA,12920,858043,NA,Sternberg Task,129,111147,135,yes,1024
95.58823529,95.58823529,824.1617647,824.1617647,black,experiment,legacy,legacy,legacy,0,uniform,1,undefined,1,right,135,135,135,0,0,135,135,0,0,135,135,135,NA,0,135,0,10/18/19 9:55,The main experiment item,yes,SternbergTask.osexp,C:\Users\Jeanette\Desktop\Jeanette Master's\AQM&ED,no,mono,no,18,no,white,no,yes,768,legacy,123,11,C:/Users/Jeanette/Desktop/Jeanette Master's/AQM&ED/jh-subject-1.csv,legacy,1 7 8 3 9,Kafkaesque Koffka,3.2.8,0,n,0,right,right,right,right,NA,NA,939,10411,12131,939,NA,NA,2,legacy,5,1024,2,48000,-16,experiment,1,odd,2,862279,858941,860065,2486,98000,860067,576981,2508,85868,864285,861074,865225,NA,12920,864285,NA,Sternberg Task,130,112086,136,yes,1024
95.62043796,95.62043796,824.8686131,824.8686131,black,experiment,legacy,legacy,legacy,0,uniform,1,undefined,1,left,136,136,136,0,0,136,136,0,0,136,136,136,NA,0,136,0,10/18/19 9:55,The main experiment item,yes,SternbergTask.osexp,C:\Users\Jeanette\Desktop\Jeanette Master's\AQM&ED,no,mono,no,18,no,white,no,yes,768,legacy,124,11,C:/Users/Jeanette/Desktop/Jeanette Master's/AQM&ED/jh-subject-1.csv,legacy,1 4 9 3 2 5,Kafkaesque Koffka,3.2.8,3,y,0,left,right,right,left,NA,NA,921,10411,12131,921,NA,NA,2,legacy,6,1024,2,48000,-16,experiment,1,odd,9,868584,865246,866370,2486,98000,866373,576981,2508,85868,870590,867378,871513,NA,12920,870589,NA,Sternberg Task,131,113007,137,yes,1024
95.65217391,95.65217391,825.8768116,825.8768116,black,experiment,legacy,legacy,legacy,0,uniform,1,undefined,1,left,137,137,137,0,0,137,137,0,0,137,137,137,NA,0,137,0,10/18/19 9:55,The main experiment item,yes,SternbergTask.osexp,C:\Users\Jeanette\Desktop\Jeanette Master's\AQM&ED,no,mono,no,18,no,white,no,yes,768,legacy,125,11,C:/Users/Jeanette/Desktop/Jeanette Master's/AQM&ED/jh-subject-1.csv,legacy,7 8 4 6 9 5,Kafkaesque Koffka,3.2.8,4,y,0,left,right,right,left,NA,NA,964,10411,12131,964,NA,NA,2,legacy,6,1024,2,48000,-16,experiment,1,odd,6,874847,871538,872634,2486,98000,872636,576981,2508,85868,876852,873641,877817,NA,12920,876852,NA,Sternberg Task,132,113971,138,yes,1024