acc,accuracy,average_response_time,avg_rt,background,block,canvas_backend,clock_backend,color_backend,compensation,coordinates,correct,correct_Instruction1,correct_keyboard_response,correct_response,count_ISI,count_Instruction1,count_Instructions2,count_correctFeedback,count_expSequence,count_experiment,count_experimentLoop,count_fixation,count_incorrectFeedback,count_keyboard_response,count_logger,count_memorySet,count_practiceloop,count_probe,count_thankYou,datetime,description,disable_garbage_collection,experiment_file,experiment_path,font_bold,font_family,font_italic,font_size,font_underline,foreground,form_clicks,fullscreen,height,keyboard_backend,live_row,live_row_practiceloop,logfile,mouse_backend,numberSet,opensesame_codename,opensesame_version,posInSet,present,repeat_cycle,response,response_Instruction1,response_Instructions2,response_keyboard_response,response_thankYou,response_time,response_time_Instruction1,response_time_Instructions2,response_time_keyboard_response,response_time_thankYou,round_decimals,sampler_backend,setSize,sound_buf_size,sound_channels,sound_freq,sound_sample_size,start,subject_nr,subject_parity,target,time_ISI,time_Instruction1,time_Instructions2,time_correctFeedback,time_expSequence,time_experiment,time_experimentLoop,time_fixation,time_incorrectFeedback,time_keyboard_response,time_logger,time_memorySet,time_practiceloop,time_probe,time_thankYou,title,total_correct,total_response_time,total_responses,uniform_coordinates,width
100,100,710,710,black,practice,legacy,legacy,legacy,0,uniform,1,undefined,1,right,0,0,0,0,0,0,0,0,0,0,0,0,0,0,0,Sun Oct 20 21:00:39 2019,The main experiment item,yes,SternnbergTask.osexp,/Users/kaylicolpitts/Desktop/adv quant/lab 3,no,mono,no,18,no,white,no,no,768,legacy,0,0,/Users/kaylicolpitts/Desktop/adv quant/lab 3/KC-subject-1.csv,legacy,5,Kafkaesque Koffka,3.2.8,0,n,0,right,left,NA,right,NA,710,9273,NA,710,NA,2,legacy,1,1024,2,48000,-16,experiment,1,odd,3,14268,2498,NA,NA,11955,2377,NA,11992,NA,16306,17018,13032,11780,16306,NA,Sternberg Task,1,710,1,yes,1024
100,100,749,749,black,practice,legacy,legacy,legacy,0,uniform,1,undefined,1,right,1,0,0,1,1,0,0,1,1,1,1,1,0,1,0,Sun Oct 20 21:00:39 2019,The main experiment item,yes,SternnbergTask.osexp,/Users/kaylicolpitts/Desktop/adv quant/lab 3,no,mono,no,18,no,white,no,no,768,legacy,1,1,/Users/kaylicolpitts/Desktop/adv quant/lab 3/KC-subject-1.csv,legacy,3 1 9 4,Kafkaesque Koffka,3.2.8,0,n,0,right,left,NA,right,NA,788,9273,NA,788,NA,2,legacy,4,1024,2,48000,-16,experiment,1,odd,6,20704,2498,NA,17238,18390,2377,NA,18431,NA,22738,23528,19469,11780,22738,NA,Sternberg Task,2,1498,2,yes,1024
100,100,781.3333333,781.3333333,black,practice,legacy,legacy,legacy,0,uniform,1,undefined,1,left,2,0,0,2,2,0,0,2,2,2,2,2,0,2,0,Sun Oct 20 21:00:39 2019,The main experiment item,yes,SternnbergTask.osexp,/Users/kaylicolpitts/Desktop/adv quant/lab 3,no,mono,no,18,no,white,no,no,768,legacy,2,2,/Users/kaylicolpitts/Desktop/adv quant/lab 3/KC-subject-1.csv,legacy,6,Kafkaesque Koffka,3.2.8,1,y,0,left,left,NA,left,NA,846,9273,NA,846,NA,2,legacy,1,1024,2,48000,-16,experiment,1,odd,6,26984,2498,NA,23565,24682,2377,NA,24715,NA,29019,29867,25749,11780,29019,NA,Sternberg Task,3,2344,3,yes,1024
100,100,762.5,762.5,black,practice,legacy,legacy,legacy,0,uniform,1,undefined,1,left,3,0,0,3,3,0,0,3,3,3,3,3,0,3,0,Sun Oct 20 21:00:39 2019,The main experiment item,yes,SternnbergTask.osexp,/Users/kaylicolpitts/Desktop/adv quant/lab 3,no,mono,no,18,no,white,no,no,768,legacy,3,3,/Users/kaylicolpitts/Desktop/adv quant/lab 3/KC-subject-1.csv,legacy,4 3 1 7 9 8,Kafkaesque Koffka,3.2.8,1,y,0,left,left,NA,left,NA,706,9273,NA,706,NA,2,legacy,6,1024,2,48000,-16,experiment,1,odd,4,33371,2498,NA,29909,31058,2377,NA,31096,NA,35407,36115,32134,11780,35406,NA,Sternberg Task,4,3050,4,yes,1024
100,100,775.6,775.6,black,practice,legacy,legacy,legacy,0,uniform,1,undefined,1,right,4,0,0,4,4,0,0,4,4,4,4,4,0,4,0,Sun Oct 20 21:00:39 2019,The main experiment item,yes,SternnbergTask.osexp,/Users/kaylicolpitts/Desktop/adv quant/lab 3,no,mono,no,18,no,white,no,no,768,legacy,4,4,/Users/kaylicolpitts/Desktop/adv quant/lab 3/KC-subject-1.csv,legacy,4 1 5,Kafkaesque Koffka,3.2.8,0,n,0,right,left,NA,right,NA,828,9273,NA,828,NA,2,legacy,3,1024,2,48000,-16,experiment,1,odd,2,39578,2498,NA,36155,37274,2377,NA,37308,NA,41612,42442,38343,11780,41612,NA,Sternberg Task,5,3878,5,yes,1024
100,100,746.8333333,746.8333333,black,practice,legacy,legacy,legacy,0,uniform,1,undefined,1,right,5,0,0,5,5,0,0,5,5,5,5,5,0,5,0,Sun Oct 20 21:00:39 2019,The main experiment item,yes,SternnbergTask.osexp,/Users/kaylicolpitts/Desktop/adv quant/lab 3,no,mono,no,18,no,white,no,no,768,legacy,5,5,/Users/kaylicolpitts/Desktop/adv quant/lab 3/KC-subject-1.csv,legacy,9 6 7 4 5,Kafkaesque Koffka,3.2.8,0,n,0,right,left,NA,right,NA,603,9273,NA,603,NA,2,legacy,5,1024,2,48000,-16,experiment,1,odd,3,45960,2498,NA,42485,43655,2377,NA,43690,NA,47994,48599,44724,11780,47994,NA,Sternberg Task,6,4481,6,yes,1024
85.71428571,85.71428571,755.2857143,755.2857143,black,practice,legacy,legacy,legacy,0,uniform,0,undefined,0,left,6,0,0,6,6,0,0,6,6,6,6,6,0,6,0,Sun Oct 20 21:00:39 2019,The main experiment item,yes,SternnbergTask.osexp,/Users/kaylicolpitts/Desktop/adv quant/lab 3,no,mono,no,18,no,white,no,no,768,legacy,6,6,/Users/kaylicolpitts/Desktop/adv quant/lab 3/KC-subject-1.csv,legacy,2 9 4,Kafkaesque Koffka,3.2.8,3,y,0,right,left,NA,right,NA,806,9273,NA,806,NA,2,legacy,3,1024,2,48000,-16,experiment,1,odd,4,52107,2498,NA,48642,49762,2377,NA,49796,NA,54141,54948,50830,11780,54141,NA,Sternberg Task,6,5287,7,yes,1024
87.5,87.5,749.125,749.125,black,practice,legacy,legacy,legacy,0,uniform,1,undefined,1,left,7,0,0,7,7,0,0,7,7,7,7,7,0,7,0,Sun Oct 20 21:00:39 2019,The main experiment item,yes,SternnbergTask.osexp,/Users/kaylicolpitts/Desktop/adv quant/lab 3,no,mono,no,18,no,white,no,no,768,legacy,7,7,/Users/kaylicolpitts/Desktop/adv quant/lab 3/KC-subject-1.csv,legacy,1 5 2 9,Kafkaesque Koffka,3.2.8,2,y,0,left,left,NA,left,NA,706,9273,NA,706,NA,2,legacy,4,1024,2,48000,-16,experiment,1,odd,5,58448,2498,NA,48642,56142,2377,NA,56176,54987,60485,61192,57213,11780,60485,NA,Sternberg Task,7,5993,8,yes,1024
88.88888889,88.88888889,787.3333333,787.3333333,black,practice,legacy,legacy,legacy,0,uniform,1,undefined,1,right,8,0,0,8,8,0,0,8,8,8,8,8,0,8,0,Sun Oct 20 21:00:39 2019,The main experiment item,yes,SternnbergTask.osexp,/Users/kaylicolpitts/Desktop/adv quant/lab 3,no,mono,no,18,no,white,no,no,768,legacy,8,8,/Users/kaylicolpitts/Desktop/adv quant/lab 3/KC-subject-1.csv,legacy,5 7 8 4 1 2,Kafkaesque Koffka,3.2.8,0,n,0,right,left,NA,right,NA,1093,9273,NA,1093,NA,2,legacy,6,1024,2,48000,-16,experiment,1,odd,6,64656,2498,NA,61231,62352,2377,NA,62385,54987,66690,67785,63420,11780,66690,NA,Sternberg Task,8,7086,9,yes,1024
90,90,785.2,785.2,black,practice,legacy,legacy,legacy,0,uniform,1,undefined,1,left,9,0,0,9,9,0,0,9,9,9,9,9,0,9,0,Sun Oct 20 21:00:39 2019,The main experiment item,yes,SternnbergTask.osexp,/Users/kaylicolpitts/Desktop/adv quant/lab 3,no,mono,no,18,no,white,no,no,768,legacy,9,9,/Users/kaylicolpitts/Desktop/adv quant/lab 3/KC-subject-1.csv,legacy,1 7 9 8 5,Kafkaesque Koffka,3.2.8,4,y,0,left,left,NA,left,NA,766,9273,NA,766,NA,2,legacy,5,1024,2,48000,-16,experiment,1,odd,8,71346,2498,NA,67824,68983,2377,NA,69017,54987,73381,74149,70112,11780,73380,NA,Sternberg Task,9,7852,10,yes,1024
90.90909091,90.90909091,792.3636364,792.3636364,black,practice,legacy,legacy,legacy,0,uniform,1,undefined,1,left,10,0,0,10,10,0,0,10,10,10,10,10,0,10,0,Sun Oct 20 21:00:39 2019,The main experiment item,yes,SternnbergTask.osexp,/Users/kaylicolpitts/Desktop/adv quant/lab 3,no,mono,no,18,no,white,no,no,768,legacy,10,10,/Users/kaylicolpitts/Desktop/adv quant/lab 3/KC-subject-1.csv,legacy,4 8,Kafkaesque Koffka,3.2.8,1,y,0,left,left,NA,left,NA,864,9273,NA,864,NA,2,legacy,2,1024,2,48000,-16,experiment,1,odd,4,77612,2498,NA,74190,75308,2377,NA,75342,54987,79646,80513,76378,11780,79646,NA,Sternberg Task,10,8716,11,yes,1024
91.66666667,91.66666667,777.0833333,777.0833333,black,practice,legacy,legacy,legacy,0,uniform,1,undefined,1,right,11,0,0,11,11,0,0,11,11,11,11,11,0,11,0,Sun Oct 20 21:00:39 2019,The main experiment item,yes,SternnbergTask.osexp,/Users/kaylicolpitts/Desktop/adv quant/lab 3,no,mono,no,18,no,white,no,no,768,legacy,11,11,/Users/kaylicolpitts/Desktop/adv quant/lab 3/KC-subject-1.csv,legacy,2 1,Kafkaesque Koffka,3.2.8,0,n,0,right,left,NA,right,NA,609,9273,NA,609,NA,2,legacy,2,1024,2,48000,-16,experiment,1,odd,5,83999,2498,NA,80556,81687,2377,NA,81722,54987,86033,86644,82763,11780,86033,NA,Sternberg Task,11,9325,12,yes,1024
92.30769231,92.30769231,785.6923077,785.6923077,black,experiment,legacy,legacy,legacy,0,uniform,1,undefined,1,right,12,0,0,12,12,0,0,12,12,12,12,12,0,12,0,Sun Oct 20 21:00:39 2019,The main experiment item,yes,SternnbergTask.osexp,/Users/kaylicolpitts/Desktop/adv quant/lab 3,no,mono,no,18,no,white,no,no,768,legacy,0,11,/Users/kaylicolpitts/Desktop/adv quant/lab 3/KC-subject-1.csv,legacy,5 7 3,Kafkaesque Koffka,3.2.8,0,n,0,right,left,right,right,NA,889,9273,1611,889,NA,2,legacy,3,1024,2,48000,-16,experiment,1,odd,9,91882,2498,87756,86686,89577,2377,89369,89611,54987,93916,94807,90646,11780,93916,NA,Sternberg Task,12,10214,13,yes,1024
92.85714286,92.85714286,787.6428571,787.6428571,black,experiment,legacy,legacy,legacy,0,uniform,1,undefined,1,right,13,0,0,13,13,0,0,13,13,13,13,13,0,13,0,Sun Oct 20 21:00:39 2019,The main experiment item,yes,SternnbergTask.osexp,/Users/kaylicolpitts/Desktop/adv quant/lab 3,no,mono,no,18,no,white,no,no,768,legacy,1,11,/Users/kaylicolpitts/Desktop/adv quant/lab 3/KC-subject-1.csv,legacy,8 5 4 2 9 6,Kafkaesque Koffka,3.2.8,0,n,0,right,left,right,right,NA,813,9273,1611,813,NA,2,legacy,6,1024,2,48000,-16,experiment,1,odd,3,98346,2498,87756,94844,95990,2377,89369,96023,54987,100381,101196,97111,11780,100380,NA,Sternberg Task,13,11027,14,yes,1024
93.33333333,93.33333333,793,793,black,experiment,legacy,legacy,legacy,0,uniform,1,undefined,1,left,14,0,0,14,14,0,0,14,14,14,14,14,0,14,0,Sun Oct 20 21:00:39 2019,The main experiment item,yes,SternnbergTask.osexp,/Users/kaylicolpitts/Desktop/adv quant/lab 3,no,mono,no,18,no,white,no,no,768,legacy,2,11,/Users/kaylicolpitts/Desktop/adv quant/lab 3/KC-subject-1.csv,legacy,6 7 8 5,Kafkaesque Koffka,3.2.8,3,y,0,left,left,right,left,NA,868,9273,1611,868,NA,2,legacy,4,1024,2,48000,-16,experiment,1,odd,8,104660,2498,87756,101238,102357,2377,89369,102391,54987,106694,107565,103425,11780,106693,NA,Sternberg Task,14,11895,15,yes,1024
93.75,93.75,803.75,803.75,black,experiment,legacy,legacy,legacy,0,uniform,1,undefined,1,left,15,0,0,15,15,0,0,15,15,15,15,15,0,15,0,Sun Oct 20 21:00:39 2019,The main experiment item,yes,SternnbergTask.osexp,/Users/kaylicolpitts/Desktop/adv quant/lab 3,no,mono,no,18,no,white,no,no,768,legacy,3,11,/Users/kaylicolpitts/Desktop/adv quant/lab 3/KC-subject-1.csv,legacy,4 1 8 7 5,Kafkaesque Koffka,3.2.8,3,y,0,left,left,right,left,NA,965,9273,1611,965,NA,2,legacy,5,1024,2,48000,-16,experiment,1,odd,8,111102,2498,87756,107607,108760,2377,89369,108795,54987,113136,114103,109828,11780,113136,NA,Sternberg Task,15,12860,16,yes,1024
94.11764706,94.11764706,810.8235294,810.8235294,black,experiment,legacy,legacy,legacy,0,uniform,1,undefined,1,right,16,0,0,16,16,0,0,16,16,16,16,16,0,16,0,Sun Oct 20 21:00:39 2019,The main experiment item,yes,SternnbergTask.osexp,/Users/kaylicolpitts/Desktop/adv quant/lab 3,no,mono,no,18,no,white,no,no,768,legacy,4,11,/Users/kaylicolpitts/Desktop/adv quant/lab 3/KC-subject-1.csv,legacy,1 4 3 6 5,Kafkaesque Koffka,3.2.8,0,n,0,right,left,right,right,NA,924,9273,1611,924,NA,2,legacy,5,1024,2,48000,-16,experiment,1,odd,8,117617,2498,87756,114142,115311,2377,89369,115347,54987,119651,120578,116381,11780,119651,NA,Sternberg Task,16,13784,17,yes,1024
94.44444444,94.44444444,802.1666667,802.1666667,black,experiment,legacy,legacy,legacy,0,uniform,1,undefined,1,left,17,0,0,17,17,0,0,17,17,17,17,17,0,17,0,Sun Oct 20 21:00:39 2019,The main experiment item,yes,SternnbergTask.osexp,/Users/kaylicolpitts/Desktop/adv quant/lab 3,no,mono,no,18,no,white,no,no,768,legacy,5,11,/Users/kaylicolpitts/Desktop/adv quant/lab 3/KC-subject-1.csv,legacy,2 4 8 5 1 3,Kafkaesque Koffka,3.2.8,1,y,0,left,left,right,left,NA,655,9273,1611,655,NA,2,legacy,6,1024,2,48000,-16,experiment,1,odd,2,124109,2498,87756,120619,121789,2377,89369,121823,54987,126144,126801,122858,11780,126143,NA,Sternberg Task,17,14439,18,yes,1024
94.73684211,94.73684211,815.9473684,815.9473684,black,experiment,legacy,legacy,legacy,0,uniform,1,undefined,1,left,18,0,0,18,18,0,0,18,18,18,18,18,0,18,0,Sun Oct 20 21:00:39 2019,The main experiment item,yes,SternnbergTask.osexp,/Users/kaylicolpitts/Desktop/adv quant/lab 3,no,mono,no,18,no,white,no,no,768,legacy,6,11,/Users/kaylicolpitts/Desktop/adv quant/lab 3/KC-subject-1.csv,legacy,8,Kafkaesque Koffka,3.2.8,1,y,0,left,left,right,left,NA,1064,9273,1611,1064,NA,2,legacy,1,1024,2,48000,-16,experiment,1,odd,8,130263,2498,87756,126838,127959,2377,89369,127993,54987,132297,133363,129026,11780,132296,NA,Sternberg Task,18,15503,19,yes,1024
95,95,831.05,831.05,black,experiment,legacy,legacy,legacy,0,uniform,1,undefined,1,left,19,0,0,19,19,0,0,19,19,19,19,19,0,19,0,Sun Oct 20 21:00:39 2019,The main experiment item,yes,SternnbergTask.osexp,/Users/kaylicolpitts/Desktop/adv quant/lab 3,no,mono,no,18,no,white,no,no,768,legacy,7,11,/Users/kaylicolpitts/Desktop/adv quant/lab 3/KC-subject-1.csv,legacy,9 3 1 2 5,Kafkaesque Koffka,3.2.8,4,y,0,left,left,right,left,NA,1118,9273,1611,1118,NA,2,legacy,5,1024,2,48000,-16,experiment,1,odd,2,136871,2498,87756,133402,134566,2377,89369,134601,54987,138907,140027,135635,11780,138907,NA,Sternberg Task,19,16621,20,yes,1024
95.23809524,95.23809524,836.8095238,836.8095238,black,experiment,legacy,legacy,legacy,0,uniform,1,undefined,1,right,20,0,0,20,20,0,0,20,20,20,20,20,0,20,0,Sun Oct 20 21:00:39 2019,The main experiment item,yes,SternnbergTask.osexp,/Users/kaylicolpitts/Desktop/adv quant/lab 3,no,mono,no,18,no,white,no,no,768,legacy,8,11,/Users/kaylicolpitts/Desktop/adv quant/lab 3/KC-subject-1.csv,legacy,9 8 2 7 4,Kafkaesque Koffka,3.2.8,0,n,0,right,left,right,right,NA,952,9273,1611,952,NA,2,legacy,5,1024,2,48000,-16,experiment,1,odd,5,143576,2498,87756,140101,141268,2377,89369,141305,54987,145611,146565,142340,11780,145611,NA,Sternberg Task,20,17573,21,yes,1024
95.45454545,95.45454545,829.9545455,829.9545455,black,experiment,legacy,legacy,legacy,0,uniform,1,undefined,1,right,21,0,0,21,21,0,0,21,21,21,21,21,0,21,0,Sun Oct 20 21:00:39 2019,The main experiment item,yes,SternnbergTask.osexp,/Users/kaylicolpitts/Desktop/adv quant/lab 3,no,mono,no,18,no,white,no,no,768,legacy,9,11,/Users/kaylicolpitts/Desktop/adv quant/lab 3/KC-subject-1.csv,legacy,2 8 6 3 1,Kafkaesque Koffka,3.2.8,0,n,0,right,left,right,right,NA,686,9273,1611,686,NA,2,legacy,5,1024,2,48000,-16,experiment,1,odd,7,150069,2498,87756,146605,147763,2377,89369,147797,54987,152112,152800,148832,11780,152112,NA,Sternberg Task,21,18259,22,yes,1024
95.65217391,95.65217391,825.3043478,825.3043478,black,experiment,legacy,legacy,legacy,0,uniform,1,undefined,1,right,22,0,0,22,22,0,0,22,22,22,22,22,0,22,0,Sun Oct 20 21:00:39 2019,The main experiment item,yes,SternnbergTask.osexp,/Users/kaylicolpitts/Desktop/adv quant/lab 3,no,mono,no,18,no,white,no,no,768,legacy,10,11,/Users/kaylicolpitts/Desktop/adv quant/lab 3/KC-subject-1.csv,legacy,6 9 7 3 8 2,Kafkaesque Koffka,3.2.8,0,n,0,right,left,right,right,NA,723,9273,1611,723,NA,2,legacy,6,1024,2,48000,-16,experiment,1,odd,5,156269,2498,87756,152844,153965,2377,89369,153999,54987,158303,159027,155032,11780,158303,NA,Sternberg Task,22,18982,23,yes,1024
95.83333333,95.83333333,814.8333333,814.8333333,black,experiment,legacy,legacy,legacy,0,uniform,1,undefined,1,right,23,0,0,23,23,0,0,23,23,23,23,23,0,23,0,Sun Oct 20 21:00:39 2019,The main experiment item,yes,SternnbergTask.osexp,/Users/kaylicolpitts/Desktop/adv quant/lab 3,no,mono,no,18,no,white,no,no,768,legacy,11,11,/Users/kaylicolpitts/Desktop/adv quant/lab 3/KC-subject-1.csv,legacy,5,Kafkaesque Koffka,3.2.8,0,n,0,right,left,right,right,NA,574,9273,1611,574,NA,2,legacy,1,1024,2,48000,-16,experiment,1,odd,8,162551,2498,87756,159101,160240,2377,89369,160277,54987,164587,165164,161316,11780,164587,NA,Sternberg Task,23,19556,24,yes,1024
96,96,825.92,825.92,black,experiment,legacy,legacy,legacy,0,uniform,1,undefined,1,right,24,0,0,24,24,0,0,24,24,24,24,24,0,24,0,Sun Oct 20 21:00:39 2019,The main experiment item,yes,SternnbergTask.osexp,/Users/kaylicolpitts/Desktop/adv quant/lab 3,no,mono,no,18,no,white,no,no,768,legacy,12,11,/Users/kaylicolpitts/Desktop/adv quant/lab 3/KC-subject-1.csv,legacy,1 4 9 3,Kafkaesque Koffka,3.2.8,0,n,0,right,left,right,right,NA,1092,9273,1611,1092,NA,2,legacy,4,1024,2,48000,-16,experiment,1,odd,5,168628,2498,87756,165204,166324,2377,89369,166358,54987,170662,171756,167392,11780,170662,NA,Sternberg Task,24,20648,25,yes,1024
96.15384615,96.15384615,820.7692308,820.7692308,black,experiment,legacy,legacy,legacy,0,uniform,1,undefined,1,right,25,0,0,25,25,0,0,25,25,25,25,25,0,25,0,Sun Oct 20 21:00:39 2019,The main experiment item,yes,SternnbergTask.osexp,/Users/kaylicolpitts/Desktop/adv quant/lab 3,no,mono,no,18,no,white,no,no,768,legacy,13,11,/Users/kaylicolpitts/Desktop/adv quant/lab 3/KC-subject-1.csv,legacy,6 9 4 5 2,Kafkaesque Koffka,3.2.8,0,n,0,right,left,right,right,NA,692,9273,1611,692,NA,2,legacy,5,1024,2,48000,-16,experiment,1,odd,1,175261,2498,87756,171798,172957,2377,89369,172992,54987,177295,177990,174025,11780,177295,NA,Sternberg Task,25,21340,26,yes,1024
96.2962963,96.2962963,818.962963,818.962963,black,experiment,legacy,legacy,legacy,0,uniform,1,undefined,1,right,26,0,0,26,26,0,0,26,26,26,26,26,0,26,0,Sun Oct 20 21:00:39 2019,The main experiment item,yes,SternnbergTask.osexp,/Users/kaylicolpitts/Desktop/adv quant/lab 3,no,mono,no,18,no,white,no,no,768,legacy,14,11,/Users/kaylicolpitts/Desktop/adv quant/lab 3/KC-subject-1.csv,legacy,8 6 3 4 7,Kafkaesque Koffka,3.2.8,0,n,0,right,left,right,right,NA,772,9273,1611,772,NA,2,legacy,5,1024,2,48000,-16,experiment,1,odd,1,181452,2498,87756,178025,179148,2377,89369,179182,54987,183486,184260,180216,11780,183486,NA,Sternberg Task,26,22112,27,yes,1024
96.42857143,96.42857143,820.3214286,820.3214286,black,experiment,legacy,legacy,legacy,0,uniform,1,undefined,1,left,27,0,0,27,27,0,0,27,27,27,27,27,0,27,0,Sun Oct 20 21:00:39 2019,The main experiment item,yes,SternnbergTask.osexp,/Users/kaylicolpitts/Desktop/adv quant/lab 3,no,mono,no,18,no,white,no,no,768,legacy,15,11,/Users/kaylicolpitts/Desktop/adv quant/lab 3/KC-subject-1.csv,legacy,3 2 1 4 7,Kafkaesque Koffka,3.2.8,2,y,0,left,left,right,left,NA,857,9273,1611,857,NA,2,legacy,5,1024,2,48000,-16,experiment,1,odd,2,187766,2498,87756,184303,185459,2377,89369,185496,54987,189801,190661,186531,11780,189800,NA,Sternberg Task,27,22969,28,yes,1024
96.55172414,96.55172414,816.2413793,816.2413793,black,experiment,legacy,legacy,legacy,0,uniform,1,undefined,1,right,28,0,0,28,28,0,0,28,28,28,28,28,0,28,0,Sun Oct 20 21:00:39 2019,The main experiment item,yes,SternnbergTask.osexp,/Users/kaylicolpitts/Desktop/adv quant/lab 3,no,mono,no,18,no,white,no,no,768,legacy,16,11,/Users/kaylicolpitts/Desktop/adv quant/lab 3/KC-subject-1.csv,legacy,8 5 7 3 6,Kafkaesque Koffka,3.2.8,0,n,0,right,left,right,right,NA,702,9273,1611,702,NA,2,legacy,5,1024,2,48000,-16,experiment,1,odd,9,194132,2498,87756,190701,191826,2377,89369,191860,54987,196169,196873,192899,11780,196169,NA,Sternberg Task,28,23671,29,yes,1024
96.66666667,96.66666667,834.2333333,834.2333333,black,experiment,legacy,legacy,legacy,0,uniform,1,undefined,1,left,29,0,0,29,29,0,0,29,29,29,29,29,0,29,0,Sun Oct 20 21:00:39 2019,The main experiment item,yes,SternnbergTask.osexp,/Users/kaylicolpitts/Desktop/adv quant/lab 3,no,mono,no,18,no,white,no,no,768,legacy,17,11,/Users/kaylicolpitts/Desktop/adv quant/lab 3/KC-subject-1.csv,legacy,4 1 5,Kafkaesque Koffka,3.2.8,2,y,0,left,left,right,left,NA,1356,9273,1611,1356,NA,2,legacy,3,1024,2,48000,-16,experiment,1,odd,1,200383,2498,87756,196924,198075,2377,89369,198113,54987,202419,203783,199148,11780,202419,NA,Sternberg Task,29,25027,30,yes,1024
96.77419355,96.77419355,835.5483871,835.5483871,black,experiment,legacy,legacy,legacy,0,uniform,1,undefined,1,right,30,0,0,30,30,0,0,30,30,30,30,30,0,30,0,Sun Oct 20 21:00:39 2019,The main experiment item,yes,SternnbergTask.osexp,/Users/kaylicolpitts/Desktop/adv quant/lab 3,no,mono,no,18,no,white,no,no,768,legacy,18,11,/Users/kaylicolpitts/Desktop/adv quant/lab 3/KC-subject-1.csv,legacy,1 3 2 6 9,Kafkaesque Koffka,3.2.8,0,n,0,right,left,right,right,NA,875,9273,1611,875,NA,2,legacy,5,1024,2,48000,-16,experiment,1,odd,5,207269,2498,87756,203823,204966,2377,89369,205000,54987,209303,210180,206034,11780,209303,NA,Sternberg Task,30,25902,31,yes,1024
96.875,96.875,843.71875,843.71875,black,experiment,legacy,legacy,legacy,0,uniform,1,undefined,1,right,31,0,0,31,31,0,0,31,31,31,31,31,0,31,0,Sun Oct 20 21:00:39 2019,The main experiment item,yes,SternnbergTask.osexp,/Users/kaylicolpitts/Desktop/adv quant/lab 3,no,mono,no,18,no,white,no,no,768,legacy,19,11,/Users/kaylicolpitts/Desktop/adv quant/lab 3/KC-subject-1.csv,legacy,5 3 8 7 2 4,Kafkaesque Koffka,3.2.8,0,n,0,right,left,right,right,NA,1097,9273,1611,1097,NA,2,legacy,6,1024,2,48000,-16,experiment,1,odd,9,213643,2498,87756,210218,211338,2377,89369,211375,54987,215678,216777,212409,11780,215678,NA,Sternberg Task,31,26999,32,yes,1024
96.96969697,96.96969697,851.5151515,851.5151515,black,experiment,legacy,legacy,legacy,0,uniform,1,undefined,1,right,32,0,0,32,32,0,0,32,32,32,32,32,0,32,0,Sun Oct 20 21:00:39 2019,The main experiment item,yes,SternnbergTask.osexp,/Users/kaylicolpitts/Desktop/adv quant/lab 3,no,mono,no,18,no,white,no,no,768,legacy,20,11,/Users/kaylicolpitts/Desktop/adv quant/lab 3/KC-subject-1.csv,legacy,8 4 3 9,Kafkaesque Koffka,3.2.8,0,n,0,right,left,right,right,NA,1101,9273,1611,1101,NA,2,legacy,4,1024,2,48000,-16,experiment,1,odd,5,220264,2498,87756,216814,217958,2377,89369,217993,54987,222298,223401,219027,11780,222298,NA,Sternberg Task,32,28100,33,yes,1024
97.05882353,97.05882353,846.3529412,846.3529412,black,experiment,legacy,legacy,legacy,0,uniform,1,undefined,1,right,33,0,0,33,33,0,0,33,33,33,33,33,0,33,0,Sun Oct 20 21:00:39 2019,The main experiment item,yes,SternnbergTask.osexp,/Users/kaylicolpitts/Desktop/adv quant/lab 3,no,mono,no,18,no,white,no,no,768,legacy,21,11,/Users/kaylicolpitts/Desktop/adv quant/lab 3/KC-subject-1.csv,legacy,6 3 1 7 9 8,Kafkaesque Koffka,3.2.8,0,n,0,right,left,right,right,NA,676,9273,1611,676,NA,2,legacy,6,1024,2,48000,-16,experiment,1,odd,4,226894,2498,87756,223450,224588,2377,89369,224623,54987,228932,229610,225658,11780,228932,NA,Sternberg Task,33,28776,34,yes,1024
97.14285714,97.14285714,838.0285714,838.0285714,black,experiment,legacy,legacy,legacy,0,uniform,1,undefined,1,left,34,0,0,34,34,0,0,34,34,34,34,34,0,34,0,Sun Oct 20 21:00:39 2019,The main experiment item,yes,SternnbergTask.osexp,/Users/kaylicolpitts/Desktop/adv quant/lab 3,no,mono,no,18,no,white,no,no,768,legacy,22,11,/Users/kaylicolpitts/Desktop/adv quant/lab 3/KC-subject-1.csv,legacy,2 3 7 4,Kafkaesque Koffka,3.2.8,1,y,0,left,left,right,left,NA,555,9273,1611,555,NA,2,legacy,4,1024,2,48000,-16,experiment,1,odd,2,233113,2498,87756,229648,230771,2377,89369,230804,54987,235146,235703,231838,11780,235146,NA,Sternberg Task,34,29331,35,yes,1024
97.22222222,97.22222222,834.1111111,834.1111111,black,experiment,legacy,legacy,legacy,0,uniform,1,undefined,1,right,35,0,0,35,35,0,0,35,35,35,35,35,0,35,0,Sun Oct 20 21:00:39 2019,The main experiment item,yes,SternnbergTask.osexp,/Users/kaylicolpitts/Desktop/adv quant/lab 3,no,mono,no,18,no,white,no,no,768,legacy,23,11,/Users/kaylicolpitts/Desktop/adv quant/lab 3/KC-subject-1.csv,legacy,6 9 4 5 3 2,Kafkaesque Koffka,3.2.8,0,n,0,right,left,right,right,NA,697,9273,1611,697,NA,2,legacy,6,1024,2,48000,-16,experiment,1,odd,8,239189,2498,87756,235746,236882,2377,89369,236919,54987,241226,241925,237953,11780,241226,NA,Sternberg Task,35,30028,36,yes,1024
97.2972973,97.2972973,832.1621622,832.1621622,black,experiment,legacy,legacy,legacy,0,uniform,1,undefined,1,right,36,0,0,36,36,0,0,36,36,36,36,36,0,36,0,Sun Oct 20 21:00:39 2019,The main experiment item,yes,SternnbergTask.osexp,/Users/kaylicolpitts/Desktop/adv quant/lab 3,no,mono,no,18,no,white,no,no,768,legacy,24,11,/Users/kaylicolpitts/Desktop/adv quant/lab 3/KC-subject-1.csv,legacy,6 8,Kafkaesque Koffka,3.2.8,0,n,0,right,left,right,right,NA,762,9273,1611,762,NA,2,legacy,2,1024,2,48000,-16,experiment,1,odd,9,245385,2498,87756,241963,243081,2377,89369,243116,54987,247420,248185,244150,11780,247419,NA,Sternberg Task,36,30790,37,yes,1024
97.36842105,97.36842105,833.6842105,833.6842105,black,experiment,legacy,legacy,legacy,0,uniform,1,undefined,1,right,37,0,0,37,37,0,0,37,37,37,37,37,0,37,0,Sun Oct 20 21:00:39 2019,The main experiment item,yes,SternnbergTask.osexp,/Users/kaylicolpitts/Desktop/adv quant/lab 3,no,mono,no,18,no,white,no,no,768,legacy,25,11,/Users/kaylicolpitts/Desktop/adv quant/lab 3/KC-subject-1.csv,legacy,4 2 7 6 1 3,Kafkaesque Koffka,3.2.8,0,n,0,right,left,right,right,NA,890,9273,1611,890,NA,2,legacy,6,1024,2,48000,-16,experiment,1,odd,8,251713,2498,87756,248231,249402,2377,89369,249438,54987,253748,254640,250478,11780,253748,NA,Sternberg Task,37,31680,38,yes,1024
97.43589744,97.43589744,854.4615385,854.4615385,black,experiment,legacy,legacy,legacy,0,uniform,1,undefined,1,left,38,0,0,38,38,0,0,38,38,38,38,38,0,38,0,Sun Oct 20 21:00:39 2019,The main experiment item,yes,SternnbergTask.osexp,/Users/kaylicolpitts/Desktop/adv quant/lab 3,no,mono,no,18,no,white,no,no,768,legacy,26,11,/Users/kaylicolpitts/Desktop/adv quant/lab 3/KC-subject-1.csv,legacy,2 8 5 1,Kafkaesque Koffka,3.2.8,4,y,0,left,left,right,left,NA,1644,9273,1611,1644,NA,2,legacy,4,1024,2,48000,-16,experiment,1,odd,1,258120,2498,87756,254678,255809,2377,89369,255844,54987,260155,261802,256884,11780,260155,NA,Sternberg Task,38,33324,39,yes,1024
97.5,97.5,853.875,853.875,black,experiment,legacy,legacy,legacy,0,uniform,1,undefined,1,left,39,0,0,39,39,0,0,39,39,39,39,39,0,39,0,Sun Oct 20 21:00:39 2019,The main experiment item,yes,SternnbergTask.osexp,/Users/kaylicolpitts/Desktop/adv quant/lab 3,no,mono,no,18,no,white,no,no,768,legacy,27,11,/Users/kaylicolpitts/Desktop/adv quant/lab 3/KC-subject-1.csv,legacy,9 5 3 8 4,Kafkaesque Koffka,3.2.8,1,y,0,left,left,right,left,NA,831,9273,1611,831,NA,2,legacy,5,1024,2,48000,-16,experiment,1,odd,9,265340,2498,87756,261844,263002,2377,89369,263038,54987,267373,268205,264103,11780,267373,NA,Sternberg Task,39,34155,40,yes,1024
97.56097561,97.56097561,849.8536585,849.8536585,black,experiment,legacy,legacy,legacy,0,uniform,1,undefined,1,right,40,0,0,40,40,0,0,40,40,40,40,40,0,40,0,Sun Oct 20 21:00:39 2019,The main experiment item,yes,SternnbergTask.osexp,/Users/kaylicolpitts/Desktop/adv quant/lab 3,no,mono,no,18,no,white,no,no,768,legacy,28,11,/Users/kaylicolpitts/Desktop/adv quant/lab 3/KC-subject-1.csv,legacy,5 2,Kafkaesque Koffka,3.2.8,0,n,0,right,left,right,right,NA,689,9273,1611,689,NA,2,legacy,2,1024,2,48000,-16,experiment,1,odd,7,271671,2498,87756,268241,269365,2377,89369,269401,54987,273710,274401,270437,11780,273710,NA,Sternberg Task,40,34844,41,yes,1024
97.61904762,97.61904762,862.2857143,862.2857143,black,experiment,legacy,legacy,legacy,0,uniform,1,undefined,1,right,41,0,0,41,41,0,0,41,41,41,41,41,0,41,0,Sun Oct 20 21:00:39 2019,The main experiment item,yes,SternnbergTask.osexp,/Users/kaylicolpitts/Desktop/adv quant/lab 3,no,mono,no,18,no,white,no,no,768,legacy,29,11,/Users/kaylicolpitts/Desktop/adv quant/lab 3/KC-subject-1.csv,legacy,7 8 6 1,Kafkaesque Koffka,3.2.8,0,n,0,right,left,right,right,NA,1372,9273,1611,1372,NA,2,legacy,4,1024,2,48000,-16,experiment,1,odd,3,277901,2498,87756,274444,275593,2377,89369,275629,54987,279935,281309,276665,11780,279935,NA,Sternberg Task,41,36216,42,yes,1024
97.6744186,97.6744186,871.6511628,871.6511628,black,experiment,legacy,legacy,legacy,0,uniform,1,undefined,1,left,42,0,0,42,42,0,0,42,42,42,42,42,0,42,0,Sun Oct 20 21:00:39 2019,The main experiment item,yes,SternnbergTask.osexp,/Users/kaylicolpitts/Desktop/adv quant/lab 3,no,mono,no,18,no,white,no,no,768,legacy,30,11,/Users/kaylicolpitts/Desktop/adv quant/lab 3/KC-subject-1.csv,legacy,9 5 8 1,Kafkaesque Koffka,3.2.8,2,y,0,left,left,right,left,NA,1265,9273,1611,1265,NA,2,legacy,4,1024,2,48000,-16,experiment,1,odd,5,284800,2498,87756,281352,282495,2377,89369,282530,54987,286840,288109,283564,11780,286840,NA,Sternberg Task,42,37481,43,yes,1024
97.72727273,97.72727273,869.6363636,869.6363636,black,experiment,legacy,legacy,legacy,0,uniform,1,undefined,1,left,43,0,0,43,43,0,0,43,43,43,43,43,0,43,0,Sun Oct 20 21:00:39 2019,The main experiment item,yes,SternnbergTask.osexp,/Users/kaylicolpitts/Desktop/adv quant/lab 3,no,mono,no,18,no,white,no,no,768,legacy,31,11,/Users/kaylicolpitts/Desktop/adv quant/lab 3/KC-subject-1.csv,legacy,3 9 6 2,Kafkaesque Koffka,3.2.8,4,y,0,left,left,right,left,NA,783,9273,1611,783,NA,2,legacy,4,1024,2,48000,-16,experiment,1,odd,2,291602,2498,87756,288164,289296,2377,89369,289330,54987,293636,294421,290368,11780,293636,NA,Sternberg Task,43,38264,44,yes,1024
97.77777778,97.77777778,865.4,865.4,black,experiment,legacy,legacy,legacy,0,uniform,1,undefined,1,right,44,0,0,44,44,0,0,44,44,44,44,44,0,44,0,Sun Oct 20 21:00:39 2019,The main experiment item,yes,SternnbergTask.osexp,/Users/kaylicolpitts/Desktop/adv quant/lab 3,no,mono,no,18,no,white,no,no,768,legacy,32,11,/Users/kaylicolpitts/Desktop/adv quant/lab 3/KC-subject-1.csv,legacy,7 4 2 8 1 9,Kafkaesque Koffka,3.2.8,0,n,0,right,left,right,right,NA,679,9273,1611,679,NA,2,legacy,6,1024,2,48000,-16,experiment,1,odd,5,297885,2498,87756,294459,295582,2377,89369,295616,54987,299920,300601,296650,11780,299920,NA,Sternberg Task,44,38943,45,yes,1024
97.82608696,97.82608696,863.8478261,863.8478261,black,experiment,legacy,legacy,legacy,0,uniform,1,undefined,1,right,45,0,0,45,45,0,0,45,45,45,45,45,0,45,0,Sun Oct 20 21:00:39 2019,The main experiment item,yes,SternnbergTask.osexp,/Users/kaylicolpitts/Desktop/adv quant/lab 3,no,mono,no,18,no,white,no,no,768,legacy,33,11,/Users/kaylicolpitts/Desktop/adv quant/lab 3/KC-subject-1.csv,legacy,7 9 1 6,Kafkaesque Koffka,3.2.8,0,n,0,right,left,right,right,NA,794,9273,1611,794,NA,2,legacy,4,1024,2,48000,-16,experiment,1,odd,4,304110,2498,87756,300640,301803,2377,89369,301840,54987,306148,306944,302873,11780,306148,NA,Sternberg Task,45,39737,46,yes,1024
97.87234043,97.87234043,864.6595745,864.6595745,black,experiment,legacy,legacy,legacy,0,uniform,1,undefined,1,right,46,0,0,46,46,0,0,46,46,46,46,46,0,46,0,Sun Oct 20 21:00:39 2019,The main experiment item,yes,SternnbergTask.osexp,/Users/kaylicolpitts/Desktop/adv quant/lab 3,no,mono,no,18,no,white,no,no,768,legacy,34,11,/Users/kaylicolpitts/Desktop/adv quant/lab 3/KC-subject-1.csv,legacy,6 7 5 9,Kafkaesque Koffka,3.2.8,0,n,0,right,left,right,right,NA,902,9273,1611,902,NA,2,legacy,4,1024,2,48000,-16,experiment,1,odd,2,310408,2498,87756,306984,308103,2377,89369,308138,54987,312444,313349,309171,11780,312443,NA,Sternberg Task,46,40639,47,yes,1024
97.91666667,97.91666667,859.9375,859.9375,black,experiment,legacy,legacy,legacy,0,uniform,1,undefined,1,left,47,0,0,47,47,0,0,47,47,47,47,47,0,47,0,Sun Oct 20 21:00:39 2019,The main experiment item,yes,SternnbergTask.osexp,/Users/kaylicolpitts/Desktop/adv quant/lab 3,no,mono,no,18,no,white,no,no,768,legacy,35,11,/Users/kaylicolpitts/Desktop/adv quant/lab 3/KC-subject-1.csv,legacy,6 2,Kafkaesque Koffka,3.2.8,1,y,0,left,left,right,left,NA,638,9273,1611,638,NA,2,legacy,2,1024,2,48000,-16,experiment,1,odd,6,316857,2498,87756,313387,314555,2377,89369,314589,54987,318890,319531,315622,11780,318890,NA,Sternberg Task,47,41277,48,yes,1024
97.95918367,97.95918367,860.122449,860.122449,black,experiment,legacy,legacy,legacy,0,uniform,1,undefined,1,left,48,0,0,48,48,0,0,48,48,48,48,48,0,48,0,Sun Oct 20 21:00:39 2019,The main experiment item,yes,SternnbergTask.osexp,/Users/kaylicolpitts/Desktop/adv quant/lab 3,no,mono,no,18,no,white,no,no,768,legacy,36,11,/Users/kaylicolpitts/Desktop/adv quant/lab 3/KC-subject-1.csv,legacy,9 1 7 2,Kafkaesque Koffka,3.2.8,2,y,0,left,left,right,left,NA,869,9273,1611,869,NA,2,legacy,4,1024,2,48000,-16,experiment,1,odd,1,322993,2498,87756,319569,320687,2377,89369,320721,54987,325026,325898,321756,11780,325025,NA,Sternberg Task,48,42146,49,yes,1024
98,98,859.46,859.46,black,experiment,legacy,legacy,legacy,0,uniform,1,undefined,1,right,49,0,0,49,49,0,0,49,49,49,49,49,0,49,0,Sun Oct 20 21:00:39 2019,The main experiment item,yes,SternnbergTask.osexp,/Users/kaylicolpitts/Desktop/adv quant/lab 3,no,mono,no,18,no,white,no,no,768,legacy,37,11,/Users/kaylicolpitts/Desktop/adv quant/lab 3/KC-subject-1.csv,legacy,6 2 9 3 8 4,Kafkaesque Koffka,3.2.8,0,n,0,right,left,right,right,NA,827,9273,1611,827,NA,2,legacy,6,1024,2,48000,-16,experiment,1,odd,1,329416,2498,87756,325942,327111,2377,89369,327146,54987,331450,332281,328180,11780,331450,NA,Sternberg Task,49,42973,50,yes,1024
98.03921569,98.03921569,854.9607843,854.9607843,black,experiment,legacy,legacy,legacy,0,uniform,1,undefined,1,left,50,0,0,50,50,0,0,50,50,50,50,50,0,50,0,Sun Oct 20 21:00:39 2019,The main experiment item,yes,SternnbergTask.osexp,/Users/kaylicolpitts/Desktop/adv quant/lab 3,no,mono,no,18,no,white,no,no,768,legacy,38,11,/Users/kaylicolpitts/Desktop/adv quant/lab 3/KC-subject-1.csv,legacy,5 2 6,Kafkaesque Koffka,3.2.8,2,y,0,left,left,right,left,NA,630,9273,1611,630,NA,2,legacy,3,1024,2,48000,-16,experiment,1,odd,2,335737,2498,87756,332317,333436,2377,89369,333470,54987,337773,338406,334503,11780,337773,NA,Sternberg Task,50,43603,51,yes,1024
98.07692308,98.07692308,861.5,861.5,black,experiment,legacy,legacy,legacy,0,uniform,1,undefined,1,right,51,0,0,51,51,0,0,51,51,51,51,51,0,51,0,Sun Oct 20 21:00:39 2019,The main experiment item,yes,SternnbergTask.osexp,/Users/kaylicolpitts/Desktop/adv quant/lab 3,no,mono,no,18,no,white,no,no,768,legacy,39,11,/Users/kaylicolpitts/Desktop/adv quant/lab 3/KC-subject-1.csv,legacy,2 8 7 9 5 3,Kafkaesque Koffka,3.2.8,0,n,0,right,left,right,right,NA,1195,9273,1611,1195,NA,2,legacy,6,1024,2,48000,-16,experiment,1,odd,6,341916,2498,87756,338444,339609,2377,89369,339646,54987,343949,345146,340679,11780,343949,NA,Sternberg Task,51,44798,52,yes,1024
98.11320755,98.11320755,857.3396226,857.3396226,black,experiment,legacy,legacy,legacy,0,uniform,1,undefined,1,left,52,0,0,52,52,0,0,52,52,52,52,52,0,52,0,Sun Oct 20 21:00:39 2019,The main experiment item,yes,SternnbergTask.osexp,/Users/kaylicolpitts/Desktop/adv quant/lab 3,no,mono,no,18,no,white,no,no,768,legacy,40,11,/Users/kaylicolpitts/Desktop/adv quant/lab 3/KC-subject-1.csv,legacy,7 8 6 3 1,Kafkaesque Koffka,3.2.8,5,y,0,left,left,right,left,NA,641,9273,1611,641,NA,2,legacy,5,1024,2,48000,-16,experiment,1,odd,1,348666,2498,87756,345190,346360,2377,89369,346395,54987,350700,351345,347429,11780,350700,NA,Sternberg Task,52,45439,53,yes,1024
98.14814815,98.14814815,869.8703704,869.8703704,black,experiment,legacy,legacy,legacy,0,uniform,1,undefined,1,left,53,0,0,53,53,0,0,53,53,53,53,53,0,53,0,Sun Oct 20 21:00:39 2019,The main experiment item,yes,SternnbergTask.osexp,/Users/kaylicolpitts/Desktop/adv quant/lab 3,no,mono,no,18,no,white,no,no,768,legacy,41,11,/Users/kaylicolpitts/Desktop/adv quant/lab 3/KC-subject-1.csv,legacy,1 4 9 3 2 5,Kafkaesque Koffka,3.2.8,3,y,0,left,left,right,left,NA,1534,9273,1611,1534,NA,2,legacy,6,1024,2,48000,-16,experiment,1,odd,9,354805,2498,87756,351383,352502,2377,89369,352535,54987,356840,358378,353569,11780,356839,NA,Sternberg Task,53,46973,54,yes,1024
98.18181818,98.18181818,868.4181818,868.4181818,black,experiment,legacy,legacy,legacy,0,uniform,1,undefined,1,left,54,0,0,54,54,0,0,54,54,54,54,54,0,54,0,Sun Oct 20 21:00:39 2019,The main experiment item,yes,SternnbergTask.osexp,/Users/kaylicolpitts/Desktop/adv quant/lab 3,no,mono,no,18,no,white,no,no,768,legacy,42,11,/Users/kaylicolpitts/Desktop/adv quant/lab 3/KC-subject-1.csv,legacy,8 7 3,Kafkaesque Koffka,3.2.8,1,y,0,left,left,right,left,NA,790,9273,1611,790,NA,2,legacy,3,1024,2,48000,-16,experiment,1,odd,8,361889,2498,87756,358418,359583,2377,89369,359617,54987,363923,364715,360653,11780,363923,NA,Sternberg Task,54,47763,55,yes,1024
98.21428571,98.21428571,871.4464286,871.4464286,black,experiment,legacy,legacy,legacy,0,uniform,1,undefined,1,right,55,0,0,55,55,0,0,55,55,55,55,55,0,55,0,Sun Oct 20 21:00:39 2019,The main experiment item,yes,SternnbergTask.osexp,/Users/kaylicolpitts/Desktop/adv quant/lab 3,no,mono,no,18,no,white,no,no,768,legacy,43,11,/Users/kaylicolpitts/Desktop/adv quant/lab 3/KC-subject-1.csv,legacy,2 5 1 4,Kafkaesque Koffka,3.2.8,0,n,0,right,left,right,right,NA,1038,9273,1611,1038,NA,2,legacy,4,1024,2,48000,-16,experiment,1,odd,6,368170,2498,87756,364751,365868,2377,89369,365903,54987,370205,371245,366936,11780,370205,NA,Sternberg Task,55,48801,56,yes,1024
98.24561404,98.24561404,873.8947368,873.8947368,black,experiment,legacy,legacy,legacy,0,uniform,1,undefined,1,left,56,0,0,56,56,0,0,56,56,56,56,56,0,56,0,Sun Oct 20 21:00:39 2019,The main experiment item,yes,SternnbergTask.osexp,/Users/kaylicolpitts/Desktop/adv quant/lab 3,no,mono,no,18,no,white,no,no,768,legacy,44,11,/Users/kaylicolpitts/Desktop/adv quant/lab 3/KC-subject-1.csv,legacy,8 9 6 1,Kafkaesque Koffka,3.2.8,2,y,0,left,left,right,left,NA,1011,9273,1611,1011,NA,2,legacy,4,1024,2,48000,-16,experiment,1,odd,9,374753,2498,87756,371282,372447,2377,89369,372484,54987,376787,377800,373517,11780,376786,NA,Sternberg Task,56,49812,57,yes,1024
98.27586207,98.27586207,881.6724138,881.6724138,black,experiment,legacy,legacy,legacy,0,uniform,1,undefined,1,left,57,0,0,57,57,0,0,57,57,57,57,57,0,57,0,Sun Oct 20 21:00:39 2019,The main experiment item,yes,SternnbergTask.osexp,/Users/kaylicolpitts/Desktop/adv quant/lab 3,no,mono,no,18,no,white,no,no,768,legacy,45,11,/Users/kaylicolpitts/Desktop/adv quant/lab 3/KC-subject-1.csv,legacy,4 7 6 8 2 3,Kafkaesque Koffka,3.2.8,6,y,0,left,left,right,left,NA,1325,9273,1611,1325,NA,2,legacy,6,1024,2,48000,-16,experiment,1,odd,3,381339,2498,87756,377844,379010,2377,89369,379045,54987,383373,384701,380103,11780,383373,NA,Sternberg Task,57,51137,58,yes,1024
98.30508475,98.30508475,880.2033898,880.2033898,black,experiment,legacy,legacy,legacy,0,uniform,1,undefined,1,left,58,0,0,58,58,0,0,58,58,58,58,58,0,58,0,Sun Oct 20 21:00:39 2019,The main experiment item,yes,SternnbergTask.osexp,/Users/kaylicolpitts/Desktop/adv quant/lab 3,no,mono,no,18,no,white,no,no,768,legacy,46,11,/Users/kaylicolpitts/Desktop/adv quant/lab 3/KC-subject-1.csv,legacy,9 3 8 2 1 4,Kafkaesque Koffka,3.2.8,3,y,0,left,left,right,left,NA,795,9273,1611,795,NA,2,legacy,6,1024,2,48000,-16,experiment,1,odd,8,388208,2498,87756,384738,385905,2377,89369,385940,54987,390241,391040,386973,11780,390241,NA,Sternberg Task,58,51932,59,yes,1024
98.33333333,98.33333333,886.3666667,886.3666667,black,experiment,legacy,legacy,legacy,0,uniform,1,undefined,1,left,59,0,0,59,59,0,0,59,59,59,59,59,0,59,0,Sun Oct 20 21:00:39 2019,The main experiment item,yes,SternnbergTask.osexp,/Users/kaylicolpitts/Desktop/adv quant/lab 3,no,mono,no,18,no,white,no,no,768,legacy,47,11,/Users/kaylicolpitts/Desktop/adv quant/lab 3/KC-subject-1.csv,legacy,3 5 7 1,Kafkaesque Koffka,3.2.8,3,y,0,left,left,right,left,NA,1250,9273,1611,1250,NA,2,legacy,4,1024,2,48000,-16,experiment,1,odd,7,394526,2498,87756,391108,392226,2377,89369,392260,54987,396563,397815,393294,11780,396563,NA,Sternberg Task,59,53182,60,yes,1024
98.36065574,98.36065574,887.7704918,887.7704918,black,experiment,legacy,legacy,legacy,0,uniform,1,undefined,1,left,60,0,0,60,60,0,0,60,60,60,60,60,0,60,0,Sun Oct 20 21:00:39 2019,The main experiment item,yes,SternnbergTask.osexp,/Users/kaylicolpitts/Desktop/adv quant/lab 3,no,mono,no,18,no,white,no,no,768,legacy,48,11,/Users/kaylicolpitts/Desktop/adv quant/lab 3/KC-subject-1.csv,legacy,2 5 4 8 7,Kafkaesque Koffka,3.2.8,3,y,0,left,left,right,left,NA,972,9273,1611,972,NA,2,legacy,5,1024,2,48000,-16,experiment,1,odd,4,401370,2498,87756,397861,399027,2377,89369,399100,54987,403405,404379,400134,11780,403405,NA,Sternberg Task,60,54154,61,yes,1024
98.38709677,98.38709677,887.983871,887.983871,black,experiment,legacy,legacy,legacy,0,uniform,1,undefined,1,right,61,0,0,61,61,0,0,61,61,61,61,61,0,61,0,Sun Oct 20 21:00:39 2019,The main experiment item,yes,SternnbergTask.osexp,/Users/kaylicolpitts/Desktop/adv quant/lab 3,no,mono,no,18,no,white,no,no,768,legacy,49,11,/Users/kaylicolpitts/Desktop/adv quant/lab 3/KC-subject-1.csv,legacy,2 6 4 3 9,Kafkaesque Koffka,3.2.8,0,n,0,right,left,right,right,NA,901,9273,1611,901,NA,2,legacy,5,1024,2,48000,-16,experiment,1,odd,1,407896,2498,87756,404416,405587,2377,89369,405626,54987,409930,410835,406660,11780,409930,NA,Sternberg Task,61,55055,62,yes,1024
98.41269841,98.41269841,890.0634921,890.0634921,black,experiment,legacy,legacy,legacy,0,uniform,1,undefined,1,left,62,0,0,62,62,0,0,62,62,62,62,62,0,62,0,Sun Oct 20 21:00:39 2019,The main experiment item,yes,SternnbergTask.osexp,/Users/kaylicolpitts/Desktop/adv quant/lab 3,no,mono,no,18,no,white,no,no,768,legacy,50,11,/Users/kaylicolpitts/Desktop/adv quant/lab 3/KC-subject-1.csv,legacy,9 8 4,Kafkaesque Koffka,3.2.8,1,y,0,left,left,right,left,NA,1019,9273,1611,1019,NA,2,legacy,3,1024,2,48000,-16,experiment,1,odd,9,414382,2498,87756,410872,412022,2377,89369,412112,54987,416416,417438,413147,11780,416416,NA,Sternberg Task,62,56074,63,yes,1024
98.4375,98.4375,887.515625,887.515625,black,experiment,legacy,legacy,legacy,0,uniform,1,undefined,1,right,63,0,0,63,63,0,0,63,63,63,63,63,0,63,0,Sun Oct 20 21:00:39 2019,The main experiment item,yes,SternnbergTask.osexp,/Users/kaylicolpitts/Desktop/adv quant/lab 3,no,mono,no,18,no,white,no,no,768,legacy,51,11,/Users/kaylicolpitts/Desktop/adv quant/lab 3/KC-subject-1.csv,legacy,3 4 2,Kafkaesque Koffka,3.2.8,0,n,0,right,left,right,right,NA,727,9273,1611,727,NA,2,legacy,3,1024,2,48000,-16,experiment,1,odd,5,420952,2498,87756,417483,418648,2377,89369,418683,54987,422986,423717,419716,11780,422986,NA,Sternberg Task,63,56801,64,yes,1024
98.46153846,98.46153846,884.1692308,884.1692308,black,experiment,legacy,legacy,legacy,0,uniform,1,undefined,1,right,64,0,0,64,64,0,0,64,64,64,64,64,0,64,0,Sun Oct 20 21:00:39 2019,The main experiment item,yes,SternnbergTask.osexp,/Users/kaylicolpitts/Desktop/adv quant/lab 3,no,mono,no,18,no,white,no,no,768,legacy,52,11,/Users/kaylicolpitts/Desktop/adv quant/lab 3/KC-subject-1.csv,legacy,4 8 1 2,Kafkaesque Koffka,3.2.8,0,n,0,right,left,right,right,NA,670,9273,1611,670,NA,2,legacy,4,1024,2,48000,-16,experiment,1,odd,7,427172,2498,87756,423753,424870,2377,89369,424905,54987,429205,429879,425939,11780,429205,NA,Sternberg Task,64,57471,65,yes,1024
98.48484848,98.48484848,883.7121212,883.7121212,black,experiment,legacy,legacy,legacy,0,uniform,1,undefined,1,left,65,0,0,65,65,0,0,65,65,65,65,65,0,65,0,Sun Oct 20 21:00:39 2019,The main experiment item,yes,SternnbergTask.osexp,/Users/kaylicolpitts/Desktop/adv quant/lab 3,no,mono,no,18,no,white,no,no,768,legacy,53,11,/Users/kaylicolpitts/Desktop/adv quant/lab 3/KC-subject-1.csv,legacy,4,Kafkaesque Koffka,3.2.8,1,y,0,left,left,right,left,NA,854,9273,1611,854,NA,2,legacy,1,1024,2,48000,-16,experiment,1,odd,4,433397,2498,87756,429918,431082,2377,89369,431126,54987,435432,436288,432159,11780,435432,NA,Sternberg Task,65,58325,66,yes,1024
97.01492537,97.01492537,880.0447761,880.0447761,black,experiment,legacy,legacy,legacy,0,uniform,0,undefined,0,left,66,0,0,66,66,0,0,66,66,66,66,66,0,66,0,Sun Oct 20 21:00:39 2019,The main experiment item,yes,SternnbergTask.osexp,/Users/kaylicolpitts/Desktop/adv quant/lab 3,no,mono,no,18,no,white,no,no,768,legacy,54,11,/Users/kaylicolpitts/Desktop/adv quant/lab 3/KC-subject-1.csv,legacy,5 7 3 6 2,Kafkaesque Koffka,3.2.8,5,y,0,right,left,right,right,NA,638,9273,1611,638,NA,2,legacy,5,1024,2,48000,-16,experiment,1,odd,2,439754,2498,87756,436326,437451,2377,89369,437486,54987,441790,442431,438520,11780,441790,NA,Sternberg Task,65,58963,67,yes,1024
95.58823529,95.58823529,886.9411765,886.9411765,black,experiment,legacy,legacy,legacy,0,uniform,0,undefined,0,left,67,0,0,67,67,0,0,67,67,67,67,67,0,67,0,Sun Oct 20 21:00:39 2019,The main experiment item,yes,SternnbergTask.osexp,/Users/kaylicolpitts/Desktop/adv quant/lab 3,no,mono,no,18,no,white,no,no,768,legacy,55,11,/Users/kaylicolpitts/Desktop/adv quant/lab 3/KC-subject-1.csv,legacy,7 2 3,Kafkaesque Koffka,3.2.8,3,y,0,right,left,right,right,NA,1349,9273,1611,1349,NA,2,legacy,3,1024,2,48000,-16,experiment,1,odd,3,445932,2498,87756,436326,443625,2377,89369,443660,442469,447966,449318,444698,11780,447965,NA,Sternberg Task,65,60312,68,yes,1024
95.65217391,95.65217391,889.6086957,889.6086957,black,experiment,legacy,legacy,legacy,0,uniform,1,undefined,1,right,68,0,0,68,68,0,0,68,68,68,68,68,0,68,0,Sun Oct 20 21:00:39 2019,The main experiment item,yes,SternnbergTask.osexp,/Users/kaylicolpitts/Desktop/adv quant/lab 3,no,mono,no,18,no,white,no,no,768,legacy,56,11,/Users/kaylicolpitts/Desktop/adv quant/lab 3/KC-subject-1.csv,legacy,9 7 4 5 8,Kafkaesque Koffka,3.2.8,0,n,0,right,left,right,right,NA,1071,9273,1611,1071,NA,2,legacy,5,1024,2,48000,-16,experiment,1,odd,6,452833,2498,87756,436326,450529,2377,89369,450564,449359,454868,455943,451598,11780,454868,NA,Sternberg Task,66,61383,69,yes,1024
95.71428571,95.71428571,888.6142857,888.6142857,black,experiment,legacy,legacy,legacy,0,uniform,1,undefined,1,right,69,0,0,69,69,0,0,69,69,69,69,69,0,69,0,Sun Oct 20 21:00:39 2019,The main experiment item,yes,SternnbergTask.osexp,/Users/kaylicolpitts/Desktop/adv quant/lab 3,no,mono,no,18,no,white,no,no,768,legacy,57,11,/Users/kaylicolpitts/Desktop/adv quant/lab 3/KC-subject-1.csv,legacy,8 4 3 5,Kafkaesque Koffka,3.2.8,0,n,0,right,left,right,right,NA,820,9273,1611,820,NA,2,legacy,4,1024,2,48000,-16,experiment,1,odd,6,459446,2498,87756,455985,457143,2377,89369,457177,449359,461484,462307,458211,11780,461484,NA,Sternberg Task,67,62203,70,yes,1024
95.77464789,95.77464789,903.4929577,903.4929577,black,experiment,legacy,legacy,legacy,0,uniform,1,undefined,1,right,70,0,0,70,70,0,0,70,70,70,70,70,0,70,0,Sun Oct 20 21:00:39 2019,The main experiment item,yes,SternnbergTask.osexp,/Users/kaylicolpitts/Desktop/adv quant/lab 3,no,mono,no,18,no,white,no,no,768,legacy,58,11,/Users/kaylicolpitts/Desktop/adv quant/lab 3/KC-subject-1.csv,legacy,6 8 4,Kafkaesque Koffka,3.2.8,0,n,0,right,left,right,right,NA,1945,9273,1611,1945,NA,2,legacy,3,1024,2,48000,-16,experiment,1,odd,1,465766,2498,87756,462345,463463,2377,89369,463498,449359,467800,469749,464531,11780,467800,NA,Sternberg Task,68,64148,71,yes,1024
95.83333333,95.83333333,903.6388889,903.6388889,black,experiment,legacy,legacy,legacy,0,uniform,1,undefined,1,right,71,0,0,71,71,0,0,71,71,71,71,71,0,71,0,Sun Oct 20 21:00:39 2019,The main experiment item,yes,SternnbergTask.osexp,/Users/kaylicolpitts/Desktop/adv quant/lab 3,no,mono,no,18,no,white,no,no,768,legacy,59,11,/Users/kaylicolpitts/Desktop/adv quant/lab 3/KC-subject-1.csv,legacy,1 4 9 2 5,Kafkaesque Koffka,3.2.8,0,n,0,right,left,right,right,NA,914,9273,1611,914,NA,2,legacy,5,1024,2,48000,-16,experiment,1,odd,7,473271,2498,87756,469798,470967,2377,89369,471001,449359,475306,476222,472035,11780,475305,NA,Sternberg Task,69,65062,72,yes,1024
95.89041096,95.89041096,900.7808219,900.7808219,black,experiment,legacy,legacy,legacy,0,uniform,1,undefined,1,left,72,0,0,72,72,0,0,72,72,72,72,72,0,72,0,Sun Oct 20 21:00:39 2019,The main experiment item,yes,SternnbergTask.osexp,/Users/kaylicolpitts/Desktop/adv quant/lab 3,no,mono,no,18,no,white,no,no,768,legacy,60,11,/Users/kaylicolpitts/Desktop/adv quant/lab 3/KC-subject-1.csv,legacy,9 4 2,Kafkaesque Koffka,3.2.8,1,y,0,left,left,right,left,NA,695,9273,1611,695,NA,2,legacy,3,1024,2,48000,-16,experiment,1,odd,9,479711,2498,87756,476262,477406,2377,89369,477439,449359,481748,482447,478476,11780,481747,NA,Sternberg Task,70,65757,73,yes,1024
95.94594595,95.94594595,897.1216216,897.1216216,black,experiment,legacy,legacy,legacy,0,uniform,1,undefined,1,right,73,0,0,73,73,0,0,73,73,73,73,73,0,73,0,Sun Oct 20 21:00:39 2019,The main experiment item,yes,SternnbergTask.osexp,/Users/kaylicolpitts/Desktop/adv quant/lab 3,no,mono,no,18,no,white,no,no,768,legacy,61,11,/Users/kaylicolpitts/Desktop/adv quant/lab 3/KC-subject-1.csv,legacy,6 9 5,Kafkaesque Koffka,3.2.8,0,n,0,right,left,right,right,NA,630,9273,1611,630,NA,2,legacy,3,1024,2,48000,-16,experiment,1,odd,8,485906,2498,87756,482485,483602,2377,89369,483636,449359,487940,488573,484670,11780,487940,NA,Sternberg Task,71,66387,74,yes,1024
96,96,898.08,898.08,black,experiment,legacy,legacy,legacy,0,uniform,1,undefined,1,left,74,0,0,74,74,0,0,74,74,74,74,74,0,74,0,Sun Oct 20 21:00:39 2019,The main experiment item,yes,SternnbergTask.osexp,/Users/kaylicolpitts/Desktop/adv quant/lab 3,no,mono,no,18,no,white,no,no,768,legacy,62,11,/Users/kaylicolpitts/Desktop/adv quant/lab 3/KC-subject-1.csv,legacy,4 9 7 8 5 3,Kafkaesque Koffka,3.2.8,4,y,0,left,left,right,left,NA,969,9273,1611,969,NA,2,legacy,6,1024,2,48000,-16,experiment,1,odd,8,492105,2498,87756,488612,489777,2377,89369,489812,449359,494139,495112,490845,11780,494139,NA,Sternberg Task,72,67356,75,yes,1024
96.05263158,96.05263158,895.9605263,895.9605263,black,experiment,legacy,legacy,legacy,0,uniform,1,undefined,1,left,75,0,0,75,75,0,0,75,75,75,75,75,0,75,0,Sun Oct 20 21:00:39 2019,The main experiment item,yes,SternnbergTask.osexp,/Users/kaylicolpitts/Desktop/adv quant/lab 3,no,mono,no,18,no,white,no,no,768,legacy,63,11,/Users/kaylicolpitts/Desktop/adv quant/lab 3/KC-subject-1.csv,legacy,6 7 9 3 1 2,Kafkaesque Koffka,3.2.8,1,y,0,left,left,right,left,NA,737,9273,1611,737,NA,2,legacy,6,1024,2,48000,-16,experiment,1,odd,6,498627,2498,87756,495154,496321,2377,89369,496356,449359,500668,501417,497391,11780,500668,NA,Sternberg Task,73,68093,76,yes,1024
96.1038961,96.1038961,893.2467532,893.2467532,black,experiment,legacy,legacy,legacy,0,uniform,1,undefined,1,left,76,0,0,76,76,0,0,76,76,76,76,76,0,76,0,Sun Oct 20 21:00:39 2019,The main experiment item,yes,SternnbergTask.osexp,/Users/kaylicolpitts/Desktop/adv quant/lab 3,no,mono,no,18,no,white,no,no,768,legacy,64,11,/Users/kaylicolpitts/Desktop/adv quant/lab 3/KC-subject-1.csv,legacy,7 1 8 5 6 2,Kafkaesque Koffka,3.2.8,2,y,0,left,left,right,left,NA,687,9273,1611,687,NA,2,legacy,6,1024,2,48000,-16,experiment,1,odd,1,504880,2498,87756,501455,502574,2377,89369,502607,449359,506914,507605,503641,11780,506914,NA,Sternberg Task,74,68780,77,yes,1024
96.15384615,96.15384615,890.6282051,890.6282051,black,experiment,legacy,legacy,legacy,0,uniform,1,undefined,1,left,77,0,0,77,77,0,0,77,77,77,77,77,0,77,0,Sun Oct 20 21:00:39 2019,The main experiment item,yes,SternnbergTask.osexp,/Users/kaylicolpitts/Desktop/adv quant/lab 3,no,mono,no,18,no,white,no,no,768,legacy,65,11,/Users/kaylicolpitts/Desktop/adv quant/lab 3/KC-subject-1.csv,legacy,7 1 3,Kafkaesque Koffka,3.2.8,2,y,0,left,left,right,left,NA,689,9273,1611,689,NA,2,legacy,3,1024,2,48000,-16,experiment,1,odd,1,511114,2498,87756,507646,508807,2377,89369,508841,449359,513147,513840,509875,11780,513147,NA,Sternberg Task,75,69469,78,yes,1024
96.20253165,96.20253165,889.6202532,889.6202532,black,experiment,legacy,legacy,legacy,0,uniform,1,undefined,1,left,78,0,0,78,78,0,0,78,78,78,78,78,0,78,0,Sun Oct 20 21:00:39 2019,The main experiment item,yes,SternnbergTask.osexp,/Users/kaylicolpitts/Desktop/adv quant/lab 3,no,mono,no,18,no,white,no,no,768,legacy,66,11,/Users/kaylicolpitts/Desktop/adv quant/lab 3/KC-subject-1.csv,legacy,7 8 4 6 9 5,Kafkaesque Koffka,3.2.8,4,y,0,left,left,right,left,NA,811,9273,1611,811,NA,2,legacy,6,1024,2,48000,-16,experiment,1,odd,6,517342,2498,87756,513880,514999,2377,89369,515032,449359,519376,520191,516103,11780,519376,NA,Sternberg Task,76,70280,79,yes,1024
96.25,96.25,885.4875,885.4875,black,experiment,legacy,legacy,legacy,0,uniform,1,undefined,1,right,79,0,0,79,79,0,0,79,79,79,79,79,0,79,0,Sun Oct 20 21:00:39 2019,The main experiment item,yes,SternnbergTask.osexp,/Users/kaylicolpitts/Desktop/adv quant/lab 3,no,mono,no,18,no,white,no,no,768,legacy,67,11,/Users/kaylicolpitts/Desktop/adv quant/lab 3/KC-subject-1.csv,legacy,2 7 5,Kafkaesque Koffka,3.2.8,0,n,0,right,left,right,right,NA,559,9273,1611,559,NA,2,legacy,3,1024,2,48000,-16,experiment,1,odd,8,523672,2498,87756,520231,521366,2377,89369,521403,449359,525706,526267,522436,11780,525706,NA,Sternberg Task,77,70839,80,yes,1024
96.2962963,96.2962963,885.8148148,885.8148148,black,experiment,legacy,legacy,legacy,0,uniform,1,undefined,1,right,80,0,0,80,80,0,0,80,80,80,80,80,0,80,0,Sun Oct 20 21:00:39 2019,The main experiment item,yes,SternnbergTask.osexp,/Users/kaylicolpitts/Desktop/adv quant/lab 3,no,mono,no,18,no,white,no,no,768,legacy,68,11,/Users/kaylicolpitts/Desktop/adv quant/lab 3/KC-subject-1.csv,legacy,7 1 5 6 3,Kafkaesque Koffka,3.2.8,0,n,0,right,left,right,right,NA,912,9273,1611,912,NA,2,legacy,5,1024,2,48000,-16,experiment,1,odd,8,529732,2498,87756,526307,527427,2377,89369,527462,449359,531765,532681,528496,11780,531765,NA,Sternberg Task,78,71751,81,yes,1024
96.34146341,96.34146341,884.5243902,884.5243902,black,experiment,legacy,legacy,legacy,0,uniform,1,undefined,1,left,81,0,0,81,81,0,0,81,81,81,81,81,0,81,0,Sun Oct 20 21:00:39 2019,The main experiment item,yes,SternnbergTask.osexp,/Users/kaylicolpitts/Desktop/adv quant/lab 3,no,mono,no,18,no,white,no,no,768,legacy,69,11,/Users/kaylicolpitts/Desktop/adv quant/lab 3/KC-subject-1.csv,legacy,7 4 2 6 3 5,Kafkaesque Koffka,3.2.8,6,y,0,left,left,right,left,NA,780,9273,1611,780,NA,2,legacy,6,1024,2,48000,-16,experiment,1,odd,5,536192,2498,87756,532721,533885,2377,89369,533920,449359,538227,539009,534955,11780,538226,NA,Sternberg Task,79,72531,82,yes,1024
96.38554217,96.38554217,883.6746988,883.6746988,black,experiment,legacy,legacy,legacy,0,uniform,1,undefined,1,left,82,0,0,82,82,0,0,82,82,82,82,82,0,82,0,Sun Oct 20 21:00:39 2019,The main experiment item,yes,SternnbergTask.osexp,/Users/kaylicolpitts/Desktop/adv quant/lab 3,no,mono,no,18,no,white,no,no,768,legacy,70,11,/Users/kaylicolpitts/Desktop/adv quant/lab 3/KC-subject-1.csv,legacy,3 5 4 7,Kafkaesque Koffka,3.2.8,1,y,0,left,left,right,left,NA,814,9273,1611,814,NA,2,legacy,4,1024,2,48000,-16,experiment,1,odd,3,542524,2498,87756,539101,540222,2377,89369,540255,449359,544565,545382,541291,11780,544565,NA,Sternberg Task,80,73345,83,yes,1024
96.42857143,96.42857143,884.8452381,884.8452381,black,experiment,legacy,legacy,legacy,0,uniform,1,undefined,1,left,83,0,0,83,83,0,0,83,83,83,83,83,0,83,0,Sun Oct 20 21:00:39 2019,The main experiment item,yes,SternnbergTask.osexp,/Users/kaylicolpitts/Desktop/adv quant/lab 3,no,mono,no,18,no,white,no,no,768,legacy,71,11,/Users/kaylicolpitts/Desktop/adv quant/lab 3/KC-subject-1.csv,legacy,5 7 8 2 3 8,Kafkaesque Koffka,3.2.8,5,y,0,left,left,right,left,NA,982,9273,1611,982,NA,2,legacy,6,1024,2,48000,-16,experiment,1,odd,3,548894,2498,87756,545430,546591,2377,89369,546625,449359,550927,551912,547659,11780,550927,NA,Sternberg Task,81,74327,84,yes,1024
96.47058824,96.47058824,884.3647059,884.3647059,black,experiment,legacy,legacy,legacy,0,uniform,1,undefined,1,left,84,0,0,84,84,0,0,84,84,84,84,84,0,84,0,Sun Oct 20 21:00:39 2019,The main experiment item,yes,SternnbergTask.osexp,/Users/kaylicolpitts/Desktop/adv quant/lab 3,no,mono,no,18,no,white,no,no,768,legacy,72,11,/Users/kaylicolpitts/Desktop/adv quant/lab 3/KC-subject-1.csv,legacy,3 5 9 6 2 4,Kafkaesque Koffka,3.2.8,1,y,0,left,left,right,left,NA,844,9273,1611,844,NA,2,legacy,6,1024,2,48000,-16,experiment,1,odd,3,555424,2498,87756,551955,553123,2377,89369,553157,449359,557459,558306,554191,11780,557459,NA,Sternberg Task,82,75171,85,yes,1024
96.51162791,96.51162791,883.9302326,883.9302326,black,experiment,legacy,legacy,legacy,0,uniform,1,undefined,1,left,85,0,0,85,85,0,0,85,85,85,85,85,0,85,0,Sun Oct 20 21:00:39 2019,The main experiment item,yes,SternnbergTask.osexp,/Users/kaylicolpitts/Desktop/adv quant/lab 3,no,mono,no,18,no,white,no,no,768,legacy,73,11,/Users/kaylicolpitts/Desktop/adv quant/lab 3/KC-subject-1.csv,legacy,9 1 6 7 8,Kafkaesque Koffka,3.2.8,1,y,0,left,left,right,left,NA,847,9273,1611,847,NA,2,legacy,5,1024,2,48000,-16,experiment,1,odd,9,561761,2498,87756,558341,559459,2377,89369,559495,449359,563802,564653,560529,11780,563802,NA,Sternberg Task,83,76018,86,yes,1024
96.55172414,96.55172414,885.3218391,885.3218391,black,experiment,legacy,legacy,legacy,0,uniform,1,undefined,1,right,86,0,0,86,86,0,0,86,86,86,86,86,0,86,0,Sun Oct 20 21:00:39 2019,The main experiment item,yes,SternnbergTask.osexp,/Users/kaylicolpitts/Desktop/adv quant/lab 3,no,mono,no,18,no,white,no,no,768,legacy,74,11,/Users/kaylicolpitts/Desktop/adv quant/lab 3/KC-subject-1.csv,legacy,5 3 2 6 9 8,Kafkaesque Koffka,3.2.8,0,n,0,right,left,right,right,NA,1005,9273,1611,1005,NA,2,legacy,6,1024,2,48000,-16,experiment,1,odd,4,568163,2498,87756,564691,565858,2377,89369,565891,449359,570197,571204,566927,11780,570197,NA,Sternberg Task,84,77023,87,yes,1024
96.59090909,96.59090909,891.4204545,891.4204545,black,experiment,legacy,legacy,legacy,0,uniform,1,undefined,1,left,87,0,0,87,87,0,0,87,87,87,87,87,0,87,0,Sun Oct 20 21:00:39 2019,The main experiment item,yes,SternnbergTask.osexp,/Users/kaylicolpitts/Desktop/adv quant/lab 3,no,mono,no,18,no,white,no,no,768,legacy,75,11,/Users/kaylicolpitts/Desktop/adv quant/lab 3/KC-subject-1.csv,legacy,6 9 3 1,Kafkaesque Koffka,3.2.8,4,y,0,left,left,right,left,NA,1422,9273,1611,1422,NA,2,legacy,4,1024,2,48000,-16,experiment,1,odd,1,574719,2498,87756,571247,572414,2377,89369,572449,449359,576752,578178,573484,11780,576752,NA,Sternberg Task,85,78445,88,yes,1024
96.62921348,96.62921348,889.1235955,889.1235955,black,experiment,legacy,legacy,legacy,0,uniform,1,undefined,1,right,88,0,0,88,88,0,0,88,88,88,88,88,0,88,0,Sun Oct 20 21:00:39 2019,The main experiment item,yes,SternnbergTask.osexp,/Users/kaylicolpitts/Desktop/adv quant/lab 3,no,mono,no,18,no,white,no,no,768,legacy,76,11,/Users/kaylicolpitts/Desktop/adv quant/lab 3/KC-subject-1.csv,legacy,1 6 4 3 9 7,Kafkaesque Koffka,3.2.8,0,n,0,right,left,right,right,NA,687,9273,1611,687,NA,2,legacy,6,1024,2,48000,-16,experiment,1,odd,8,581696,2498,87756,578221,579391,2377,89369,579426,449359,583730,584419,580461,11780,583730,NA,Sternberg Task,86,79132,89,yes,1024
96.66666667,96.66666667,891.5777778,891.5777778,black,experiment,legacy,legacy,legacy,0,uniform,1,undefined,1,left,89,0,0,89,89,0,0,89,89,89,89,89,0,89,0,Sun Oct 20 21:00:39 2019,The main experiment item,yes,SternnbergTask.osexp,/Users/kaylicolpitts/Desktop/adv quant/lab 3,no,mono,no,18,no,white,no,no,768,legacy,77,11,/Users/kaylicolpitts/Desktop/adv quant/lab 3/KC-subject-1.csv,legacy,4 6 2 5 1,Kafkaesque Koffka,3.2.8,5,y,0,left,left,right,left,NA,1110,9273,1611,1110,NA,2,legacy,5,1024,2,48000,-16,experiment,1,odd,1,587880,2498,87756,584455,585575,2377,89369,585609,449359,589915,591028,586644,11780,589914,NA,Sternberg Task,87,80242,90,yes,1024
96.7032967,96.7032967,888.6483516,888.6483516,black,experiment,legacy,legacy,legacy,0,uniform,1,undefined,1,right,90,0,0,90,90,0,0,90,90,90,90,90,0,90,0,Sun Oct 20 21:00:39 2019,The main experiment item,yes,SternnbergTask.osexp,/Users/kaylicolpitts/Desktop/adv quant/lab 3,no,mono,no,18,no,white,no,no,768,legacy,78,11,/Users/kaylicolpitts/Desktop/adv quant/lab 3/KC-subject-1.csv,legacy,1 8 7,Kafkaesque Koffka,3.2.8,0,n,0,right,left,right,right,NA,625,9273,1611,625,NA,2,legacy,3,1024,2,48000,-16,experiment,1,odd,4,594586,2498,87756,591110,592275,2377,89369,592315,449359,596620,597248,593349,11780,596620,NA,Sternberg Task,88,80867,91,yes,1024
96.73913043,96.73913043,889.9130435,889.9130435,black,experiment,legacy,legacy,legacy,0,uniform,1,undefined,1,left,91,0,0,91,91,0,0,91,91,91,91,91,0,91,0,Sun Oct 20 21:00:39 2019,The main experiment item,yes,SternnbergTask.osexp,/Users/kaylicolpitts/Desktop/adv quant/lab 3,no,mono,no,18,no,white,no,no,768,legacy,79,11,/Users/kaylicolpitts/Desktop/adv quant/lab 3/KC-subject-1.csv,legacy,4 3 2 5 8,Kafkaesque Koffka,3.2.8,2,y,0,left,left,right,left,NA,1005,9273,1611,1005,NA,2,legacy,5,1024,2,48000,-16,experiment,1,odd,3,600742,2498,87756,597285,598436,2377,89369,598471,449359,602776,603784,599505,11780,602776,NA,Sternberg Task,89,81872,92,yes,1024
96.77419355,96.77419355,886.7526882,886.7526882,black,experiment,legacy,legacy,legacy,0,uniform,1,undefined,1,left,92,0,0,92,92,0,0,92,92,92,92,92,0,92,0,Sun Oct 20 21:00:39 2019,The main experiment item,yes,SternnbergTask.osexp,/Users/kaylicolpitts/Desktop/adv quant/lab 3,no,mono,no,18,no,white,no,no,768,legacy,80,11,/Users/kaylicolpitts/Desktop/adv quant/lab 3/KC-subject-1.csv,legacy,4 6 5 8,Kafkaesque Koffka,3.2.8,1,y,0,left,left,right,left,NA,596,9273,1611,596,NA,2,legacy,4,1024,2,48000,-16,experiment,1,odd,4,607334,2498,87756,603826,604980,2377,89369,605013,449359,609369,609969,606099,11780,609369,NA,Sternberg Task,90,82468,93,yes,1024
96.80851064,96.80851064,884.3723404,884.3723404,black,experiment,legacy,legacy,legacy,0,uniform,1,undefined,1,right,93,0,0,93,93,0,0,93,93,93,93,93,0,93,0,Sun Oct 20 21:00:39 2019,The main experiment item,yes,SternnbergTask.osexp,/Users/kaylicolpitts/Desktop/adv quant/lab 3,no,mono,no,18,no,white,no,no,768,legacy,81,11,/Users/kaylicolpitts/Desktop/adv quant/lab 3/KC-subject-1.csv,legacy,7 1,Kafkaesque Koffka,3.2.8,0,n,0,right,left,right,right,NA,663,9273,1611,663,NA,2,legacy,2,1024,2,48000,-16,experiment,1,odd,8,613432,2498,87756,610010,611130,2377,89369,611165,449359,615466,616133,612198,11780,615466,NA,Sternberg Task,91,83131,94,yes,1024
95.78947368,95.78947368,884.6,884.6,black,experiment,legacy,legacy,legacy,0,uniform,0,undefined,0,left,94,0,0,94,94,0,0,94,94,94,94,94,0,94,0,Sun Oct 20 21:00:39 2019,The main experiment item,yes,SternnbergTask.osexp,/Users/kaylicolpitts/Desktop/adv quant/lab 3,no,mono,no,18,no,white,no,no,768,legacy,82,11,/Users/kaylicolpitts/Desktop/adv quant/lab 3/KC-subject-1.csv,legacy,5 2 9 6 1 7,Kafkaesque Koffka,3.2.8,3,y,0,right,left,right,right,NA,906,9273,1611,906,NA,2,legacy,6,1024,2,48000,-16,experiment,1,odd,9,619627,2498,87756,616172,617311,2377,89369,617347,449359,621662,622570,618390,11780,621662,NA,Sternberg Task,91,84037,95,yes,1024
95.83333333,95.83333333,882.09375,882.09375,black,experiment,legacy,legacy,legacy,0,uniform,1,undefined,1,right,95,0,0,95,95,0,0,95,95,95,95,95,0,95,0,Sun Oct 20 21:00:39 2019,The main experiment item,yes,SternnbergTask.osexp,/Users/kaylicolpitts/Desktop/adv quant/lab 3,no,mono,no,18,no,white,no,no,768,legacy,83,11,/Users/kaylicolpitts/Desktop/adv quant/lab 3/KC-subject-1.csv,legacy,7 1 8 4 9 3,Kafkaesque Koffka,3.2.8,0,n,0,right,left,right,right,NA,644,9273,1611,644,NA,2,legacy,6,1024,2,48000,-16,experiment,1,odd,6,626043,2498,87756,616172,623737,2377,89369,623774,622611,628106,628754,624807,11780,628106,NA,Sternberg Task,92,84681,96,yes,1024
95.87628866,95.87628866,879.6804124,879.6804124,black,experiment,legacy,legacy,legacy,0,uniform,1,undefined,1,right,96,0,0,96,96,0,0,96,96,96,96,96,0,96,0,Sun Oct 20 21:00:39 2019,The main experiment item,yes,SternnbergTask.osexp,/Users/kaylicolpitts/Desktop/adv quant/lab 3,no,mono,no,18,no,white,no,no,768,legacy,84,11,/Users/kaylicolpitts/Desktop/adv quant/lab 3/KC-subject-1.csv,legacy,2 3 8 5 6 7,Kafkaesque Koffka,3.2.8,0,n,0,right,left,right,right,NA,648,9273,1611,648,NA,2,legacy,6,1024,2,48000,-16,experiment,1,odd,1,632229,2498,87756,628804,629924,2377,89369,629958,622611,634264,634914,630993,11780,634264,NA,Sternberg Task,93,85329,97,yes,1024
94.89795918,94.89795918,876.6122449,876.6122449,black,experiment,legacy,legacy,legacy,0,uniform,0,undefined,0,left,97,0,0,97,97,0,0,97,97,97,97,97,0,97,0,Sun Oct 20 21:00:39 2019,The main experiment item,yes,SternnbergTask.osexp,/Users/kaylicolpitts/Desktop/adv quant/lab 3,no,mono,no,18,no,white,no,no,768,legacy,85,11,/Users/kaylicolpitts/Desktop/adv quant/lab 3/KC-subject-1.csv,legacy,6 5,Kafkaesque Koffka,3.2.8,2,y,0,right,left,right,right,NA,579,9273,1611,579,NA,2,legacy,2,1024,2,48000,-16,experiment,1,odd,5,638435,2498,87756,634957,636123,2377,89369,636166,622611,640470,641052,637201,11780,640470,NA,Sternberg Task,93,85908,98,yes,1024
94.94949495,94.94949495,876.5858586,876.5858586,black,experiment,legacy,legacy,legacy,0,uniform,1,undefined,1,right,98,0,0,98,98,0,0,98,98,98,98,98,0,98,0,Sun Oct 20 21:00:39 2019,The main experiment item,yes,SternnbergTask.osexp,/Users/kaylicolpitts/Desktop/adv quant/lab 3,no,mono,no,18,no,white,no,no,768,legacy,86,11,/Users/kaylicolpitts/Desktop/adv quant/lab 3/KC-subject-1.csv,legacy,8 2 1 4 5 9,Kafkaesque Koffka,3.2.8,0,n,0,right,left,right,right,NA,874,9273,1611,874,NA,2,legacy,6,1024,2,48000,-16,experiment,1,odd,7,644536,2498,87756,634957,642231,2377,89369,642265,641111,646570,647447,643300,11780,646570,NA,Sternberg Task,94,86782,99,yes,1024
95,95,874.6,874.6,black,experiment,legacy,legacy,legacy,0,uniform,1,undefined,1,left,99,0,0,99,99,0,0,99,99,99,99,99,0,99,0,Sun Oct 20 21:00:39 2019,The main experiment item,yes,SternnbergTask.osexp,/Users/kaylicolpitts/Desktop/adv quant/lab 3,no,mono,no,18,no,white,no,no,768,legacy,87,11,/Users/kaylicolpitts/Desktop/adv quant/lab 3/KC-subject-1.csv,legacy,6 9 7 4 5 1,Kafkaesque Koffka,3.2.8,2,y,0,left,left,right,left,NA,678,9273,1611,678,NA,2,legacy,6,1024,2,48000,-16,experiment,1,odd,9,650965,2498,87756,647496,648659,2377,89369,648693,641111,652999,653681,649729,11780,652998,NA,Sternberg Task,95,87460,100,yes,1024
95.04950495,95.04950495,871.0990099,871.0990099,black,experiment,legacy,legacy,legacy,0,uniform,1,undefined,1,left,100,0,0,100,100,0,0,100,100,100,100,100,0,100,0,Sun Oct 20 21:00:39 2019,The main experiment item,yes,SternnbergTask.osexp,/Users/kaylicolpitts/Desktop/adv quant/lab 3,no,mono,no,18,no,white,no,no,768,legacy,88,11,/Users/kaylicolpitts/Desktop/adv quant/lab 3/KC-subject-1.csv,legacy,3 9 7 6 4,Kafkaesque Koffka,3.2.8,3,y,0,left,left,right,left,NA,521,9273,1611,521,NA,2,legacy,5,1024,2,48000,-16,experiment,1,odd,7,657136,2498,87756,653716,654835,2377,89369,654869,641111,659170,659694,655903,11780,659169,NA,Sternberg Task,96,87981,101,yes,1024
95.09803922,95.09803922,871.1372549,871.1372549,black,experiment,legacy,legacy,legacy,0,uniform,1,undefined,1,left,101,0,0,101,101,0,0,101,101,101,101,101,0,101,0,Sun Oct 20 21:00:39 2019,The main experiment item,yes,SternnbergTask.osexp,/Users/kaylicolpitts/Desktop/adv quant/lab 3,no,mono,no,18,no,white,no,no,768,legacy,89,11,/Users/kaylicolpitts/Desktop/adv quant/lab 3/KC-subject-1.csv,legacy,2 4 6 9,Kafkaesque Koffka,3.2.8,3,y,0,left,left,right,left,NA,875,9273,1611,875,NA,2,legacy,4,1024,2,48000,-16,experiment,1,odd,6,663205,2498,87756,659733,660900,2377,89369,660933,641111,665238,666116,661969,11780,665238,NA,Sternberg Task,97,88856,102,yes,1024
95.14563107,95.14563107,873.6699029,873.6699029,black,experiment,legacy,legacy,legacy,0,uniform,1,undefined,1,left,102,0,0,102,102,0,0,102,102,102,102,102,0,102,0,Sun Oct 20 21:00:39 2019,The main experiment item,yes,SternnbergTask.osexp,/Users/kaylicolpitts/Desktop/adv quant/lab 3,no,mono,no,18,no,white,no,no,768,legacy,90,11,/Users/kaylicolpitts/Desktop/adv quant/lab 3/KC-subject-1.csv,legacy,8 5 1 3 9,Kafkaesque Koffka,3.2.8,4,y,0,left,left,right,left,NA,1132,9273,1611,1132,NA,2,legacy,5,1024,2,48000,-16,experiment,1,odd,3,669592,2498,87756,666153,667287,2377,89369,667322,641111,671628,672763,668358,11780,671628,NA,Sternberg Task,98,89988,103,yes,1024
95.19230769,95.19230769,871.8557692,871.8557692,black,experiment,legacy,legacy,legacy,0,uniform,1,undefined,1,left,103,0,0,103,103,0,0,103,103,103,103,103,0,103,0,Sun Oct 20 21:00:39 2019,The main experiment item,yes,SternnbergTask.osexp,/Users/kaylicolpitts/Desktop/adv quant/lab 3,no,mono,no,18,no,white,no,no,768,legacy,91,11,/Users/kaylicolpitts/Desktop/adv quant/lab 3/KC-subject-1.csv,legacy,3 4 9 6 2 9,Kafkaesque Koffka,3.2.8,5,y,0,left,left,right,left,NA,685,9273,1611,685,NA,2,legacy,6,1024,2,48000,-16,experiment,1,odd,2,676225,2498,87756,672803,673922,2377,89369,673957,641111,678259,678947,674992,11780,678259,NA,Sternberg Task,99,90673,104,yes,1024
95.23809524,95.23809524,872.3428571,872.3428571,black,experiment,legacy,legacy,legacy,0,uniform,1,undefined,1,left,104,0,0,104,104,0,0,104,104,104,104,104,0,104,0,Sun Oct 20 21:00:39 2019,The main experiment item,yes,SternnbergTask.osexp,/Users/kaylicolpitts/Desktop/adv quant/lab 3,no,mono,no,18,no,white,no,no,768,legacy,92,11,/Users/kaylicolpitts/Desktop/adv quant/lab 3/KC-subject-1.csv,legacy,8 5 3 7 4 6,Kafkaesque Koffka,3.2.8,6,y,0,left,left,right,left,NA,923,9273,1611,923,NA,2,legacy,6,1024,2,48000,-16,experiment,1,odd,6,682468,2498,87756,678995,680164,2377,89369,680199,641111,684502,685428,681232,11780,684502,NA,Sternberg Task,100,91596,105,yes,1024
95.28301887,95.28301887,872.8018868,872.8018868,black,experiment,legacy,legacy,legacy,0,uniform,1,undefined,1,right,105,0,0,105,105,0,0,105,105,105,105,105,0,105,0,Sun Oct 20 21:00:39 2019,The main experiment item,yes,SternnbergTask.osexp,/Users/kaylicolpitts/Desktop/adv quant/lab 3,no,mono,no,18,no,white,no,no,768,legacy,93,11,/Users/kaylicolpitts/Desktop/adv quant/lab 3/KC-subject-1.csv,legacy,3 9 1,Kafkaesque Koffka,3.2.8,0,n,0,right,left,right,right,NA,921,9273,1611,921,NA,2,legacy,3,1024,2,48000,-16,experiment,1,odd,7,688936,2498,87756,685464,686629,2377,89369,686667,641111,690970,691893,687700,11780,690970,NA,Sternberg Task,101,92517,106,yes,1024
95.3271028,95.3271028,870.8878505,870.8878505,black,experiment,legacy,legacy,legacy,0,uniform,1,undefined,1,left,106,0,0,106,106,0,0,106,106,106,106,106,0,106,0,Sun Oct 20 21:00:39 2019,The main experiment item,yes,SternnbergTask.osexp,/Users/kaylicolpitts/Desktop/adv quant/lab 3,no,mono,no,18,no,white,no,no,768,legacy,94,11,/Users/kaylicolpitts/Desktop/adv quant/lab 3/KC-subject-1.csv,legacy,2 3,Kafkaesque Koffka,3.2.8,1,y,0,left,left,right,left,NA,668,9273,1611,668,NA,2,legacy,2,1024,2,48000,-16,experiment,1,odd,2,695407,2498,87756,691930,693103,2377,89369,693137,641111,697441,698113,694172,11780,697441,NA,Sternberg Task,102,93185,107,yes,1024
95.37037037,95.37037037,872.462963,872.462963,black,experiment,legacy,legacy,legacy,0,uniform,1,undefined,1,left,107,0,0,107,107,0,0,107,107,107,107,107,0,107,0,Sun Oct 20 21:00:39 2019,The main experiment item,yes,SternnbergTask.osexp,/Users/kaylicolpitts/Desktop/adv quant/lab 3,no,mono,no,18,no,white,no,no,768,legacy,95,11,/Users/kaylicolpitts/Desktop/adv quant/lab 3/KC-subject-1.csv,legacy,6 8 9 3 4 9,Kafkaesque Koffka,3.2.8,5,y,0,left,left,right,left,NA,1041,9273,1611,1041,NA,2,legacy,6,1024,2,48000,-16,experiment,1,odd,4,701572,2498,87756,698150,699268,2377,89369,699302,641111,703607,704651,700336,11780,703607,NA,Sternberg Task,103,94226,108,yes,1024
95.41284404,95.41284404,875.3211009,875.3211009,black,experiment,legacy,legacy,legacy,0,uniform,1,undefined,1,left,108,0,0,108,108,0,0,108,108,108,108,108,0,108,0,Sun Oct 20 21:00:39 2019,The main experiment item,yes,SternnbergTask.osexp,/Users/kaylicolpitts/Desktop/adv quant/lab 3,no,mono,no,18,no,white,no,no,768,legacy,96,11,/Users/kaylicolpitts/Desktop/adv quant/lab 3/KC-subject-1.csv,legacy,6 1 2,Kafkaesque Koffka,3.2.8,3,y,0,left,left,right,left,NA,1184,9273,1611,1184,NA,2,legacy,3,1024,2,48000,-16,experiment,1,odd,2,708156,2498,87756,704695,705834,2377,89369,705870,641111,710193,711382,706922,11780,710193,NA,Sternberg Task,104,95410,109,yes,1024
95.45454545,95.45454545,874.0636364,874.0636364,black,experiment,legacy,legacy,legacy,0,uniform,1,undefined,1,right,109,0,0,109,109,0,0,109,109,109,109,109,0,109,0,Sun Oct 20 21:00:39 2019,The main experiment item,yes,SternnbergTask.osexp,/Users/kaylicolpitts/Desktop/adv quant/lab 3,no,mono,no,18,no,white,no,no,768,legacy,97,11,/Users/kaylicolpitts/Desktop/adv quant/lab 3/KC-subject-1.csv,legacy,8 9,Kafkaesque Koffka,3.2.8,0,n,0,right,left,right,right,NA,737,9273,1611,737,NA,2,legacy,2,1024,2,48000,-16,experiment,1,odd,5,714859,2498,87756,711425,712549,2377,89369,712583,641111,716894,717636,713625,11780,716894,NA,Sternberg Task,105,96147,110,yes,1024
95.4954955,95.4954955,871.9279279,871.9279279,black,experiment,legacy,legacy,legacy,0,uniform,1,undefined,1,right,110,0,0,110,110,0,0,110,110,110,110,110,0,110,0,Sun Oct 20 21:00:39 2019,The main experiment item,yes,SternnbergTask.osexp,/Users/kaylicolpitts/Desktop/adv quant/lab 3,no,mono,no,18,no,white,no,no,768,legacy,98,11,/Users/kaylicolpitts/Desktop/adv quant/lab 3/KC-subject-1.csv,legacy,7 9,Kafkaesque Koffka,3.2.8,0,n,0,right,left,right,right,NA,637,9273,1611,637,NA,2,legacy,2,1024,2,48000,-16,experiment,1,odd,1,721113,2498,87756,717678,718797,2377,89369,718831,641111,723148,723789,719866,11780,723147,NA,Sternberg Task,106,96784,111,yes,1024
95.53571429,95.53571429,871.4642857,871.4642857,black,experiment,legacy,legacy,legacy,0,uniform,1,undefined,1,right,111,0,0,111,111,0,0,111,111,111,111,111,0,111,0,Sun Oct 20 21:00:39 2019,The main experiment item,yes,SternnbergTask.osexp,/Users/kaylicolpitts/Desktop/adv quant/lab 3,no,mono,no,18,no,white,no,no,768,legacy,99,11,/Users/kaylicolpitts/Desktop/adv quant/lab 3/KC-subject-1.csv,legacy,3 4 9 6 7 8,Kafkaesque Koffka,3.2.8,0,n,0,right,left,right,right,NA,820,9273,1611,820,NA,2,legacy,6,1024,2,48000,-16,experiment,1,odd,2,727338,2498,87756,723830,724998,2377,89369,725036,641111,729373,730196,726102,11780,729373,NA,Sternberg Task,107,97604,112,yes,1024
95.57522124,95.57522124,871.3628319,871.3628319,black,experiment,legacy,legacy,legacy,0,uniform,1,undefined,1,left,112,0,0,112,112,0,0,112,112,112,112,112,0,112,0,Sun Oct 20 21:00:39 2019,The main experiment item,yes,SternnbergTask.osexp,/Users/kaylicolpitts/Desktop/adv quant/lab 3,no,mono,no,18,no,white,no,no,768,legacy,100,11,/Users/kaylicolpitts/Desktop/adv quant/lab 3/KC-subject-1.csv,legacy,7 6,Kafkaesque Koffka,3.2.8,2,y,0,left,left,right,left,NA,860,9273,1611,860,NA,2,legacy,2,1024,2,48000,-16,experiment,1,odd,6,733659,2498,87756,730231,731355,2377,89369,731390,641111,735693,736558,732424,11780,735693,NA,Sternberg Task,108,98464,113,yes,1024
94.73684211,94.73684211,873.877193,873.877193,black,experiment,legacy,legacy,legacy,0,uniform,0,undefined,0,right,113,0,0,113,113,0,0,113,113,113,113,113,0,113,0,Sun Oct 20 21:00:39 2019,The main experiment item,yes,SternnbergTask.osexp,/Users/kaylicolpitts/Desktop/adv quant/lab 3,no,mono,no,18,no,white,no,no,768,legacy,101,11,/Users/kaylicolpitts/Desktop/adv quant/lab 3/KC-subject-1.csv,legacy,9 5 3 2 8 6,Kafkaesque Koffka,3.2.8,0,n,0,left,left,right,left,NA,1158,9273,1611,1158,NA,2,legacy,6,1024,2,48000,-16,experiment,1,odd,7,740108,2498,87756,736602,737764,2377,89369,737799,641111,742143,743305,738833,11780,742142,NA,Sternberg Task,108,99622,114,yes,1024
94.7826087,94.7826087,874.7043478,874.7043478,black,experiment,legacy,legacy,legacy,0,uniform,1,undefined,1,right,114,0,0,114,114,0,0,114,114,114,114,114,0,114,0,Sun Oct 20 21:00:39 2019,The main experiment item,yes,SternnbergTask.osexp,/Users/kaylicolpitts/Desktop/adv quant/lab 3,no,mono,no,18,no,white,no,no,768,legacy,102,11,/Users/kaylicolpitts/Desktop/adv quant/lab 3/KC-subject-1.csv,legacy,2 8 9,Kafkaesque Koffka,3.2.8,0,n,0,right,left,right,right,NA,969,9273,1611,969,NA,2,legacy,3,1024,2,48000,-16,experiment,1,odd,6,746820,2498,87756,736602,744515,2377,89369,744553,743345,748854,749827,745586,11780,748854,NA,Sternberg Task,109,100591,115,yes,1024
94.82758621,94.82758621,875.2844828,875.2844828,black,experiment,legacy,legacy,legacy,0,uniform,1,undefined,1,left,115,0,0,115,115,0,0,115,115,115,115,115,0,115,0,Sun Oct 20 21:00:39 2019,The main experiment item,yes,SternnbergTask.osexp,/Users/kaylicolpitts/Desktop/adv quant/lab 3,no,mono,no,18,no,white,no,no,768,legacy,103,11,/Users/kaylicolpitts/Desktop/adv quant/lab 3/KC-subject-1.csv,legacy,8 9 5 6 7,Kafkaesque Koffka,3.2.8,1,y,0,left,left,right,left,NA,942,9273,1611,942,NA,2,legacy,5,1024,2,48000,-16,experiment,1,odd,8,753376,2498,87756,749870,751038,2377,89369,751105,743345,755411,756359,752140,11780,755411,NA,Sternberg Task,110,101533,116,yes,1024
94.87179487,94.87179487,875.8290598,875.8290598,black,experiment,legacy,legacy,legacy,0,uniform,1,undefined,1,right,116,0,0,116,116,0,0,116,116,116,116,116,0,116,0,Sun Oct 20 21:00:39 2019,The main experiment item,yes,SternnbergTask.osexp,/Users/kaylicolpitts/Desktop/adv quant/lab 3,no,mono,no,18,no,white,no,no,768,legacy,104,11,/Users/kaylicolpitts/Desktop/adv quant/lab 3/KC-subject-1.csv,legacy,4 1,Kafkaesque Koffka,3.2.8,0,n,0,right,left,right,right,NA,939,9273,1611,939,NA,2,legacy,2,1024,2,48000,-16,experiment,1,odd,6,759867,2498,87756,756407,757566,2377,89369,757600,743345,761903,762847,758633,11780,761903,NA,Sternberg Task,111,102472,117,yes,1024
94.06779661,94.06779661,874.5762712,874.5762712,black,experiment,legacy,legacy,legacy,0,uniform,0,undefined,0,left,117,0,0,117,117,0,0,117,117,117,117,117,0,117,0,Sun Oct 20 21:00:39 2019,The main experiment item,yes,SternnbergTask.osexp,/Users/kaylicolpitts/Desktop/adv quant/lab 3,no,mono,no,18,no,white,no,no,768,legacy,105,11,/Users/kaylicolpitts/Desktop/adv quant/lab 3/KC-subject-1.csv,legacy,8 5 4 7 3 1,Kafkaesque Koffka,3.2.8,2,y,0,right,left,right,right,NA,728,9273,1611,728,NA,2,legacy,6,1024,2,48000,-16,experiment,1,odd,5,766380,2498,87756,762890,764033,2377,89369,764108,743345,768414,769145,765144,11780,768414,NA,Sternberg Task,111,103200,118,yes,1024
94.11764706,94.11764706,879.6638655,879.6638655,black,experiment,legacy,legacy,legacy,0,uniform,1,undefined,1,left,118,0,0,118,118,0,0,118,118,118,118,118,0,118,0,Sun Oct 20 21:00:39 2019,The main experiment item,yes,SternnbergTask.osexp,/Users/kaylicolpitts/Desktop/adv quant/lab 3,no,mono,no,18,no,white,no,no,768,legacy,106,11,/Users/kaylicolpitts/Desktop/adv quant/lab 3/KC-subject-1.csv,legacy,7,Kafkaesque Koffka,3.2.8,1,y,0,left,left,right,left,NA,1480,9273,1611,1480,NA,2,legacy,1,1024,2,48000,-16,experiment,1,odd,7,772600,2498,87756,762890,770298,2377,89369,770333,769181,774634,776119,771367,11780,774634,NA,Sternberg Task,112,104680,119,yes,1024
94.16666667,94.16666667,880.3333333,880.3333333,black,experiment,legacy,legacy,legacy,0,uniform,1,undefined,1,right,119,0,0,119,119,0,0,119,119,119,119,119,0,119,0,Sun Oct 20 21:00:39 2019,The main experiment item,yes,SternnbergTask.osexp,/Users/kaylicolpitts/Desktop/adv quant/lab 3,no,mono,no,18,no,white,no,no,768,legacy,107,11,/Users/kaylicolpitts/Desktop/adv quant/lab 3/KC-subject-1.csv,legacy,1 7 5 2,Kafkaesque Koffka,3.2.8,0,n,0,right,left,right,right,NA,960,9273,1611,960,NA,2,legacy,4,1024,2,48000,-16,experiment,1,odd,3,779632,2498,87756,776160,777325,2377,89369,777362,769181,781666,782632,778397,11780,781666,NA,Sternberg Task,113,105640,120,yes,1024
94.21487603,94.21487603,879.9421488,879.9421488,black,experiment,legacy,legacy,legacy,0,uniform,1,undefined,1,left,120,0,0,120,120,0,0,120,120,120,120,120,0,120,0,Sun Oct 20 21:00:39 2019,The main experiment item,yes,SternnbergTask.osexp,/Users/kaylicolpitts/Desktop/adv quant/lab 3,no,mono,no,18,no,white,no,no,768,legacy,108,11,/Users/kaylicolpitts/Desktop/adv quant/lab 3/KC-subject-1.csv,legacy,3 4,Kafkaesque Koffka,3.2.8,1,y,0,left,left,right,left,NA,833,9273,1611,833,NA,2,legacy,2,1024,2,48000,-16,experiment,1,odd,3,786122,2498,87756,782673,783814,2377,89369,783852,769181,788157,788994,784886,11780,788157,NA,Sternberg Task,114,106473,121,yes,1024
94.26229508,94.26229508,878.442623,878.442623,black,experiment,legacy,legacy,legacy,0,uniform,1,undefined,1,left,121,0,0,121,121,0,0,121,121,121,121,121,0,121,0,Sun Oct 20 21:00:39 2019,The main experiment item,yes,SternnbergTask.osexp,/Users/kaylicolpitts/Desktop/adv quant/lab 3,no,mono,no,18,no,white,no,no,768,legacy,109,11,/Users/kaylicolpitts/Desktop/adv quant/lab 3/KC-subject-1.csv,legacy,8 9 5 7 1 6,Kafkaesque Koffka,3.2.8,4,y,0,left,left,right,left,NA,697,9273,1611,697,NA,2,legacy,6,1024,2,48000,-16,experiment,1,odd,7,792464,2498,87756,789036,790158,2377,89369,790192,769181,794498,795199,791226,11780,794498,NA,Sternberg Task,115,107170,122,yes,1024
94.30894309,94.30894309,876.8699187,876.8699187,black,experiment,legacy,legacy,legacy,0,uniform,1,undefined,1,right,122,0,0,122,122,0,0,122,122,122,122,122,0,122,0,Sun Oct 20 21:00:39 2019,The main experiment item,yes,SternnbergTask.osexp,/Users/kaylicolpitts/Desktop/adv quant/lab 3,no,mono,no,18,no,white,no,no,768,legacy,110,11,/Users/kaylicolpitts/Desktop/adv quant/lab 3/KC-subject-1.csv,legacy,7 3 2 8,Kafkaesque Koffka,3.2.8,0,n,0,right,left,right,right,NA,685,9273,1611,685,NA,2,legacy,4,1024,2,48000,-16,experiment,1,odd,4,798708,2498,87756,795238,796400,2377,89369,796437,769181,800742,801430,797472,11780,800742,NA,Sternberg Task,116,107855,123,yes,1024
94.35483871,94.35483871,876.3467742,876.3467742,black,experiment,legacy,legacy,legacy,0,uniform,1,undefined,1,left,123,0,0,123,123,0,0,123,123,123,123,123,0,123,0,Sun Oct 20 21:00:39 2019,The main experiment item,yes,SternnbergTask.osexp,/Users/kaylicolpitts/Desktop/adv quant/lab 3,no,mono,no,18,no,white,no,no,768,legacy,111,11,/Users/kaylicolpitts/Desktop/adv quant/lab 3/KC-subject-1.csv,legacy,8 3,Kafkaesque Koffka,3.2.8,2,y,0,left,left,right,left,NA,812,9273,1611,812,NA,2,legacy,2,1024,2,48000,-16,experiment,1,odd,3,804887,2498,87756,801466,802583,2377,89369,802617,769181,806921,807737,803651,11780,806921,NA,Sternberg Task,117,108667,124,yes,1024
94.4,94.4,874.48,874.48,black,experiment,legacy,legacy,legacy,0,uniform,1,undefined,1,right,124,0,0,124,124,0,0,124,124,124,124,124,0,124,0,Sun Oct 20 21:00:39 2019,The main experiment item,yes,SternnbergTask.osexp,/Users/kaylicolpitts/Desktop/adv quant/lab 3,no,mono,no,18,no,white,no,no,768,legacy,112,11,/Users/kaylicolpitts/Desktop/adv quant/lab 3/KC-subject-1.csv,legacy,1 7 8 3 9,Kafkaesque Koffka,3.2.8,0,n,0,right,left,right,right,NA,643,9273,1611,643,NA,2,legacy,5,1024,2,48000,-16,experiment,1,odd,2,811232,2498,87756,807777,808929,2377,89369,808963,769181,813271,813919,809997,11780,813271,NA,Sternberg Task,118,109310,125,yes,1024
94.44444444,94.44444444,874.4126984,874.4126984,black,experiment,legacy,legacy,legacy,0,uniform,1,undefined,1,left,125,0,0,125,125,0,0,125,125,125,125,125,0,125,0,Sun Oct 20 21:00:39 2019,The main experiment item,yes,SternnbergTask.osexp,/Users/kaylicolpitts/Desktop/adv quant/lab 3,no,mono,no,18,no,white,no,no,768,legacy,113,11,/Users/kaylicolpitts/Desktop/adv quant/lab 3/KC-subject-1.csv,legacy,2 6 1 7 4,Kafkaesque Koffka,3.2.8,2,y,0,left,left,right,left,NA,866,9273,1611,866,NA,2,legacy,5,1024,2,48000,-16,experiment,1,odd,6,817386,2498,87756,813961,815080,2377,89369,815115,769181,819419,820289,816149,11780,819419,NA,Sternberg Task,119,110176,126,yes,1024
93.7007874,93.7007874,868.1496063,868.1496063,black,experiment,legacy,legacy,legacy,0,uniform,0,undefined,0,right,126,0,0,126,126,0,0,126,126,126,126,126,0,126,0,Sun Oct 20 21:00:39 2019,The main experiment item,yes,SternnbergTask.osexp,/Users/kaylicolpitts/Desktop/adv quant/lab 3,no,mono,no,18,no,white,no,no,768,legacy,114,11,/Users/kaylicolpitts/Desktop/adv quant/lab 3/KC-subject-1.csv,legacy,1,Kafkaesque Koffka,3.2.8,0,n,0,left,left,right,left,NA,79,9273,1611,79,NA,2,legacy,1,1024,2,48000,-16,experiment,1,odd,7,823801,2498,87756,820330,821496,2377,89369,821530,769181,825835,825916,822565,11780,825835,NA,Sternberg Task,119,110255,127,yes,1024
93.75,93.75,868.3515625,868.3515625,black,experiment,legacy,legacy,legacy,0,uniform,1,undefined,1,right,127,0,0,127,127,0,0,127,127,127,127,127,0,127,0,Sun Oct 20 21:00:39 2019,The main experiment item,yes,SternnbergTask.osexp,/Users/kaylicolpitts/Desktop/adv quant/lab 3,no,mono,no,18,no,white,no,no,768,legacy,115,11,/Users/kaylicolpitts/Desktop/adv quant/lab 3/KC-subject-1.csv,legacy,5 9 2 3,Kafkaesque Koffka,3.2.8,0,n,0,right,left,right,right,NA,894,9273,1611,894,NA,2,legacy,4,1024,2,48000,-16,experiment,1,odd,8,829375,2498,87756,820330,827071,2377,89369,827106,825953,831409,832308,828139,11780,831409,NA,Sternberg Task,120,111149,128,yes,1024
93.79844961,93.79844961,870.2093023,870.2093023,black,experiment,legacy,legacy,legacy,0,uniform,1,undefined,1,right,128,0,0,128,128,0,0,128,128,128,128,128,0,128,0,Sun Oct 20 21:00:39 2019,The main experiment item,yes,SternnbergTask.osexp,/Users/kaylicolpitts/Desktop/adv quant/lab 3,no,mono,no,18,no,white,no,no,768,legacy,116,11,/Users/kaylicolpitts/Desktop/adv quant/lab 3/KC-subject-1.csv,legacy,1 5 3 2 8,Kafkaesque Koffka,3.2.8,0,n,0,right,left,right,right,NA,1108,9273,1611,1108,NA,2,legacy,5,1024,2,48000,-16,experiment,1,odd,4,835822,2498,87756,832350,833515,2377,89369,833550,825953,837856,838967,834585,11780,837856,NA,Sternberg Task,121,112257,129,yes,1024
93.84615385,93.84615385,873.6230769,873.6230769,black,experiment,legacy,legacy,legacy,0,uniform,1,undefined,1,right,129,0,0,129,129,0,0,129,129,129,129,129,0,129,0,Sun Oct 20 21:00:39 2019,The main experiment item,yes,SternnbergTask.osexp,/Users/kaylicolpitts/Desktop/adv quant/lab 3,no,mono,no,18,no,white,no,no,768,legacy,117,11,/Users/kaylicolpitts/Desktop/adv quant/lab 3/KC-subject-1.csv,legacy,4 2 6 9,Kafkaesque Koffka,3.2.8,0,n,0,right,left,right,right,NA,1314,9273,1611,1314,NA,2,legacy,4,1024,2,48000,-16,experiment,1,odd,7,842457,2498,87756,839009,840151,2377,89369,840189,825953,844492,845812,841223,11780,844492,NA,Sternberg Task,122,113571,130,yes,1024
93.89312977,93.89312977,872.5419847,872.5419847,black,experiment,legacy,legacy,legacy,0,uniform,1,undefined,1,left,130,0,0,130,130,0,0,130,130,130,130,130,0,130,0,Sun Oct 20 21:00:39 2019,The main experiment item,yes,SternnbergTask.osexp,/Users/kaylicolpitts/Desktop/adv quant/lab 3,no,mono,no,18,no,white,no,no,768,legacy,118,11,/Users/kaylicolpitts/Desktop/adv quant/lab 3/KC-subject-1.csv,legacy,9 6 2 4 1,Kafkaesque Koffka,3.2.8,4,y,0,left,left,right,left,NA,732,9273,1611,732,NA,2,legacy,5,1024,2,48000,-16,experiment,1,odd,4,849337,2498,87756,845855,846985,2377,89369,847018,825953,851372,852108,848101,11780,851371,NA,Sternberg Task,123,114303,131,yes,1024
93.93939394,93.93939394,871.3181818,871.3181818,black,experiment,legacy,legacy,legacy,0,uniform,1,undefined,1,right,131,0,0,131,131,0,0,131,131,131,131,131,0,131,0,Sun Oct 20 21:00:39 2019,The main experiment item,yes,SternnbergTask.osexp,/Users/kaylicolpitts/Desktop/adv quant/lab 3,no,mono,no,18,no,white,no,no,768,legacy,119,11,/Users/kaylicolpitts/Desktop/adv quant/lab 3/KC-subject-1.csv,legacy,1 7 5 2 9,Kafkaesque Koffka,3.2.8,0,n,0,right,left,right,right,NA,711,9273,1611,711,NA,2,legacy,5,1024,2,48000,-16,experiment,1,odd,3,855573,2498,87756,852148,853268,2377,89369,853303,825953,857608,858322,854337,11780,857608,NA,Sternberg Task,124,115014,132,yes,1024
93.98496241,93.98496241,875.7067669,875.7067669,black,experiment,legacy,legacy,legacy,0,uniform,1,undefined,1,right,132,0,0,132,132,0,0,132,132,132,132,132,0,132,0,Sun Oct 20 21:00:39 2019,The main experiment item,yes,SternnbergTask.osexp,/Users/kaylicolpitts/Desktop/adv quant/lab 3,no,mono,no,18,no,white,no,no,768,legacy,120,11,/Users/kaylicolpitts/Desktop/adv quant/lab 3/KC-subject-1.csv,legacy,7 6 4 8 1 2,Kafkaesque Koffka,3.2.8,0,n,0,right,left,right,right,NA,1455,9273,1611,1455,NA,2,legacy,6,1024,2,48000,-16,experiment,1,odd,9,861831,2498,87756,858363,859530,2377,89369,859565,825953,863866,865327,860598,11780,863866,NA,Sternberg Task,125,116469,133,yes,1024
94.02985075,94.02985075,874.5074627,874.5074627,black,experiment,legacy,legacy,legacy,0,uniform,1,undefined,1,right,133,0,0,133,133,0,0,133,133,133,133,133,0,133,0,Sun Oct 20 21:00:39 2019,The main experiment item,yes,SternnbergTask.osexp,/Users/kaylicolpitts/Desktop/adv quant/lab 3,no,mono,no,18,no,white,no,no,768,legacy,121,11,/Users/kaylicolpitts/Desktop/adv quant/lab 3/KC-subject-1.csv,legacy,1 6 4,Kafkaesque Koffka,3.2.8,0,n,0,right,left,right,right,NA,715,9273,1611,715,NA,2,legacy,3,1024,2,48000,-16,experiment,1,odd,7,868846,2498,87756,865371,866540,2377,89369,866576,825953,870880,871599,867610,11780,870880,NA,Sternberg Task,126,117184,134,yes,1024
94.07407407,94.07407407,873.5555556,873.5555556,black,experiment,legacy,legacy,legacy,0,uniform,1,undefined,1,right,134,0,0,134,134,0,0,134,134,134,134,134,0,134,0,Sun Oct 20 21:00:39 2019,The main experiment item,yes,SternnbergTask.osexp,/Users/kaylicolpitts/Desktop/adv quant/lab 3,no,mono,no,18,no,white,no,no,768,legacy,122,11,/Users/kaylicolpitts/Desktop/adv quant/lab 3/KC-subject-1.csv,legacy,2 8 9 4 1,Kafkaesque Koffka,3.2.8,0,n,0,right,left,right,right,NA,746,9273,1611,746,NA,2,legacy,5,1024,2,48000,-16,experiment,1,odd,5,875110,2498,87756,871635,872753,2377,89369,872786,825953,877146,877896,873820,11780,877145,NA,Sternberg Task,127,117930,135,yes,1024
94.11764706,94.11764706,874.7573529,874.7573529,black,experiment,legacy,legacy,legacy,0,uniform,1,undefined,1,right,135,0,0,135,135,0,0,135,135,135,135,135,0,135,0,Sun Oct 20 21:00:39 2019,The main experiment item,yes,SternnbergTask.osexp,/Users/kaylicolpitts/Desktop/adv quant/lab 3,no,mono,no,18,no,white,no,no,768,legacy,123,11,/Users/kaylicolpitts/Desktop/adv quant/lab 3/KC-subject-1.csv,legacy,9,Kafkaesque Koffka,3.2.8,0,n,0,right,left,right,right,NA,1037,9273,1611,1037,NA,2,legacy,1,1024,2,48000,-16,experiment,1,odd,6,881380,2498,87756,877935,879073,2377,89369,879110,825953,883417,884457,880144,11780,883417,NA,Sternberg Task,128,118967,136,yes,1024
94.16058394,94.16058394,876.0510949,876.0510949,black,experiment,legacy,legacy,legacy,0,uniform,1,undefined,1,right,136,0,0,136,136,0,0,136,136,136,136,136,0,136,0,Sun Oct 20 21:00:39 2019,The main experiment item,yes,SternnbergTask.osexp,/Users/kaylicolpitts/Desktop/adv quant/lab 3,no,mono,no,18,no,white,no,no,768,legacy,124,11,/Users/kaylicolpitts/Desktop/adv quant/lab 3/KC-subject-1.csv,legacy,3 9 8 1 6 4,Kafkaesque Koffka,3.2.8,0,n,0,right,left,right,right,NA,1052,9273,1611,1052,NA,2,legacy,6,1024,2,48000,-16,experiment,1,odd,7,887936,2498,87756,884497,885632,2377,89369,885667,825953,889970,891026,886702,11780,889970,NA,Sternberg Task,129,120019,137,yes,1024
94.20289855,94.20289855,878.3115942,878.3115942,black,experiment,legacy,legacy,legacy,0,uniform,1,undefined,1,left,137,0,0,137,137,0,0,137,137,137,137,137,0,137,0,Sun Oct 20 21:00:39 2019,The main experiment item,yes,SternnbergTask.osexp,/Users/kaylicolpitts/Desktop/adv quant/lab 3,no,mono,no,18,no,white,no,no,768,legacy,125,11,/Users/kaylicolpitts/Desktop/adv quant/lab 3/KC-subject-1.csv,legacy,8 1 6,Kafkaesque Koffka,3.2.8,3,y,0,left,left,right,left,NA,1188,9273,1611,1188,NA,2,legacy,3,1024,2,48000,-16,experiment,1,odd,6,894525,2498,87756,891105,892223,2377,89369,892258,825953,896559,897752,893291,11780,896559,NA,Sternberg Task,130,121207,138,yes,1024