acc,accuracy,average_response_time,avg_rt,background,block,canvas_backend,clock_backend,color_backend,compensation,coordinates,correct,correct_instruction1,correct_keyboard_response,correct_response,count_ISI,count_PracticeLoop,count_correctFeedback,count_expSequence,count_experiment,count_experimentLoop,count_fixation,count_incorrectFeedback,count_instruction1,count_instructions2,count_keyboard_response,count_logger,count_memorySet,count_probe,count_thankYou,datetime,description,disable_garbage_collection,experiment_file,experiment_path,font_bold,font_family,font_italic,font_size,font_underline,foreground,form_clicks,fullscreen,height,keyboard_backend,live_row,live_row_PracticeLoop,logfile,mouse_backend,numberSet,opensesame_codename,opensesame_version,posInSet,present,repeat_cycle,response,response_instruction1,response_instructions2,response_keyboard_response,response_thankYou,response_time,response_time_instruction1,response_time_instructions2,response_time_keyboard_response,response_time_thankYou,round_decimals,sampler_backend,setSize,sound_buf_size,sound_channels,sound_freq,sound_sample_size,start,subject_nr,subject_parity,target,time_ISI,time_PracticeLoop,time_correctFeedback,time_expSequence,time_experiment,time_experimentLoop,time_fixation,time_incorrectFeedback,time_instruction1,time_instructions2,time_keyboard_response,time_logger,time_memorySet,time_probe,time_thankYou,title,total_correct,total_response_time,total_responses,uniform_coordinates,width
100,100,758,758,black,practice,legacy,legacy,legacy,0,uniform,1,undefined,1,left,0,0,0,0,0,0,0,0,0,0,0,0,0,0,0,Sun Oct 20 17:44:26 2019,The main experiment item,yes,SternbergTask.osexp,/Users/cristianbotello/Desktop/Advanced Quant,no,mono,no,18,no,white,no,no,768,legacy,0,0,/Users/cristianbotello/Desktop/Advanced Quant/CB-subject-1.csv,legacy,1 7 9 8 5,Kafkaesque Koffka,3.2.8,4,y,0,left,left,NA,left,NA,758,71709,NA,758,NA,2,legacy,5,1024,2,48000,-16,experiment,1,odd,8,77153,74740,NA,74911,2976,NA,74923,NA,3022,NA,79166,79926,75935,79166,NA,Sternberg Task,1,758,1,yes,1024
100,100,684.5,684.5,black,practice,legacy,legacy,legacy,0,uniform,1,undefined,1,left,1,0,1,1,0,0,1,1,0,0,1,1,1,1,0,Sun Oct 20 17:44:26 2019,The main experiment item,yes,SternbergTask.osexp,/Users/cristianbotello/Desktop/Advanced Quant,no,mono,no,18,no,white,no,no,768,legacy,1,1,/Users/cristianbotello/Desktop/Advanced Quant/CB-subject-1.csv,legacy,4 3 1 7 9 8,Kafkaesque Koffka,3.2.8,1,y,0,left,left,NA,left,NA,611,71709,NA,611,NA,2,legacy,6,1024,2,48000,-16,experiment,1,odd,4,83383,74740,80004,81139,2976,NA,81153,NA,3022,NA,85397,86010,82168,85396,NA,Sternberg Task,2,1369,2,yes,1024
66.66666667,66.66666667,1123,1123,black,practice,legacy,legacy,legacy,0,uniform,0,undefined,0,right,2,0,2,2,0,0,2,2,0,0,2,2,2,2,0,Sun Oct 20 17:44:26 2019,The main experiment item,yes,SternbergTask.osexp,/Users/cristianbotello/Desktop/Advanced Quant,no,mono,no,18,no,white,no,no,768,legacy,2,2,/Users/cristianbotello/Desktop/Advanced Quant/CB-subject-1.csv,legacy,9 6 7 4 5,Kafkaesque Koffka,3.2.8,0,n,0,None,left,NA,None,NA,2000,71709,NA,2000,NA,2,legacy,5,1024,2,48000,-16,experiment,1,odd,3,89418,74740,86027,87178,2976,NA,87191,NA,3022,NA,91433,93433,88206,91433,NA,Sternberg Task,2,3369,3,yes,1024
75,75,1000.5,1000.5,black,practice,legacy,legacy,legacy,0,uniform,1,undefined,1,left,3,0,3,3,0,0,3,3,0,0,3,3,3,3,0,Sun Oct 20 17:44:26 2019,The main experiment item,yes,SternbergTask.osexp,/Users/cristianbotello/Desktop/Advanced Quant,no,mono,no,18,no,white,no,no,768,legacy,3,3,/Users/cristianbotello/Desktop/Advanced Quant/CB-subject-1.csv,legacy,4 8,Kafkaesque Koffka,3.2.8,1,y,0,left,left,NA,left,NA,633,71709,NA,633,NA,2,legacy,2,1024,2,48000,-16,experiment,1,odd,4,96858,74740,86027,94617,2976,NA,94631,93449,3022,NA,98873,99508,95647,98873,NA,Sternberg Task,3,4002,4,yes,1024
80,80,928.4,928.4,black,practice,legacy,legacy,legacy,0,uniform,1,undefined,1,left,4,0,4,4,0,0,4,4,0,0,4,4,4,4,0,Sun Oct 20 17:44:26 2019,The main experiment item,yes,SternbergTask.osexp,/Users/cristianbotello/Desktop/Advanced Quant,no,mono,no,18,no,white,no,no,768,legacy,4,4,/Users/cristianbotello/Desktop/Advanced Quant/CB-subject-1.csv,legacy,6,Kafkaesque Koffka,3.2.8,1,y,0,left,left,NA,left,NA,640,71709,NA,640,NA,2,legacy,1,1024,2,48000,-16,experiment,1,odd,6,102915,74740,99524,100673,2976,NA,100686,93449,3022,NA,104929,105571,101703,104929,NA,Sternberg Task,4,4642,5,yes,1024
83.33333333,83.33333333,902.5,902.5,black,practice,legacy,legacy,legacy,0,uniform,1,undefined,1,right,5,0,5,5,0,0,5,5,0,0,5,5,5,5,0,Sun Oct 20 17:44:26 2019,The main experiment item,yes,SternbergTask.osexp,/Users/cristianbotello/Desktop/Advanced Quant,no,mono,no,18,no,white,no,no,768,legacy,5,5,/Users/cristianbotello/Desktop/Advanced Quant/CB-subject-1.csv,legacy,5 7 8 4 1 2,Kafkaesque Koffka,3.2.8,0,n,0,right,left,NA,right,NA,773,71709,NA,773,NA,2,legacy,6,1024,2,48000,-16,experiment,1,odd,6,108979,74740,105589,106735,2976,NA,106748,93449,3022,NA,110993,111768,107764,110993,NA,Sternberg Task,5,5415,6,yes,1024
85.71428571,85.71428571,883.4285714,883.4285714,black,practice,legacy,legacy,legacy,0,uniform,1,undefined,1,left,6,0,6,6,0,0,6,6,0,0,6,6,6,6,0,Sun Oct 20 17:44:26 2019,The main experiment item,yes,SternbergTask.osexp,/Users/cristianbotello/Desktop/Advanced Quant,no,mono,no,18,no,white,no,no,768,legacy,6,6,/Users/cristianbotello/Desktop/Advanced Quant/CB-subject-1.csv,legacy,2 9 4,Kafkaesque Koffka,3.2.8,3,y,0,left,left,NA,left,NA,769,71709,NA,769,NA,2,legacy,3,1024,2,48000,-16,experiment,1,odd,4,115201,74740,111789,112963,2976,NA,112976,93449,3022,NA,117216,117987,113988,117216,NA,Sternberg Task,6,6184,7,yes,1024
87.5,87.5,837.5,837.5,black,practice,legacy,legacy,legacy,0,uniform,1,undefined,1,right,7,0,7,7,0,0,7,7,0,0,7,7,7,7,0,Sun Oct 20 17:44:26 2019,The main experiment item,yes,SternbergTask.osexp,/Users/cristianbotello/Desktop/Advanced Quant,no,mono,no,18,no,white,no,no,768,legacy,7,7,/Users/cristianbotello/Desktop/Advanced Quant/CB-subject-1.csv,legacy,5,Kafkaesque Koffka,3.2.8,0,n,0,right,left,NA,right,NA,516,71709,NA,516,NA,2,legacy,1,1024,2,48000,-16,experiment,1,odd,3,121423,74740,118004,119178,2976,NA,119191,93449,3022,NA,123437,123955,120210,123437,NA,Sternberg Task,7,6700,8,yes,1024
88.88888889,88.88888889,814.4444444,814.4444444,black,practice,legacy,legacy,legacy,0,uniform,1,undefined,1,right,8,0,8,8,0,0,8,8,0,0,8,8,8,8,0,Sun Oct 20 17:44:26 2019,The main experiment item,yes,SternbergTask.osexp,/Users/cristianbotello/Desktop/Advanced Quant,no,mono,no,18,no,white,no,no,768,legacy,8,8,/Users/cristianbotello/Desktop/Advanced Quant/CB-subject-1.csv,legacy,4 1 5,Kafkaesque Koffka,3.2.8,0,n,0,right,left,NA,right,NA,630,71709,NA,630,NA,2,legacy,3,1024,2,48000,-16,experiment,1,odd,2,127374,74740,123977,125133,2976,NA,125146,93449,3022,NA,129390,130022,126163,129389,NA,Sternberg Task,8,7330,9,yes,1024
90,90,786.9,786.9,black,practice,legacy,legacy,legacy,0,uniform,1,undefined,1,left,9,0,9,9,0,0,9,9,0,0,9,9,9,9,0,Sun Oct 20 17:44:26 2019,The main experiment item,yes,SternbergTask.osexp,/Users/cristianbotello/Desktop/Advanced Quant,no,mono,no,18,no,white,no,no,768,legacy,9,9,/Users/cristianbotello/Desktop/Advanced Quant/CB-subject-1.csv,legacy,1 5 2 9,Kafkaesque Koffka,3.2.8,2,y,0,left,left,NA,left,NA,539,71709,NA,539,NA,2,legacy,4,1024,2,48000,-16,experiment,1,odd,5,133430,74740,130041,131188,2976,NA,131202,93449,3022,NA,135445,135986,132218,135444,NA,Sternberg Task,9,7869,10,yes,1024
90.90909091,90.90909091,775.4545455,775.4545455,black,practice,legacy,legacy,legacy,0,uniform,1,undefined,1,right,10,0,10,10,0,0,10,10,0,0,10,10,10,10,0,Sun Oct 20 17:44:26 2019,The main experiment item,yes,SternbergTask.osexp,/Users/cristianbotello/Desktop/Advanced Quant,no,mono,no,18,no,white,no,no,768,legacy,10,10,/Users/cristianbotello/Desktop/Advanced Quant/CB-subject-1.csv,legacy,2 1,Kafkaesque Koffka,3.2.8,0,n,0,right,left,NA,right,NA,661,71709,NA,661,NA,2,legacy,2,1024,2,48000,-16,experiment,1,odd,5,139405,74740,136002,137160,2976,NA,137173,93449,3022,NA,141420,142082,138190,141419,NA,Sternberg Task,10,8530,11,yes,1024
91.66666667,91.66666667,770.25,770.25,black,practice,legacy,legacy,legacy,0,uniform,1,undefined,1,right,11,0,11,11,0,0,11,11,0,0,11,11,11,11,0,Sun Oct 20 17:44:26 2019,The main experiment item,yes,SternbergTask.osexp,/Users/cristianbotello/Desktop/Advanced Quant,no,mono,no,18,no,white,no,no,768,legacy,11,11,/Users/cristianbotello/Desktop/Advanced Quant/CB-subject-1.csv,legacy,3 1 9 4,Kafkaesque Koffka,3.2.8,0,n,0,right,left,NA,right,NA,713,71709,NA,713,NA,2,legacy,4,1024,2,48000,-16,experiment,1,odd,6,145494,74740,142101,143250,2976,NA,143265,93449,3022,NA,147509,148224,144281,147509,NA,Sternberg Task,11,9243,12,yes,1024
92.30769231,92.30769231,793.4615385,793.4615385,black,experiment,legacy,legacy,legacy,0,uniform,1,undefined,1,left,12,0,12,12,0,0,12,12,0,0,12,12,12,12,0,Sun Oct 20 17:44:26 2019,The main experiment item,yes,SternbergTask.osexp,/Users/cristianbotello/Desktop/Advanced Quant,no,mono,no,18,no,white,no,no,768,legacy,0,11,/Users/cristianbotello/Desktop/Advanced Quant/CB-subject-1.csv,legacy,7 1 8 5 6 2,Kafkaesque Koffka,3.2.8,2,y,0,left,left,left,left,NA,1072,71709,885950,1072,NA,2,legacy,6,1024,2,48000,-16,experiment,1,odd,1,1037773,74740,148241,1035530,2976,1035245,1035543,93449,3022,149292,1039784,1040858,1036555,1039784,NA,Sternberg Task,12,10315,13,yes,1024
92.85714286,92.85714286,768.9285714,768.9285714,black,experiment,legacy,legacy,legacy,0,uniform,1,undefined,1,right,13,0,13,13,0,0,13,13,0,0,13,13,13,13,0,Sun Oct 20 17:44:26 2019,The main experiment item,yes,SternbergTask.osexp,/Users/cristianbotello/Desktop/Advanced Quant,no,mono,no,18,no,white,no,no,768,legacy,1,11,/Users/cristianbotello/Desktop/Advanced Quant/CB-subject-1.csv,legacy,1 6 4,Kafkaesque Koffka,3.2.8,0,n,0,right,left,left,right,NA,450,71709,885950,450,NA,2,legacy,3,1024,2,48000,-16,experiment,1,odd,7,1044311,74740,1040877,1042066,2976,1035245,1042079,93449,3022,149292,1046325,1046776,1043093,1046325,NA,Sternberg Task,13,10765,14,yes,1024
93.33333333,93.33333333,749.8,749.8,black,experiment,legacy,legacy,legacy,0,uniform,1,undefined,1,left,14,0,14,14,0,0,14,14,0,0,14,14,14,14,0,Sun Oct 20 17:44:26 2019,The main experiment item,yes,SternbergTask.osexp,/Users/cristianbotello/Desktop/Advanced Quant,no,mono,no,18,no,white,no,no,768,legacy,2,11,/Users/cristianbotello/Desktop/Advanced Quant/CB-subject-1.csv,legacy,8 9 5 6 7,Kafkaesque Koffka,3.2.8,1,y,0,left,left,left,left,NA,482,71709,885950,482,NA,2,legacy,5,1024,2,48000,-16,experiment,1,odd,8,1050195,74740,1046794,1047953,2976,1035245,1047966,93449,3022,149292,1052209,1052693,1048981,1052209,NA,Sternberg Task,14,11247,15,yes,1024
93.75,93.75,735,735,black,experiment,legacy,legacy,legacy,0,uniform,1,undefined,1,right,15,0,15,15,0,0,15,15,0,0,15,15,15,15,0,Sun Oct 20 17:44:26 2019,The main experiment item,yes,SternbergTask.osexp,/Users/cristianbotello/Desktop/Advanced Quant,no,mono,no,18,no,white,no,no,768,legacy,3,11,/Users/cristianbotello/Desktop/Advanced Quant/CB-subject-1.csv,legacy,1 4 9 2 5,Kafkaesque Koffka,3.2.8,0,n,0,right,left,left,right,NA,513,71709,885950,513,NA,2,legacy,5,1024,2,48000,-16,experiment,1,odd,7,1056100,74740,1052710,1053858,2976,1035245,1053871,93449,3022,149292,1058116,1058631,1054887,1058116,NA,Sternberg Task,15,11760,16,yes,1024
94.11764706,94.11764706,718.4117647,718.4117647,black,experiment,legacy,legacy,legacy,0,uniform,1,undefined,1,right,16,0,16,16,0,0,16,16,0,0,16,16,16,16,0,Sun Oct 20 17:44:26 2019,The main experiment item,yes,SternbergTask.osexp,/Users/cristianbotello/Desktop/Advanced Quant,no,mono,no,18,no,white,no,no,768,legacy,4,11,/Users/cristianbotello/Desktop/Advanced Quant/CB-subject-1.csv,legacy,5 7 3,Kafkaesque Koffka,3.2.8,0,n,0,right,left,left,right,NA,453,71709,885950,453,NA,2,legacy,3,1024,2,48000,-16,experiment,1,odd,9,1062049,74740,1058650,1059805,2976,1035245,1059819,93449,3022,149292,1064064,1064519,1060835,1064063,NA,Sternberg Task,16,12213,17,yes,1024
94.44444444,94.44444444,703.9444444,703.9444444,black,experiment,legacy,legacy,legacy,0,uniform,1,undefined,1,right,17,0,17,17,0,0,17,17,0,0,17,17,17,17,0,Sun Oct 20 17:44:26 2019,The main experiment item,yes,SternbergTask.osexp,/Users/cristianbotello/Desktop/Advanced Quant,no,mono,no,18,no,white,no,no,768,legacy,5,11,/Users/cristianbotello/Desktop/Advanced Quant/CB-subject-1.csv,legacy,5 2,Kafkaesque Koffka,3.2.8,0,n,0,right,left,left,right,NA,458,71709,885950,458,NA,2,legacy,2,1024,2,48000,-16,experiment,1,odd,7,1067921,74740,1064537,1065677,2976,1035245,1065690,93449,3022,149292,1069934,1070394,1066706,1069934,NA,Sternberg Task,17,12671,18,yes,1024
94.73684211,94.73684211,703.3684211,703.3684211,black,experiment,legacy,legacy,legacy,0,uniform,1,undefined,1,left,18,0,18,18,0,0,18,18,0,0,18,18,18,18,0,Sun Oct 20 17:44:26 2019,The main experiment item,yes,SternbergTask.osexp,/Users/cristianbotello/Desktop/Advanced Quant,no,mono,no,18,no,white,no,no,768,legacy,6,11,/Users/cristianbotello/Desktop/Advanced Quant/CB-subject-1.csv,legacy,1 4 9 3 2 5,Kafkaesque Koffka,3.2.8,3,y,0,left,left,left,left,NA,693,71709,885950,693,NA,2,legacy,6,1024,2,48000,-16,experiment,1,odd,9,1073822,74740,1070414,1071579,2976,1035245,1071594,93449,3022,149292,1075836,1076531,1072608,1075835,NA,Sternberg Task,18,13364,19,yes,1024
95,95,697.7,697.7,black,experiment,legacy,legacy,legacy,0,uniform,1,undefined,1,right,19,0,19,19,0,0,19,19,0,0,19,19,19,19,0,Sun Oct 20 17:44:26 2019,The main experiment item,yes,SternbergTask.osexp,/Users/cristianbotello/Desktop/Advanced Quant,no,mono,no,18,no,white,no,no,768,legacy,7,11,/Users/cristianbotello/Desktop/Advanced Quant/CB-subject-1.csv,legacy,1 7 5 2 9,Kafkaesque Koffka,3.2.8,0,n,0,right,left,left,right,NA,590,71709,885950,590,NA,2,legacy,5,1024,2,48000,-16,experiment,1,odd,3,1079940,74740,1076548,1077697,2976,1035245,1077710,93449,3022,149292,1081954,1082546,1078726,1081954,NA,Sternberg Task,19,13954,20,yes,1024
95.23809524,95.23809524,691.7142857,691.7142857,black,experiment,legacy,legacy,legacy,0,uniform,1,undefined,1,left,20,0,20,20,0,0,20,20,0,0,20,20,20,20,0,Sun Oct 20 17:44:26 2019,The main experiment item,yes,SternbergTask.osexp,/Users/cristianbotello/Desktop/Advanced Quant,no,mono,no,18,no,white,no,no,768,legacy,8,11,/Users/cristianbotello/Desktop/Advanced Quant/CB-subject-1.csv,legacy,7 8 4 6 9 5,Kafkaesque Koffka,3.2.8,4,y,0,left,left,left,left,NA,572,71709,885950,572,NA,2,legacy,6,1024,2,48000,-16,experiment,1,odd,6,1085970,74740,1082563,1083722,2976,1035245,1083736,93449,3022,149292,1087984,1088558,1084753,1087984,NA,Sternberg Task,20,14526,21,yes,1024
95.45454545,95.45454545,687.1363636,687.1363636,black,experiment,legacy,legacy,legacy,0,uniform,1,undefined,1,left,21,0,21,21,0,0,21,21,0,0,21,21,21,21,0,Sun Oct 20 17:44:26 2019,The main experiment item,yes,SternbergTask.osexp,/Users/cristianbotello/Desktop/Advanced Quant,no,mono,no,18,no,white,no,no,768,legacy,9,11,/Users/cristianbotello/Desktop/Advanced Quant/CB-subject-1.csv,legacy,3 5 9 6 2 4,Kafkaesque Koffka,3.2.8,1,y,0,left,left,left,left,NA,591,71709,885950,591,NA,2,legacy,6,1024,2,48000,-16,experiment,1,odd,3,1091965,74740,1088576,1089723,2976,1035245,1089735,93449,3022,149292,1093981,1094574,1090752,1093980,NA,Sternberg Task,21,15117,22,yes,1024
95.65217391,95.65217391,677.9130435,677.9130435,black,experiment,legacy,legacy,legacy,0,uniform,1,undefined,1,right,22,0,22,22,0,0,22,22,0,0,22,22,22,22,0,Sun Oct 20 17:44:26 2019,The main experiment item,yes,SternbergTask.osexp,/Users/cristianbotello/Desktop/Advanced Quant,no,mono,no,18,no,white,no,no,768,legacy,10,11,/Users/cristianbotello/Desktop/Advanced Quant/CB-subject-1.csv,legacy,4 2 6 9,Kafkaesque Koffka,3.2.8,0,n,0,right,left,left,right,NA,475,71709,885950,475,NA,2,legacy,4,1024,2,48000,-16,experiment,1,odd,7,1097986,74740,1094590,1095744,2976,1035245,1095757,93449,3022,149292,1100000,1100478,1096774,1100000,NA,Sternberg Task,22,15592,23,yes,1024
91.66666667,91.66666667,666.0833333,666.0833333,black,experiment,legacy,legacy,legacy,0,uniform,0,undefined,0,left,23,0,23,23,0,0,23,23,0,0,23,23,23,23,0,Sun Oct 20 17:44:26 2019,The main experiment item,yes,SternbergTask.osexp,/Users/cristianbotello/Desktop/Advanced Quant,no,mono,no,18,no,white,no,no,768,legacy,11,11,/Users/cristianbotello/Desktop/Advanced Quant/CB-subject-1.csv,legacy,7 6,Kafkaesque Koffka,3.2.8,2,y,0,right,left,left,right,NA,394,71709,885950,394,NA,2,legacy,2,1024,2,48000,-16,experiment,1,odd,6,1103900,74740,1100500,1101656,2976,1035245,1101671,93449,3022,149292,1105914,1106310,1102687,1105914,NA,Sternberg Task,22,15986,24,yes,1024
92,92,665.08,665.08,black,experiment,legacy,legacy,legacy,0,uniform,1,undefined,1,left,24,0,24,24,0,0,24,24,0,0,24,24,24,24,0,Sun Oct 20 17:44:26 2019,The main experiment item,yes,SternbergTask.osexp,/Users/cristianbotello/Desktop/Advanced Quant,no,mono,no,18,no,white,no,no,768,legacy,12,11,/Users/cristianbotello/Desktop/Advanced Quant/CB-subject-1.csv,legacy,5 7 8 2 3 8,Kafkaesque Koffka,3.2.8,5,y,0,left,left,left,left,NA,641,71709,885950,641,NA,2,legacy,6,1024,2,48000,-16,experiment,1,odd,3,1109716,74740,1100500,1107474,2976,1035245,1107488,1106328,3022,149292,1111734,1112377,1108504,1111734,NA,Sternberg Task,23,16627,25,yes,1024
92.30769231,92.30769231,658.4615385,658.4615385,black,experiment,legacy,legacy,legacy,0,uniform,1,undefined,1,right,25,0,25,25,0,0,25,25,0,0,25,25,25,25,0,Sun Oct 20 17:44:26 2019,The main experiment item,yes,SternbergTask.osexp,/Users/cristianbotello/Desktop/Advanced Quant,no,mono,no,18,no,white,no,no,768,legacy,13,11,/Users/cristianbotello/Desktop/Advanced Quant/CB-subject-1.csv,legacy,2 8 9 4 1,Kafkaesque Koffka,3.2.8,0,n,0,right,left,left,right,NA,493,71709,885950,493,NA,2,legacy,5,1024,2,48000,-16,experiment,1,odd,5,1115796,74740,1112393,1113555,2976,1035245,1113568,1106328,3022,149292,1117811,1118306,1114584,1117811,NA,Sternberg Task,24,17120,26,yes,1024
88.88888889,88.88888889,654.5925926,654.5925926,black,experiment,legacy,legacy,legacy,0,uniform,0,undefined,0,right,26,0,26,26,0,0,26,26,0,0,26,26,26,26,0,Sun Oct 20 17:44:26 2019,The main experiment item,yes,SternbergTask.osexp,/Users/cristianbotello/Desktop/Advanced Quant,no,mono,no,18,no,white,no,no,768,legacy,14,11,/Users/cristianbotello/Desktop/Advanced Quant/CB-subject-1.csv,legacy,1 7 8 3 9,Kafkaesque Koffka,3.2.8,0,n,0,left,left,left,left,NA,554,71709,885950,554,NA,2,legacy,5,1024,2,48000,-16,experiment,1,odd,2,1121709,74740,1118323,1119467,2976,1035245,1119480,1106328,3022,149292,1123722,1124278,1120497,1123722,NA,Sternberg Task,24,17674,27,yes,1024
89.28571429,89.28571429,653.1785714,653.1785714,black,experiment,legacy,legacy,legacy,0,uniform,1,undefined,1,right,27,0,27,27,0,0,27,27,0,0,27,27,27,27,0,Sun Oct 20 17:44:26 2019,The main experiment item,yes,SternbergTask.osexp,/Users/cristianbotello/Desktop/Advanced Quant,no,mono,no,18,no,white,no,no,768,legacy,15,11,/Users/cristianbotello/Desktop/Advanced Quant/CB-subject-1.csv,legacy,1 4 3 6 5,Kafkaesque Koffka,3.2.8,0,n,0,right,left,left,right,NA,615,71709,885950,615,NA,2,legacy,5,1024,2,48000,-16,experiment,1,odd,8,1127693,74740,1118323,1125450,2976,1035245,1125463,1124300,3022,149292,1129709,1130327,1126479,1129709,NA,Sternberg Task,25,18289,28,yes,1024
89.65517241,89.65517241,652.1724138,652.1724138,black,experiment,legacy,legacy,legacy,0,uniform,1,undefined,1,right,28,0,28,28,0,0,28,28,0,0,28,28,28,28,0,Sun Oct 20 17:44:26 2019,The main experiment item,yes,SternbergTask.osexp,/Users/cristianbotello/Desktop/Advanced Quant,no,mono,no,18,no,white,no,no,768,legacy,16,11,/Users/cristianbotello/Desktop/Advanced Quant/CB-subject-1.csv,legacy,1 7 5 2,Kafkaesque Koffka,3.2.8,0,n,0,right,left,left,right,NA,624,71709,885950,624,NA,2,legacy,4,1024,2,48000,-16,experiment,1,odd,3,1133754,74740,1130347,1131511,2976,1035245,1131525,1124300,3022,149292,1135768,1136394,1132541,1135768,NA,Sternberg Task,26,18913,29,yes,1024
90,90,650.1666667,650.1666667,black,experiment,legacy,legacy,legacy,0,uniform,1,undefined,1,right,29,0,29,29,0,0,29,29,0,0,29,29,29,29,0,Sun Oct 20 17:44:26 2019,The main experiment item,yes,SternbergTask.osexp,/Users/cristianbotello/Desktop/Advanced Quant,no,mono,no,18,no,white,no,no,768,legacy,17,11,/Users/cristianbotello/Desktop/Advanced Quant/CB-subject-1.csv,legacy,4 1,Kafkaesque Koffka,3.2.8,0,n,0,right,left,left,right,NA,592,71709,885950,592,NA,2,legacy,2,1024,2,48000,-16,experiment,1,odd,6,1139809,74740,1136411,1137563,2976,1035245,1137577,1124300,3022,149292,1141823,1142418,1138596,1141823,NA,Sternberg Task,27,19505,30,yes,1024
90.32258065,90.32258065,656.516129,656.516129,black,experiment,legacy,legacy,legacy,0,uniform,1,undefined,1,right,30,0,30,30,0,0,30,30,0,0,30,30,30,30,0,Sun Oct 20 17:44:26 2019,The main experiment item,yes,SternbergTask.osexp,/Users/cristianbotello/Desktop/Advanced Quant,no,mono,no,18,no,white,no,no,768,legacy,18,11,/Users/cristianbotello/Desktop/Advanced Quant/CB-subject-1.csv,legacy,2 6 4 3 9,Kafkaesque Koffka,3.2.8,0,n,0,right,left,left,right,NA,847,71709,885950,847,NA,2,legacy,5,1024,2,48000,-16,experiment,1,odd,1,1145829,74740,1142437,1143587,2976,1035245,1143601,1124300,3022,149292,1147843,1148693,1144616,1147843,NA,Sternberg Task,28,20352,31,yes,1024
90.625,90.625,662.53125,662.53125,black,experiment,legacy,legacy,legacy,0,uniform,1,undefined,1,right,31,0,31,31,0,0,31,31,0,0,31,31,31,31,0,Sun Oct 20 17:44:26 2019,The main experiment item,yes,SternbergTask.osexp,/Users/cristianbotello/Desktop/Advanced Quant,no,mono,no,18,no,white,no,no,768,legacy,19,11,/Users/cristianbotello/Desktop/Advanced Quant/CB-subject-1.csv,legacy,4 8 1 2,Kafkaesque Koffka,3.2.8,0,n,0,right,left,left,right,NA,849,71709,885950,849,NA,2,legacy,4,1024,2,48000,-16,experiment,1,odd,7,1152102,74740,1148710,1149861,2976,1035245,1149874,1124300,3022,149292,1154116,1154967,1150890,1154116,NA,Sternberg Task,29,21201,32,yes,1024
90.90909091,90.90909091,658.2121212,658.2121212,black,experiment,legacy,legacy,legacy,0,uniform,1,undefined,1,left,32,0,32,32,0,0,32,32,0,0,32,32,32,32,0,Sun Oct 20 17:44:26 2019,The main experiment item,yes,SternbergTask.osexp,/Users/cristianbotello/Desktop/Advanced Quant,no,mono,no,18,no,white,no,no,768,legacy,20,11,/Users/cristianbotello/Desktop/Advanced Quant/CB-subject-1.csv,legacy,9 5 3 8 4,Kafkaesque Koffka,3.2.8,1,y,0,left,left,left,left,NA,520,71709,885950,520,NA,2,legacy,5,1024,2,48000,-16,experiment,1,odd,9,1158381,74740,1154983,1156136,2976,1035245,1156151,1124300,3022,149292,1160396,1160919,1157168,1160396,NA,Sternberg Task,30,21721,33,yes,1024
91.17647059,91.17647059,654.3235294,654.3235294,black,experiment,legacy,legacy,legacy,0,uniform,1,undefined,1,left,33,0,33,33,0,0,33,33,0,0,33,33,33,33,0,Sun Oct 20 17:44:26 2019,The main experiment item,yes,SternbergTask.osexp,/Users/cristianbotello/Desktop/Advanced Quant,no,mono,no,18,no,white,no,no,768,legacy,21,11,/Users/cristianbotello/Desktop/Advanced Quant/CB-subject-1.csv,legacy,9 8 4,Kafkaesque Koffka,3.2.8,1,y,0,left,left,left,left,NA,526,71709,885950,526,NA,2,legacy,3,1024,2,48000,-16,experiment,1,odd,9,1164335,74740,1160936,1162094,2976,1035245,1162107,1124300,3022,149292,1166349,1166877,1163122,1166349,NA,Sternberg Task,31,22247,34,yes,1024
91.42857143,91.42857143,653.0857143,653.0857143,black,experiment,legacy,legacy,legacy,0,uniform,1,undefined,1,right,34,0,34,34,0,0,34,34,0,0,34,34,34,34,0,Sun Oct 20 17:44:26 2019,The main experiment item,yes,SternbergTask.osexp,/Users/cristianbotello/Desktop/Advanced Quant,no,mono,no,18,no,white,no,no,768,legacy,22,11,/Users/cristianbotello/Desktop/Advanced Quant/CB-subject-1.csv,legacy,6 9 4 5 2,Kafkaesque Koffka,3.2.8,0,n,0,right,left,left,right,NA,611,71709,885950,611,NA,2,legacy,5,1024,2,48000,-16,experiment,1,odd,1,1170285,74740,1166895,1168043,2976,1035245,1168056,1124300,3022,149292,1172299,1172912,1169073,1172298,NA,Sternberg Task,32,22858,35,yes,1024
91.66666667,91.66666667,648.8611111,648.8611111,black,experiment,legacy,legacy,legacy,0,uniform,1,undefined,1,right,35,0,35,35,0,0,35,35,0,0,35,35,35,35,0,Sun Oct 20 17:44:26 2019,The main experiment item,yes,SternbergTask.osexp,/Users/cristianbotello/Desktop/Advanced Quant,no,mono,no,18,no,white,no,no,768,legacy,23,11,/Users/cristianbotello/Desktop/Advanced Quant/CB-subject-1.csv,legacy,4 2 7 6 1 3,Kafkaesque Koffka,3.2.8,0,n,0,right,left,left,right,NA,501,71709,885950,501,NA,2,legacy,6,1024,2,48000,-16,experiment,1,odd,8,1176322,74740,1172930,1174079,2976,1035245,1174092,1124300,3022,149292,1178336,1178839,1175109,1178336,NA,Sternberg Task,33,23359,36,yes,1024
91.89189189,91.89189189,647.1621622,647.1621622,black,experiment,legacy,legacy,legacy,0,uniform,1,undefined,1,right,36,0,36,36,0,0,36,36,0,0,36,36,36,36,0,Sun Oct 20 17:44:26 2019,The main experiment item,yes,SternbergTask.osexp,/Users/cristianbotello/Desktop/Advanced Quant,no,mono,no,18,no,white,no,no,768,legacy,24,11,/Users/cristianbotello/Desktop/Advanced Quant/CB-subject-1.csv,legacy,9,Kafkaesque Koffka,3.2.8,0,n,0,right,left,left,right,NA,586,71709,885950,586,NA,2,legacy,1,1024,2,48000,-16,experiment,1,odd,6,1182240,74740,1178856,1180000,2976,1035245,1180012,1124300,3022,149292,1184255,1184843,1181028,1184255,NA,Sternberg Task,34,23945,37,yes,1024
92.10526316,92.10526316,640.6315789,640.6315789,black,experiment,legacy,legacy,legacy,0,uniform,1,undefined,1,right,37,0,37,37,0,0,37,37,0,0,37,37,37,37,0,Sun Oct 20 17:44:26 2019,The main experiment item,yes,SternbergTask.osexp,/Users/cristianbotello/Desktop/Advanced Quant,no,mono,no,18,no,white,no,no,768,legacy,25,11,/Users/cristianbotello/Desktop/Advanced Quant/CB-subject-1.csv,legacy,1,Kafkaesque Koffka,3.2.8,0,n,0,right,left,left,right,NA,399,71709,885950,399,NA,2,legacy,1,1024,2,48000,-16,experiment,1,odd,7,1188265,74740,1184862,1186020,2976,1035245,1186033,1124300,3022,149292,1190279,1190680,1187051,1190279,NA,Sternberg Task,35,24344,38,yes,1024
92.30769231,92.30769231,640.2307692,640.2307692,black,experiment,legacy,legacy,legacy,0,uniform,1,undefined,1,right,38,0,38,38,0,0,38,38,0,0,38,38,38,38,0,Sun Oct 20 17:44:26 2019,The main experiment item,yes,SternbergTask.osexp,/Users/cristianbotello/Desktop/Advanced Quant,no,mono,no,18,no,white,no,no,768,legacy,26,11,/Users/cristianbotello/Desktop/Advanced Quant/CB-subject-1.csv,legacy,9 5 3 2 8 6,Kafkaesque Koffka,3.2.8,0,n,0,right,left,left,right,NA,625,71709,885950,625,NA,2,legacy,6,1024,2,48000,-16,experiment,1,odd,7,1194098,74740,1190701,1191857,2976,1035245,1191871,1124300,3022,149292,1196113,1196741,1192885,1196113,NA,Sternberg Task,36,24969,39,yes,1024
90,90,637.7,637.7,black,experiment,legacy,legacy,legacy,0,uniform,0,undefined,0,left,39,0,39,39,0,0,39,39,0,0,39,39,39,39,0,Sun Oct 20 17:44:26 2019,The main experiment item,yes,SternbergTask.osexp,/Users/cristianbotello/Desktop/Advanced Quant,no,mono,no,18,no,white,no,no,768,legacy,27,11,/Users/cristianbotello/Desktop/Advanced Quant/CB-subject-1.csv,legacy,6 1 2,Kafkaesque Koffka,3.2.8,3,y,0,right,left,left,right,NA,539,71709,885950,539,NA,2,legacy,3,1024,2,48000,-16,experiment,1,odd,2,1200150,74740,1196758,1197907,2976,1035245,1197921,1124300,3022,149292,1202165,1202707,1198937,1202165,NA,Sternberg Task,36,25508,40,yes,1024
90.24390244,90.24390244,645.4634146,645.4634146,black,experiment,legacy,legacy,legacy,0,uniform,1,undefined,1,left,40,0,40,40,0,0,40,40,0,0,40,40,40,40,0,Sun Oct 20 17:44:26 2019,The main experiment item,yes,SternbergTask.osexp,/Users/cristianbotello/Desktop/Advanced Quant,no,mono,no,18,no,white,no,no,768,legacy,28,11,/Users/cristianbotello/Desktop/Advanced Quant/CB-subject-1.csv,legacy,7,Kafkaesque Koffka,3.2.8,1,y,0,left,left,left,left,NA,956,71709,885950,956,NA,2,legacy,1,1024,2,48000,-16,experiment,1,odd,7,1206119,74740,1196758,1203866,2976,1035245,1203880,1202724,3022,149292,1208133,1209092,1204897,1208133,NA,Sternberg Task,37,26464,41,yes,1024
90.47619048,90.47619048,647,647,black,experiment,legacy,legacy,legacy,0,uniform,1,undefined,1,left,41,0,41,41,0,0,41,41,0,0,41,41,41,41,0,Sun Oct 20 17:44:26 2019,The main experiment item,yes,SternbergTask.osexp,/Users/cristianbotello/Desktop/Advanced Quant,no,mono,no,18,no,white,no,no,768,legacy,29,11,/Users/cristianbotello/Desktop/Advanced Quant/CB-subject-1.csv,legacy,6 5,Kafkaesque Koffka,3.2.8,2,y,0,left,left,left,left,NA,710,71709,885950,710,NA,2,legacy,2,1024,2,48000,-16,experiment,1,odd,5,1212502,74740,1209110,1210260,2976,1035245,1210273,1202724,3022,149292,1214516,1215229,1211290,1214516,NA,Sternberg Task,38,27174,42,yes,1024
90.69767442,90.69767442,642.6046512,642.6046512,black,experiment,legacy,legacy,legacy,0,uniform,1,undefined,1,left,42,0,42,42,0,0,42,42,0,0,42,42,42,42,0,Sun Oct 20 17:44:26 2019,The main experiment item,yes,SternbergTask.osexp,/Users/cristianbotello/Desktop/Advanced Quant,no,mono,no,18,no,white,no,no,768,legacy,30,11,/Users/cristianbotello/Desktop/Advanced Quant/CB-subject-1.csv,legacy,4,Kafkaesque Koffka,3.2.8,1,y,0,left,left,left,left,NA,458,71709,885950,458,NA,2,legacy,1,1024,2,48000,-16,experiment,1,odd,4,1218651,74740,1215246,1216408,2976,1035245,1216421,1202724,3022,149292,1220665,1221125,1217438,1220664,NA,Sternberg Task,39,27632,43,yes,1024
90.90909091,90.90909091,645.9545455,645.9545455,black,experiment,legacy,legacy,legacy,0,uniform,1,undefined,1,right,43,0,43,43,0,0,43,43,0,0,43,43,43,43,0,Sun Oct 20 17:44:26 2019,The main experiment item,yes,SternbergTask.osexp,/Users/cristianbotello/Desktop/Advanced Quant,no,mono,no,18,no,white,no,no,768,legacy,31,11,/Users/cristianbotello/Desktop/Advanced Quant/CB-subject-1.csv,legacy,5 9 2 3,Kafkaesque Koffka,3.2.8,0,n,0,right,left,left,right,NA,790,71709,885950,790,NA,2,legacy,4,1024,2,48000,-16,experiment,1,odd,8,1224539,74740,1221143,1222299,2976,1035245,1222312,1202724,3022,149292,1226555,1227347,1223328,1226555,NA,Sternberg Task,40,28422,44,yes,1024
91.11111111,91.11111111,649.7555556,649.7555556,black,experiment,legacy,legacy,legacy,0,uniform,1,undefined,1,right,44,0,44,44,0,0,44,44,0,0,44,44,44,44,0,Sun Oct 20 17:44:26 2019,The main experiment item,yes,SternbergTask.osexp,/Users/cristianbotello/Desktop/Advanced Quant,no,mono,no,18,no,white,no,no,768,legacy,32,11,/Users/cristianbotello/Desktop/Advanced Quant/CB-subject-1.csv,legacy,6 9 4 5 3 2,Kafkaesque Koffka,3.2.8,0,n,0,right,left,left,right,NA,817,71709,885950,817,NA,2,legacy,6,1024,2,48000,-16,experiment,1,odd,8,1230757,74740,1227364,1228517,2976,1035245,1228530,1202724,3022,149292,1232772,1233591,1229546,1232772,NA,Sternberg Task,41,29239,45,yes,1024
91.30434783,91.30434783,647.826087,647.826087,black,experiment,legacy,legacy,legacy,0,uniform,1,undefined,1,left,45,0,45,45,0,0,45,45,0,0,45,45,45,45,0,Sun Oct 20 17:44:26 2019,The main experiment item,yes,SternbergTask.osexp,/Users/cristianbotello/Desktop/Advanced Quant,no,mono,no,18,no,white,no,no,768,legacy,33,11,/Users/cristianbotello/Desktop/Advanced Quant/CB-subject-1.csv,legacy,9 4 2,Kafkaesque Koffka,3.2.8,1,y,0,left,left,left,left,NA,561,71709,885950,561,NA,2,legacy,3,1024,2,48000,-16,experiment,1,odd,9,1237003,74740,1233608,1234760,2976,1035245,1234774,1202724,3022,149292,1239018,1239581,1235791,1239017,NA,Sternberg Task,42,29800,46,yes,1024
91.4893617,91.4893617,648.212766,648.212766,black,experiment,legacy,legacy,legacy,0,uniform,1,undefined,1,left,46,0,46,46,0,0,46,46,0,0,46,46,46,46,0,Sun Oct 20 17:44:26 2019,The main experiment item,yes,SternbergTask.osexp,/Users/cristianbotello/Desktop/Advanced Quant,no,mono,no,18,no,white,no,no,768,legacy,34,11,/Users/cristianbotello/Desktop/Advanced Quant/CB-subject-1.csv,legacy,9 6 2 4 1,Kafkaesque Koffka,3.2.8,4,y,0,left,left,left,left,NA,666,71709,885950,666,NA,2,legacy,5,1024,2,48000,-16,experiment,1,odd,4,1243001,74740,1239600,1240760,2976,1035245,1240775,1202724,3022,149292,1245015,1245683,1241788,1245015,NA,Sternberg Task,43,30466,47,yes,1024
89.58333333,89.58333333,645.6666667,645.6666667,black,experiment,legacy,legacy,legacy,0,uniform,0,undefined,0,right,47,0,47,47,0,0,47,47,0,0,47,47,47,47,0,Sun Oct 20 17:44:26 2019,The main experiment item,yes,SternbergTask.osexp,/Users/cristianbotello/Desktop/Advanced Quant,no,mono,no,18,no,white,no,no,768,legacy,35,11,/Users/cristianbotello/Desktop/Advanced Quant/CB-subject-1.csv,legacy,3 9 8 1 6 4,Kafkaesque Koffka,3.2.8,0,n,0,left,left,left,left,NA,526,71709,885950,526,NA,2,legacy,6,1024,2,48000,-16,experiment,1,odd,7,1249099,74740,1245700,1246855,2976,1035245,1246870,1202724,3022,149292,1251114,1251643,1247886,1251113,NA,Sternberg Task,43,30992,48,yes,1024
89.79591837,89.79591837,646.755102,646.755102,black,experiment,legacy,legacy,legacy,0,uniform,1,undefined,1,left,48,0,48,48,0,0,48,48,0,0,48,48,48,48,0,Sun Oct 20 17:44:26 2019,The main experiment item,yes,SternbergTask.osexp,/Users/cristianbotello/Desktop/Advanced Quant,no,mono,no,18,no,white,no,no,768,legacy,36,11,/Users/cristianbotello/Desktop/Advanced Quant/CB-subject-1.csv,legacy,9 5 8 1,Kafkaesque Koffka,3.2.8,2,y,0,left,left,left,left,NA,699,71709,885950,699,NA,2,legacy,4,1024,2,48000,-16,experiment,1,odd,5,1255055,74740,1245700,1252816,2976,1035245,1252829,1251661,3022,149292,1257070,1257772,1253842,1257070,NA,Sternberg Task,44,31691,49,yes,1024
90,90,646.42,646.42,black,experiment,legacy,legacy,legacy,0,uniform,1,undefined,1,right,49,0,49,49,0,0,49,49,0,0,49,49,49,49,0,Sun Oct 20 17:44:26 2019,The main experiment item,yes,SternbergTask.osexp,/Users/cristianbotello/Desktop/Advanced Quant,no,mono,no,18,no,white,no,no,768,legacy,37,11,/Users/cristianbotello/Desktop/Advanced Quant/CB-subject-1.csv,legacy,1 4 9 3,Kafkaesque Koffka,3.2.8,0,n,0,right,left,left,right,NA,630,71709,885950,630,NA,2,legacy,4,1024,2,48000,-16,experiment,1,odd,5,1261183,74740,1257790,1258941,2976,1035245,1258954,1251661,3022,149292,1263199,1263831,1259971,1263198,NA,Sternberg Task,45,32321,50,yes,1024
90.19607843,90.19607843,643.8627451,643.8627451,black,experiment,legacy,legacy,legacy,0,uniform,1,undefined,1,left,50,0,50,50,0,0,50,50,0,0,50,50,50,50,0,Sun Oct 20 17:44:26 2019,The main experiment item,yes,SternbergTask.osexp,/Users/cristianbotello/Desktop/Advanced Quant,no,mono,no,18,no,white,no,no,768,legacy,38,11,/Users/cristianbotello/Desktop/Advanced Quant/CB-subject-1.csv,legacy,3 4,Kafkaesque Koffka,3.2.8,1,y,0,left,left,left,left,NA,516,71709,885950,516,NA,2,legacy,2,1024,2,48000,-16,experiment,1,odd,3,1267231,74740,1263847,1264991,2976,1035245,1265003,1251661,3022,149292,1269245,1269764,1266019,1269244,NA,Sternberg Task,46,32837,51,yes,1024
88.46153846,88.46153846,643.4423077,643.4423077,black,experiment,legacy,legacy,legacy,0,uniform,0,undefined,0,left,51,0,51,51,0,0,51,51,0,0,51,51,51,51,0,Sun Oct 20 17:44:26 2019,The main experiment item,yes,SternbergTask.osexp,/Users/cristianbotello/Desktop/Advanced Quant,no,mono,no,18,no,white,no,no,768,legacy,39,11,/Users/cristianbotello/Desktop/Advanced Quant/CB-subject-1.csv,legacy,2 6 1 7 4,Kafkaesque Koffka,3.2.8,2,y,0,right,left,left,right,NA,622,71709,885950,622,NA,2,legacy,5,1024,2,48000,-16,experiment,1,odd,6,1273188,74740,1269786,1270947,2976,1035245,1270960,1251661,3022,149292,1275203,1275828,1271974,1275203,NA,Sternberg Task,46,33459,52,yes,1024
88.67924528,88.67924528,644.0188679,644.0188679,black,experiment,legacy,legacy,legacy,0,uniform,1,undefined,1,right,52,0,52,52,0,0,52,52,0,0,52,52,52,52,0,Sun Oct 20 17:44:26 2019,The main experiment item,yes,SternbergTask.osexp,/Users/cristianbotello/Desktop/Advanced Quant,no,mono,no,18,no,white,no,no,768,legacy,40,11,/Users/cristianbotello/Desktop/Advanced Quant/CB-subject-1.csv,legacy,8 9,Kafkaesque Koffka,3.2.8,0,n,0,right,left,left,right,NA,674,71709,885950,674,NA,2,legacy,2,1024,2,48000,-16,experiment,1,odd,5,1279240,74740,1269786,1276999,2976,1035245,1277012,1275846,3022,149292,1281255,1281931,1278026,1281254,NA,Sternberg Task,47,34133,53,yes,1024
88.88888889,88.88888889,645.037037,645.037037,black,experiment,legacy,legacy,legacy,0,uniform,1,undefined,1,left,53,0,53,53,0,0,53,53,0,0,53,53,53,53,0,Sun Oct 20 17:44:26 2019,The main experiment item,yes,SternbergTask.osexp,/Users/cristianbotello/Desktop/Advanced Quant,no,mono,no,18,no,white,no,no,768,legacy,41,11,/Users/cristianbotello/Desktop/Advanced Quant/CB-subject-1.csv,legacy,6 7 9 3 1 2,Kafkaesque Koffka,3.2.8,1,y,0,left,left,left,left,NA,699,71709,885950,699,NA,2,legacy,6,1024,2,48000,-16,experiment,1,odd,6,1285367,74740,1281955,1283124,2976,1035245,1283137,1275846,3022,149292,1287380,1288082,1284154,1287380,NA,Sternberg Task,48,34832,54,yes,1024
89.09090909,89.09090909,641.6181818,641.6181818,black,experiment,legacy,legacy,legacy,0,uniform,1,undefined,1,right,54,0,54,54,0,0,54,54,0,0,54,54,54,54,0,Sun Oct 20 17:44:26 2019,The main experiment item,yes,SternbergTask.osexp,/Users/cristianbotello/Desktop/Advanced Quant,no,mono,no,18,no,white,no,no,768,legacy,42,11,/Users/cristianbotello/Desktop/Advanced Quant/CB-subject-1.csv,legacy,7 8 6 1,Kafkaesque Koffka,3.2.8,0,n,0,right,left,left,right,NA,457,71709,885950,457,NA,2,legacy,4,1024,2,48000,-16,experiment,1,odd,3,1291513,74740,1288099,1289269,2976,1035245,1289283,1275846,3022,149292,1293528,1293987,1290295,1293528,NA,Sternberg Task,49,35289,55,yes,1024
89.28571429,89.28571429,641,641,black,experiment,legacy,legacy,legacy,0,uniform,1,undefined,1,right,55,0,55,55,0,0,55,55,0,0,55,55,55,55,0,Sun Oct 20 17:44:26 2019,The main experiment item,yes,SternbergTask.osexp,/Users/cristianbotello/Desktop/Advanced Quant,no,mono,no,18,no,white,no,no,768,legacy,43,11,/Users/cristianbotello/Desktop/Advanced Quant/CB-subject-1.csv,legacy,8 5 7 3 6,Kafkaesque Koffka,3.2.8,0,n,0,right,left,left,right,NA,607,71709,885950,607,NA,2,legacy,5,1024,2,48000,-16,experiment,1,odd,9,1297394,74740,1294004,1295153,2976,1035245,1295166,1275846,3022,149292,1299410,1300020,1296181,1299410,NA,Sternberg Task,50,35896,56,yes,1024
89.47368421,89.47368421,641.1754386,641.1754386,black,experiment,legacy,legacy,legacy,0,uniform,1,undefined,1,right,56,0,56,56,0,0,56,56,0,0,56,56,56,56,0,Sun Oct 20 17:44:26 2019,The main experiment item,yes,SternbergTask.osexp,/Users/cristianbotello/Desktop/Advanced Quant,no,mono,no,18,no,white,no,no,768,legacy,44,11,/Users/cristianbotello/Desktop/Advanced Quant/CB-subject-1.csv,legacy,2 3 8 5 6 7,Kafkaesque Koffka,3.2.8,0,n,0,right,left,left,right,NA,651,71709,885950,651,NA,2,legacy,6,1024,2,48000,-16,experiment,1,odd,1,1303444,74740,1300040,1301204,2976,1035245,1301217,1275846,3022,149292,1305458,1306112,1302231,1305458,NA,Sternberg Task,51,36547,57,yes,1024
89.65517241,89.65517241,641.0344828,641.0344828,black,experiment,legacy,legacy,legacy,0,uniform,1,undefined,1,left,57,0,57,57,0,0,57,57,0,0,57,57,57,57,0,Sun Oct 20 17:44:26 2019,The main experiment item,yes,SternbergTask.osexp,/Users/cristianbotello/Desktop/Advanced Quant,no,mono,no,18,no,white,no,no,768,legacy,45,11,/Users/cristianbotello/Desktop/Advanced Quant/CB-subject-1.csv,legacy,8 5 3 7 4 6,Kafkaesque Koffka,3.2.8,6,y,0,left,left,left,left,NA,633,71709,885950,633,NA,2,legacy,6,1024,2,48000,-16,experiment,1,odd,6,1309518,74740,1306130,1307277,2976,1035245,1307290,1275846,3022,149292,1311533,1312168,1308306,1311533,NA,Sternberg Task,52,37180,58,yes,1024
89.83050847,89.83050847,640.1016949,640.1016949,black,experiment,legacy,legacy,legacy,0,uniform,1,undefined,1,left,58,0,58,58,0,0,58,58,0,0,58,58,58,58,0,Sun Oct 20 17:44:26 2019,The main experiment item,yes,SternbergTask.osexp,/Users/cristianbotello/Desktop/Advanced Quant,no,mono,no,18,no,white,no,no,768,legacy,46,11,/Users/cristianbotello/Desktop/Advanced Quant/CB-subject-1.csv,legacy,9 3 8 2 1 4,Kafkaesque Koffka,3.2.8,3,y,0,left,left,left,left,NA,586,71709,885950,586,NA,2,legacy,6,1024,2,48000,-16,experiment,1,odd,8,1315582,74740,1312188,1313339,2976,1035245,1313353,1275846,3022,149292,1317598,1318187,1314369,1317598,NA,Sternberg Task,53,37766,59,yes,1024
90,90,639.45,639.45,black,experiment,legacy,legacy,legacy,0,uniform,1,undefined,1,right,59,0,59,59,0,0,59,59,0,0,59,59,59,59,0,Sun Oct 20 17:44:26 2019,The main experiment item,yes,SternbergTask.osexp,/Users/cristianbotello/Desktop/Advanced Quant,no,mono,no,18,no,white,no,no,768,legacy,47,11,/Users/cristianbotello/Desktop/Advanced Quant/CB-subject-1.csv,legacy,5 3 2 6 9 8,Kafkaesque Koffka,3.2.8,0,n,0,right,left,left,right,NA,601,71709,885950,601,NA,2,legacy,6,1024,2,48000,-16,experiment,1,odd,4,1321596,74740,1318204,1319355,2976,1035245,1319368,1275846,3022,149292,1323612,1324215,1320384,1323611,NA,Sternberg Task,54,38367,60,yes,1024
90.16393443,90.16393443,639.0983607,639.0983607,black,experiment,legacy,legacy,legacy,0,uniform,1,undefined,1,left,60,0,60,60,0,0,60,60,0,0,60,60,60,60,0,Sun Oct 20 17:44:26 2019,The main experiment item,yes,SternbergTask.osexp,/Users/cristianbotello/Desktop/Advanced Quant,no,mono,no,18,no,white,no,no,768,legacy,48,11,/Users/cristianbotello/Desktop/Advanced Quant/CB-subject-1.csv,legacy,2 4 6 9,Kafkaesque Koffka,3.2.8,3,y,0,left,left,left,left,NA,618,71709,885950,618,NA,2,legacy,4,1024,2,48000,-16,experiment,1,odd,6,1327634,74740,1324232,1325391,2976,1035245,1325405,1275846,3022,149292,1329648,1330268,1326421,1329648,NA,Sternberg Task,55,38985,61,yes,1024
90.32258065,90.32258065,638.0806452,638.0806452,black,experiment,legacy,legacy,legacy,0,uniform,1,undefined,1,left,61,0,61,61,0,0,61,61,0,0,61,61,61,61,0,Sun Oct 20 17:44:26 2019,The main experiment item,yes,SternbergTask.osexp,/Users/cristianbotello/Desktop/Advanced Quant,no,mono,no,18,no,white,no,no,768,legacy,49,11,/Users/cristianbotello/Desktop/Advanced Quant/CB-subject-1.csv,legacy,4 1 8 7 5,Kafkaesque Koffka,3.2.8,3,y,0,left,left,left,left,NA,576,71709,885950,576,NA,2,legacy,5,1024,2,48000,-16,experiment,1,odd,8,1333685,74740,1330284,1331434,2976,1035245,1331454,1275846,3022,149292,1335700,1336278,1332470,1335699,NA,Sternberg Task,56,39561,62,yes,1024
90.47619048,90.47619048,640.1746032,640.1746032,black,experiment,legacy,legacy,legacy,0,uniform,1,undefined,1,left,62,0,62,62,0,0,62,62,0,0,62,62,62,62,0,Sun Oct 20 17:44:26 2019,The main experiment item,yes,SternbergTask.osexp,/Users/cristianbotello/Desktop/Advanced Quant,no,mono,no,18,no,white,no,no,768,legacy,50,11,/Users/cristianbotello/Desktop/Advanced Quant/CB-subject-1.csv,legacy,8 9 6 1,Kafkaesque Koffka,3.2.8,2,y,0,left,left,left,left,NA,770,71709,885950,770,NA,2,legacy,4,1024,2,48000,-16,experiment,1,odd,9,1339686,74740,1336295,1337437,2976,1035245,1337450,1275846,3022,149292,1341699,1342471,1338467,1341699,NA,Sternberg Task,57,40331,63,yes,1024
90.625,90.625,638.703125,638.703125,black,experiment,legacy,legacy,legacy,0,uniform,1,undefined,1,right,63,0,63,63,0,0,63,63,0,0,63,63,63,63,0,Sun Oct 20 17:44:26 2019,The main experiment item,yes,SternbergTask.osexp,/Users/cristianbotello/Desktop/Advanced Quant,no,mono,no,18,no,white,no,no,768,legacy,51,11,/Users/cristianbotello/Desktop/Advanced Quant/CB-subject-1.csv,legacy,1 5 3 2 8,Kafkaesque Koffka,3.2.8,0,n,0,right,left,left,right,NA,546,71709,885950,546,NA,2,legacy,5,1024,2,48000,-16,experiment,1,odd,4,1345887,74740,1342490,1343646,2976,1035245,1343659,1275846,3022,149292,1347902,1348451,1344675,1347902,NA,Sternberg Task,58,40877,64,yes,1024
90.76923077,90.76923077,638.5846154,638.5846154,black,experiment,legacy,legacy,legacy,0,uniform,1,undefined,1,right,64,0,64,64,0,0,64,64,0,0,64,64,64,64,0,Sun Oct 20 17:44:26 2019,The main experiment item,yes,SternbergTask.osexp,/Users/cristianbotello/Desktop/Advanced Quant,no,mono,no,18,no,white,no,no,768,legacy,52,11,/Users/cristianbotello/Desktop/Advanced Quant/CB-subject-1.csv,legacy,8 4 3 5,Kafkaesque Koffka,3.2.8,0,n,0,right,left,left,right,NA,631,71709,885950,631,NA,2,legacy,4,1024,2,48000,-16,experiment,1,odd,6,1351868,74740,1348469,1349625,2976,1035245,1349639,1275846,3022,149292,1353883,1354517,1350655,1353883,NA,Sternberg Task,59,41508,65,yes,1024
90.90909091,90.90909091,638.0606061,638.0606061,black,experiment,legacy,legacy,legacy,0,uniform,1,undefined,1,left,65,0,65,65,0,0,65,65,0,0,65,65,65,65,0,Sun Oct 20 17:44:26 2019,The main experiment item,yes,SternbergTask.osexp,/Users/cristianbotello/Desktop/Advanced Quant,no,mono,no,18,no,white,no,no,768,legacy,53,11,/Users/cristianbotello/Desktop/Advanced Quant/CB-subject-1.csv,legacy,2 8 5 1,Kafkaesque Koffka,3.2.8,4,y,0,left,left,left,left,NA,604,71709,885950,604,NA,2,legacy,4,1024,2,48000,-16,experiment,1,odd,1,1357928,74740,1354534,1355687,2976,1035245,1355700,1275846,3022,149292,1359944,1360551,1356717,1359943,NA,Sternberg Task,60,42112,66,yes,1024
91.04477612,91.04477612,636.4029851,636.4029851,black,experiment,legacy,legacy,legacy,0,uniform,1,undefined,1,left,66,0,66,66,0,0,66,66,0,0,66,66,66,66,0,Sun Oct 20 17:44:26 2019,The main experiment item,yes,SternbergTask.osexp,/Users/cristianbotello/Desktop/Advanced Quant,no,mono,no,18,no,white,no,no,768,legacy,54,11,/Users/cristianbotello/Desktop/Advanced Quant/CB-subject-1.csv,legacy,4 1 5,Kafkaesque Koffka,3.2.8,2,y,0,left,left,left,left,NA,527,71709,885950,527,NA,2,legacy,3,1024,2,48000,-16,experiment,1,odd,1,1363962,74740,1360568,1361713,2976,1035245,1361734,1275846,3022,149292,1365976,1366506,1362750,1365975,NA,Sternberg Task,61,42639,67,yes,1024
91.17647059,91.17647059,634.6911765,634.6911765,black,experiment,legacy,legacy,legacy,0,uniform,1,undefined,1,right,67,0,67,67,0,0,67,67,0,0,67,67,67,67,0,Sun Oct 20 17:44:26 2019,The main experiment item,yes,SternbergTask.osexp,/Users/cristianbotello/Desktop/Advanced Quant,no,mono,no,18,no,white,no,no,768,legacy,55,11,/Users/cristianbotello/Desktop/Advanced Quant/CB-subject-1.csv,legacy,6 7 5 9,Kafkaesque Koffka,3.2.8,0,n,0,right,left,left,right,NA,520,71709,885950,520,NA,2,legacy,4,1024,2,48000,-16,experiment,1,odd,2,1369932,74740,1366524,1367689,2976,1035245,1367702,1275846,3022,149292,1371947,1372470,1368718,1371947,NA,Sternberg Task,62,43159,68,yes,1024
91.30434783,91.30434783,633.1014493,633.1014493,black,experiment,legacy,legacy,legacy,0,uniform,1,undefined,1,right,68,0,68,68,0,0,68,68,0,0,68,68,68,68,0,Sun Oct 20 17:44:26 2019,The main experiment item,yes,SternbergTask.osexp,/Users/cristianbotello/Desktop/Advanced Quant,no,mono,no,18,no,white,no,no,768,legacy,56,11,/Users/cristianbotello/Desktop/Advanced Quant/CB-subject-1.csv,legacy,3 9 1,Kafkaesque Koffka,3.2.8,0,n,0,right,left,left,right,NA,525,71709,885950,525,NA,2,legacy,3,1024,2,48000,-16,experiment,1,odd,7,1375888,74740,1372489,1373645,2976,1035245,1373659,1275846,3022,149292,1377903,1378431,1374675,1377903,NA,Sternberg Task,63,43684,69,yes,1024
91.42857143,91.42857143,631.4714286,631.4714286,black,experiment,legacy,legacy,legacy,0,uniform,1,undefined,1,left,69,0,69,69,0,0,69,69,0,0,69,69,69,69,0,Sun Oct 20 17:44:26 2019,The main experiment item,yes,SternbergTask.osexp,/Users/cristianbotello/Desktop/Advanced Quant,no,mono,no,18,no,white,no,no,768,legacy,57,11,/Users/cristianbotello/Desktop/Advanced Quant/CB-subject-1.csv,legacy,5 2 6,Kafkaesque Koffka,3.2.8,2,y,0,left,left,left,left,NA,519,71709,885950,519,NA,2,legacy,3,1024,2,48000,-16,experiment,1,odd,2,1381843,74740,1378448,1379600,2976,1035245,1379613,1275846,3022,149292,1383858,1384380,1380628,1383858,NA,Sternberg Task,64,44203,70,yes,1024
91.54929577,91.54929577,633.7746479,633.7746479,black,experiment,legacy,legacy,legacy,0,uniform,1,undefined,1,right,70,0,70,70,0,0,70,70,0,0,70,70,70,70,0,Sun Oct 20 17:44:26 2019,The main experiment item,yes,SternbergTask.osexp,/Users/cristianbotello/Desktop/Advanced Quant,no,mono,no,18,no,white,no,no,768,legacy,58,11,/Users/cristianbotello/Desktop/Advanced Quant/CB-subject-1.csv,legacy,2 5 1 4,Kafkaesque Koffka,3.2.8,0,n,0,right,left,left,right,NA,795,71709,885950,795,NA,2,legacy,4,1024,2,48000,-16,experiment,1,odd,6,1387791,74740,1384397,1385549,2976,1035245,1385562,1275846,3022,149292,1389806,1390605,1386578,1389806,NA,Sternberg Task,65,44998,71,yes,1024
91.66666667,91.66666667,633.5,633.5,black,experiment,legacy,legacy,legacy,0,uniform,1,undefined,1,right,71,0,71,71,0,0,71,71,0,0,71,71,71,71,0,Sun Oct 20 17:44:26 2019,The main experiment item,yes,SternbergTask.osexp,/Users/cristianbotello/Desktop/Advanced Quant,no,mono,no,18,no,white,no,no,768,legacy,59,11,/Users/cristianbotello/Desktop/Advanced Quant/CB-subject-1.csv,legacy,9 8 2 7 4,Kafkaesque Koffka,3.2.8,0,n,0,right,left,left,right,NA,614,71709,885950,614,NA,2,legacy,5,1024,2,48000,-16,experiment,1,odd,5,1394022,74740,1390622,1391782,2976,1035245,1391795,1275846,3022,149292,1396038,1396655,1392809,1396038,NA,Sternberg Task,66,45612,72,yes,1024
90.4109589,90.4109589,632.890411,632.890411,black,experiment,legacy,legacy,legacy,0,uniform,0,undefined,0,left,72,0,72,72,0,0,72,72,0,0,72,72,72,72,0,Sun Oct 20 17:44:26 2019,The main experiment item,yes,SternbergTask.osexp,/Users/cristianbotello/Desktop/Advanced Quant,no,mono,no,18,no,white,no,no,768,legacy,60,11,/Users/cristianbotello/Desktop/Advanced Quant/CB-subject-1.csv,legacy,3 9 6 2,Kafkaesque Koffka,3.2.8,4,y,0,right,left,left,right,NA,589,71709,885950,589,NA,2,legacy,4,1024,2,48000,-16,experiment,1,odd,2,1400071,74740,1396672,1397830,2976,1035245,1397845,1275846,3022,149292,1402085,1402677,1398858,1402085,NA,Sternberg Task,66,46201,73,yes,1024
89.18918919,89.18918919,634,634,black,experiment,legacy,legacy,legacy,0,uniform,0,undefined,0,right,73,0,73,73,0,0,73,73,0,0,73,73,73,73,0,Sun Oct 20 17:44:26 2019,The main experiment item,yes,SternbergTask.osexp,/Users/cristianbotello/Desktop/Advanced Quant,no,mono,no,18,no,white,no,no,768,legacy,61,11,/Users/cristianbotello/Desktop/Advanced Quant/CB-subject-1.csv,legacy,8 4 3 9,Kafkaesque Koffka,3.2.8,0,n,0,left,left,left,left,NA,715,71709,885950,715,NA,2,legacy,4,1024,2,48000,-16,experiment,1,odd,5,1406085,74740,1396672,1403844,2976,1035245,1403857,1402694,3022,149292,1408100,1408818,1404873,1408100,NA,Sternberg Task,66,46916,74,yes,1024
89.33333333,89.33333333,635.0533333,635.0533333,black,experiment,legacy,legacy,legacy,0,uniform,1,undefined,1,left,74,0,74,74,0,0,74,74,0,0,74,74,74,74,0,Sun Oct 20 17:44:26 2019,The main experiment item,yes,SternbergTask.osexp,/Users/cristianbotello/Desktop/Advanced Quant,no,mono,no,18,no,white,no,no,768,legacy,62,11,/Users/cristianbotello/Desktop/Advanced Quant/CB-subject-1.csv,legacy,8 5 1 3 9,Kafkaesque Koffka,3.2.8,4,y,0,left,left,left,left,NA,713,71709,885950,713,NA,2,legacy,5,1024,2,48000,-16,experiment,1,odd,3,1412243,74740,1396672,1410000,2976,1035245,1410014,1408835,3022,149292,1414257,1414974,1411029,1414257,NA,Sternberg Task,67,47629,75,yes,1024
89.47368421,89.47368421,634.75,634.75,black,experiment,legacy,legacy,legacy,0,uniform,1,undefined,1,right,75,0,75,75,0,0,75,75,0,0,75,75,75,75,0,Sun Oct 20 17:44:26 2019,The main experiment item,yes,SternbergTask.osexp,/Users/cristianbotello/Desktop/Advanced Quant,no,mono,no,18,no,white,no,no,768,legacy,63,11,/Users/cristianbotello/Desktop/Advanced Quant/CB-subject-1.csv,legacy,7 1,Kafkaesque Koffka,3.2.8,0,n,0,right,left,left,right,NA,612,71709,885950,612,NA,2,legacy,2,1024,2,48000,-16,experiment,1,odd,8,1418394,74740,1414991,1416150,2976,1035245,1416163,1408835,3022,149292,1420409,1421023,1417179,1420409,NA,Sternberg Task,68,48241,76,yes,1024
89.61038961,89.61038961,633.4285714,633.4285714,black,experiment,legacy,legacy,legacy,0,uniform,1,undefined,1,right,76,0,76,76,0,0,76,76,0,0,76,76,76,76,0,Sun Oct 20 17:44:26 2019,The main experiment item,yes,SternbergTask.osexp,/Users/cristianbotello/Desktop/Advanced Quant,no,mono,no,18,no,white,no,no,768,legacy,64,11,/Users/cristianbotello/Desktop/Advanced Quant/CB-subject-1.csv,legacy,3 4 2,Kafkaesque Koffka,3.2.8,0,n,0,right,left,left,right,NA,533,71709,885950,533,NA,2,legacy,3,1024,2,48000,-16,experiment,1,odd,5,1424434,74740,1421042,1422192,2976,1035245,1422205,1408835,3022,149292,1426448,1426983,1423222,1426448,NA,Sternberg Task,69,48774,77,yes,1024
89.74358974,89.74358974,634.5769231,634.5769231,black,experiment,legacy,legacy,legacy,0,uniform,1,undefined,1,left,77,0,77,77,0,0,77,77,0,0,77,77,77,77,0,Sun Oct 20 17:44:26 2019,The main experiment item,yes,SternbergTask.osexp,/Users/cristianbotello/Desktop/Advanced Quant,no,mono,no,18,no,white,no,no,768,legacy,65,11,/Users/cristianbotello/Desktop/Advanced Quant/CB-subject-1.csv,legacy,6 9 3 1,Kafkaesque Koffka,3.2.8,4,y,0,left,left,left,left,NA,723,71709,885950,723,NA,2,legacy,4,1024,2,48000,-16,experiment,1,odd,1,1430400,74740,1427004,1428158,2976,1035245,1428171,1408835,3022,149292,1432416,1433142,1429187,1432416,NA,Sternberg Task,70,49497,78,yes,1024
89.87341772,89.87341772,634.9367089,634.9367089,black,experiment,legacy,legacy,legacy,0,uniform,1,undefined,1,left,78,0,78,78,0,0,78,78,0,0,78,78,78,78,0,Sun Oct 20 17:44:26 2019,The main experiment item,yes,SternbergTask.osexp,/Users/cristianbotello/Desktop/Advanced Quant,no,mono,no,18,no,white,no,no,768,legacy,66,11,/Users/cristianbotello/Desktop/Advanced Quant/CB-subject-1.csv,legacy,6 9 7 4 5 1,Kafkaesque Koffka,3.2.8,2,y,0,left,left,left,left,NA,663,71709,885950,663,NA,2,legacy,6,1024,2,48000,-16,experiment,1,odd,9,1436549,74740,1433160,1434309,2976,1035245,1434323,1408835,3022,149292,1438565,1439233,1435338,1438564,NA,Sternberg Task,71,50160,79,yes,1024
90,90,637.1375,637.1375,black,experiment,legacy,legacy,legacy,0,uniform,1,undefined,1,left,79,0,79,79,0,0,79,79,0,0,79,79,79,79,0,Sun Oct 20 17:44:26 2019,The main experiment item,yes,SternbergTask.osexp,/Users/cristianbotello/Desktop/Advanced Quant,no,mono,no,18,no,white,no,no,768,legacy,67,11,/Users/cristianbotello/Desktop/Advanced Quant/CB-subject-1.csv,legacy,2 4 8 5 1 3,Kafkaesque Koffka,3.2.8,1,y,0,left,left,left,left,NA,811,71709,885950,811,NA,2,legacy,6,1024,2,48000,-16,experiment,1,odd,2,1442640,74740,1439249,1440397,2976,1035245,1440410,1408835,3022,149292,1444655,1445469,1441426,1444654,NA,Sternberg Task,72,50971,80,yes,1024
88.88888889,88.88888889,635.0864198,635.0864198,black,experiment,legacy,legacy,legacy,0,uniform,0,undefined,0,left,80,0,80,80,0,0,80,80,0,0,80,80,80,80,0,Sun Oct 20 17:44:26 2019,The main experiment item,yes,SternbergTask.osexp,/Users/cristianbotello/Desktop/Advanced Quant,no,mono,no,18,no,white,no,no,768,legacy,68,11,/Users/cristianbotello/Desktop/Advanced Quant/CB-subject-1.csv,legacy,4 6 2 5 1,Kafkaesque Koffka,3.2.8,5,y,0,right,left,left,right,NA,471,71709,885950,471,NA,2,legacy,5,1024,2,48000,-16,experiment,1,odd,1,1448859,74740,1445490,1446616,2976,1035245,1446629,1408835,3022,149292,1450872,1451346,1447644,1450872,NA,Sternberg Task,72,51442,81,yes,1024
89.02439024,89.02439024,632.804878,632.804878,black,experiment,legacy,legacy,legacy,0,uniform,1,undefined,1,left,81,0,81,81,0,0,81,81,0,0,81,81,81,81,0,Sun Oct 20 17:44:26 2019,The main experiment item,yes,SternbergTask.osexp,/Users/cristianbotello/Desktop/Advanced Quant,no,mono,no,18,no,white,no,no,768,legacy,69,11,/Users/cristianbotello/Desktop/Advanced Quant/CB-subject-1.csv,legacy,2 3,Kafkaesque Koffka,3.2.8,1,y,0,left,left,left,left,NA,448,71709,885950,448,NA,2,legacy,2,1024,2,48000,-16,experiment,1,odd,2,1454755,74740,1445490,1452513,2976,1035245,1452526,1451369,3022,149292,1456769,1457219,1453543,1456769,NA,Sternberg Task,73,51890,82,yes,1024
89.15662651,89.15662651,633.0120482,633.0120482,black,experiment,legacy,legacy,legacy,0,uniform,1,undefined,1,right,82,0,82,82,0,0,82,82,0,0,82,82,82,82,0,Sun Oct 20 17:44:26 2019,The main experiment item,yes,SternbergTask.osexp,/Users/cristianbotello/Desktop/Advanced Quant,no,mono,no,18,no,white,no,no,768,legacy,70,11,/Users/cristianbotello/Desktop/Advanced Quant/CB-subject-1.csv,legacy,7 3 2 8,Kafkaesque Koffka,3.2.8,0,n,0,right,left,left,right,NA,650,71709,885950,650,NA,2,legacy,4,1024,2,48000,-16,experiment,1,odd,4,1460637,74740,1457236,1458394,2976,1035245,1458407,1451369,3022,149292,1462651,1463304,1459423,1462650,NA,Sternberg Task,74,52540,83,yes,1024
88.0952381,88.0952381,631.2142857,631.2142857,black,experiment,legacy,legacy,legacy,0,uniform,0,undefined,0,left,83,0,83,83,0,0,83,83,0,0,83,83,83,83,0,Sun Oct 20 17:44:26 2019,The main experiment item,yes,SternbergTask.osexp,/Users/cristianbotello/Desktop/Advanced Quant,no,mono,no,18,no,white,no,no,768,legacy,71,11,/Users/cristianbotello/Desktop/Advanced Quant/CB-subject-1.csv,legacy,8 3,Kafkaesque Koffka,3.2.8,2,y,0,right,left,left,right,NA,482,71709,885950,482,NA,2,legacy,2,1024,2,48000,-16,experiment,1,odd,3,1466720,74740,1463322,1464477,2976,1035245,1464491,1451369,3022,149292,1468734,1469219,1465507,1468734,NA,Sternberg Task,74,53022,84,yes,1024
88.23529412,88.23529412,633.1647059,633.1647059,black,experiment,legacy,legacy,legacy,0,uniform,1,undefined,1,right,84,0,84,84,0,0,84,84,0,0,84,84,84,84,0,Sun Oct 20 17:44:26 2019,The main experiment item,yes,SternbergTask.osexp,/Users/cristianbotello/Desktop/Advanced Quant,no,mono,no,18,no,white,no,no,768,legacy,72,11,/Users/cristianbotello/Desktop/Advanced Quant/CB-subject-1.csv,legacy,7 4 2 8 1 9,Kafkaesque Koffka,3.2.8,0,n,0,right,left,left,right,NA,797,71709,885950,797,NA,2,legacy,6,1024,2,48000,-16,experiment,1,odd,5,1472654,74740,1463322,1470409,2976,1035245,1470423,1469241,3022,149292,1474669,1475469,1471436,1474668,NA,Sternberg Task,75,53819,85,yes,1024
88.37209302,88.37209302,632.127907,632.127907,black,experiment,legacy,legacy,legacy,0,uniform,1,undefined,1,right,85,0,85,85,0,0,85,85,0,0,85,85,85,85,0,Sun Oct 20 17:44:26 2019,The main experiment item,yes,SternbergTask.osexp,/Users/cristianbotello/Desktop/Advanced Quant,no,mono,no,18,no,white,no,no,768,legacy,73,11,/Users/cristianbotello/Desktop/Advanced Quant/CB-subject-1.csv,legacy,6 9 5,Kafkaesque Koffka,3.2.8,0,n,0,right,left,left,right,NA,544,71709,885950,544,NA,2,legacy,3,1024,2,48000,-16,experiment,1,odd,8,1478888,74740,1475485,1476646,2976,1035245,1476661,1469241,3022,149292,1480902,1481449,1477675,1480902,NA,Sternberg Task,76,54363,86,yes,1024
88.50574713,88.50574713,632.6436782,632.6436782,black,experiment,legacy,legacy,legacy,0,uniform,1,undefined,1,right,86,0,86,86,0,0,86,86,0,0,86,86,86,86,0,Sun Oct 20 17:44:26 2019,The main experiment item,yes,SternbergTask.osexp,/Users/cristianbotello/Desktop/Advanced Quant,no,mono,no,18,no,white,no,no,768,legacy,74,11,/Users/cristianbotello/Desktop/Advanced Quant/CB-subject-1.csv,legacy,2 8 7 9 5 3,Kafkaesque Koffka,3.2.8,0,n,0,right,left,left,right,NA,677,71709,885950,677,NA,2,legacy,6,1024,2,48000,-16,experiment,1,odd,6,1484863,74740,1481467,1482622,2976,1035245,1482635,1469241,3022,149292,1486879,1487559,1483651,1486879,NA,Sternberg Task,77,55040,87,yes,1024
88.63636364,88.63636364,634.7954545,634.7954545,black,experiment,legacy,legacy,legacy,0,uniform,1,undefined,1,right,87,0,87,87,0,0,87,87,0,0,87,87,87,87,0,Sun Oct 20 17:44:26 2019,The main experiment item,yes,SternbergTask.osexp,/Users/cristianbotello/Desktop/Advanced Quant,no,mono,no,18,no,white,no,no,768,legacy,75,11,/Users/cristianbotello/Desktop/Advanced Quant/CB-subject-1.csv,legacy,8 5 4 2 9 6,Kafkaesque Koffka,3.2.8,0,n,0,right,left,left,right,NA,822,71709,885950,822,NA,2,legacy,6,1024,2,48000,-16,experiment,1,odd,3,1490968,74740,1487576,1488727,2976,1035245,1488740,1469241,3022,149292,1492983,1493808,1489755,1492983,NA,Sternberg Task,78,55862,88,yes,1024
88.76404494,88.76404494,636.2696629,636.2696629,black,experiment,legacy,legacy,legacy,0,uniform,1,undefined,1,right,88,0,88,88,0,0,88,88,0,0,88,88,88,88,0,Sun Oct 20 17:44:26 2019,The main experiment item,yes,SternbergTask.osexp,/Users/cristianbotello/Desktop/Advanced Quant,no,mono,no,18,no,white,no,no,768,legacy,76,11,/Users/cristianbotello/Desktop/Advanced Quant/CB-subject-1.csv,legacy,1 8 7,Kafkaesque Koffka,3.2.8,0,n,0,right,left,left,right,NA,766,71709,885950,766,NA,2,legacy,3,1024,2,48000,-16,experiment,1,odd,4,1497216,74740,1493827,1494973,2976,1035245,1494987,1469241,3022,149292,1499231,1500000,1496002,1499231,NA,Sternberg Task,79,56628,89,yes,1024
88.88888889,88.88888889,635.8222222,635.8222222,black,experiment,legacy,legacy,legacy,0,uniform,1,undefined,1,left,89,0,89,89,0,0,89,89,0,0,89,89,89,89,0,Sun Oct 20 17:44:26 2019,The main experiment item,yes,SternbergTask.osexp,/Users/cristianbotello/Desktop/Advanced Quant,no,mono,no,18,no,white,no,no,768,legacy,77,11,/Users/cristianbotello/Desktop/Advanced Quant/CB-subject-1.csv,legacy,8 7 3,Kafkaesque Koffka,3.2.8,1,y,0,left,left,left,left,NA,596,71709,885950,596,NA,2,legacy,3,1024,2,48000,-16,experiment,1,odd,8,1503417,74740,1500019,1501177,2976,1035245,1501190,1469241,3022,149292,1505432,1506031,1502204,1505431,NA,Sternberg Task,80,57224,90,yes,1024
89.01098901,89.01098901,633.3626374,633.3626374,black,experiment,legacy,legacy,legacy,0,uniform,1,undefined,1,right,90,0,90,90,0,0,90,90,0,0,90,90,90,90,0,Sun Oct 20 17:44:26 2019,The main experiment item,yes,SternbergTask.osexp,/Users/cristianbotello/Desktop/Advanced Quant,no,mono,no,18,no,white,no,no,768,legacy,78,11,/Users/cristianbotello/Desktop/Advanced Quant/CB-subject-1.csv,legacy,5,Kafkaesque Koffka,3.2.8,0,n,0,right,left,left,right,NA,412,71709,885950,412,NA,2,legacy,1,1024,2,48000,-16,experiment,1,odd,8,1509450,74740,1506049,1507210,2976,1035245,1507224,1469241,3022,149292,1511464,1511879,1508237,1511463,NA,Sternberg Task,81,57636,91,yes,1024
89.13043478,89.13043478,633.9347826,633.9347826,black,experiment,legacy,legacy,legacy,0,uniform,1,undefined,1,left,91,0,91,91,0,0,91,91,0,0,91,91,91,91,0,Sun Oct 20 17:44:26 2019,The main experiment item,yes,SternbergTask.osexp,/Users/cristianbotello/Desktop/Advanced Quant,no,mono,no,18,no,white,no,no,768,legacy,79,11,/Users/cristianbotello/Desktop/Advanced Quant/CB-subject-1.csv,legacy,6 7 8 5,Kafkaesque Koffka,3.2.8,3,y,0,left,left,left,left,NA,686,71709,885950,686,NA,2,legacy,4,1024,2,48000,-16,experiment,1,odd,8,1515298,74740,1511897,1513057,2976,1035245,1513070,1469241,3022,149292,1517312,1518000,1514086,1517312,NA,Sternberg Task,82,58322,92,yes,1024
89.24731183,89.24731183,633.1075269,633.1075269,black,experiment,legacy,legacy,legacy,0,uniform,1,undefined,1,left,92,0,92,92,0,0,92,92,0,0,92,92,92,92,0,Sun Oct 20 17:44:26 2019,The main experiment item,yes,SternbergTask.osexp,/Users/cristianbotello/Desktop/Advanced Quant,no,mono,no,18,no,white,no,no,768,legacy,80,11,/Users/cristianbotello/Desktop/Advanced Quant/CB-subject-1.csv,legacy,2 3 7 4,Kafkaesque Koffka,3.2.8,1,y,0,left,left,left,left,NA,557,71709,885950,557,NA,2,legacy,4,1024,2,48000,-16,experiment,1,odd,2,1521432,74740,1518021,1519192,2976,1035245,1519205,1469241,3022,149292,1523447,1524007,1520219,1523447,NA,Sternberg Task,83,58879,93,yes,1024
89.36170213,89.36170213,631.6914894,631.6914894,black,experiment,legacy,legacy,legacy,0,uniform,1,undefined,1,left,93,0,93,93,0,0,93,93,0,0,93,93,93,93,0,Sun Oct 20 17:44:26 2019,The main experiment item,yes,SternbergTask.osexp,/Users/cristianbotello/Desktop/Advanced Quant,no,mono,no,18,no,white,no,no,768,legacy,81,11,/Users/cristianbotello/Desktop/Advanced Quant/CB-subject-1.csv,legacy,8 5 4 7 3 1,Kafkaesque Koffka,3.2.8,2,y,0,left,left,left,left,NA,500,71709,885950,500,NA,2,legacy,6,1024,2,48000,-16,experiment,1,odd,5,1527406,74740,1524025,1525163,2976,1035245,1525176,1469241,3022,149292,1529421,1529924,1526193,1529421,NA,Sternberg Task,84,59379,94,yes,1024
89.47368421,89.47368421,629.9052632,629.9052632,black,experiment,legacy,legacy,legacy,0,uniform,1,undefined,1,left,94,0,94,94,0,0,94,94,0,0,94,94,94,94,0,Sun Oct 20 17:44:26 2019,The main experiment item,yes,SternbergTask.osexp,/Users/cristianbotello/Desktop/Advanced Quant,no,mono,no,18,no,white,no,no,768,legacy,82,11,/Users/cristianbotello/Desktop/Advanced Quant/CB-subject-1.csv,legacy,9 3 1 2 5,Kafkaesque Koffka,3.2.8,4,y,0,left,left,left,left,NA,462,71709,885950,462,NA,2,legacy,5,1024,2,48000,-16,experiment,1,odd,2,1533329,74740,1529942,1531090,2976,1035245,1531104,1469241,3022,149292,1535345,1535810,1532116,1535345,NA,Sternberg Task,85,59841,95,yes,1024
89.58333333,89.58333333,629.09375,629.09375,black,experiment,legacy,legacy,legacy,0,uniform,1,undefined,1,left,95,0,95,95,0,0,95,95,0,0,95,95,95,95,0,Sun Oct 20 17:44:26 2019,The main experiment item,yes,SternbergTask.osexp,/Users/cristianbotello/Desktop/Advanced Quant,no,mono,no,18,no,white,no,no,768,legacy,83,11,/Users/cristianbotello/Desktop/Advanced Quant/CB-subject-1.csv,legacy,4 6 5 8,Kafkaesque Koffka,3.2.8,1,y,0,left,left,left,left,NA,552,71709,885950,552,NA,2,legacy,4,1024,2,48000,-16,experiment,1,odd,4,1539210,74740,1535828,1536970,2976,1035245,1536983,1469241,3022,149292,1541224,1541779,1537998,1541224,NA,Sternberg Task,86,60393,96,yes,1024
89.69072165,89.69072165,626.9278351,626.9278351,black,experiment,legacy,legacy,legacy,0,uniform,1,undefined,1,left,96,0,96,96,0,0,96,96,0,0,96,96,96,96,0,Sun Oct 20 17:44:26 2019,The main experiment item,yes,SternbergTask.osexp,/Users/cristianbotello/Desktop/Advanced Quant,no,mono,no,18,no,white,no,no,768,legacy,84,11,/Users/cristianbotello/Desktop/Advanced Quant/CB-subject-1.csv,legacy,8,Kafkaesque Koffka,3.2.8,1,y,0,left,left,left,left,NA,419,71709,885950,419,NA,2,legacy,1,1024,2,48000,-16,experiment,1,odd,8,1545200,74740,1541796,1542959,2976,1035245,1542973,1469241,3022,149292,1547215,1547638,1543988,1547215,NA,Sternberg Task,87,60812,97,yes,1024
88.7755102,88.7755102,627.6836735,627.6836735,black,experiment,legacy,legacy,legacy,0,uniform,0,undefined,0,right,97,0,97,97,0,0,97,97,0,0,97,97,97,97,0,Sun Oct 20 17:44:26 2019,The main experiment item,yes,SternbergTask.osexp,/Users/cristianbotello/Desktop/Advanced Quant,no,mono,no,18,no,white,no,no,768,legacy,85,11,/Users/cristianbotello/Desktop/Advanced Quant/CB-subject-1.csv,legacy,6 9 7 3 8 2,Kafkaesque Koffka,3.2.8,0,n,0,left,left,left,left,NA,701,71709,885950,701,NA,2,legacy,6,1024,2,48000,-16,experiment,1,odd,5,1551040,74740,1547654,1548796,2976,1035245,1548811,1469241,3022,149292,1553055,1553759,1549827,1553055,NA,Sternberg Task,87,61513,98,yes,1024
87.87878788,87.87878788,627.2929293,627.2929293,black,experiment,legacy,legacy,legacy,0,uniform,0,undefined,0,left,98,0,98,98,0,0,98,98,0,0,98,98,98,98,0,Sun Oct 20 17:44:26 2019,The main experiment item,yes,SternbergTask.osexp,/Users/cristianbotello/Desktop/Advanced Quant,no,mono,no,18,no,white,no,no,768,legacy,86,11,/Users/cristianbotello/Desktop/Advanced Quant/CB-subject-1.csv,legacy,7 8 6 3 1,Kafkaesque Koffka,3.2.8,5,y,0,right,left,left,right,NA,589,71709,885950,589,NA,2,legacy,5,1024,2,48000,-16,experiment,1,odd,1,1557175,74740,1547654,1554932,2976,1035245,1554945,1553778,3022,149292,1559190,1559782,1555961,1559189,NA,Sternberg Task,87,62102,99,yes,1024
88,88,627.23,627.23,black,experiment,legacy,legacy,legacy,0,uniform,1,undefined,1,right,99,0,99,99,0,0,99,99,0,0,99,99,99,99,0,Sun Oct 20 17:44:26 2019,The main experiment item,yes,SternbergTask.osexp,/Users/cristianbotello/Desktop/Advanced Quant,no,mono,no,18,no,white,no,no,768,legacy,87,11,/Users/cristianbotello/Desktop/Advanced Quant/CB-subject-1.csv,legacy,7 9 1 6,Kafkaesque Koffka,3.2.8,0,n,0,right,left,left,right,NA,621,71709,885950,621,NA,2,legacy,4,1024,2,48000,-16,experiment,1,odd,4,1563198,74740,1547654,1560956,2976,1035245,1560969,1559799,3022,149292,1565215,1565839,1561985,1565215,NA,Sternberg Task,88,62723,100,yes,1024
88.11881188,88.11881188,626.8811881,626.8811881,black,experiment,legacy,legacy,legacy,0,uniform,1,undefined,1,left,100,0,100,100,0,0,100,100,0,0,100,100,100,100,0,Sun Oct 20 17:44:26 2019,The main experiment item,yes,SternbergTask.osexp,/Users/cristianbotello/Desktop/Advanced Quant,no,mono,no,18,no,white,no,no,768,legacy,88,11,/Users/cristianbotello/Desktop/Advanced Quant/CB-subject-1.csv,legacy,4 3 2 5 8,Kafkaesque Koffka,3.2.8,2,y,0,left,left,left,left,NA,592,71709,885950,592,NA,2,legacy,5,1024,2,48000,-16,experiment,1,odd,3,1569259,74740,1565856,1567016,2976,1035245,1567029,1559799,3022,149292,1571274,1571871,1568046,1571273,NA,Sternberg Task,89,63315,101,yes,1024
88.23529412,88.23529412,626.0392157,626.0392157,black,experiment,legacy,legacy,legacy,0,uniform,1,undefined,1,right,101,0,101,101,0,0,101,101,0,0,101,101,101,101,0,Sun Oct 20 17:44:26 2019,The main experiment item,yes,SternbergTask.osexp,/Users/cristianbotello/Desktop/Advanced Quant,no,mono,no,18,no,white,no,no,768,legacy,89,11,/Users/cristianbotello/Desktop/Advanced Quant/CB-subject-1.csv,legacy,3 4 9 6 7 8,Kafkaesque Koffka,3.2.8,0,n,0,right,left,left,right,NA,541,71709,885950,541,NA,2,legacy,6,1024,2,48000,-16,experiment,1,odd,2,1575290,74740,1571887,1573045,2976,1035245,1573060,1559799,3022,149292,1577305,1577850,1574076,1577305,NA,Sternberg Task,90,63856,102,yes,1024
88.34951456,88.34951456,625.9126214,625.9126214,black,experiment,legacy,legacy,legacy,0,uniform,1,undefined,1,left,102,0,102,102,0,0,102,102,0,0,102,102,102,102,0,Sun Oct 20 17:44:26 2019,The main experiment item,yes,SternbergTask.osexp,/Users/cristianbotello/Desktop/Advanced Quant,no,mono,no,18,no,white,no,no,768,legacy,90,11,/Users/cristianbotello/Desktop/Advanced Quant/CB-subject-1.csv,legacy,3 2 1 4 7,Kafkaesque Koffka,3.2.8,2,y,0,left,left,left,left,NA,613,71709,885950,613,NA,2,legacy,5,1024,2,48000,-16,experiment,1,odd,2,1581265,74740,1577868,1579024,2976,1035245,1579039,1559799,3022,149292,1583281,1583898,1580053,1583281,NA,Sternberg Task,91,64469,103,yes,1024
88.46153846,88.46153846,624.6153846,624.6153846,black,experiment,legacy,legacy,legacy,0,uniform,1,undefined,1,left,103,0,103,103,0,0,103,103,0,0,103,103,103,103,0,Sun Oct 20 17:44:26 2019,The main experiment item,yes,SternbergTask.osexp,/Users/cristianbotello/Desktop/Advanced Quant,no,mono,no,18,no,white,no,no,768,legacy,91,11,/Users/cristianbotello/Desktop/Advanced Quant/CB-subject-1.csv,legacy,7 1 3,Kafkaesque Koffka,3.2.8,2,y,0,left,left,left,left,NA,491,71709,885950,491,NA,2,legacy,3,1024,2,48000,-16,experiment,1,odd,1,1587308,74740,1583914,1585063,2976,1035245,1585079,1559799,3022,149292,1589323,1589817,1586095,1589323,NA,Sternberg Task,92,64960,104,yes,1024
88.57142857,88.57142857,626.2857143,626.2857143,black,experiment,legacy,legacy,legacy,0,uniform,1,undefined,1,left,104,0,104,104,0,0,104,104,0,0,104,104,104,104,0,Sun Oct 20 17:44:26 2019,The main experiment item,yes,SternbergTask.osexp,/Users/cristianbotello/Desktop/Advanced Quant,no,mono,no,18,no,white,no,no,768,legacy,92,11,/Users/cristianbotello/Desktop/Advanced Quant/CB-subject-1.csv,legacy,5 7 3 6 2,Kafkaesque Koffka,3.2.8,5,y,0,left,left,left,left,NA,800,71709,885950,800,NA,2,legacy,5,1024,2,48000,-16,experiment,1,odd,2,1593231,74740,1589834,1590989,2976,1035245,1591001,1559799,3022,149292,1595253,1596058,1592018,1595252,NA,Sternberg Task,93,65760,105,yes,1024
88.67924528,88.67924528,625.2358491,625.2358491,black,experiment,legacy,legacy,legacy,0,uniform,1,undefined,1,left,105,0,105,105,0,0,105,105,0,0,105,105,105,105,0,Sun Oct 20 17:44:26 2019,The main experiment item,yes,SternbergTask.osexp,/Users/cristianbotello/Desktop/Advanced Quant,no,mono,no,18,no,white,no,no,768,legacy,93,11,/Users/cristianbotello/Desktop/Advanced Quant/CB-subject-1.csv,legacy,2 5 4 8 7,Kafkaesque Koffka,3.2.8,3,y,0,left,left,left,left,NA,515,71709,885950,515,NA,2,legacy,5,1024,2,48000,-16,experiment,1,odd,4,1599520,74740,1596081,1597271,2976,1035245,1597286,1559799,3022,149292,1601537,1602056,1598301,1601536,NA,Sternberg Task,94,66275,106,yes,1024
88.78504673,88.78504673,623.9065421,623.9065421,black,experiment,legacy,legacy,legacy,0,uniform,1,undefined,1,left,106,0,106,106,0,0,106,106,0,0,106,106,106,106,0,Sun Oct 20 17:44:26 2019,The main experiment item,yes,SternbergTask.osexp,/Users/cristianbotello/Desktop/Advanced Quant,no,mono,no,18,no,white,no,no,768,legacy,94,11,/Users/cristianbotello/Desktop/Advanced Quant/CB-subject-1.csv,legacy,3 5 4 7,Kafkaesque Koffka,3.2.8,1,y,0,left,left,left,left,NA,483,71709,885950,483,NA,2,legacy,4,1024,2,48000,-16,experiment,1,odd,3,1605474,74740,1602078,1603220,2976,1035245,1603241,1559799,3022,149292,1607489,1607976,1604258,1607489,NA,Sternberg Task,95,66758,107,yes,1024
88.88888889,88.88888889,623.6296296,623.6296296,black,experiment,legacy,legacy,legacy,0,uniform,1,undefined,1,right,107,0,107,107,0,0,107,107,0,0,107,107,107,107,0,Sun Oct 20 17:44:26 2019,The main experiment item,yes,SternbergTask.osexp,/Users/cristianbotello/Desktop/Advanced Quant,no,mono,no,18,no,white,no,no,768,legacy,95,11,/Users/cristianbotello/Desktop/Advanced Quant/CB-subject-1.csv,legacy,7 1 5 6 3,Kafkaesque Koffka,3.2.8,0,n,0,right,left,left,right,NA,594,71709,885950,594,NA,2,legacy,5,1024,2,48000,-16,experiment,1,odd,8,1611396,74740,1607992,1609150,2976,1035245,1609168,1559799,3022,149292,1613408,1614005,1610180,1613408,NA,Sternberg Task,96,67352,108,yes,1024
88.99082569,88.99082569,622.9633028,622.9633028,black,experiment,legacy,legacy,legacy,0,uniform,1,undefined,1,right,108,0,108,108,0,0,108,108,0,0,108,108,108,108,0,Sun Oct 20 17:44:26 2019,The main experiment item,yes,SternbergTask.osexp,/Users/cristianbotello/Desktop/Advanced Quant,no,mono,no,18,no,white,no,no,768,legacy,96,11,/Users/cristianbotello/Desktop/Advanced Quant/CB-subject-1.csv,legacy,2 8 9,Kafkaesque Koffka,3.2.8,0,n,0,right,left,left,right,NA,551,71709,885950,551,NA,2,legacy,3,1024,2,48000,-16,experiment,1,odd,6,1617441,74740,1614026,1615192,2976,1035245,1615209,1559799,3022,149292,1619454,1620009,1616222,1619454,NA,Sternberg Task,97,67903,109,yes,1024
89.09090909,89.09090909,622.6181818,622.6181818,black,experiment,legacy,legacy,legacy,0,uniform,1,undefined,1,right,109,0,109,109,0,0,109,109,0,0,109,109,109,109,0,Sun Oct 20 17:44:26 2019,The main experiment item,yes,SternbergTask.osexp,/Users/cristianbotello/Desktop/Advanced Quant,no,mono,no,18,no,white,no,no,768,legacy,97,11,/Users/cristianbotello/Desktop/Advanced Quant/CB-subject-1.csv,legacy,5 3 8 7 2 4,Kafkaesque Koffka,3.2.8,0,n,0,right,left,left,right,NA,585,71709,885950,585,NA,2,legacy,6,1024,2,48000,-16,experiment,1,odd,9,1623417,74740,1620033,1621174,2976,1035245,1621187,1559799,3022,149292,1625432,1626021,1622203,1625432,NA,Sternberg Task,98,68488,110,yes,1024
89.18918919,89.18918919,622.2432432,622.2432432,black,experiment,legacy,legacy,legacy,0,uniform,1,undefined,1,right,110,0,110,110,0,0,110,110,0,0,110,110,110,110,0,Sun Oct 20 17:44:26 2019,The main experiment item,yes,SternbergTask.osexp,/Users/cristianbotello/Desktop/Advanced Quant,no,mono,no,18,no,white,no,no,768,legacy,98,11,/Users/cristianbotello/Desktop/Advanced Quant/CB-subject-1.csv,legacy,2 7 5,Kafkaesque Koffka,3.2.8,0,n,0,right,left,left,right,NA,581,71709,885950,581,NA,2,legacy,3,1024,2,48000,-16,experiment,1,odd,8,1629419,74740,1626041,1627177,2976,1035245,1627190,1559799,3022,149292,1631434,1632019,1628204,1631434,NA,Sternberg Task,99,69069,111,yes,1024
89.28571429,89.28571429,621.6428571,621.6428571,black,experiment,legacy,legacy,legacy,0,uniform,1,undefined,1,left,111,0,111,111,0,0,111,111,0,0,111,111,111,111,0,Sun Oct 20 17:44:26 2019,The main experiment item,yes,SternbergTask.osexp,/Users/cristianbotello/Desktop/Advanced Quant,no,mono,no,18,no,white,no,no,768,legacy,99,11,/Users/cristianbotello/Desktop/Advanced Quant/CB-subject-1.csv,legacy,4 9 7 8 5 3,Kafkaesque Koffka,3.2.8,4,y,0,left,left,left,left,NA,555,71709,885950,555,NA,2,legacy,6,1024,2,48000,-16,experiment,1,odd,8,1635439,74740,1632042,1633192,2976,1035245,1633208,1559799,3022,149292,1637452,1638011,1634223,1637452,NA,Sternberg Task,100,69624,112,yes,1024
89.38053097,89.38053097,622.5221239,622.5221239,black,experiment,legacy,legacy,legacy,0,uniform,1,undefined,1,left,112,0,112,112,0,0,112,112,0,0,112,112,112,112,0,Sun Oct 20 17:44:26 2019,The main experiment item,yes,SternbergTask.osexp,/Users/cristianbotello/Desktop/Advanced Quant,no,mono,no,18,no,white,no,no,768,legacy,100,11,/Users/cristianbotello/Desktop/Advanced Quant/CB-subject-1.csv,legacy,4 7 6 8 2 3,Kafkaesque Koffka,3.2.8,6,y,0,left,left,left,left,NA,721,71709,885950,721,NA,2,legacy,6,1024,2,48000,-16,experiment,1,odd,3,1641435,74740,1638032,1639188,2976,1035245,1639204,1559799,3022,149292,1643448,1644173,1640217,1643448,NA,Sternberg Task,101,70345,113,yes,1024
89.47368421,89.47368421,621.745614,621.745614,black,experiment,legacy,legacy,legacy,0,uniform,1,undefined,1,right,113,0,113,113,0,0,113,113,0,0,113,113,113,113,0,Sun Oct 20 17:44:26 2019,The main experiment item,yes,SternbergTask.osexp,/Users/cristianbotello/Desktop/Advanced Quant,no,mono,no,18,no,white,no,no,768,legacy,101,11,/Users/cristianbotello/Desktop/Advanced Quant/CB-subject-1.csv,legacy,6 3 1 7 9 8,Kafkaesque Koffka,3.2.8,0,n,0,right,left,left,right,NA,534,71709,885950,534,NA,2,legacy,6,1024,2,48000,-16,experiment,1,odd,4,1647573,74740,1644192,1645331,2976,1035245,1645346,1559799,3022,149292,1649587,1650126,1646359,1649586,NA,Sternberg Task,102,70879,114,yes,1024
89.56521739,89.56521739,621.8869565,621.8869565,black,experiment,legacy,legacy,legacy,0,uniform,1,undefined,1,left,114,0,114,114,0,0,114,114,0,0,114,114,114,114,0,Sun Oct 20 17:44:26 2019,The main experiment item,yes,SternbergTask.osexp,/Users/cristianbotello/Desktop/Advanced Quant,no,mono,no,18,no,white,no,no,768,legacy,102,11,/Users/cristianbotello/Desktop/Advanced Quant/CB-subject-1.csv,legacy,5 2 9 6 1 7,Kafkaesque Koffka,3.2.8,3,y,0,left,left,left,left,NA,638,71709,885950,638,NA,2,legacy,6,1024,2,48000,-16,experiment,1,odd,9,1653543,74740,1650148,1651298,2976,1035245,1651317,1559799,3022,149292,1655559,1656201,1652329,1655559,NA,Sternberg Task,103,71517,115,yes,1024
89.65517241,89.65517241,621.3706897,621.3706897,black,experiment,legacy,legacy,legacy,0,uniform,1,undefined,1,left,115,0,115,115,0,0,115,115,0,0,115,115,115,115,0,Sun Oct 20 17:44:26 2019,The main experiment item,yes,SternbergTask.osexp,/Users/cristianbotello/Desktop/Advanced Quant,no,mono,no,18,no,white,no,no,768,legacy,103,11,/Users/cristianbotello/Desktop/Advanced Quant/CB-subject-1.csv,legacy,3 4 9 6 2 9,Kafkaesque Koffka,3.2.8,5,y,0,left,left,left,left,NA,562,71709,885950,562,NA,2,legacy,6,1024,2,48000,-16,experiment,1,odd,2,1659646,74740,1656237,1657400,2976,1035245,1657416,1559799,3022,149292,1661660,1662227,1658431,1661660,NA,Sternberg Task,104,72079,116,yes,1024
89.74358974,89.74358974,620.4615385,620.4615385,black,experiment,legacy,legacy,legacy,0,uniform,1,undefined,1,left,116,0,116,116,0,0,116,116,0,0,116,116,116,116,0,Sun Oct 20 17:44:26 2019,The main experiment item,yes,SternbergTask.osexp,/Users/cristianbotello/Desktop/Advanced Quant,no,mono,no,18,no,white,no,no,768,legacy,104,11,/Users/cristianbotello/Desktop/Advanced Quant/CB-subject-1.csv,legacy,3 5 7 1,Kafkaesque Koffka,3.2.8,3,y,0,left,left,left,left,NA,515,71709,885950,515,NA,2,legacy,4,1024,2,48000,-16,experiment,1,odd,7,1665645,74740,1662254,1663396,2976,1035245,1663414,1559799,3022,149292,1667660,1668179,1664429,1667659,NA,Sternberg Task,105,72594,117,yes,1024
89.83050847,89.83050847,622.5084746,622.5084746,black,experiment,legacy,legacy,legacy,0,uniform,1,undefined,1,right,117,0,117,117,0,0,117,117,0,0,117,117,117,117,0,Sun Oct 20 17:44:26 2019,The main experiment item,yes,SternbergTask.osexp,/Users/cristianbotello/Desktop/Advanced Quant,no,mono,no,18,no,white,no,no,768,legacy,105,11,/Users/cristianbotello/Desktop/Advanced Quant/CB-subject-1.csv,legacy,2 8 6 3 1,Kafkaesque Koffka,3.2.8,0,n,0,right,left,left,right,NA,862,71709,885950,862,NA,2,legacy,5,1024,2,48000,-16,experiment,1,odd,7,1671608,74740,1668199,1669361,2976,1035245,1669379,1559799,3022,149292,1673621,1674488,1670392,1673621,NA,Sternberg Task,106,73456,118,yes,1024
89.07563025,89.07563025,623.394958,623.394958,black,experiment,legacy,legacy,legacy,0,uniform,0,undefined,0,right,118,0,118,118,0,0,118,118,0,0,118,118,118,118,0,Sun Oct 20 17:44:26 2019,The main experiment item,yes,SternbergTask.osexp,/Users/cristianbotello/Desktop/Advanced Quant,no,mono,no,18,no,white,no,no,768,legacy,106,11,/Users/cristianbotello/Desktop/Advanced Quant/CB-subject-1.csv,legacy,8 6 3 4 7,Kafkaesque Koffka,3.2.8,0,n,0,left,left,left,left,NA,728,71709,885950,728,NA,2,legacy,5,1024,2,48000,-16,experiment,1,odd,1,1677936,74740,1674510,1675693,2976,1035245,1675710,1559799,3022,149292,1679950,1680682,1676722,1679950,NA,Sternberg Task,106,74184,119,yes,1024
89.16666667,89.16666667,626.2666667,626.2666667,black,experiment,legacy,legacy,legacy,0,uniform,1,undefined,1,left,119,0,119,119,0,0,119,119,0,0,119,119,119,119,0,Sun Oct 20 17:44:26 2019,The main experiment item,yes,SternbergTask.osexp,/Users/cristianbotello/Desktop/Advanced Quant,no,mono,no,18,no,white,no,no,768,legacy,107,11,/Users/cristianbotello/Desktop/Advanced Quant/CB-subject-1.csv,legacy,8 1 6,Kafkaesque Koffka,3.2.8,3,y,0,left,left,left,left,NA,968,71709,885950,968,NA,2,legacy,3,1024,2,48000,-16,experiment,1,odd,6,1684108,74740,1674510,1681865,2976,1035245,1681879,1680700,3022,149292,1686126,1687099,1682893,1686126,NA,Sternberg Task,107,75152,120,yes,1024
89.25619835,89.25619835,625.2892562,625.2892562,black,experiment,legacy,legacy,legacy,0,uniform,1,undefined,1,left,120,0,120,120,0,0,120,120,0,0,120,120,120,120,0,Sun Oct 20 17:44:26 2019,The main experiment item,yes,SternbergTask.osexp,/Users/cristianbotello/Desktop/Advanced Quant,no,mono,no,18,no,white,no,no,768,legacy,108,11,/Users/cristianbotello/Desktop/Advanced Quant/CB-subject-1.csv,legacy,9 1 6 7 8,Kafkaesque Koffka,3.2.8,1,y,0,left,left,left,left,NA,508,71709,885950,508,NA,2,legacy,5,1024,2,48000,-16,experiment,1,odd,9,1690507,74740,1687118,1688264,2976,1035245,1688278,1680700,3022,149292,1692521,1693034,1689291,1692521,NA,Sternberg Task,108,75660,121,yes,1024
89.3442623,89.3442623,626.0983607,626.0983607,black,experiment,legacy,legacy,legacy,0,uniform,1,undefined,1,right,121,0,121,121,0,0,121,121,0,0,121,121,121,121,0,Sun Oct 20 17:44:26 2019,The main experiment item,yes,SternbergTask.osexp,/Users/cristianbotello/Desktop/Advanced Quant,no,mono,no,18,no,white,no,no,768,legacy,109,11,/Users/cristianbotello/Desktop/Advanced Quant/CB-subject-1.csv,legacy,6 8,Kafkaesque Koffka,3.2.8,0,n,0,right,left,left,right,NA,724,71709,885950,724,NA,2,legacy,2,1024,2,48000,-16,experiment,1,odd,9,1696443,74740,1693058,1694196,2976,1035245,1694212,1680700,3022,149292,1698457,1699186,1695227,1698457,NA,Sternberg Task,109,76384,122,yes,1024
89.43089431,89.43089431,627.5772358,627.5772358,black,experiment,legacy,legacy,legacy,0,uniform,1,undefined,1,right,122,0,122,122,0,0,122,122,0,0,122,122,122,122,0,Sun Oct 20 17:44:26 2019,The main experiment item,yes,SternbergTask.osexp,/Users/cristianbotello/Desktop/Advanced Quant,no,mono,no,18,no,white,no,no,768,legacy,110,11,/Users/cristianbotello/Desktop/Advanced Quant/CB-subject-1.csv,legacy,1 6 4 3 9 7,Kafkaesque Koffka,3.2.8,0,n,0,right,left,left,right,NA,808,71709,885950,808,NA,2,legacy,6,1024,2,48000,-16,experiment,1,odd,8,1702629,74740,1699205,1700381,2976,1035245,1700396,1680700,3022,149292,1704643,1705455,1701412,1704643,NA,Sternberg Task,110,77192,123,yes,1024
89.51612903,89.51612903,628.1048387,628.1048387,black,experiment,legacy,legacy,legacy,0,uniform,1,undefined,1,right,123,0,123,123,0,0,123,123,0,0,123,123,123,123,0,Sun Oct 20 17:44:26 2019,The main experiment item,yes,SternbergTask.osexp,/Users/cristianbotello/Desktop/Advanced Quant,no,mono,no,18,no,white,no,no,768,legacy,111,11,/Users/cristianbotello/Desktop/Advanced Quant/CB-subject-1.csv,legacy,6 8 4,Kafkaesque Koffka,3.2.8,0,n,0,right,left,left,right,NA,693,71709,885950,693,NA,2,legacy,3,1024,2,48000,-16,experiment,1,odd,1,1708873,74740,1705476,1706627,2976,1035245,1706645,1680700,3022,149292,1710887,1711590,1707658,1710887,NA,Sternberg Task,111,77885,124,yes,1024
89.6,89.6,627.36,627.36,black,experiment,legacy,legacy,legacy,0,uniform,1,undefined,1,left,124,0,124,124,0,0,124,124,0,0,124,124,124,124,0,Sun Oct 20 17:44:26 2019,The main experiment item,yes,SternbergTask.osexp,/Users/cristianbotello/Desktop/Advanced Quant,no,mono,no,18,no,white,no,no,768,legacy,112,11,/Users/cristianbotello/Desktop/Advanced Quant/CB-subject-1.csv,legacy,6 8 9 3 4 9,Kafkaesque Koffka,3.2.8,5,y,0,left,left,left,left,NA,535,71709,885950,535,NA,2,legacy,6,1024,2,48000,-16,experiment,1,odd,4,1714986,74740,1711607,1712742,2976,1035245,1712756,1680700,3022,149292,1716999,1717538,1713771,1716998,NA,Sternberg Task,112,78420,125,yes,1024
89.68253968,89.68253968,626.2460317,626.2460317,black,experiment,legacy,legacy,legacy,0,uniform,1,undefined,1,right,125,0,125,125,0,0,125,125,0,0,125,125,125,125,0,Sun Oct 20 17:44:26 2019,The main experiment item,yes,SternbergTask.osexp,/Users/cristianbotello/Desktop/Advanced Quant,no,mono,no,18,no,white,no,no,768,legacy,113,11,/Users/cristianbotello/Desktop/Advanced Quant/CB-subject-1.csv,legacy,1 3 2 6 9,Kafkaesque Koffka,3.2.8,0,n,0,right,left,left,right,NA,487,71709,885950,487,NA,2,legacy,5,1024,2,48000,-16,experiment,1,odd,5,1720966,74740,1717559,1718714,2976,1035245,1718732,1680700,3022,149292,1722978,1723468,1719751,1722978,NA,Sternberg Task,113,78907,126,yes,1024
89.76377953,89.76377953,626.1811024,626.1811024,black,experiment,legacy,legacy,legacy,0,uniform,1,undefined,1,left,126,0,126,126,0,0,126,126,0,0,126,126,126,126,0,Sun Oct 20 17:44:26 2019,The main experiment item,yes,SternbergTask.osexp,/Users/cristianbotello/Desktop/Advanced Quant,no,mono,no,18,no,white,no,no,768,legacy,114,11,/Users/cristianbotello/Desktop/Advanced Quant/CB-subject-1.csv,legacy,7 2 3,Kafkaesque Koffka,3.2.8,3,y,0,left,left,left,left,NA,618,71709,885950,618,NA,2,legacy,3,1024,2,48000,-16,experiment,1,odd,3,1726877,74740,1723484,1724631,2976,1035245,1724644,1680700,3022,149292,1728891,1729513,1725663,1728891,NA,Sternberg Task,114,79525,127,yes,1024
89.84375,89.84375,626.203125,626.203125,black,experiment,legacy,legacy,legacy,0,uniform,1,undefined,1,left,127,0,127,127,0,0,127,127,0,0,127,127,127,127,0,Sun Oct 20 17:44:26 2019,The main experiment item,yes,SternbergTask.osexp,/Users/cristianbotello/Desktop/Advanced Quant,no,mono,no,18,no,white,no,no,768,legacy,115,11,/Users/cristianbotello/Desktop/Advanced Quant/CB-subject-1.csv,legacy,6 2,Kafkaesque Koffka,3.2.8,1,y,0,left,left,left,left,NA,629,71709,885950,629,NA,2,legacy,2,1024,2,48000,-16,experiment,1,odd,6,1732931,74740,1729533,1730690,2976,1035245,1730702,1680700,3022,149292,1734946,1735579,1731718,1734945,NA,Sternberg Task,115,80154,128,yes,1024
89.92248062,89.92248062,625.248062,625.248062,black,experiment,legacy,legacy,legacy,0,uniform,1,undefined,1,left,128,0,128,128,0,0,128,128,0,0,128,128,128,128,0,Sun Oct 20 17:44:26 2019,The main experiment item,yes,SternbergTask.osexp,/Users/cristianbotello/Desktop/Advanced Quant,no,mono,no,18,no,white,no,no,768,legacy,116,11,/Users/cristianbotello/Desktop/Advanced Quant/CB-subject-1.csv,legacy,3 9 7 6 4,Kafkaesque Koffka,3.2.8,3,y,0,left,left,left,left,NA,503,71709,885950,503,NA,2,legacy,5,1024,2,48000,-16,experiment,1,odd,7,1738993,74740,1735595,1736752,2976,1035245,1736765,1680700,3022,149292,1741006,1741513,1737781,1741006,NA,Sternberg Task,116,80657,129,yes,1024
90,90,626.1923077,626.1923077,black,experiment,legacy,legacy,legacy,0,uniform,1,undefined,1,right,129,0,129,129,0,0,129,129,0,0,129,129,129,129,0,Sun Oct 20 17:44:26 2019,The main experiment item,yes,SternbergTask.osexp,/Users/cristianbotello/Desktop/Advanced Quant,no,mono,no,18,no,white,no,no,768,legacy,117,11,/Users/cristianbotello/Desktop/Advanced Quant/CB-subject-1.csv,legacy,8 2 1 4 5 9,Kafkaesque Koffka,3.2.8,0,n,0,right,left,left,right,NA,748,71709,885950,748,NA,2,legacy,6,1024,2,48000,-16,experiment,1,odd,7,1744931,74740,1741534,1742683,2976,1035245,1742696,1680700,3022,149292,1746945,1747697,1743713,1746945,NA,Sternberg Task,117,81405,130,yes,1024
90.07633588,90.07633588,625.519084,625.519084,black,experiment,legacy,legacy,legacy,0,uniform,1,undefined,1,left,130,0,130,130,0,0,130,130,0,0,130,130,130,130,0,Sun Oct 20 17:44:26 2019,The main experiment item,yes,SternbergTask.osexp,/Users/cristianbotello/Desktop/Advanced Quant,no,mono,no,18,no,white,no,no,768,legacy,118,11,/Users/cristianbotello/Desktop/Advanced Quant/CB-subject-1.csv,legacy,7 4 2 6 3 5,Kafkaesque Koffka,3.2.8,6,y,0,left,left,left,left,NA,538,71709,885950,538,NA,2,legacy,6,1024,2,48000,-16,experiment,1,odd,5,1751114,74740,1747715,1748873,2976,1035245,1748886,1680700,3022,149292,1753127,1753670,1749902,1753127,NA,Sternberg Task,118,81943,131,yes,1024
90.15151515,90.15151515,625.8636364,625.8636364,black,experiment,legacy,legacy,legacy,0,uniform,1,undefined,1,right,131,0,131,131,0,0,131,131,0,0,131,131,131,131,0,Sun Oct 20 17:44:26 2019,The main experiment item,yes,SternbergTask.osexp,/Users/cristianbotello/Desktop/Advanced Quant,no,mono,no,18,no,white,no,no,768,legacy,119,11,/Users/cristianbotello/Desktop/Advanced Quant/CB-subject-1.csv,legacy,7 6 4 8 1 2,Kafkaesque Koffka,3.2.8,0,n,0,right,left,left,right,NA,671,71709,885950,671,NA,2,legacy,6,1024,2,48000,-16,experiment,1,odd,9,1757095,74740,1753688,1754856,2976,1035245,1754869,1680700,3022,149292,1759110,1759786,1755882,1759110,NA,Sternberg Task,119,82614,132,yes,1024
90.22556391,90.22556391,626.9097744,626.9097744,black,experiment,legacy,legacy,legacy,0,uniform,1,undefined,1,right,132,0,132,132,0,0,132,132,0,0,132,132,132,132,0,Sun Oct 20 17:44:26 2019,The main experiment item,yes,SternbergTask.osexp,/Users/cristianbotello/Desktop/Advanced Quant,no,mono,no,18,no,white,no,no,768,legacy,120,11,/Users/cristianbotello/Desktop/Advanced Quant/CB-subject-1.csv,legacy,9 7 4 5 8,Kafkaesque Koffka,3.2.8,0,n,0,right,left,left,right,NA,765,71709,885950,765,NA,2,legacy,5,1024,2,48000,-16,experiment,1,odd,6,1763176,74740,1759804,1760937,2976,1035245,1760951,1680700,3022,149292,1765192,1765961,1761964,1765192,NA,Sternberg Task,120,83379,133,yes,1024
90.29850746,90.29850746,629.0447761,629.0447761,black,experiment,legacy,legacy,legacy,0,uniform,1,undefined,1,right,133,0,133,133,0,0,133,133,0,0,133,133,133,133,0,Sun Oct 20 17:44:26 2019,The main experiment item,yes,SternbergTask.osexp,/Users/cristianbotello/Desktop/Advanced Quant,no,mono,no,18,no,white,no,no,768,legacy,121,11,/Users/cristianbotello/Desktop/Advanced Quant/CB-subject-1.csv,legacy,7 9,Kafkaesque Koffka,3.2.8,0,n,0,right,left,left,right,NA,913,71709,885950,913,NA,2,legacy,2,1024,2,48000,-16,experiment,1,odd,1,1769361,74740,1765978,1767114,2976,1035245,1767131,1680700,3022,149292,1771376,1772293,1768147,1771376,NA,Sternberg Task,121,84292,134,yes,1024
90.37037037,90.37037037,631.0666667,631.0666667,black,experiment,legacy,legacy,legacy,0,uniform,1,undefined,1,left,134,0,134,134,0,0,134,134,0,0,134,134,134,134,0,Sun Oct 20 17:44:26 2019,The main experiment item,yes,SternbergTask.osexp,/Users/cristianbotello/Desktop/Advanced Quant,no,mono,no,18,no,white,no,no,768,legacy,122,11,/Users/cristianbotello/Desktop/Advanced Quant/CB-subject-1.csv,legacy,9 1 7 2,Kafkaesque Koffka,3.2.8,2,y,0,left,left,left,left,NA,902,71709,885950,902,NA,2,legacy,4,1024,2,48000,-16,experiment,1,odd,1,1775715,74740,1772315,1773467,2976,1035245,1773484,1680700,3022,149292,1777729,1778637,1774500,1777729,NA,Sternberg Task,122,85194,135,yes,1024
90.44117647,90.44117647,630.0955882,630.0955882,black,experiment,legacy,legacy,legacy,0,uniform,1,undefined,1,left,135,0,135,135,0,0,135,135,0,0,135,135,135,135,0,Sun Oct 20 17:44:26 2019,The main experiment item,yes,SternbergTask.osexp,/Users/cristianbotello/Desktop/Advanced Quant,no,mono,no,18,no,white,no,no,768,legacy,123,11,/Users/cristianbotello/Desktop/Advanced Quant/CB-subject-1.csv,legacy,8 9 5 7 1 6,Kafkaesque Koffka,3.2.8,4,y,0,left,left,left,left,NA,499,71709,885950,499,NA,2,legacy,6,1024,2,48000,-16,experiment,1,odd,7,1782062,74740,1778654,1779817,2976,1035245,1779836,1680700,3022,149292,1784075,1784579,1780848,1784075,NA,Sternberg Task,123,85693,136,yes,1024
90.51094891,90.51094891,629.8978102,629.8978102,black,experiment,legacy,legacy,legacy,0,uniform,1,undefined,1,right,136,0,136,136,0,0,136,136,0,0,136,136,136,136,0,Sun Oct 20 17:44:26 2019,The main experiment item,yes,SternbergTask.osexp,/Users/cristianbotello/Desktop/Advanced Quant,no,mono,no,18,no,white,no,no,768,legacy,124,11,/Users/cristianbotello/Desktop/Advanced Quant/CB-subject-1.csv,legacy,6 2 9 3 8 4,Kafkaesque Koffka,3.2.8,0,n,0,right,left,left,right,NA,603,71709,885950,603,NA,2,legacy,6,1024,2,48000,-16,experiment,1,odd,1,1787999,74740,1784602,1785752,2976,1035245,1785769,1680700,3022,149292,1790012,1790619,1786782,1790012,NA,Sternberg Task,124,86296,137,yes,1024
90.57971014,90.57971014,629.384058,629.384058,black,experiment,legacy,legacy,legacy,0,uniform,1,undefined,1,right,137,0,137,137,0,0,137,137,0,0,137,137,137,137,0,Sun Oct 20 17:44:26 2019,The main experiment item,yes,SternbergTask.osexp,/Users/cristianbotello/Desktop/Advanced Quant,no,mono,no,18,no,white,no,no,768,legacy,125,11,/Users/cristianbotello/Desktop/Advanced Quant/CB-subject-1.csv,legacy,7 1 8 4 9 3,Kafkaesque Koffka,3.2.8,0,n,0,right,left,left,right,NA,559,71709,885950,559,NA,2,legacy,6,1024,2,48000,-16,experiment,1,odd,6,1794010,74740,1790638,1791766,2976,1035245,1791780,1680700,3022,149292,1796025,1796588,1792794,1796025,NA,Sternberg Task,125,86855,138,yes,1024