acc,accuracy,average_response_time,avg_rt,background,block,canvas_backend,clock_backend,color_backend,compensation,coordinates,correct,correct_instruction1,correct_keyboard_response,correct_response,count_ISI,count_correctFeedback,count_expSequence,count_experiment,count_experimentLoop,count_fixation,count_incorrectFeedback,count_instruction1,count_instructions2,count_keyboard_response,count_memorySet,count_new_logger,count_new_sketchpad,count_practiceLoop,count_probe,count_thankYou,datetime,description,disable_garbage_collection,experiment_file,experiment_path,font_bold,font_family,font_italic,font_size,font_underline,foreground,form_clicks,fullscreen,height,keyboard_backend,live_row,live_row_practiceLoop,logfile,mouse_backend,numberSet,opensesame_codename,opensesame_version,posInSet,present,repeat_cycle,response,response_instruction1,response_instructions2,response_keyboard_response,response_new_sketchpad,response_thankYou,response_time,response_time_instruction1,response_time_instructions2,response_time_keyboard_response,response_time_new_sketchpad,response_time_thankYou,round_decimals,sampler_backend,setSize,sound_buf_size,sound_channels,sound_freq,sound_sample_size,start,subject_nr,subject_parity,target,time_ISI,time_correctFeedback,time_expSequence,time_experiment,time_experimentLoop,time_fixation,time_incorrectFeedback,time_instruction1,time_instructions2,time_keyboard_response,time_memorySet,time_new_logger,time_new_sketchpad,time_practiceLoop,time_probe,time_thankYou,title,total_correct,total_response_time,total_responses,uniform_coordinates,width
100,100,1276,1276,black,practice,legacy,legacy,legacy,0,uniform,1,undefined,1,left,0,0,0,0,0,0,0,0,0,0,0,0,NA,0,0,0,10/27/19 10:30,The main experiment item,yes,SternbergTask.osexp,C:\Users\Jeanette\Desktop\Jeanette Master's\AQM&ED,no,mono,no,18,no,white,no,yes,768,legacy,0,0,C:/Users/Jeanette/Desktop/Jeanette Master's/AQM&ED/Sternberg task subjects/jh-subject-3.csv,legacy,4 8,Kafkaesque Koffka,3.2.8,1,y,0,left,right,NA,left,NA,NA,1276,44341,NA,1276,NA,NA,2,legacy,2,1024,2,48000,-16,experiment,3,odd,4,52591,NA,50378,5341,NA,50380,NA,5350,NA,54599,51386,55875,NA,49692,54598,NA,Sternberg Task,1,1276,1,yes,1024
100,100,1406.5,1406.5,black,practice,legacy,legacy,legacy,0,uniform,1,undefined,1,right,1,1,1,0,0,1,1,0,0,1,1,1,NA,0,1,0,10/27/19 10:30,The main experiment item,yes,SternbergTask.osexp,C:\Users\Jeanette\Desktop\Jeanette Master's\AQM&ED,no,mono,no,18,no,white,no,yes,768,legacy,1,1,C:/Users/Jeanette/Desktop/Jeanette Master's/AQM&ED/Sternberg task subjects/jh-subject-3.csv,legacy,3 1 9 4,Kafkaesque Koffka,3.2.8,0,n,0,right,right,NA,right,NA,NA,1537,44341,NA,1537,NA,NA,2,legacy,4,1024,2,48000,-16,experiment,3,odd,6,59300,55967,57086,5341,NA,57089,NA,5350,NA,61306,58094,62844,NA,49692,61305,NA,Sternberg Task,2,2813,2,yes,1024
100,100,1340.666667,1340.666667,black,practice,legacy,legacy,legacy,0,uniform,1,undefined,1,right,2,2,2,0,0,2,2,0,0,2,2,2,NA,0,2,0,10/27/19 10:30,The main experiment item,yes,SternbergTask.osexp,C:\Users\Jeanette\Desktop\Jeanette Master's\AQM&ED,no,mono,no,18,no,white,no,yes,768,legacy,2,2,C:/Users/Jeanette/Desktop/Jeanette Master's/AQM&ED/Sternberg task subjects/jh-subject-3.csv,legacy,4 1 5,Kafkaesque Koffka,3.2.8,0,n,0,right,right,NA,right,NA,NA,1209,44341,NA,1209,NA,NA,2,legacy,3,1024,2,48000,-16,experiment,3,odd,2,66197,62868,63984,5341,NA,63986,NA,5350,NA,68202,64992,69411,NA,49692,68202,NA,Sternberg Task,3,4022,3,yes,1024
100,100,1276,1276,black,practice,legacy,legacy,legacy,0,uniform,1,undefined,1,right,3,3,3,0,0,3,3,0,0,3,3,3,NA,0,3,0,10/27/19 10:30,The main experiment item,yes,SternbergTask.osexp,C:\Users\Jeanette\Desktop\Jeanette Master's\AQM&ED,no,mono,no,18,no,white,no,yes,768,legacy,3,3,C:/Users/Jeanette/Desktop/Jeanette Master's/AQM&ED/Sternberg task subjects/jh-subject-3.csv,legacy,5 7 8 4 1 2,Kafkaesque Koffka,3.2.8,0,n,0,right,right,NA,right,NA,NA,1082,44341,NA,1082,NA,NA,2,legacy,6,1024,2,48000,-16,experiment,3,odd,6,72763,69435,70549,5341,NA,70552,NA,5350,NA,74769,71558,75852,NA,49692,74768,NA,Sternberg Task,4,5104,4,yes,1024
100,100,1191.8,1191.8,black,practice,legacy,legacy,legacy,0,uniform,1,undefined,1,right,4,4,4,0,0,4,4,0,0,4,4,4,NA,0,4,0,10/27/19 10:30,The main experiment item,yes,SternbergTask.osexp,C:\Users\Jeanette\Desktop\Jeanette Master's\AQM&ED,no,mono,no,18,no,white,no,yes,768,legacy,4,4,C:/Users/Jeanette/Desktop/Jeanette Master's/AQM&ED/Sternberg task subjects/jh-subject-3.csv,legacy,5,Kafkaesque Koffka,3.2.8,0,n,0,right,right,NA,right,NA,NA,855,44341,NA,855,NA,NA,2,legacy,1,1024,2,48000,-16,experiment,3,odd,3,79229,75878,77016,5341,NA,77018,NA,5350,NA,81236,78023,82092,NA,49692,81235,NA,Sternberg Task,5,5959,5,yes,1024
100,100,1222.333333,1222.333333,black,practice,legacy,legacy,legacy,0,uniform,1,undefined,1,left,5,5,5,0,0,5,5,0,0,5,5,5,NA,0,5,0,10/27/19 10:30,The main experiment item,yes,SternbergTask.osexp,C:\Users\Jeanette\Desktop\Jeanette Master's\AQM&ED,no,mono,no,18,no,white,no,yes,768,legacy,5,5,C:/Users/Jeanette/Desktop/Jeanette Master's/AQM&ED/Sternberg task subjects/jh-subject-3.csv,legacy,1 7 9 8 5,Kafkaesque Koffka,3.2.8,4,y,0,left,right,NA,left,NA,NA,1375,44341,NA,1375,NA,NA,2,legacy,5,1024,2,48000,-16,experiment,3,odd,8,85447,82121,83237,5341,NA,83239,NA,5350,NA,87453,84241,88828,NA,49692,87452,NA,Sternberg Task,6,7334,6,yes,1024
100,100,1277.857143,1277.857143,black,practice,legacy,legacy,legacy,0,uniform,1,undefined,1,left,6,6,6,0,0,6,6,0,0,6,6,6,NA,0,6,0,10/27/19 10:30,The main experiment item,yes,SternbergTask.osexp,C:\Users\Jeanette\Desktop\Jeanette Master's\AQM&ED,no,mono,no,18,no,white,no,yes,768,legacy,6,6,C:/Users/Jeanette/Desktop/Jeanette Master's/AQM&ED/Sternberg task subjects/jh-subject-3.csv,legacy,4 3 1 7 9 8,Kafkaesque Koffka,3.2.8,1,y,0,left,right,NA,left,NA,NA,1611,44341,NA,1611,NA,NA,2,legacy,6,1024,2,48000,-16,experiment,3,odd,4,92195,88854,89982,5341,NA,89984,NA,5350,NA,94200,90990,95811,NA,49692,94200,NA,Sternberg Task,7,8945,7,yes,1024
100,100,1193.875,1193.875,black,practice,legacy,legacy,legacy,0,uniform,1,undefined,1,left,7,7,7,0,0,7,7,0,0,7,7,7,NA,0,7,0,10/27/19 10:30,The main experiment item,yes,SternbergTask.osexp,C:\Users\Jeanette\Desktop\Jeanette Master's\AQM&ED,no,mono,no,18,no,white,no,yes,768,legacy,7,7,C:/Users/Jeanette/Desktop/Jeanette Master's/AQM&ED/Sternberg task subjects/jh-subject-3.csv,legacy,6,Kafkaesque Koffka,3.2.8,1,y,0,left,right,NA,left,NA,NA,606,44341,NA,606,NA,NA,2,legacy,1,1024,2,48000,-16,experiment,3,odd,6,99175,95859,96961,5341,NA,96964,NA,5350,NA,101181,97969,101787,NA,49692,101181,NA,Sternberg Task,8,9551,8,yes,1024
100,100,1185.333333,1185.333333,black,practice,legacy,legacy,legacy,0,uniform,1,undefined,1,left,8,8,8,0,0,8,8,0,0,8,8,8,NA,0,8,0,10/27/19 10:30,The main experiment item,yes,SternbergTask.osexp,C:\Users\Jeanette\Desktop\Jeanette Master's\AQM&ED,no,mono,no,18,no,white,no,yes,768,legacy,8,8,C:/Users/Jeanette/Desktop/Jeanette Master's/AQM&ED/Sternberg task subjects/jh-subject-3.csv,legacy,1 5 2 9,Kafkaesque Koffka,3.2.8,2,y,0,left,right,NA,left,NA,NA,1117,44341,NA,1117,NA,NA,2,legacy,4,1024,2,48000,-16,experiment,3,odd,5,105128,101814,102918,5341,NA,102920,NA,5350,NA,107134,103923,108251,NA,49692,107134,NA,Sternberg Task,9,10668,9,yes,1024
100,100,1172.9,1172.9,black,practice,legacy,legacy,legacy,0,uniform,1,undefined,1,right,9,9,9,0,0,9,9,0,0,9,9,9,NA,0,9,0,10/27/19 10:30,The main experiment item,yes,SternbergTask.osexp,C:\Users\Jeanette\Desktop\Jeanette Master's\AQM&ED,no,mono,no,18,no,white,no,yes,768,legacy,9,9,C:/Users/Jeanette/Desktop/Jeanette Master's/AQM&ED/Sternberg task subjects/jh-subject-3.csv,legacy,9 6 7 4 5,Kafkaesque Koffka,3.2.8,0,n,0,right,right,NA,right,NA,NA,1061,44341,NA,1061,NA,NA,2,legacy,5,1024,2,48000,-16,experiment,3,odd,3,111584,108274,109371,5341,NA,109374,NA,5350,NA,113590,110379,114651,NA,49692,113590,NA,Sternberg Task,10,11729,10,yes,1024
100,100,1197.363636,1197.363636,black,practice,legacy,legacy,legacy,0,uniform,1,undefined,1,left,10,10,10,0,0,10,10,0,0,10,10,10,NA,0,10,0,10/27/19 10:30,The main experiment item,yes,SternbergTask.osexp,C:\Users\Jeanette\Desktop\Jeanette Master's\AQM&ED,no,mono,no,18,no,white,no,yes,768,legacy,10,10,C:/Users/Jeanette/Desktop/Jeanette Master's/AQM&ED/Sternberg task subjects/jh-subject-3.csv,legacy,2 9 4,Kafkaesque Koffka,3.2.8,3,y,0,left,right,NA,left,NA,NA,1442,44341,NA,1442,NA,NA,2,legacy,3,1024,2,48000,-16,experiment,3,odd,4,118002,114674,115789,5341,NA,115791,NA,5350,NA,120009,116796,121451,NA,49692,120009,NA,Sternberg Task,11,13171,11,yes,1024
100,100,1198.75,1198.75,black,practice,legacy,legacy,legacy,0,uniform,1,undefined,1,right,11,11,11,0,0,11,11,0,0,11,11,11,NA,0,11,0,10/27/19 10:30,The main experiment item,yes,SternbergTask.osexp,C:\Users\Jeanette\Desktop\Jeanette Master's\AQM&ED,no,mono,no,18,no,white,no,yes,768,legacy,11,11,C:/Users/Jeanette/Desktop/Jeanette Master's/AQM&ED/Sternberg task subjects/jh-subject-3.csv,legacy,2 1,Kafkaesque Koffka,3.2.8,0,n,0,right,right,NA,right,NA,NA,1214,44341,NA,1214,NA,NA,2,legacy,2,1024,2,48000,-16,experiment,3,odd,5,124807,121475,122595,5341,NA,122597,NA,5350,NA,126813,123602,128027,NA,49692,126812,NA,Sternberg Task,12,14385,12,yes,1024
100,100,1183.769231,1183.769231,black,experiment,legacy,legacy,legacy,0,uniform,1,undefined,1,left,12,12,12,0,0,12,12,0,0,12,12,12,NA,0,12,0,10/27/19 10:30,The main experiment item,yes,SternbergTask.osexp,C:\Users\Jeanette\Desktop\Jeanette Master's\AQM&ED,no,mono,no,18,no,white,no,yes,768,legacy,0,11,C:/Users/Jeanette/Desktop/Jeanette Master's/AQM&ED/Sternberg task subjects/jh-subject-3.csv,legacy,8 5 3 7 4 6,Kafkaesque Koffka,3.2.8,6,y,0,left,right,left,left,NA,NA,1004,44341,8933,1004,NA,NA,2,legacy,6,1024,2,48000,-16,experiment,3,odd,6,140351,128050,138138,5341,138035,138140,NA,5350,129102,142359,139146,143364,NA,49692,142358,NA,Sternberg Task,13,15389,13,yes,1024
100,100,1157.142857,1157.142857,black,experiment,legacy,legacy,legacy,0,uniform,1,undefined,1,right,13,13,13,0,0,13,13,0,0,13,13,13,NA,0,13,0,10/27/19 10:30,The main experiment item,yes,SternbergTask.osexp,C:\Users\Jeanette\Desktop\Jeanette Master's\AQM&ED,no,mono,no,18,no,white,no,yes,768,legacy,1,11,C:/Users/Jeanette/Desktop/Jeanette Master's/AQM&ED/Sternberg task subjects/jh-subject-3.csv,legacy,5 9 2 3,Kafkaesque Koffka,3.2.8,0,n,0,right,right,left,right,NA,NA,811,44341,8933,811,NA,NA,2,legacy,4,1024,2,48000,-16,experiment,3,odd,8,146715,143385,144503,5341,138035,144505,NA,5350,129102,148720,145510,149532,NA,49692,148720,NA,Sternberg Task,14,16200,14,yes,1024
100,100,1183.8,1183.8,black,experiment,legacy,legacy,legacy,0,uniform,1,undefined,1,left,14,14,14,0,0,14,14,0,0,14,14,14,NA,0,14,0,10/27/19 10:30,The main experiment item,yes,SternbergTask.osexp,C:\Users\Jeanette\Desktop\Jeanette Master's\AQM&ED,no,mono,no,18,no,white,no,yes,768,legacy,2,11,C:/Users/Jeanette/Desktop/Jeanette Master's/AQM&ED/Sternberg task subjects/jh-subject-3.csv,legacy,6 9 7 4 5 1,Kafkaesque Koffka,3.2.8,2,y,0,left,right,left,left,NA,NA,1557,44341,8933,1557,NA,NA,2,legacy,6,1024,2,48000,-16,experiment,3,odd,9,152864,149552,150651,5341,138035,150653,NA,5350,129102,154870,151658,156427,NA,49692,154870,NA,Sternberg Task,15,17757,15,yes,1024
100,100,1194.75,1194.75,black,experiment,legacy,legacy,legacy,0,uniform,1,undefined,1,right,15,15,15,0,0,15,15,0,0,15,15,15,NA,0,15,0,10/27/19 10:30,The main experiment item,yes,SternbergTask.osexp,C:\Users\Jeanette\Desktop\Jeanette Master's\AQM&ED,no,mono,no,18,no,white,no,yes,768,legacy,3,11,C:/Users/Jeanette/Desktop/Jeanette Master's/AQM&ED/Sternberg task subjects/jh-subject-3.csv,legacy,4 2 6 9,Kafkaesque Koffka,3.2.8,0,n,0,right,right,left,right,NA,NA,1359,44341,8933,1359,NA,NA,2,legacy,4,1024,2,48000,-16,experiment,3,odd,7,159794,156453,157581,5341,138035,157583,NA,5350,129102,161797,158588,163156,NA,49692,161797,NA,Sternberg Task,16,19116,16,yes,1024
100,100,1189.764706,1189.764706,black,experiment,legacy,legacy,legacy,0,uniform,1,undefined,1,right,16,16,16,0,0,16,16,0,0,16,16,16,NA,0,16,0,10/27/19 10:30,The main experiment item,yes,SternbergTask.osexp,C:\Users\Jeanette\Desktop\Jeanette Master's\AQM&ED,no,mono,no,18,no,white,no,yes,768,legacy,4,11,C:/Users/Jeanette/Desktop/Jeanette Master's/AQM&ED/Sternberg task subjects/jh-subject-3.csv,legacy,2 8 9,Kafkaesque Koffka,3.2.8,0,n,0,right,right,left,right,NA,NA,1110,44341,8933,1110,NA,NA,2,legacy,3,1024,2,48000,-16,experiment,3,odd,6,166514,163180,164300,5341,138035,164302,NA,5350,129102,168517,165309,169628,NA,49692,168517,NA,Sternberg Task,17,20226,17,yes,1024
100,100,1183,1183,black,experiment,legacy,legacy,legacy,0,uniform,1,undefined,1,right,17,17,17,0,0,17,17,0,0,17,17,17,NA,0,17,0,10/27/19 10:30,The main experiment item,yes,SternbergTask.osexp,C:\Users\Jeanette\Desktop\Jeanette Master's\AQM&ED,no,mono,no,18,no,white,no,yes,768,legacy,5,11,C:/Users/Jeanette/Desktop/Jeanette Master's/AQM&ED/Sternberg task subjects/jh-subject-3.csv,legacy,7 3 2 8,Kafkaesque Koffka,3.2.8,0,n,0,right,right,left,right,NA,NA,1068,44341,8933,1068,NA,NA,2,legacy,4,1024,2,48000,-16,experiment,3,odd,4,172944,169647,170732,5341,138035,170734,NA,5350,129102,174951,171739,176020,NA,49692,174951,NA,Sternberg Task,18,21294,18,yes,1024
100,100,1168.789474,1168.789474,black,experiment,legacy,legacy,legacy,0,uniform,1,undefined,1,left,18,18,18,0,0,18,18,0,0,18,18,18,NA,0,18,0,10/27/19 10:30,The main experiment item,yes,SternbergTask.osexp,C:\Users\Jeanette\Desktop\Jeanette Master's\AQM&ED,no,mono,no,18,no,white,no,yes,768,legacy,6,11,C:/Users/Jeanette/Desktop/Jeanette Master's/AQM&ED/Sternberg task subjects/jh-subject-3.csv,legacy,9 5 8 1,Kafkaesque Koffka,3.2.8,2,y,0,left,right,left,left,NA,NA,913,44341,8933,913,NA,NA,2,legacy,4,1024,2,48000,-16,experiment,3,odd,5,179356,176039,177141,5341,138035,177144,NA,5350,129102,181362,178150,182275,NA,49692,181362,NA,Sternberg Task,19,22207,19,yes,1024
100,100,1184.1,1184.1,black,experiment,legacy,legacy,legacy,0,uniform,1,undefined,1,right,19,19,19,0,0,19,19,0,0,19,19,19,NA,0,19,0,10/27/19 10:30,The main experiment item,yes,SternbergTask.osexp,C:\Users\Jeanette\Desktop\Jeanette Master's\AQM&ED,no,mono,no,18,no,white,no,yes,768,legacy,7,11,C:/Users/Jeanette/Desktop/Jeanette Master's/AQM&ED/Sternberg task subjects/jh-subject-3.csv,legacy,8 4 3 9,Kafkaesque Koffka,3.2.8,0,n,0,right,right,left,right,NA,NA,1475,44341,8933,1475,NA,NA,2,legacy,4,1024,2,48000,-16,experiment,3,odd,5,185618,182298,183404,5341,138035,183407,NA,5350,129102,187625,184412,189100,NA,49692,187624,NA,Sternberg Task,20,23682,20,yes,1024
100,100,1169.952381,1169.952381,black,experiment,legacy,legacy,legacy,0,uniform,1,undefined,1,right,20,20,20,0,0,20,20,0,0,20,20,20,NA,0,20,0,10/27/19 10:30,The main experiment item,yes,SternbergTask.osexp,C:\Users\Jeanette\Desktop\Jeanette Master's\AQM&ED,no,mono,no,18,no,white,no,yes,768,legacy,8,11,C:/Users/Jeanette/Desktop/Jeanette Master's/AQM&ED/Sternberg task subjects/jh-subject-3.csv,legacy,4 1,Kafkaesque Koffka,3.2.8,0,n,0,right,right,left,right,NA,NA,887,44341,8933,887,NA,NA,2,legacy,2,1024,2,48000,-16,experiment,3,odd,6,192439,189124,190227,5341,138035,190229,NA,5350,129102,194444,191234,195331,NA,49692,194444,NA,Sternberg Task,21,24569,21,yes,1024
100,100,1170.545455,1170.545455,black,experiment,legacy,legacy,legacy,0,uniform,1,undefined,1,left,21,21,21,0,0,21,21,0,0,21,21,21,NA,0,21,0,10/27/19 10:30,The main experiment item,yes,SternbergTask.osexp,C:\Users\Jeanette\Desktop\Jeanette Master's\AQM&ED,no,mono,no,18,no,white,no,yes,768,legacy,9,11,C:/Users/Jeanette/Desktop/Jeanette Master's/AQM&ED/Sternberg task subjects/jh-subject-3.csv,legacy,3 2 1 4 7,Kafkaesque Koffka,3.2.8,2,y,0,left,right,left,left,NA,NA,1183,44341,8933,1183,NA,NA,2,legacy,5,1024,2,48000,-16,experiment,3,odd,2,198695,195357,196481,5341,138035,196484,NA,5350,129102,200701,197489,201884,NA,49692,200701,NA,Sternberg Task,22,25752,22,yes,1024
100,100,1193.782609,1193.782609,black,experiment,legacy,legacy,legacy,0,uniform,1,undefined,1,right,22,22,22,0,0,22,22,0,0,22,22,22,NA,0,22,0,10/27/19 10:30,The main experiment item,yes,SternbergTask.osexp,C:\Users\Jeanette\Desktop\Jeanette Master's\AQM&ED,no,mono,no,18,no,white,no,yes,768,legacy,10,11,C:/Users/Jeanette/Desktop/Jeanette Master's/AQM&ED/Sternberg task subjects/jh-subject-3.csv,legacy,1 7 5 2 9,Kafkaesque Koffka,3.2.8,0,n,0,right,right,left,right,NA,NA,1705,44341,8933,1705,NA,NA,2,legacy,5,1024,2,48000,-16,experiment,3,odd,3,205237,201909,203028,5341,138035,203030,NA,5350,129102,207242,204032,208947,NA,49692,207242,NA,Sternberg Task,23,27457,23,yes,1024
100,100,1210.708333,1210.708333,black,experiment,legacy,legacy,legacy,0,uniform,1,undefined,1,right,23,23,23,0,0,23,23,0,0,23,23,23,NA,0,23,0,10/27/19 10:30,The main experiment item,yes,SternbergTask.osexp,C:\Users\Jeanette\Desktop\Jeanette Master's\AQM&ED,no,mono,no,18,no,white,no,yes,768,legacy,11,11,C:/Users/Jeanette/Desktop/Jeanette Master's/AQM&ED/Sternberg task subjects/jh-subject-3.csv,legacy,5 3 2 6 9 8,Kafkaesque Koffka,3.2.8,0,n,0,right,right,left,right,NA,NA,1600,44341,8933,1600,NA,NA,2,legacy,6,1024,2,48000,-16,experiment,3,odd,4,212320,208975,210107,5341,138035,210109,NA,5350,129102,214323,211114,215923,NA,49692,214323,NA,Sternberg Task,24,29057,24,yes,1024
100,100,1207.96,1207.96,black,experiment,legacy,legacy,legacy,0,uniform,1,undefined,1,left,24,24,24,0,0,24,24,0,0,24,24,24,NA,0,24,0,10/27/19 10:30,The main experiment item,yes,SternbergTask.osexp,C:\Users\Jeanette\Desktop\Jeanette Master's\AQM&ED,no,mono,no,18,no,white,no,yes,768,legacy,12,11,C:/Users/Jeanette/Desktop/Jeanette Master's/AQM&ED/Sternberg task subjects/jh-subject-3.csv,legacy,3 5 4 7,Kafkaesque Koffka,3.2.8,1,y,0,left,right,left,left,NA,NA,1142,44341,8933,1142,NA,NA,2,legacy,4,1024,2,48000,-16,experiment,3,odd,3,219280,215942,217067,5341,138035,217069,NA,5350,129102,221285,218074,222428,NA,49692,221285,NA,Sternberg Task,25,30199,25,yes,1024
100,100,1224.653846,1224.653846,black,experiment,legacy,legacy,legacy,0,uniform,1,undefined,1,left,25,25,25,0,0,25,25,0,0,25,25,25,NA,0,25,0,10/27/19 10:30,The main experiment item,yes,SternbergTask.osexp,C:\Users\Jeanette\Desktop\Jeanette Master's\AQM&ED,no,mono,no,18,no,white,no,yes,768,legacy,13,11,C:/Users/Jeanette/Desktop/Jeanette Master's/AQM&ED/Sternberg task subjects/jh-subject-3.csv,legacy,9 3 1 2 5,Kafkaesque Koffka,3.2.8,4,y,0,left,right,left,left,NA,NA,1642,44341,8933,1642,NA,NA,2,legacy,5,1024,2,48000,-16,experiment,3,odd,2,225788,222461,223574,5341,138035,223576,NA,5350,129102,227793,224583,229435,NA,49692,227793,NA,Sternberg Task,26,31841,26,yes,1024
96.2962963,96.2962963,1228.518519,1228.518519,black,experiment,legacy,legacy,legacy,0,uniform,0,undefined,0,left,26,26,26,0,0,26,26,0,0,26,26,26,NA,0,26,0,10/27/19 10:30,The main experiment item,yes,SternbergTask.osexp,C:\Users\Jeanette\Desktop\Jeanette Master's\AQM&ED,no,mono,no,18,no,white,no,yes,768,legacy,14,11,C:/Users/Jeanette/Desktop/Jeanette Master's/AQM&ED/Sternberg task subjects/jh-subject-3.csv,legacy,6 8 9 3 4 9,Kafkaesque Koffka,3.2.8,5,y,0,right,right,left,right,NA,NA,1329,44341,8933,1329,NA,NA,2,legacy,6,1024,2,48000,-16,experiment,3,odd,4,232812,229461,230598,5341,138035,230601,NA,5350,129102,234818,231606,236147,NA,49692,234817,NA,Sternberg Task,26,33170,27,yes,1024
92.85714286,92.85714286,1256.071429,1256.071429,black,experiment,legacy,legacy,legacy,0,uniform,0,undefined,0,left,27,27,27,0,0,27,27,0,0,27,27,27,NA,0,27,0,10/27/19 10:30,The main experiment item,yes,SternbergTask.osexp,C:\Users\Jeanette\Desktop\Jeanette Master's\AQM&ED,no,mono,no,18,no,white,no,yes,768,legacy,15,11,C:/Users/Jeanette/Desktop/Jeanette Master's/AQM&ED/Sternberg task subjects/jh-subject-3.csv,legacy,2 3 7 4,Kafkaesque Koffka,3.2.8,1,y,0,None,right,left,None,NA,NA,2000,44341,8933,2000,NA,NA,2,legacy,4,1024,2,48000,-16,experiment,3,odd,2,239500,229461,237288,5341,138035,237290,236170,5350,129102,241505,238295,243505,NA,49692,241505,NA,Sternberg Task,26,35170,28,yes,1024
93.10344828,93.10344828,1245.862069,1245.862069,black,experiment,legacy,legacy,legacy,0,uniform,1,undefined,1,left,28,28,28,0,0,28,28,0,0,28,28,28,NA,0,28,0,10/27/19 10:30,The main experiment item,yes,SternbergTask.osexp,C:\Users\Jeanette\Desktop\Jeanette Master's\AQM&ED,no,mono,no,18,no,white,no,yes,768,legacy,16,11,C:/Users/Jeanette/Desktop/Jeanette Master's/AQM&ED/Sternberg task subjects/jh-subject-3.csv,legacy,4 1 5,Kafkaesque Koffka,3.2.8,2,y,0,left,right,left,left,NA,NA,960,44341,8933,960,NA,NA,2,legacy,3,1024,2,48000,-16,experiment,3,odd,1,246886,229461,244671,5341,138035,244673,243542,5350,129102,248891,245679,249851,NA,49692,248891,NA,Sternberg Task,27,36130,29,yes,1024
93.33333333,93.33333333,1231.733333,1231.733333,black,experiment,legacy,legacy,legacy,0,uniform,1,undefined,1,right,29,29,29,0,0,29,29,0,0,29,29,29,NA,0,29,0,10/27/19 10:30,The main experiment item,yes,SternbergTask.osexp,C:\Users\Jeanette\Desktop\Jeanette Master's\AQM&ED,no,mono,no,18,no,white,no,yes,768,legacy,17,11,C:/Users/Jeanette/Desktop/Jeanette Master's/AQM&ED/Sternberg task subjects/jh-subject-3.csv,legacy,2 8 6 3 1,Kafkaesque Koffka,3.2.8,0,n,0,right,right,left,right,NA,NA,822,44341,8933,822,NA,NA,2,legacy,5,1024,2,48000,-16,experiment,3,odd,7,253207,249872,250995,5341,138035,250997,243542,5350,129102,255213,252002,256036,NA,49692,255213,NA,Sternberg Task,28,36952,30,yes,1024
93.5483871,93.5483871,1245.967742,1245.967742,black,experiment,legacy,legacy,legacy,0,uniform,1,undefined,1,right,30,30,30,0,0,30,30,0,0,30,30,30,NA,0,30,0,10/27/19 10:30,The main experiment item,yes,SternbergTask.osexp,C:\Users\Jeanette\Desktop\Jeanette Master's\AQM&ED,no,mono,no,18,no,white,no,yes,768,legacy,18,11,C:/Users/Jeanette/Desktop/Jeanette Master's/AQM&ED/Sternberg task subjects/jh-subject-3.csv,legacy,3 9 8 1 6 4,Kafkaesque Koffka,3.2.8,0,n,0,right,right,left,right,NA,NA,1673,44341,8933,1673,NA,NA,2,legacy,6,1024,2,48000,-16,experiment,3,odd,7,259373,256064,257161,5341,138035,257163,243542,5350,129102,261378,258168,263052,NA,49692,261378,NA,Sternberg Task,29,38625,31,yes,1024
93.75,93.75,1237.125,1237.125,black,experiment,legacy,legacy,legacy,0,uniform,1,undefined,1,right,31,31,31,0,0,31,31,0,0,31,31,31,NA,0,31,0,10/27/19 10:30,The main experiment item,yes,SternbergTask.osexp,C:\Users\Jeanette\Desktop\Jeanette Master's\AQM&ED,no,mono,no,18,no,white,no,yes,768,legacy,19,11,C:/Users/Jeanette/Desktop/Jeanette Master's/AQM&ED/Sternberg task subjects/jh-subject-3.csv,legacy,2 7 5,Kafkaesque Koffka,3.2.8,0,n,0,right,right,left,right,NA,NA,963,44341,8933,963,NA,NA,2,legacy,3,1024,2,48000,-16,experiment,3,odd,8,266386,263073,264173,5341,138035,264176,243542,5350,129102,268392,265181,269356,NA,49692,268391,NA,Sternberg Task,30,39588,32,yes,1024
93.93939394,93.93939394,1235.939394,1235.939394,black,experiment,legacy,legacy,legacy,0,uniform,1,undefined,1,left,32,32,32,0,0,32,32,0,0,32,32,32,NA,0,32,0,10/27/19 10:30,The main experiment item,yes,SternbergTask.osexp,C:\Users\Jeanette\Desktop\Jeanette Master's\AQM&ED,no,mono,no,18,no,white,no,yes,768,legacy,20,11,C:/Users/Jeanette/Desktop/Jeanette Master's/AQM&ED/Sternberg task subjects/jh-subject-3.csv,legacy,6 7 8 5,Kafkaesque Koffka,3.2.8,3,y,0,left,right,left,left,NA,NA,1198,44341,8933,1198,NA,NA,2,legacy,4,1024,2,48000,-16,experiment,3,odd,8,272695,269374,270481,5341,138035,270484,243542,5350,129102,274701,271489,275900,NA,49692,274700,NA,Sternberg Task,31,40786,33,yes,1024
94.11764706,94.11764706,1234.647059,1234.647059,black,experiment,legacy,legacy,legacy,0,uniform,1,undefined,1,left,33,33,33,0,0,33,33,0,0,33,33,33,NA,0,33,0,10/27/19 10:30,The main experiment item,yes,SternbergTask.osexp,C:\Users\Jeanette\Desktop\Jeanette Master's\AQM&ED,no,mono,no,18,no,white,no,yes,768,legacy,21,11,C:/Users/Jeanette/Desktop/Jeanette Master's/AQM&ED/Sternberg task subjects/jh-subject-3.csv,legacy,7 1 3,Kafkaesque Koffka,3.2.8,2,y,0,left,right,left,left,NA,NA,1192,44341,8933,1192,NA,NA,2,legacy,3,1024,2,48000,-16,experiment,3,odd,1,279229,275916,277016,5341,138035,277018,243542,5350,129102,281235,278023,282427,NA,49692,281234,NA,Sternberg Task,32,41978,34,yes,1024
94.28571429,94.28571429,1228.885714,1228.885714,black,experiment,legacy,legacy,legacy,0,uniform,1,undefined,1,right,34,34,34,0,0,34,34,0,0,34,34,34,NA,0,34,0,10/27/19 10:30,The main experiment item,yes,SternbergTask.osexp,C:\Users\Jeanette\Desktop\Jeanette Master's\AQM&ED,no,mono,no,18,no,white,no,yes,768,legacy,22,11,C:/Users/Jeanette/Desktop/Jeanette Master's/AQM&ED/Sternberg task subjects/jh-subject-3.csv,legacy,6 9 4 5 2,Kafkaesque Koffka,3.2.8,0,n,0,right,right,left,right,NA,NA,1033,44341,8933,1033,NA,NA,2,legacy,5,1024,2,48000,-16,experiment,3,odd,1,285788,282450,283574,5341,138035,283576,243542,5350,129102,287794,284581,288828,NA,49692,287794,NA,Sternberg Task,33,43011,35,yes,1024
94.44444444,94.44444444,1210.916667,1210.916667,black,experiment,legacy,legacy,legacy,0,uniform,1,undefined,1,left,35,35,35,0,0,35,35,0,0,35,35,35,NA,0,35,0,10/27/19 10:30,The main experiment item,yes,SternbergTask.osexp,C:\Users\Jeanette\Desktop\Jeanette Master's\AQM&ED,no,mono,no,18,no,white,no,yes,768,legacy,23,11,C:/Users/Jeanette/Desktop/Jeanette Master's/AQM&ED/Sternberg task subjects/jh-subject-3.csv,legacy,4 6 5 8,Kafkaesque Koffka,3.2.8,1,y,0,left,right,left,left,NA,NA,582,44341,8933,582,NA,NA,2,legacy,4,1024,2,48000,-16,experiment,3,odd,4,292215,288872,290000,5341,138035,290003,243542,5350,129102,294221,291008,294804,NA,49692,294220,NA,Sternberg Task,34,43593,36,yes,1024
94.59459459,94.59459459,1202.243243,1202.243243,black,experiment,legacy,legacy,legacy,0,uniform,1,undefined,1,left,36,36,36,0,0,36,36,0,0,36,36,36,NA,0,36,0,10/27/19 10:30,The main experiment item,yes,SternbergTask.osexp,C:\Users\Jeanette\Desktop\Jeanette Master's\AQM&ED,no,mono,no,18,no,white,no,yes,768,legacy,24,11,C:/Users/Jeanette/Desktop/Jeanette Master's/AQM&ED/Sternberg task subjects/jh-subject-3.csv,legacy,2 6 1 7 4,Kafkaesque Koffka,3.2.8,2,y,0,left,right,left,left,NA,NA,890,44341,8933,890,NA,NA,2,legacy,5,1024,2,48000,-16,experiment,3,odd,6,298179,294852,295967,5341,138035,295969,243542,5350,129102,300185,296974,301076,NA,49692,300184,NA,Sternberg Task,35,44483,37,yes,1024
94.73684211,94.73684211,1192.947368,1192.947368,black,experiment,legacy,legacy,legacy,0,uniform,1,undefined,1,right,37,37,37,0,0,37,37,0,0,37,37,37,NA,0,37,0,10/27/19 10:30,The main experiment item,yes,SternbergTask.osexp,C:\Users\Jeanette\Desktop\Jeanette Master's\AQM&ED,no,mono,no,18,no,white,no,yes,768,legacy,25,11,C:/Users/Jeanette/Desktop/Jeanette Master's/AQM&ED/Sternberg task subjects/jh-subject-3.csv,legacy,6 8,Kafkaesque Koffka,3.2.8,0,n,0,right,right,left,right,NA,NA,849,44341,8933,849,NA,NA,2,legacy,2,1024,2,48000,-16,experiment,3,odd,9,304437,301102,302224,5341,138035,302227,243542,5350,129102,306442,303232,307292,NA,49692,306442,NA,Sternberg Task,36,45332,38,yes,1024
94.87179487,94.87179487,1189.102564,1189.102564,black,experiment,legacy,legacy,legacy,0,uniform,1,undefined,1,right,38,38,38,0,0,38,38,0,0,38,38,38,NA,0,38,0,10/27/19 10:30,The main experiment item,yes,SternbergTask.osexp,C:\Users\Jeanette\Desktop\Jeanette Master's\AQM&ED,no,mono,no,18,no,white,no,yes,768,legacy,26,11,C:/Users/Jeanette/Desktop/Jeanette Master's/AQM&ED/Sternberg task subjects/jh-subject-3.csv,legacy,1 5 3 2 8,Kafkaesque Koffka,3.2.8,0,n,0,right,right,left,right,NA,NA,1043,44341,8933,1043,NA,NA,2,legacy,5,1024,2,48000,-16,experiment,3,odd,4,310632,307311,308417,5341,138035,308419,243542,5350,129102,312640,309426,313684,NA,49692,312640,NA,Sternberg Task,37,46375,39,yes,1024
95,95,1182.9,1182.9,black,experiment,legacy,legacy,legacy,0,uniform,1,undefined,1,left,39,39,39,0,0,39,39,0,0,39,39,39,NA,0,39,0,10/27/19 10:30,The main experiment item,yes,SternbergTask.osexp,C:\Users\Jeanette\Desktop\Jeanette Master's\AQM&ED,no,mono,no,18,no,white,no,yes,768,legacy,27,11,C:/Users/Jeanette/Desktop/Jeanette Master's/AQM&ED/Sternberg task subjects/jh-subject-3.csv,legacy,9 6 2 4 1,Kafkaesque Koffka,3.2.8,4,y,0,left,right,left,left,NA,NA,941,44341,8933,941,NA,NA,2,legacy,5,1024,2,48000,-16,experiment,3,odd,4,317047,313704,314835,5341,138035,314837,243542,5350,129102,319054,315842,319996,NA,49692,319053,NA,Sternberg Task,38,47316,40,yes,1024
95.12195122,95.12195122,1174.902439,1174.902439,black,experiment,legacy,legacy,legacy,0,uniform,1,undefined,1,right,40,40,40,0,0,40,40,0,0,40,40,40,NA,0,40,0,10/27/19 10:30,The main experiment item,yes,SternbergTask.osexp,C:\Users\Jeanette\Desktop\Jeanette Master's\AQM&ED,no,mono,no,18,no,white,no,yes,768,legacy,28,11,C:/Users/Jeanette/Desktop/Jeanette Master's/AQM&ED/Sternberg task subjects/jh-subject-3.csv,legacy,3 4 9 6 7 8,Kafkaesque Koffka,3.2.8,0,n,0,right,right,left,right,NA,NA,855,44341,8933,855,NA,NA,2,legacy,6,1024,2,48000,-16,experiment,3,odd,2,323350,320021,321138,5341,138035,321140,243542,5350,129102,325356,322145,326212,NA,49692,325356,NA,Sternberg Task,39,48171,41,yes,1024
95.23809524,95.23809524,1175.166667,1175.166667,black,experiment,legacy,legacy,legacy,0,uniform,1,undefined,1,left,41,41,41,0,0,41,41,0,0,41,41,41,NA,0,41,0,10/27/19 10:30,The main experiment item,yes,SternbergTask.osexp,C:\Users\Jeanette\Desktop\Jeanette Master's\AQM&ED,no,mono,no,18,no,white,no,yes,768,legacy,29,11,C:/Users/Jeanette/Desktop/Jeanette Master's/AQM&ED/Sternberg task subjects/jh-subject-3.csv,legacy,7 6,Kafkaesque Koffka,3.2.8,2,y,0,left,right,left,left,NA,NA,1186,44341,8933,1186,NA,NA,2,legacy,2,1024,2,48000,-16,experiment,3,odd,6,329587,326249,327373,5341,138035,327376,243542,5350,129102,331593,328381,332780,NA,49692,331593,NA,Sternberg Task,40,49357,42,yes,1024
95.34883721,95.34883721,1174.162791,1174.162791,black,experiment,legacy,legacy,legacy,0,uniform,1,undefined,1,right,42,42,42,0,0,42,42,0,0,42,42,42,NA,0,42,0,10/27/19 10:30,The main experiment item,yes,SternbergTask.osexp,C:\Users\Jeanette\Desktop\Jeanette Master's\AQM&ED,no,mono,no,18,no,white,no,yes,768,legacy,30,11,C:/Users/Jeanette/Desktop/Jeanette Master's/AQM&ED/Sternberg task subjects/jh-subject-3.csv,legacy,8 9,Kafkaesque Koffka,3.2.8,0,n,0,right,right,left,right,NA,NA,1132,44341,8933,1132,NA,NA,2,legacy,2,1024,2,48000,-16,experiment,3,odd,5,336130,332806,333916,5341,138035,333919,243542,5350,129102,338135,334924,339268,NA,49692,338135,NA,Sternberg Task,41,50489,43,yes,1024
95.45454545,95.45454545,1163.840909,1163.840909,black,experiment,legacy,legacy,legacy,0,uniform,1,undefined,1,left,43,43,43,0,0,43,43,0,0,43,43,43,NA,0,43,0,10/27/19 10:30,The main experiment item,yes,SternbergTask.osexp,C:\Users\Jeanette\Desktop\Jeanette Master's\AQM&ED,no,mono,no,18,no,white,no,yes,768,legacy,31,11,C:/Users/Jeanette/Desktop/Jeanette Master's/AQM&ED/Sternberg task subjects/jh-subject-3.csv,legacy,6 7 9 3 1 2,Kafkaesque Koffka,3.2.8,1,y,0,left,right,left,left,NA,NA,720,44341,8933,720,NA,NA,2,legacy,6,1024,2,48000,-16,experiment,3,odd,6,342614,339290,340401,5341,138035,340403,243542,5350,129102,344619,341408,345340,NA,49692,344619,NA,Sternberg Task,42,51209,44,yes,1024
95.55555556,95.55555556,1157.466667,1157.466667,black,experiment,legacy,legacy,legacy,0,uniform,1,undefined,1,right,44,44,44,0,0,44,44,0,0,44,44,44,NA,0,44,0,10/27/19 10:30,The main experiment item,yes,SternbergTask.osexp,C:\Users\Jeanette\Desktop\Jeanette Master's\AQM&ED,no,mono,no,18,no,white,no,yes,768,legacy,32,11,C:/Users/Jeanette/Desktop/Jeanette Master's/AQM&ED/Sternberg task subjects/jh-subject-3.csv,legacy,3 9 1,Kafkaesque Koffka,3.2.8,0,n,0,right,right,left,right,NA,NA,877,44341,8933,877,NA,NA,2,legacy,3,1024,2,48000,-16,experiment,3,odd,7,348697,345365,346485,5341,138035,346487,243542,5350,129102,350702,347492,351580,NA,49692,350702,NA,Sternberg Task,43,52086,45,yes,1024
95.65217391,95.65217391,1151.23913,1151.23913,black,experiment,legacy,legacy,legacy,0,uniform,1,undefined,1,left,45,45,45,0,0,45,45,0,0,45,45,45,NA,0,45,0,10/27/19 10:30,The main experiment item,yes,SternbergTask.osexp,C:\Users\Jeanette\Desktop\Jeanette Master's\AQM&ED,no,mono,no,18,no,white,no,yes,768,legacy,33,11,C:/Users/Jeanette/Desktop/Jeanette Master's/AQM&ED/Sternberg task subjects/jh-subject-3.csv,legacy,3 4 9 6 2 9,Kafkaesque Koffka,3.2.8,5,y,0,left,right,left,left,NA,NA,871,44341,8933,871,NA,NA,2,legacy,6,1024,2,48000,-16,experiment,3,odd,2,354920,351599,352708,5341,138035,352710,243542,5350,129102,356924,353715,357796,NA,49692,356924,NA,Sternberg Task,44,52957,46,yes,1024
95.74468085,95.74468085,1149.361702,1149.361702,black,experiment,legacy,legacy,legacy,0,uniform,1,undefined,1,left,46,46,46,0,0,46,46,0,0,46,46,46,NA,0,46,0,10/27/19 10:30,The main experiment item,yes,SternbergTask.osexp,C:\Users\Jeanette\Desktop\Jeanette Master's\AQM&ED,no,mono,no,18,no,white,no,yes,768,legacy,34,11,C:/Users/Jeanette/Desktop/Jeanette Master's/AQM&ED/Sternberg task subjects/jh-subject-3.csv,legacy,6 1 2,Kafkaesque Koffka,3.2.8,3,y,0,left,right,left,left,NA,NA,1063,44341,8933,1063,NA,NA,2,legacy,3,1024,2,48000,-16,experiment,3,odd,2,361126,357817,358914,5341,138035,358916,243542,5350,129102,363132,359921,364195,NA,49692,363132,NA,Sternberg Task,45,54020,47,yes,1024
95.83333333,95.83333333,1148.604167,1148.604167,black,experiment,legacy,legacy,legacy,0,uniform,1,undefined,1,left,47,47,47,0,0,47,47,0,0,47,47,47,NA,0,47,0,10/27/19 10:30,The main experiment item,yes,SternbergTask.osexp,C:\Users\Jeanette\Desktop\Jeanette Master's\AQM&ED,no,mono,no,18,no,white,no,yes,768,legacy,35,11,C:/Users/Jeanette/Desktop/Jeanette Master's/AQM&ED/Sternberg task subjects/jh-subject-3.csv,legacy,4 9 7 8 5 3,Kafkaesque Koffka,3.2.8,4,y,0,left,right,left,left,NA,NA,1113,44341,8933,1113,NA,NA,2,legacy,6,1024,2,48000,-16,experiment,3,odd,8,367540,364217,365329,5341,138035,365331,243542,5350,129102,369546,366336,370660,NA,49692,369546,NA,Sternberg Task,46,55133,48,yes,1024
95.91836735,95.91836735,1140.755102,1140.755102,black,experiment,legacy,legacy,legacy,0,uniform,1,undefined,1,left,48,48,48,0,0,48,48,0,0,48,48,48,NA,0,48,0,10/27/19 10:30,The main experiment item,yes,SternbergTask.osexp,C:\Users\Jeanette\Desktop\Jeanette Master's\AQM&ED,no,mono,no,18,no,white,no,yes,768,legacy,36,11,C:/Users/Jeanette/Desktop/Jeanette Master's/AQM&ED/Sternberg task subjects/jh-subject-3.csv,legacy,4 7 6 8 2 3,Kafkaesque Koffka,3.2.8,6,y,0,left,right,left,left,NA,NA,764,44341,8933,764,NA,NA,2,legacy,6,1024,2,48000,-16,experiment,3,odd,3,374017,370685,371804,5341,138035,371807,243542,5350,129102,376023,372812,376788,NA,49692,376022,NA,Sternberg Task,47,55897,49,yes,1024
96,96,1138.24,1138.24,black,experiment,legacy,legacy,legacy,0,uniform,1,undefined,1,right,49,49,49,0,0,49,49,0,0,49,49,49,NA,0,49,0,10/27/19 10:30,The main experiment item,yes,SternbergTask.osexp,C:\Users\Jeanette\Desktop\Jeanette Master's\AQM&ED,no,mono,no,18,no,white,no,yes,768,legacy,37,11,C:/Users/Jeanette/Desktop/Jeanette Master's/AQM&ED/Sternberg task subjects/jh-subject-3.csv,legacy,5 7 3,Kafkaesque Koffka,3.2.8,0,n,0,right,right,left,right,NA,NA,1015,44341,8933,1015,NA,NA,2,legacy,3,1024,2,48000,-16,experiment,3,odd,9,380119,376810,377907,5341,138035,377909,243542,5350,129102,382125,378914,383140,NA,49692,382125,NA,Sternberg Task,48,56912,50,yes,1024
96.07843137,96.07843137,1134.098039,1134.098039,black,experiment,legacy,legacy,legacy,0,uniform,1,undefined,1,left,50,50,50,0,0,50,50,0,0,50,50,50,NA,0,50,0,10/27/19 10:30,The main experiment item,yes,SternbergTask.osexp,C:\Users\Jeanette\Desktop\Jeanette Master's\AQM&ED,no,mono,no,18,no,white,no,yes,768,legacy,38,11,C:/Users/Jeanette/Desktop/Jeanette Master's/AQM&ED/Sternberg task subjects/jh-subject-3.csv,legacy,5 2 6,Kafkaesque Koffka,3.2.8,2,y,0,left,right,left,left,NA,NA,927,44341,8933,927,NA,NA,2,legacy,3,1024,2,48000,-16,experiment,3,odd,2,386525,383170,384311,5341,138035,384313,243542,5350,129102,388532,385319,389460,NA,49692,388531,NA,Sternberg Task,49,57839,51,yes,1024
96.15384615,96.15384615,1131.153846,1131.153846,black,experiment,legacy,legacy,legacy,0,uniform,1,undefined,1,left,51,51,51,0,0,51,51,0,0,51,51,51,NA,0,51,0,10/27/19 10:30,The main experiment item,yes,SternbergTask.osexp,C:\Users\Jeanette\Desktop\Jeanette Master's\AQM&ED,no,mono,no,18,no,white,no,yes,768,legacy,39,11,C:/Users/Jeanette/Desktop/Jeanette Master's/AQM&ED/Sternberg task subjects/jh-subject-3.csv,legacy,3 9 6 2,Kafkaesque Koffka,3.2.8,4,y,0,left,right,left,left,NA,NA,981,44341,8933,981,NA,NA,2,legacy,4,1024,2,48000,-16,experiment,3,odd,2,392831,389488,390618,5341,138035,390621,243542,5350,129102,394838,391626,395820,NA,49692,394838,NA,Sternberg Task,50,58820,52,yes,1024
96.22641509,96.22641509,1132.09434,1132.09434,black,experiment,legacy,legacy,legacy,0,uniform,1,undefined,1,right,52,52,52,0,0,52,52,0,0,52,52,52,NA,0,52,0,10/27/19 10:30,The main experiment item,yes,SternbergTask.osexp,C:\Users\Jeanette\Desktop\Jeanette Master's\AQM&ED,no,mono,no,18,no,white,no,yes,768,legacy,40,11,C:/Users/Jeanette/Desktop/Jeanette Master's/AQM&ED/Sternberg task subjects/jh-subject-3.csv,legacy,1 6 4 3 9 7,Kafkaesque Koffka,3.2.8,0,n,0,right,right,left,right,NA,NA,1181,44341,8933,1181,NA,NA,2,legacy,6,1024,2,48000,-16,experiment,3,odd,8,399152,395846,396939,5341,138035,396941,243542,5350,129102,401158,397947,402340,NA,49692,401158,NA,Sternberg Task,51,60001,53,yes,1024
96.2962963,96.2962963,1132.944444,1132.944444,black,experiment,legacy,legacy,legacy,0,uniform,1,undefined,1,right,53,53,53,0,0,53,53,0,0,53,53,53,NA,0,53,0,10/27/19 10:30,The main experiment item,yes,SternbergTask.osexp,C:\Users\Jeanette\Desktop\Jeanette Master's\AQM&ED,no,mono,no,18,no,white,no,yes,768,legacy,41,11,C:/Users/Jeanette/Desktop/Jeanette Master's/AQM&ED/Sternberg task subjects/jh-subject-3.csv,legacy,7 4 2 8 1 9,Kafkaesque Koffka,3.2.8,0,n,0,right,right,left,right,NA,NA,1178,44341,8933,1178,NA,NA,2,legacy,6,1024,2,48000,-16,experiment,3,odd,5,405675,402355,403462,5341,138035,403465,243542,5350,129102,407681,404470,408860,NA,49692,407680,NA,Sternberg Task,52,61179,54,yes,1024
96.36363636,96.36363636,1128.436364,1128.436364,black,experiment,legacy,legacy,legacy,0,uniform,1,undefined,1,right,54,54,54,0,0,54,54,0,0,54,54,54,NA,0,54,0,10/27/19 10:30,The main experiment item,yes,SternbergTask.osexp,C:\Users\Jeanette\Desktop\Jeanette Master's\AQM&ED,no,mono,no,18,no,white,no,yes,768,legacy,42,11,C:/Users/Jeanette/Desktop/Jeanette Master's/AQM&ED/Sternberg task subjects/jh-subject-3.csv,legacy,7 8 6 1,Kafkaesque Koffka,3.2.8,0,n,0,right,right,left,right,NA,NA,885,44341,8933,885,NA,NA,2,legacy,4,1024,2,48000,-16,experiment,3,odd,3,412209,408881,409997,5341,138035,409999,243542,5350,129102,414215,411004,415100,NA,49692,414215,NA,Sternberg Task,53,62064,55,yes,1024
94.64285714,94.64285714,1134.75,1134.75,black,experiment,legacy,legacy,legacy,0,uniform,0,undefined,0,right,55,55,55,0,0,55,55,0,0,55,55,55,NA,0,55,0,10/27/19 10:30,The main experiment item,yes,SternbergTask.osexp,C:\Users\Jeanette\Desktop\Jeanette Master's\AQM&ED,no,mono,no,18,no,white,no,yes,768,legacy,43,11,C:/Users/Jeanette/Desktop/Jeanette Master's/AQM&ED/Sternberg task subjects/jh-subject-3.csv,legacy,1 4 9 3,Kafkaesque Koffka,3.2.8,0,n,0,left,right,left,left,NA,NA,1482,44341,8933,1482,NA,NA,2,legacy,4,1024,2,48000,-16,experiment,3,odd,5,418451,415123,416238,5341,138035,416240,243542,5350,129102,420457,417245,421940,NA,49692,420457,NA,Sternberg Task,53,63546,56,yes,1024
92.98245614,92.98245614,1149.929825,1149.929825,black,experiment,legacy,legacy,legacy,0,uniform,0,undefined,0,left,56,56,56,0,0,56,56,0,0,56,56,56,NA,0,56,0,10/27/19 10:30,The main experiment item,yes,SternbergTask.osexp,C:\Users\Jeanette\Desktop\Jeanette Master's\AQM&ED,no,mono,no,18,no,white,no,yes,768,legacy,44,11,C:/Users/Jeanette/Desktop/Jeanette Master's/AQM&ED/Sternberg task subjects/jh-subject-3.csv,legacy,7,Kafkaesque Koffka,3.2.8,1,y,0,None,right,left,None,NA,NA,2000,44341,8933,2000,NA,NA,2,legacy,1,1024,2,48000,-16,experiment,3,odd,7,425268,415123,423055,5341,138035,423058,421957,5350,129102,427275,424063,429275,NA,49692,427275,NA,Sternberg Task,53,65546,57,yes,1024
93.10344828,93.10344828,1143.913793,1143.913793,black,experiment,legacy,legacy,legacy,0,uniform,1,undefined,1,right,57,57,57,0,0,57,57,0,0,57,57,57,NA,0,57,0,10/27/19 10:30,The main experiment item,yes,SternbergTask.osexp,C:\Users\Jeanette\Desktop\Jeanette Master's\AQM&ED,no,mono,no,18,no,white,no,yes,768,legacy,45,11,C:/Users/Jeanette/Desktop/Jeanette Master's/AQM&ED/Sternberg task subjects/jh-subject-3.csv,legacy,7 1 5 6 3,Kafkaesque Koffka,3.2.8,0,n,0,right,right,left,right,NA,NA,801,44341,8933,801,NA,NA,2,legacy,5,1024,2,48000,-16,experiment,3,odd,8,432615,415123,430402,5341,138035,430405,429300,5350,129102,434618,431410,435420,NA,49692,434618,NA,Sternberg Task,54,66347,58,yes,1024
93.22033898,93.22033898,1132.169492,1132.169492,black,experiment,legacy,legacy,legacy,0,uniform,1,undefined,1,left,58,58,58,0,0,58,58,0,0,58,58,58,NA,0,58,0,10/27/19 10:30,The main experiment item,yes,SternbergTask.osexp,C:\Users\Jeanette\Desktop\Jeanette Master's\AQM&ED,no,mono,no,18,no,white,no,yes,768,legacy,46,11,C:/Users/Jeanette/Desktop/Jeanette Master's/AQM&ED/Sternberg task subjects/jh-subject-3.csv,legacy,8,Kafkaesque Koffka,3.2.8,1,y,0,left,right,left,left,NA,NA,451,44341,8933,451,NA,NA,2,legacy,1,1024,2,48000,-16,experiment,3,odd,8,438787,435452,436575,5341,138035,436577,429300,5350,129102,440792,437582,441244,NA,49692,440792,NA,Sternberg Task,55,66798,59,yes,1024
93.33333333,93.33333333,1127.25,1127.25,black,experiment,legacy,legacy,legacy,0,uniform,1,undefined,1,left,59,59,59,0,0,59,59,0,0,59,59,59,NA,0,59,0,10/27/19 10:30,The main experiment item,yes,SternbergTask.osexp,C:\Users\Jeanette\Desktop\Jeanette Master's\AQM&ED,no,mono,no,18,no,white,no,yes,768,legacy,47,11,C:/Users/Jeanette/Desktop/Jeanette Master's/AQM&ED/Sternberg task subjects/jh-subject-3.csv,legacy,9 3 8 2 1 4,Kafkaesque Koffka,3.2.8,3,y,0,left,right,left,left,NA,NA,837,44341,8933,837,NA,NA,2,legacy,6,1024,2,48000,-16,experiment,3,odd,8,444600,441268,442388,5341,138035,442390,429300,5350,129102,446606,443395,447444,NA,49692,446606,NA,Sternberg Task,56,67635,60,yes,1024
93.44262295,93.44262295,1120,1120,black,experiment,legacy,legacy,legacy,0,uniform,1,undefined,1,left,60,60,60,0,0,60,60,0,0,60,60,60,NA,0,60,0,10/27/19 10:30,The main experiment item,yes,SternbergTask.osexp,C:\Users\Jeanette\Desktop\Jeanette Master's\AQM&ED,no,mono,no,18,no,white,no,yes,768,legacy,48,11,C:/Users/Jeanette/Desktop/Jeanette Master's/AQM&ED/Sternberg task subjects/jh-subject-3.csv,legacy,9 5 3 8 4,Kafkaesque Koffka,3.2.8,1,y,0,left,right,left,left,NA,NA,685,44341,8933,685,NA,NA,2,legacy,5,1024,2,48000,-16,experiment,3,odd,9,450817,447468,448604,5341,138035,448606,429300,5350,129102,452822,449611,453508,NA,49692,452822,NA,Sternberg Task,57,68320,61,yes,1024
93.5483871,93.5483871,1114.387097,1114.387097,black,experiment,legacy,legacy,legacy,0,uniform,1,undefined,1,right,61,61,61,0,0,61,61,0,0,61,61,61,NA,0,61,0,10/27/19 10:30,The main experiment item,yes,SternbergTask.osexp,C:\Users\Jeanette\Desktop\Jeanette Master's\AQM&ED,no,mono,no,18,no,white,no,yes,768,legacy,49,11,C:/Users/Jeanette/Desktop/Jeanette Master's/AQM&ED/Sternberg task subjects/jh-subject-3.csv,legacy,4 8 1 2,Kafkaesque Koffka,3.2.8,0,n,0,right,right,left,right,NA,NA,772,44341,8933,772,NA,NA,2,legacy,4,1024,2,48000,-16,experiment,3,odd,7,456829,453527,454614,5341,138035,454617,429300,5350,129102,458831,455622,459604,NA,49692,458831,NA,Sternberg Task,58,69092,62,yes,1024
93.65079365,93.65079365,1110.952381,1110.952381,black,experiment,legacy,legacy,legacy,0,uniform,1,undefined,1,right,62,62,62,0,0,62,62,0,0,62,62,62,NA,0,62,0,10/27/19 10:30,The main experiment item,yes,SternbergTask.osexp,C:\Users\Jeanette\Desktop\Jeanette Master's\AQM&ED,no,mono,no,18,no,white,no,yes,768,legacy,50,11,C:/Users/Jeanette/Desktop/Jeanette Master's/AQM&ED/Sternberg task subjects/jh-subject-3.csv,legacy,6 2 9 3 8 4,Kafkaesque Koffka,3.2.8,0,n,0,right,right,left,right,NA,NA,898,44341,8933,898,NA,NA,2,legacy,6,1024,2,48000,-16,experiment,3,odd,1,462971,459628,460758,5341,138035,460760,429300,5350,129102,464978,461766,465876,NA,49692,464977,NA,Sternberg Task,59,69990,63,yes,1024
93.75,93.75,1109.9375,1109.9375,black,experiment,legacy,legacy,legacy,0,uniform,1,undefined,1,right,63,63,63,0,0,63,63,0,0,63,63,63,NA,0,63,0,10/27/19 10:30,The main experiment item,yes,SternbergTask.osexp,C:\Users\Jeanette\Desktop\Jeanette Master's\AQM&ED,no,mono,no,18,no,white,no,yes,768,legacy,51,11,C:/Users/Jeanette/Desktop/Jeanette Master's/AQM&ED/Sternberg task subjects/jh-subject-3.csv,legacy,8 2 1 4 5 9,Kafkaesque Koffka,3.2.8,0,n,0,right,right,left,right,NA,NA,1046,44341,8933,1046,NA,NA,2,legacy,6,1024,2,48000,-16,experiment,3,odd,7,469248,465904,467036,5341,138035,467038,429300,5350,129102,471253,468043,472300,NA,49692,471253,NA,Sternberg Task,60,71036,64,yes,1024
93.84615385,93.84615385,1104.4,1104.4,black,experiment,legacy,legacy,legacy,0,uniform,1,undefined,1,right,64,64,64,0,0,64,64,0,0,64,64,64,NA,0,64,0,10/27/19 10:30,The main experiment item,yes,SternbergTask.osexp,C:\Users\Jeanette\Desktop\Jeanette Master's\AQM&ED,no,mono,no,18,no,white,no,yes,768,legacy,52,11,C:/Users/Jeanette/Desktop/Jeanette Master's/AQM&ED/Sternberg task subjects/jh-subject-3.csv,legacy,8 4 3 5,Kafkaesque Koffka,3.2.8,0,n,0,right,right,left,right,NA,NA,750,44341,8933,750,NA,NA,2,legacy,4,1024,2,48000,-16,experiment,3,odd,6,475639,472321,473425,5341,138035,473428,429300,5350,129102,477645,474433,478396,NA,49692,477645,NA,Sternberg Task,61,71786,65,yes,1024
93.93939394,93.93939394,1099.621212,1099.621212,black,experiment,legacy,legacy,legacy,0,uniform,1,undefined,1,right,65,65,65,0,0,65,65,0,0,65,65,65,NA,0,65,0,10/27/19 10:30,The main experiment item,yes,SternbergTask.osexp,C:\Users\Jeanette\Desktop\Jeanette Master's\AQM&ED,no,mono,no,18,no,white,no,yes,768,legacy,53,11,C:/Users/Jeanette/Desktop/Jeanette Master's/AQM&ED/Sternberg task subjects/jh-subject-3.csv,legacy,2 3 8 5 6 7,Kafkaesque Koffka,3.2.8,0,n,0,right,right,left,right,NA,NA,789,44341,8933,789,NA,NA,2,legacy,6,1024,2,48000,-16,experiment,3,odd,1,481776,478442,479563,5341,138035,479566,429300,5350,129102,483782,480571,484572,NA,49692,483781,NA,Sternberg Task,62,72575,66,yes,1024
94.02985075,94.02985075,1093.776119,1093.776119,black,experiment,legacy,legacy,legacy,0,uniform,1,undefined,1,left,66,66,66,0,0,66,66,0,0,66,66,66,NA,0,66,0,10/27/19 10:30,The main experiment item,yes,SternbergTask.osexp,C:\Users\Jeanette\Desktop\Jeanette Master's\AQM&ED,no,mono,no,18,no,white,no,yes,768,legacy,54,11,C:/Users/Jeanette/Desktop/Jeanette Master's/AQM&ED/Sternberg task subjects/jh-subject-3.csv,legacy,3 4,Kafkaesque Koffka,3.2.8,1,y,0,left,right,left,left,NA,NA,708,44341,8933,708,NA,NA,2,legacy,2,1024,2,48000,-16,experiment,3,odd,3,487905,484589,485693,5341,138035,485695,429300,5350,129102,489911,486700,490620,NA,49692,489910,NA,Sternberg Task,63,73283,67,yes,1024
94.11764706,94.11764706,1097.852941,1097.852941,black,experiment,legacy,legacy,legacy,0,uniform,1,undefined,1,left,67,67,67,0,0,67,67,0,0,67,67,67,NA,0,67,0,10/27/19 10:30,The main experiment item,yes,SternbergTask.osexp,C:\Users\Jeanette\Desktop\Jeanette Master's\AQM&ED,no,mono,no,18,no,white,no,yes,768,legacy,55,11,C:/Users/Jeanette/Desktop/Jeanette Master's/AQM&ED/Sternberg task subjects/jh-subject-3.csv,legacy,5 7 8 2 3 8,Kafkaesque Koffka,3.2.8,5,y,0,left,right,left,left,NA,NA,1371,44341,8933,1371,NA,NA,2,legacy,6,1024,2,48000,-16,experiment,3,odd,3,493969,490639,491756,5341,138035,491759,429300,5350,129102,495976,492764,497348,NA,49692,495976,NA,Sternberg Task,64,74654,68,yes,1024
94.20289855,94.20289855,1093.057971,1093.057971,black,experiment,legacy,legacy,legacy,0,uniform,1,undefined,1,left,68,68,68,0,0,68,68,0,0,68,68,68,NA,0,68,0,10/27/19 10:30,The main experiment item,yes,SternbergTask.osexp,C:\Users\Jeanette\Desktop\Jeanette Master's\AQM&ED,no,mono,no,18,no,white,no,yes,768,legacy,56,11,C:/Users/Jeanette/Desktop/Jeanette Master's/AQM&ED/Sternberg task subjects/jh-subject-3.csv,legacy,8 9 5 6 7,Kafkaesque Koffka,3.2.8,1,y,0,left,right,left,left,NA,NA,767,44341,8933,767,NA,NA,2,legacy,5,1024,2,48000,-16,experiment,3,odd,8,500687,497365,498475,5341,138035,498477,429300,5350,129102,502692,499482,503460,NA,49692,502692,NA,Sternberg Task,65,75421,69,yes,1024
94.28571429,94.28571429,1089.171429,1089.171429,black,experiment,legacy,legacy,legacy,0,uniform,1,undefined,1,left,69,69,69,0,0,69,69,0,0,69,69,69,NA,0,69,0,10/27/19 10:30,The main experiment item,yes,SternbergTask.osexp,C:\Users\Jeanette\Desktop\Jeanette Master's\AQM&ED,no,mono,no,18,no,white,no,yes,768,legacy,57,11,C:/Users/Jeanette/Desktop/Jeanette Master's/AQM&ED/Sternberg task subjects/jh-subject-3.csv,legacy,7 8 6 3 1,Kafkaesque Koffka,3.2.8,5,y,0,left,right,left,left,NA,NA,821,44341,8933,821,NA,NA,2,legacy,5,1024,2,48000,-16,experiment,3,odd,1,506809,503474,504596,5341,138035,504598,429300,5350,129102,508814,505603,509636,NA,49692,508814,NA,Sternberg Task,66,76242,70,yes,1024
94.36619718,94.36619718,1087.352113,1087.352113,black,experiment,legacy,legacy,legacy,0,uniform,1,undefined,1,left,70,70,70,0,0,70,70,0,0,70,70,70,NA,0,70,0,10/27/19 10:30,The main experiment item,yes,SternbergTask.osexp,C:\Users\Jeanette\Desktop\Jeanette Master's\AQM&ED,no,mono,no,18,no,white,no,yes,768,legacy,58,11,C:/Users/Jeanette/Desktop/Jeanette Master's/AQM&ED/Sternberg task subjects/jh-subject-3.csv,legacy,8 9 6 1,Kafkaesque Koffka,3.2.8,2,y,0,left,right,left,left,NA,NA,960,44341,8933,960,NA,NA,2,legacy,4,1024,2,48000,-16,experiment,3,odd,9,512982,509659,510768,5341,138035,510771,429300,5350,129102,514987,511777,515948,NA,49692,514987,NA,Sternberg Task,67,77202,71,yes,1024
94.44444444,94.44444444,1080.347222,1080.347222,black,experiment,legacy,legacy,legacy,0,uniform,1,undefined,1,left,71,71,71,0,0,71,71,0,0,71,71,71,NA,0,71,0,10/27/19 10:30,The main experiment item,yes,SternbergTask.osexp,C:\Users\Jeanette\Desktop\Jeanette Master's\AQM&ED,no,mono,no,18,no,white,no,yes,768,legacy,59,11,C:/Users/Jeanette/Desktop/Jeanette Master's/AQM&ED/Sternberg task subjects/jh-subject-3.csv,legacy,2 3,Kafkaesque Koffka,3.2.8,1,y,0,left,right,left,left,NA,NA,583,44341,8933,583,NA,NA,2,legacy,2,1024,2,48000,-16,experiment,3,odd,2,519328,515967,517118,5341,138035,517120,429300,5350,129102,521333,518125,521916,NA,49692,521333,NA,Sternberg Task,68,77785,72,yes,1024
94.52054795,94.52054795,1079.041096,1079.041096,black,experiment,legacy,legacy,legacy,0,uniform,1,undefined,1,left,72,72,72,0,0,72,72,0,0,72,72,72,NA,0,72,0,10/27/19 10:30,The main experiment item,yes,SternbergTask.osexp,C:\Users\Jeanette\Desktop\Jeanette Master's\AQM&ED,no,mono,no,18,no,white,no,yes,768,legacy,60,11,C:/Users/Jeanette/Desktop/Jeanette Master's/AQM&ED/Sternberg task subjects/jh-subject-3.csv,legacy,8 9 5 7 1 6,Kafkaesque Koffka,3.2.8,4,y,0,left,right,left,left,NA,NA,985,44341,8933,985,NA,NA,2,legacy,6,1024,2,48000,-16,experiment,3,odd,7,525340,522005,523128,5341,138035,523130,429300,5350,129102,527346,524135,528332,NA,49692,527346,NA,Sternberg Task,69,78770,73,yes,1024
94.59459459,94.59459459,1072.391892,1072.391892,black,experiment,legacy,legacy,legacy,0,uniform,1,undefined,1,left,73,73,73,0,0,73,73,0,0,73,73,73,NA,0,73,0,10/27/19 10:30,The main experiment item,yes,SternbergTask.osexp,C:\Users\Jeanette\Desktop\Jeanette Master's\AQM&ED,no,mono,no,18,no,white,no,yes,768,legacy,61,11,C:/Users/Jeanette/Desktop/Jeanette Master's/AQM&ED/Sternberg task subjects/jh-subject-3.csv,legacy,9 1 6 7 8,Kafkaesque Koffka,3.2.8,1,y,0,left,right,left,left,NA,NA,587,44341,8933,587,NA,NA,2,legacy,5,1024,2,48000,-16,experiment,3,odd,9,531697,528352,529484,5341,138035,529486,429300,5350,129102,533704,530492,534292,NA,49692,533703,NA,Sternberg Task,70,79357,74,yes,1024
94.66666667,94.66666667,1073.16,1073.16,black,experiment,legacy,legacy,legacy,0,uniform,1,undefined,1,right,74,74,74,0,0,74,74,0,0,74,74,74,NA,0,74,0,10/27/19 10:30,The main experiment item,yes,SternbergTask.osexp,C:\Users\Jeanette\Desktop\Jeanette Master's\AQM&ED,no,mono,no,18,no,white,no,yes,768,legacy,62,11,C:/Users/Jeanette/Desktop/Jeanette Master's/AQM&ED/Sternberg task subjects/jh-subject-3.csv,legacy,5 2,Kafkaesque Koffka,3.2.8,0,n,0,right,right,left,right,NA,NA,1130,44341,8933,1130,NA,NA,2,legacy,2,1024,2,48000,-16,experiment,3,odd,7,537619,534311,535407,5341,138035,535409,429300,5350,129102,539625,536414,540756,NA,49692,539624,NA,Sternberg Task,71,80487,75,yes,1024
94.73684211,94.73684211,1077.407895,1077.407895,black,experiment,legacy,legacy,legacy,0,uniform,1,undefined,1,left,75,75,75,0,0,75,75,0,0,75,75,75,NA,0,75,0,10/27/19 10:30,The main experiment item,yes,SternbergTask.osexp,C:\Users\Jeanette\Desktop\Jeanette Master's\AQM&ED,no,mono,no,18,no,white,no,yes,768,legacy,63,11,C:/Users/Jeanette/Desktop/Jeanette Master's/AQM&ED/Sternberg task subjects/jh-subject-3.csv,legacy,2 4 6 9,Kafkaesque Koffka,3.2.8,3,y,0,left,right,left,left,NA,NA,1396,44341,8933,1396,NA,NA,2,legacy,4,1024,2,48000,-16,experiment,3,odd,6,544098,540779,541885,5341,138035,541887,429300,5350,129102,546103,542892,547500,NA,49692,546103,NA,Sternberg Task,72,81883,76,yes,1024
94.80519481,94.80519481,1073.974026,1073.974026,black,experiment,legacy,legacy,legacy,0,uniform,1,undefined,1,right,76,76,76,0,0,76,76,0,0,76,76,76,NA,0,76,0,10/27/19 10:30,The main experiment item,yes,SternbergTask.osexp,C:\Users\Jeanette\Desktop\Jeanette Master's\AQM&ED,no,mono,no,18,no,white,no,yes,768,legacy,64,11,C:/Users/Jeanette/Desktop/Jeanette Master's/AQM&ED/Sternberg task subjects/jh-subject-3.csv,legacy,6 9 4 5 3 2,Kafkaesque Koffka,3.2.8,0,n,0,right,right,left,right,NA,NA,813,44341,8933,813,NA,NA,2,legacy,6,1024,2,48000,-16,experiment,3,odd,8,550843,547521,548629,5341,138035,548632,429300,5350,129102,552846,549637,553660,NA,49692,552846,NA,Sternberg Task,73,82696,77,yes,1024
94.87179487,94.87179487,1072.320513,1072.320513,black,experiment,legacy,legacy,legacy,0,uniform,1,undefined,1,right,77,77,77,0,0,77,77,0,0,77,77,77,NA,0,77,0,10/27/19 10:30,The main experiment item,yes,SternbergTask.osexp,C:\Users\Jeanette\Desktop\Jeanette Master's\AQM&ED,no,mono,no,18,no,white,no,yes,768,legacy,65,11,C:/Users/Jeanette/Desktop/Jeanette Master's/AQM&ED/Sternberg task subjects/jh-subject-3.csv,legacy,2 8 9 4 1,Kafkaesque Koffka,3.2.8,0,n,0,right,right,left,right,NA,NA,945,44341,8933,945,NA,NA,2,legacy,5,1024,2,48000,-16,experiment,3,odd,5,556997,553680,554785,5341,138035,554787,429300,5350,129102,559003,555792,559949,NA,49692,559003,NA,Sternberg Task,74,83641,78,yes,1024
94.93670886,94.93670886,1069.43038,1069.43038,black,experiment,legacy,legacy,legacy,0,uniform,1,undefined,1,right,78,78,78,0,0,78,78,0,0,78,78,78,NA,0,78,0,10/27/19 10:30,The main experiment item,yes,SternbergTask.osexp,C:\Users\Jeanette\Desktop\Jeanette Master's\AQM&ED,no,mono,no,18,no,white,no,yes,768,legacy,66,11,C:/Users/Jeanette/Desktop/Jeanette Master's/AQM&ED/Sternberg task subjects/jh-subject-3.csv,legacy,1 4 9 2 5,Kafkaesque Koffka,3.2.8,0,n,0,right,right,left,right,NA,NA,844,44341,8933,844,NA,NA,2,legacy,5,1024,2,48000,-16,experiment,3,odd,7,563313,559972,561100,5341,138035,561102,429300,5350,129102,565319,562108,566164,NA,49692,565319,NA,Sternberg Task,75,84485,79,yes,1024
95,95,1072.4875,1072.4875,black,experiment,legacy,legacy,legacy,0,uniform,1,undefined,1,right,79,79,79,0,0,79,79,0,0,79,79,79,NA,0,79,0,10/27/19 10:30,The main experiment item,yes,SternbergTask.osexp,C:\Users\Jeanette\Desktop\Jeanette Master's\AQM&ED,no,mono,no,18,no,white,no,yes,768,legacy,67,11,C:/Users/Jeanette/Desktop/Jeanette Master's/AQM&ED/Sternberg task subjects/jh-subject-3.csv,legacy,9 5 3 2 8 6,Kafkaesque Koffka,3.2.8,0,n,0,right,right,left,right,NA,NA,1314,44341,8933,1314,NA,NA,2,legacy,6,1024,2,48000,-16,experiment,3,odd,7,569508,566181,567295,5341,138035,567297,429300,5350,129102,571513,568302,572829,NA,49692,571513,NA,Sternberg Task,76,85799,80,yes,1024
95.0617284,95.0617284,1075.666667,1075.666667,black,experiment,legacy,legacy,legacy,0,uniform,1,undefined,1,right,80,80,80,0,0,80,80,0,0,80,80,80,NA,0,80,0,10/27/19 10:30,The main experiment item,yes,SternbergTask.osexp,C:\Users\Jeanette\Desktop\Jeanette Master's\AQM&ED,no,mono,no,18,no,white,no,yes,768,legacy,68,11,C:/Users/Jeanette/Desktop/Jeanette Master's/AQM&ED/Sternberg task subjects/jh-subject-3.csv,legacy,3 4 2,Kafkaesque Koffka,3.2.8,0,n,0,right,right,left,right,NA,NA,1330,44341,8933,1330,NA,NA,2,legacy,3,1024,2,48000,-16,experiment,3,odd,5,576170,572849,573956,5341,138035,573958,429300,5350,129102,578177,574964,579508,NA,49692,578176,NA,Sternberg Task,77,87129,81,yes,1024
95.12195122,95.12195122,1070.890244,1070.890244,black,experiment,legacy,legacy,legacy,0,uniform,1,undefined,1,right,81,81,81,0,0,81,81,0,0,81,81,81,NA,0,81,0,10/27/19 10:30,The main experiment item,yes,SternbergTask.osexp,C:\Users\Jeanette\Desktop\Jeanette Master's\AQM&ED,no,mono,no,18,no,white,no,yes,768,legacy,69,11,C:/Users/Jeanette/Desktop/Jeanette Master's/AQM&ED/Sternberg task subjects/jh-subject-3.csv,legacy,1,Kafkaesque Koffka,3.2.8,0,n,0,right,right,left,right,NA,NA,684,44341,8933,684,NA,NA,2,legacy,1,1024,2,48000,-16,experiment,3,odd,7,582853,579524,580638,5341,138035,580641,429300,5350,129102,584855,581647,585540,NA,49692,584855,NA,Sternberg Task,78,87813,82,yes,1024
95.18072289,95.18072289,1070.072289,1070.072289,black,experiment,legacy,legacy,legacy,0,uniform,1,undefined,1,left,82,82,82,0,0,82,82,0,0,82,82,82,NA,0,82,0,10/27/19 10:30,The main experiment item,yes,SternbergTask.osexp,C:\Users\Jeanette\Desktop\Jeanette Master's\AQM&ED,no,mono,no,18,no,white,no,yes,768,legacy,70,11,C:/Users/Jeanette/Desktop/Jeanette Master's/AQM&ED/Sternberg task subjects/jh-subject-3.csv,legacy,3 9 7 6 4,Kafkaesque Koffka,3.2.8,3,y,0,left,right,left,left,NA,NA,1003,44341,8933,1003,NA,NA,2,legacy,5,1024,2,48000,-16,experiment,3,odd,7,588906,585568,586693,5341,138035,586696,429300,5350,129102,590912,587701,591916,NA,49692,590911,NA,Sternberg Task,79,88816,83,yes,1024
95.23809524,95.23809524,1071.369048,1071.369048,black,experiment,legacy,legacy,legacy,0,uniform,1,undefined,1,right,83,83,83,0,0,83,83,0,0,83,83,83,NA,0,83,0,10/27/19 10:30,The main experiment item,yes,SternbergTask.osexp,C:\Users\Jeanette\Desktop\Jeanette Master's\AQM&ED,no,mono,no,18,no,white,no,yes,768,legacy,71,11,C:/Users/Jeanette/Desktop/Jeanette Master's/AQM&ED/Sternberg task subjects/jh-subject-3.csv,legacy,1 3 2 6 9,Kafkaesque Koffka,3.2.8,0,n,0,right,right,left,right,NA,NA,1179,44341,8933,1179,NA,NA,2,legacy,5,1024,2,48000,-16,experiment,3,odd,5,595251,591934,593037,5341,138035,593039,429300,5350,129102,597257,594044,598437,NA,49692,597256,NA,Sternberg Task,80,89995,84,yes,1024
95.29411765,95.29411765,1070.176471,1070.176471,black,experiment,legacy,legacy,legacy,0,uniform,1,undefined,1,right,84,84,84,0,0,84,84,0,0,84,84,84,NA,0,84,0,10/27/19 10:30,The main experiment item,yes,SternbergTask.osexp,C:\Users\Jeanette\Desktop\Jeanette Master's\AQM&ED,no,mono,no,18,no,white,no,yes,768,legacy,72,11,C:/Users/Jeanette/Desktop/Jeanette Master's/AQM&ED/Sternberg task subjects/jh-subject-3.csv,legacy,9 7 4 5 8,Kafkaesque Koffka,3.2.8,0,n,0,right,right,left,right,NA,NA,970,44341,8933,970,NA,NA,2,legacy,5,1024,2,48000,-16,experiment,3,odd,6,601780,598452,599567,5341,138035,599569,429300,5350,129102,603785,600575,604756,NA,49692,603785,NA,Sternberg Task,81,90965,85,yes,1024
95.34883721,95.34883721,1073.453488,1073.453488,black,experiment,legacy,legacy,legacy,0,uniform,1,undefined,1,left,85,85,85,0,0,85,85,0,0,85,85,85,NA,0,85,0,10/27/19 10:30,The main experiment item,yes,SternbergTask.osexp,C:\Users\Jeanette\Desktop\Jeanette Master's\AQM&ED,no,mono,no,18,no,white,no,yes,768,legacy,73,11,C:/Users/Jeanette/Desktop/Jeanette Master's/AQM&ED/Sternberg task subjects/jh-subject-3.csv,legacy,3 5 7 1,Kafkaesque Koffka,3.2.8,3,y,0,left,right,left,left,NA,NA,1352,44341,8933,1352,NA,NA,2,legacy,4,1024,2,48000,-16,experiment,3,odd,7,608109,604786,605897,5341,138035,605899,429300,5350,129102,610115,606904,611468,NA,49692,610115,NA,Sternberg Task,82,92317,86,yes,1024
95.40229885,95.40229885,1073.333333,1073.333333,black,experiment,legacy,legacy,legacy,0,uniform,1,undefined,1,left,86,86,86,0,0,86,86,0,0,86,86,86,NA,0,86,0,10/27/19 10:30,The main experiment item,yes,SternbergTask.osexp,C:\Users\Jeanette\Desktop\Jeanette Master's\AQM&ED,no,mono,no,18,no,white,no,yes,768,legacy,74,11,C:/Users/Jeanette/Desktop/Jeanette Master's/AQM&ED/Sternberg task subjects/jh-subject-3.csv,legacy,6 9 3 1,Kafkaesque Koffka,3.2.8,4,y,0,left,right,left,left,NA,NA,1063,44341,8933,1063,NA,NA,2,legacy,4,1024,2,48000,-16,experiment,3,odd,1,614839,611486,612625,5341,138035,612628,429300,5350,129102,616844,613633,617908,NA,49692,616844,NA,Sternberg Task,83,93380,87,yes,1024
95.45454545,95.45454545,1072.227273,1072.227273,black,experiment,legacy,legacy,legacy,0,uniform,1,undefined,1,right,87,87,87,0,0,87,87,0,0,87,87,87,NA,0,87,0,10/27/19 10:30,The main experiment item,yes,SternbergTask.osexp,C:\Users\Jeanette\Desktop\Jeanette Master's\AQM&ED,no,mono,no,18,no,white,no,yes,768,legacy,75,11,C:/Users/Jeanette/Desktop/Jeanette Master's/AQM&ED/Sternberg task subjects/jh-subject-3.csv,legacy,2 5 1 4,Kafkaesque Koffka,3.2.8,0,n,0,right,right,left,right,NA,NA,976,44341,8933,976,NA,NA,2,legacy,4,1024,2,48000,-16,experiment,3,odd,6,621254,617929,619041,5341,138035,619044,429300,5350,129102,623259,620049,624236,NA,49692,623259,NA,Sternberg Task,84,94356,88,yes,1024
95.50561798,95.50561798,1070.494382,1070.494382,black,experiment,legacy,legacy,legacy,0,uniform,1,undefined,1,right,88,88,88,0,0,88,88,0,0,88,88,88,NA,0,88,0,10/27/19 10:30,The main experiment item,yes,SternbergTask.osexp,C:\Users\Jeanette\Desktop\Jeanette Master's\AQM&ED,no,mono,no,18,no,white,no,yes,768,legacy,76,11,C:/Users/Jeanette/Desktop/Jeanette Master's/AQM&ED/Sternberg task subjects/jh-subject-3.csv,legacy,7 9,Kafkaesque Koffka,3.2.8,0,n,0,right,right,left,right,NA,NA,918,44341,8933,918,NA,NA,2,legacy,2,1024,2,48000,-16,experiment,3,odd,1,627584,624262,625371,5341,138035,625373,429300,5350,129102,629589,626379,630509,NA,49692,629589,NA,Sternberg Task,85,95274,89,yes,1024
95.55555556,95.55555556,1073.2,1073.2,black,experiment,legacy,legacy,legacy,0,uniform,1,undefined,1,right,89,89,89,0,0,89,89,0,0,89,89,89,NA,0,89,0,10/27/19 10:30,The main experiment item,yes,SternbergTask.osexp,C:\Users\Jeanette\Desktop\Jeanette Master's\AQM&ED,no,mono,no,18,no,white,no,yes,768,legacy,77,11,C:/Users/Jeanette/Desktop/Jeanette Master's/AQM&ED/Sternberg task subjects/jh-subject-3.csv,legacy,9 8 2 7 4,Kafkaesque Koffka,3.2.8,0,n,0,right,right,left,right,NA,NA,1314,44341,8933,1314,NA,NA,2,legacy,5,1024,2,48000,-16,experiment,3,odd,5,633869,630530,631656,5341,138035,631658,429300,5350,129102,635874,632663,637189,NA,49692,635874,NA,Sternberg Task,86,96588,90,yes,1024
95.6043956,95.6043956,1073.538462,1073.538462,black,experiment,legacy,legacy,legacy,0,uniform,1,undefined,1,right,90,90,90,0,0,90,90,0,0,90,90,90,NA,0,90,0,10/27/19 10:30,The main experiment item,yes,SternbergTask.osexp,C:\Users\Jeanette\Desktop\Jeanette Master's\AQM&ED,no,mono,no,18,no,white,no,yes,768,legacy,78,11,C:/Users/Jeanette/Desktop/Jeanette Master's/AQM&ED/Sternberg task subjects/jh-subject-3.csv,legacy,1 7 5 2,Kafkaesque Koffka,3.2.8,0,n,0,right,right,left,right,NA,NA,1104,44341,8933,1104,NA,NA,2,legacy,4,1024,2,48000,-16,experiment,3,odd,3,640541,637215,638329,5341,138035,638331,429300,5350,129102,642547,639336,643652,NA,49692,642547,NA,Sternberg Task,87,97692,91,yes,1024
95.65217391,95.65217391,1075.26087,1075.26087,black,experiment,legacy,legacy,legacy,0,uniform,1,undefined,1,left,91,91,91,0,0,91,91,0,0,91,91,91,NA,0,91,0,10/27/19 10:30,The main experiment item,yes,SternbergTask.osexp,C:\Users\Jeanette\Desktop\Jeanette Master's\AQM&ED,no,mono,no,18,no,white,no,yes,768,legacy,79,11,C:/Users/Jeanette/Desktop/Jeanette Master's/AQM&ED/Sternberg task subjects/jh-subject-3.csv,legacy,9 4 2,Kafkaesque Koffka,3.2.8,1,y,0,left,right,left,left,NA,NA,1232,44341,8933,1232,NA,NA,2,legacy,3,1024,2,48000,-16,experiment,3,odd,9,647014,643673,644801,5341,138035,644803,429300,5350,129102,649019,645808,650253,NA,49692,649019,NA,Sternberg Task,88,98924,92,yes,1024
95.69892473,95.69892473,1072.215054,1072.215054,black,experiment,legacy,legacy,legacy,0,uniform,1,undefined,1,right,92,92,92,0,0,92,92,0,0,92,92,92,NA,0,92,0,10/27/19 10:30,The main experiment item,yes,SternbergTask.osexp,C:\Users\Jeanette\Desktop\Jeanette Master's\AQM&ED,no,mono,no,18,no,white,no,yes,768,legacy,80,11,C:/Users/Jeanette/Desktop/Jeanette Master's/AQM&ED/Sternberg task subjects/jh-subject-3.csv,legacy,6 7 5 9,Kafkaesque Koffka,3.2.8,0,n,0,right,right,left,right,NA,NA,792,44341,8933,792,NA,NA,2,legacy,4,1024,2,48000,-16,experiment,3,odd,2,653598,650274,651384,5341,138035,651386,429300,5350,129102,655603,652391,656396,NA,49692,655603,NA,Sternberg Task,89,99716,93,yes,1024
95.74468085,95.74468085,1070.265957,1070.265957,black,experiment,legacy,legacy,legacy,0,uniform,1,undefined,1,left,93,93,93,0,0,93,93,0,0,93,93,93,NA,0,93,0,10/27/19 10:30,The main experiment item,yes,SternbergTask.osexp,C:\Users\Jeanette\Desktop\Jeanette Master's\AQM&ED,no,mono,no,18,no,white,no,yes,768,legacy,81,11,C:/Users/Jeanette/Desktop/Jeanette Master's/AQM&ED/Sternberg task subjects/jh-subject-3.csv,legacy,4,Kafkaesque Koffka,3.2.8,1,y,0,left,right,left,left,NA,NA,889,44341,8933,889,NA,NA,2,legacy,1,1024,2,48000,-16,experiment,3,odd,4,659741,656416,657529,5341,138035,657531,429300,5350,129102,661746,658536,662636,NA,49692,661746,NA,Sternberg Task,90,100605,94,yes,1024
95.78947368,95.78947368,1068.115789,1068.115789,black,experiment,legacy,legacy,legacy,0,uniform,1,undefined,1,left,94,94,94,0,0,94,94,0,0,94,94,94,NA,0,94,0,10/27/19 10:30,The main experiment item,yes,SternbergTask.osexp,C:\Users\Jeanette\Desktop\Jeanette Master's\AQM&ED,no,mono,no,18,no,white,no,yes,768,legacy,82,11,C:/Users/Jeanette/Desktop/Jeanette Master's/AQM&ED/Sternberg task subjects/jh-subject-3.csv,legacy,6 5,Kafkaesque Koffka,3.2.8,2,y,0,left,right,left,left,NA,NA,866,44341,8933,866,NA,NA,2,legacy,2,1024,2,48000,-16,experiment,3,odd,5,665994,662649,663782,5341,138035,663784,429300,5350,129102,668001,664789,668868,NA,49692,668000,NA,Sternberg Task,91,101471,95,yes,1024
95.83333333,95.83333333,1066.3125,1066.3125,black,experiment,legacy,legacy,legacy,0,uniform,1,undefined,1,left,95,95,95,0,0,95,95,0,0,95,95,95,NA,0,95,0,10/27/19 10:30,The main experiment item,yes,SternbergTask.osexp,C:\Users\Jeanette\Desktop\Jeanette Master's\AQM&ED,no,mono,no,18,no,white,no,yes,768,legacy,83,11,C:/Users/Jeanette/Desktop/Jeanette Master's/AQM&ED/Sternberg task subjects/jh-subject-3.csv,legacy,8 3,Kafkaesque Koffka,3.2.8,2,y,0,left,right,left,left,NA,NA,895,44341,8933,895,NA,NA,2,legacy,2,1024,2,48000,-16,experiment,3,odd,3,672230,668900,670017,5341,138035,670019,429300,5350,129102,674236,671025,675132,NA,49692,674236,NA,Sternberg Task,92,102366,96,yes,1024
95.87628866,95.87628866,1074.670103,1074.670103,black,experiment,legacy,legacy,legacy,0,uniform,1,undefined,1,right,96,96,96,0,0,96,96,0,0,96,96,96,NA,0,96,0,10/27/19 10:30,The main experiment item,yes,SternbergTask.osexp,C:\Users\Jeanette\Desktop\Jeanette Master's\AQM&ED,no,mono,no,18,no,white,no,yes,768,legacy,84,11,C:/Users/Jeanette/Desktop/Jeanette Master's/AQM&ED/Sternberg task subjects/jh-subject-3.csv,legacy,2 8 7 9 5 3,Kafkaesque Koffka,3.2.8,0,n,0,right,right,left,right,NA,NA,1877,44341,8933,1877,NA,NA,2,legacy,6,1024,2,48000,-16,experiment,3,odd,6,678473,675151,676259,5341,138035,676262,429300,5350,129102,680478,677267,682356,NA,49692,680478,NA,Sternberg Task,93,104243,97,yes,1024
95.91836735,95.91836735,1072.642857,1072.642857,black,experiment,legacy,legacy,legacy,0,uniform,1,undefined,1,left,97,97,97,0,0,97,97,0,0,97,97,97,NA,0,97,0,10/27/19 10:30,The main experiment item,yes,SternbergTask.osexp,C:\Users\Jeanette\Desktop\Jeanette Master's\AQM&ED,no,mono,no,18,no,white,no,yes,768,legacy,85,11,C:/Users/Jeanette/Desktop/Jeanette Master's/AQM&ED/Sternberg task subjects/jh-subject-3.csv,legacy,1 4 9 3 2 5,Kafkaesque Koffka,3.2.8,3,y,0,left,right,left,left,NA,NA,876,44341,8933,876,NA,NA,2,legacy,6,1024,2,48000,-16,experiment,3,odd,9,685713,682377,683502,5341,138035,683504,429300,5350,129102,687719,684510,688596,NA,49692,687719,NA,Sternberg Task,94,105119,98,yes,1024
95.95959596,95.95959596,1071.727273,1071.727273,black,experiment,legacy,legacy,legacy,0,uniform,1,undefined,1,left,98,98,98,0,0,98,98,0,0,98,98,98,NA,0,98,0,10/27/19 10:30,The main experiment item,yes,SternbergTask.osexp,C:\Users\Jeanette\Desktop\Jeanette Master's\AQM&ED,no,mono,no,18,no,white,no,yes,768,legacy,86,11,C:/Users/Jeanette/Desktop/Jeanette Master's/AQM&ED/Sternberg task subjects/jh-subject-3.csv,legacy,2 5 4 8 7,Kafkaesque Koffka,3.2.8,3,y,0,left,right,left,left,NA,NA,982,44341,8933,982,NA,NA,2,legacy,5,1024,2,48000,-16,experiment,3,odd,4,691958,688619,689744,5341,138035,689747,429300,5350,129102,693965,690753,694949,NA,49692,693964,NA,Sternberg Task,95,106101,99,yes,1024
96,96,1067.04,1067.04,black,experiment,legacy,legacy,legacy,0,uniform,1,undefined,1,left,99,99,99,0,0,99,99,0,0,99,99,99,NA,0,99,0,10/27/19 10:30,The main experiment item,yes,SternbergTask.osexp,C:\Users\Jeanette\Desktop\Jeanette Master's\AQM&ED,no,mono,no,18,no,white,no,yes,768,legacy,87,11,C:/Users/Jeanette/Desktop/Jeanette Master's/AQM&ED/Sternberg task subjects/jh-subject-3.csv,legacy,8 7 3,Kafkaesque Koffka,3.2.8,1,y,0,left,right,left,left,NA,NA,603,44341,8933,603,NA,NA,2,legacy,3,1024,2,48000,-16,experiment,3,odd,8,698314,694970,696101,5341,138035,696103,429300,5350,129102,700320,697109,700925,NA,49692,700320,NA,Sternberg Task,96,106704,100,yes,1024
96.03960396,96.03960396,1067.029703,1067.029703,black,experiment,legacy,legacy,legacy,0,uniform,1,undefined,1,right,100,100,100,0,0,100,100,0,0,100,100,100,NA,0,100,0,10/27/19 10:30,The main experiment item,yes,SternbergTask.osexp,C:\Users\Jeanette\Desktop\Jeanette Master's\AQM&ED,no,mono,no,18,no,white,no,yes,768,legacy,88,11,C:/Users/Jeanette/Desktop/Jeanette Master's/AQM&ED/Sternberg task subjects/jh-subject-3.csv,legacy,8 5 4 2 9 6,Kafkaesque Koffka,3.2.8,0,n,0,right,right,left,right,NA,NA,1066,44341,8933,1066,NA,NA,2,legacy,6,1024,2,48000,-16,experiment,3,odd,3,704292,700963,702078,5341,138035,702080,429300,5350,129102,706297,703087,707364,NA,49692,706297,NA,Sternberg Task,97,107770,101,yes,1024
96.07843137,96.07843137,1069.480392,1069.480392,black,experiment,legacy,legacy,legacy,0,uniform,1,undefined,1,right,101,101,101,0,0,101,101,0,0,101,101,101,NA,0,101,0,10/27/19 10:30,The main experiment item,yes,SternbergTask.osexp,C:\Users\Jeanette\Desktop\Jeanette Master's\AQM&ED,no,mono,no,18,no,white,no,yes,768,legacy,89,11,C:/Users/Jeanette/Desktop/Jeanette Master's/AQM&ED/Sternberg task subjects/jh-subject-3.csv,legacy,4 2 7 6 1 3,Kafkaesque Koffka,3.2.8,0,n,0,right,right,left,right,NA,NA,1317,44341,8933,1317,NA,NA,2,legacy,6,1024,2,48000,-16,experiment,3,odd,8,710712,707389,708499,5341,138035,708501,429300,5350,129102,712718,709506,714037,NA,49692,712718,NA,Sternberg Task,98,109087,102,yes,1024
96.11650485,96.11650485,1067.135922,1067.135922,black,experiment,legacy,legacy,legacy,0,uniform,1,undefined,1,left,102,102,102,0,0,102,102,0,0,102,102,102,NA,0,102,0,10/27/19 10:30,The main experiment item,yes,SternbergTask.osexp,C:\Users\Jeanette\Desktop\Jeanette Master's\AQM&ED,no,mono,no,18,no,white,no,yes,768,legacy,90,11,C:/Users/Jeanette/Desktop/Jeanette Master's/AQM&ED/Sternberg task subjects/jh-subject-3.csv,legacy,2 4 8 5 1 3,Kafkaesque Koffka,3.2.8,1,y,0,left,right,left,left,NA,NA,828,44341,8933,828,NA,NA,2,legacy,6,1024,2,48000,-16,experiment,3,odd,2,717369,714064,715156,5341,138035,715158,429300,5350,129102,719375,716164,720205,NA,49692,719375,NA,Sternberg Task,99,109915,103,yes,1024
96.15384615,96.15384615,1063.451923,1063.451923,black,experiment,legacy,legacy,legacy,0,uniform,1,undefined,1,left,103,103,103,0,0,103,103,0,0,103,103,103,NA,0,103,0,10/27/19 10:30,The main experiment item,yes,SternbergTask.osexp,C:\Users\Jeanette\Desktop\Jeanette Master's\AQM&ED,no,mono,no,18,no,white,no,yes,768,legacy,91,11,C:/Users/Jeanette/Desktop/Jeanette Master's/AQM&ED/Sternberg task subjects/jh-subject-3.csv,legacy,7 4 2 6 3 5,Kafkaesque Koffka,3.2.8,6,y,0,left,right,left,left,NA,NA,684,44341,8933,684,NA,NA,2,legacy,6,1024,2,48000,-16,experiment,3,odd,5,723552,720223,721339,5341,138035,721341,429300,5350,129102,725559,722346,726245,NA,49692,725558,NA,Sternberg Task,100,110599,104,yes,1024
96.19047619,96.19047619,1060.628571,1060.628571,black,experiment,legacy,legacy,legacy,0,uniform,1,undefined,1,right,104,104,104,0,0,104,104,0,0,104,104,104,NA,0,104,0,10/27/19 10:30,The main experiment item,yes,SternbergTask.osexp,C:\Users\Jeanette\Desktop\Jeanette Master's\AQM&ED,no,mono,no,18,no,white,no,yes,768,legacy,92,11,C:/Users/Jeanette/Desktop/Jeanette Master's/AQM&ED/Sternberg task subjects/jh-subject-3.csv,legacy,6 9 5,Kafkaesque Koffka,3.2.8,0,n,0,right,right,left,right,NA,NA,767,44341,8933,767,NA,NA,2,legacy,3,1024,2,48000,-16,experiment,3,odd,8,729606,726265,727393,5341,138035,727395,429300,5350,129102,731612,728400,732380,NA,49692,731611,NA,Sternberg Task,101,111366,105,yes,1024
96.22641509,96.22641509,1059.179245,1059.179245,black,experiment,legacy,legacy,legacy,0,uniform,1,undefined,1,right,105,105,105,0,0,105,105,0,0,105,105,105,NA,0,105,0,10/27/19 10:30,The main experiment item,yes,SternbergTask.osexp,C:\Users\Jeanette\Desktop\Jeanette Master's\AQM&ED,no,mono,no,18,no,white,no,yes,768,legacy,93,11,C:/Users/Jeanette/Desktop/Jeanette Master's/AQM&ED/Sternberg task subjects/jh-subject-3.csv,legacy,6 3 1 7 9 8,Kafkaesque Koffka,3.2.8,0,n,0,right,right,left,right,NA,NA,907,44341,8933,907,NA,NA,2,legacy,6,1024,2,48000,-16,experiment,3,odd,4,735731,732399,733519,5341,138035,733521,429300,5350,129102,737736,734526,738645,NA,49692,737736,NA,Sternberg Task,102,112273,106,yes,1024
96.26168224,96.26168224,1060.224299,1060.224299,black,experiment,legacy,legacy,legacy,0,uniform,1,undefined,1,right,106,106,106,0,0,106,106,0,0,106,106,106,NA,0,106,0,10/27/19 10:30,The main experiment item,yes,SternbergTask.osexp,C:\Users\Jeanette\Desktop\Jeanette Master's\AQM&ED,no,mono,no,18,no,white,no,yes,768,legacy,94,11,C:/Users/Jeanette/Desktop/Jeanette Master's/AQM&ED/Sternberg task subjects/jh-subject-3.csv,legacy,1 6 4,Kafkaesque Koffka,3.2.8,0,n,0,right,right,left,right,NA,NA,1171,44341,8933,1171,NA,NA,2,legacy,3,1024,2,48000,-16,experiment,3,odd,7,741987,738658,739773,5341,138035,739775,429300,5350,129102,743992,740781,745164,NA,49692,743992,NA,Sternberg Task,103,113444,107,yes,1024
96.2962963,96.2962963,1061.787037,1061.787037,black,experiment,legacy,legacy,legacy,0,uniform,1,undefined,1,right,107,107,107,0,0,107,107,0,0,107,107,107,NA,0,107,0,10/27/19 10:30,The main experiment item,yes,SternbergTask.osexp,C:\Users\Jeanette\Desktop\Jeanette Master's\AQM&ED,no,mono,no,18,no,white,no,yes,768,legacy,95,11,C:/Users/Jeanette/Desktop/Jeanette Master's/AQM&ED/Sternberg task subjects/jh-subject-3.csv,legacy,1 8 7,Kafkaesque Koffka,3.2.8,0,n,0,right,right,left,right,NA,NA,1229,44341,8933,1229,NA,NA,2,legacy,3,1024,2,48000,-16,experiment,3,odd,4,748496,745184,746283,5341,138035,746285,429300,5350,129102,750502,747290,751733,NA,49692,750502,NA,Sternberg Task,104,114673,108,yes,1024
96.33027523,96.33027523,1058.944954,1058.944954,black,experiment,legacy,legacy,legacy,0,uniform,1,undefined,1,right,108,108,108,0,0,108,108,0,0,108,108,108,NA,0,108,0,10/27/19 10:30,The main experiment item,yes,SternbergTask.osexp,C:\Users\Jeanette\Desktop\Jeanette Master's\AQM&ED,no,mono,no,18,no,white,no,yes,768,legacy,96,11,C:/Users/Jeanette/Desktop/Jeanette Master's/AQM&ED/Sternberg task subjects/jh-subject-3.csv,legacy,6 9 7 3 8 2,Kafkaesque Koffka,3.2.8,0,n,0,right,right,left,right,NA,NA,752,44341,8933,752,NA,NA,2,legacy,6,1024,2,48000,-16,experiment,3,odd,5,755078,751752,752868,5341,138035,752870,429300,5350,129102,757083,753876,757836,NA,49692,757083,NA,Sternberg Task,105,115425,109,yes,1024
96.36363636,96.36363636,1058.554545,1058.554545,black,experiment,legacy,legacy,legacy,0,uniform,1,undefined,1,right,109,109,109,0,0,109,109,0,0,109,109,109,NA,0,109,0,10/27/19 10:30,The main experiment item,yes,SternbergTask.osexp,C:\Users\Jeanette\Desktop\Jeanette Master's\AQM&ED,no,mono,no,18,no,white,no,yes,768,legacy,97,11,C:/Users/Jeanette/Desktop/Jeanette Master's/AQM&ED/Sternberg task subjects/jh-subject-3.csv,legacy,8 6 3 4 7,Kafkaesque Koffka,3.2.8,0,n,0,right,right,left,right,NA,NA,1016,44341,8933,1016,NA,NA,2,legacy,5,1024,2,48000,-16,experiment,3,odd,1,761166,757868,758953,5341,138035,758956,429300,5350,129102,763172,759961,764189,NA,49692,763171,NA,Sternberg Task,106,116441,110,yes,1024
95.4954955,95.4954955,1067.036036,1067.036036,black,experiment,legacy,legacy,legacy,0,uniform,0,undefined,0,left,110,110,110,0,0,110,110,0,0,110,110,110,NA,0,110,0,10/27/19 10:30,The main experiment item,yes,SternbergTask.osexp,C:\Users\Jeanette\Desktop\Jeanette Master's\AQM&ED,no,mono,no,18,no,white,no,yes,768,legacy,98,11,C:/Users/Jeanette/Desktop/Jeanette Master's/AQM&ED/Sternberg task subjects/jh-subject-3.csv,legacy,7 1 8 5 6 2,Kafkaesque Koffka,3.2.8,2,y,0,None,right,left,None,NA,NA,2000,44341,8933,2000,NA,NA,2,legacy,6,1024,2,48000,-16,experiment,3,odd,1,767560,764230,765350,5341,138035,765352,429300,5350,129102,769567,766355,771568,NA,49692,769566,NA,Sternberg Task,106,118441,111,yes,1024
95.53571429,95.53571429,1065.196429,1065.196429,black,experiment,legacy,legacy,legacy,0,uniform,1,undefined,1,left,111,111,111,0,0,111,111,0,0,111,111,111,NA,0,111,0,10/27/19 10:30,The main experiment item,yes,SternbergTask.osexp,C:\Users\Jeanette\Desktop\Jeanette Master's\AQM&ED,no,mono,no,18,no,white,no,yes,768,legacy,99,11,C:/Users/Jeanette/Desktop/Jeanette Master's/AQM&ED/Sternberg task subjects/jh-subject-3.csv,legacy,5 7 3 6 2,Kafkaesque Koffka,3.2.8,5,y,0,left,right,left,left,NA,NA,861,44341,8933,861,NA,NA,2,legacy,5,1024,2,48000,-16,experiment,3,odd,2,774911,764230,772699,5341,138035,772701,771587,5350,129102,776918,773706,777781,NA,49692,776917,NA,Sternberg Task,107,119302,112,yes,1024
95.57522124,95.57522124,1067.230089,1067.230089,black,experiment,legacy,legacy,legacy,0,uniform,1,undefined,1,left,112,112,112,0,0,112,112,0,0,112,112,112,NA,0,112,0,10/27/19 10:30,The main experiment item,yes,SternbergTask.osexp,C:\Users\Jeanette\Desktop\Jeanette Master's\AQM&ED,no,mono,no,18,no,white,no,yes,768,legacy,100,11,C:/Users/Jeanette/Desktop/Jeanette Master's/AQM&ED/Sternberg task subjects/jh-subject-3.csv,legacy,4 3 2 5 8,Kafkaesque Koffka,3.2.8,2,y,0,left,right,left,left,NA,NA,1295,44341,8933,1295,NA,NA,2,legacy,5,1024,2,48000,-16,experiment,3,odd,3,781117,777796,778905,5341,138035,778907,771587,5350,129102,783124,779912,784420,NA,49692,783123,NA,Sternberg Task,108,120597,113,yes,1024
95.61403509,95.61403509,1066.921053,1066.921053,black,experiment,legacy,legacy,legacy,0,uniform,1,undefined,1,left,113,113,113,0,0,113,113,0,0,113,113,113,NA,0,113,0,10/27/19 10:30,The main experiment item,yes,SternbergTask.osexp,C:\Users\Jeanette\Desktop\Jeanette Master's\AQM&ED,no,mono,no,18,no,white,no,yes,768,legacy,101,11,C:/Users/Jeanette/Desktop/Jeanette Master's/AQM&ED/Sternberg task subjects/jh-subject-3.csv,legacy,4 1 8 7 5,Kafkaesque Koffka,3.2.8,3,y,0,left,right,left,left,NA,NA,1032,44341,8933,1032,NA,NA,2,legacy,5,1024,2,48000,-16,experiment,3,odd,8,787775,784446,785562,5341,138035,785565,771587,5350,129102,789780,786570,790813,NA,49692,789780,NA,Sternberg Task,109,121629,114,yes,1024
95.65217391,95.65217391,1065.156522,1065.156522,black,experiment,legacy,legacy,legacy,0,uniform,1,undefined,1,right,114,114,114,0,0,114,114,0,0,114,114,114,NA,0,114,0,10/27/19 10:30,The main experiment item,yes,SternbergTask.osexp,C:\Users\Jeanette\Desktop\Jeanette Master's\AQM&ED,no,mono,no,18,no,white,no,yes,768,legacy,102,11,C:/Users/Jeanette/Desktop/Jeanette Master's/AQM&ED/Sternberg task subjects/jh-subject-3.csv,legacy,7 9 1 6,Kafkaesque Koffka,3.2.8,0,n,0,right,right,left,right,NA,NA,864,44341,8933,864,NA,NA,2,legacy,4,1024,2,48000,-16,experiment,3,odd,4,794157,790839,791943,5341,138035,791945,771587,5350,129102,796163,792951,797028,NA,49692,796163,NA,Sternberg Task,110,122493,115,yes,1024
95.68965517,95.68965517,1069.577586,1069.577586,black,experiment,legacy,legacy,legacy,0,uniform,1,undefined,1,left,115,115,115,0,0,115,115,0,0,115,115,115,NA,0,115,0,10/27/19 10:30,The main experiment item,yes,SternbergTask.osexp,C:\Users\Jeanette\Desktop\Jeanette Master's\AQM&ED,no,mono,no,18,no,white,no,yes,768,legacy,103,11,C:/Users/Jeanette/Desktop/Jeanette Master's/AQM&ED/Sternberg task subjects/jh-subject-3.csv,legacy,7 8 4 6 9 5,Kafkaesque Koffka,3.2.8,4,y,0,left,right,left,left,NA,NA,1578,44341,8933,1578,NA,NA,2,legacy,6,1024,2,48000,-16,experiment,3,odd,6,800379,797048,798166,5341,138035,798168,771587,5350,129102,802385,799173,803965,NA,49692,802384,NA,Sternberg Task,111,124071,116,yes,1024
95.72649573,95.72649573,1067.504274,1067.504274,black,experiment,legacy,legacy,legacy,0,uniform,1,undefined,1,left,116,116,116,0,0,116,116,0,0,116,116,116,NA,0,116,0,10/27/19 10:30,The main experiment item,yes,SternbergTask.osexp,C:\Users\Jeanette\Desktop\Jeanette Master's\AQM&ED,no,mono,no,18,no,white,no,yes,768,legacy,104,11,C:/Users/Jeanette/Desktop/Jeanette Master's/AQM&ED/Sternberg task subjects/jh-subject-3.csv,legacy,3 5 9 6 2 4,Kafkaesque Koffka,3.2.8,1,y,0,left,right,left,left,NA,NA,827,44341,8933,827,NA,NA,2,legacy,6,1024,2,48000,-16,experiment,3,odd,3,807312,803982,805098,5341,138035,805100,771587,5350,129102,809320,806106,810148,NA,49692,809319,NA,Sternberg Task,112,124898,117,yes,1024
95.76271186,95.76271186,1064.788136,1064.788136,black,experiment,legacy,legacy,legacy,0,uniform,1,undefined,1,left,117,117,117,0,0,117,117,0,0,117,117,117,NA,0,117,0,10/27/19 10:30,The main experiment item,yes,SternbergTask.osexp,C:\Users\Jeanette\Desktop\Jeanette Master's\AQM&ED,no,mono,no,18,no,white,no,yes,768,legacy,105,11,C:/Users/Jeanette/Desktop/Jeanette Master's/AQM&ED/Sternberg task subjects/jh-subject-3.csv,legacy,8 5 1 3 9,Kafkaesque Koffka,3.2.8,4,y,0,left,right,left,left,NA,NA,747,44341,8933,747,NA,NA,2,legacy,5,1024,2,48000,-16,experiment,3,odd,3,813521,810165,811308,5341,138035,811310,771587,5350,129102,815528,812316,816276,NA,49692,815528,NA,Sternberg Task,113,125645,118,yes,1024
95.79831933,95.79831933,1065.411765,1065.411765,black,experiment,legacy,legacy,legacy,0,uniform,1,undefined,1,right,118,118,118,0,0,118,118,0,0,118,118,118,NA,0,118,0,10/27/19 10:30,The main experiment item,yes,SternbergTask.osexp,C:\Users\Jeanette\Desktop\Jeanette Master's\AQM&ED,no,mono,no,18,no,white,no,yes,768,legacy,106,11,C:/Users/Jeanette/Desktop/Jeanette Master's/AQM&ED/Sternberg task subjects/jh-subject-3.csv,legacy,1 4 3 6 5,Kafkaesque Koffka,3.2.8,0,n,0,right,right,left,right,NA,NA,1139,44341,8933,1139,NA,NA,2,legacy,5,1024,2,48000,-16,experiment,3,odd,8,819612,816291,817400,5341,138035,817402,771587,5350,129102,821616,818407,822757,NA,49692,821615,NA,Sternberg Task,114,126784,119,yes,1024
95.83333333,95.83333333,1063.191667,1063.191667,black,experiment,legacy,legacy,legacy,0,uniform,1,undefined,1,left,119,119,119,0,0,119,119,0,0,119,119,119,NA,0,119,0,10/27/19 10:30,The main experiment item,yes,SternbergTask.osexp,C:\Users\Jeanette\Desktop\Jeanette Master's\AQM&ED,no,mono,no,18,no,white,no,yes,768,legacy,107,11,C:/Users/Jeanette/Desktop/Jeanette Master's/AQM&ED/Sternberg task subjects/jh-subject-3.csv,legacy,8 5 4 7 3 1,Kafkaesque Koffka,3.2.8,2,y,0,left,right,left,left,NA,NA,799,44341,8933,799,NA,NA,2,legacy,6,1024,2,48000,-16,experiment,3,odd,5,826110,822775,823898,5341,138035,823900,771587,5350,129102,828116,824905,828917,NA,49692,828116,NA,Sternberg Task,115,127583,120,yes,1024
95.8677686,95.8677686,1063.31405,1063.31405,black,experiment,legacy,legacy,legacy,0,uniform,1,undefined,1,right,120,120,120,0,0,120,120,0,0,120,120,120,NA,0,120,0,10/27/19 10:30,The main experiment item,yes,SternbergTask.osexp,C:\Users\Jeanette\Desktop\Jeanette Master's\AQM&ED,no,mono,no,18,no,white,no,yes,768,legacy,108,11,C:/Users/Jeanette/Desktop/Jeanette Master's/AQM&ED/Sternberg task subjects/jh-subject-3.csv,legacy,7 1 8 4 9 3,Kafkaesque Koffka,3.2.8,0,n,0,right,right,left,right,NA,NA,1078,44341,8933,1078,NA,NA,2,legacy,6,1024,2,48000,-16,experiment,3,odd,6,832263,828935,830049,5341,138035,830051,771587,5350,129102,834269,831058,835349,NA,49692,834269,NA,Sternberg Task,116,128661,121,yes,1024
95.90163934,95.90163934,1063.237705,1063.237705,black,experiment,legacy,legacy,legacy,0,uniform,1,undefined,1,right,121,121,121,0,0,121,121,0,0,121,121,121,NA,0,121,0,10/27/19 10:30,The main experiment item,yes,SternbergTask.osexp,C:\Users\Jeanette\Desktop\Jeanette Master's\AQM&ED,no,mono,no,18,no,white,no,yes,768,legacy,109,11,C:/Users/Jeanette/Desktop/Jeanette Master's/AQM&ED/Sternberg task subjects/jh-subject-3.csv,legacy,2 6 4 3 9,Kafkaesque Koffka,3.2.8,0,n,0,right,right,left,right,NA,NA,1054,44341,8933,1054,NA,NA,2,legacy,5,1024,2,48000,-16,experiment,3,odd,1,838720,835380,836507,5341,138035,836509,771587,5350,129102,840725,837515,841781,NA,49692,840725,NA,Sternberg Task,117,129715,122,yes,1024
95.93495935,95.93495935,1061.154472,1061.154472,black,experiment,legacy,legacy,legacy,0,uniform,1,undefined,1,left,122,122,122,0,0,122,122,0,0,122,122,122,NA,0,122,0,10/27/19 10:30,The main experiment item,yes,SternbergTask.osexp,C:\Users\Jeanette\Desktop\Jeanette Master's\AQM&ED,no,mono,no,18,no,white,no,yes,768,legacy,110,11,C:/Users/Jeanette/Desktop/Jeanette Master's/AQM&ED/Sternberg task subjects/jh-subject-3.csv,legacy,8 1 6,Kafkaesque Koffka,3.2.8,3,y,0,left,right,left,left,NA,NA,807,44341,8933,807,NA,NA,2,legacy,3,1024,2,48000,-16,experiment,3,odd,6,845133,841803,842920,5341,138035,842923,771587,5350,129102,847140,843927,847949,NA,49692,847139,NA,Sternberg Task,118,130522,123,yes,1024
95.96774194,95.96774194,1059.25,1059.25,black,experiment,legacy,legacy,legacy,0,uniform,1,undefined,1,left,123,123,123,0,0,123,123,0,0,123,123,123,NA,0,123,0,10/27/19 10:30,The main experiment item,yes,SternbergTask.osexp,C:\Users\Jeanette\Desktop\Jeanette Master's\AQM&ED,no,mono,no,18,no,white,no,yes,768,legacy,111,11,C:/Users/Jeanette/Desktop/Jeanette Master's/AQM&ED/Sternberg task subjects/jh-subject-3.csv,legacy,2 8 5 1,Kafkaesque Koffka,3.2.8,4,y,0,left,right,left,left,NA,NA,825,44341,8933,825,NA,NA,2,legacy,4,1024,2,48000,-16,experiment,3,odd,1,851293,847982,849079,5341,138035,849082,771587,5350,129102,853298,850087,854125,NA,49692,853298,NA,Sternberg Task,119,131347,124,yes,1024
96,96,1058.824,1058.824,black,experiment,legacy,legacy,legacy,0,uniform,1,undefined,1,right,124,124,124,0,0,124,124,0,0,124,124,124,NA,0,124,0,10/27/19 10:30,The main experiment item,yes,SternbergTask.osexp,C:\Users\Jeanette\Desktop\Jeanette Master's\AQM&ED,no,mono,no,18,no,white,no,yes,768,legacy,112,11,C:/Users/Jeanette/Desktop/Jeanette Master's/AQM&ED/Sternberg task subjects/jh-subject-3.csv,legacy,8 5 7 3 6,Kafkaesque Koffka,3.2.8,0,n,0,right,right,left,right,NA,NA,1006,44341,8933,1006,NA,NA,2,legacy,5,1024,2,48000,-16,experiment,3,odd,9,857455,854146,855241,5341,138035,855244,771587,5350,129102,859461,856249,860468,NA,49692,859460,NA,Sternberg Task,120,132353,125,yes,1024
96.03174603,96.03174603,1056.738095,1056.738095,black,experiment,legacy,legacy,legacy,0,uniform,1,undefined,1,left,125,125,125,0,0,125,125,0,0,125,125,125,NA,0,125,0,10/27/19 10:30,The main experiment item,yes,SternbergTask.osexp,C:\Users\Jeanette\Desktop\Jeanette Master's\AQM&ED,no,mono,no,18,no,white,no,yes,768,legacy,113,11,C:/Users/Jeanette/Desktop/Jeanette Master's/AQM&ED/Sternberg task subjects/jh-subject-3.csv,legacy,9 1 7 2,Kafkaesque Koffka,3.2.8,2,y,0,left,right,left,left,NA,NA,796,44341,8933,796,NA,NA,2,legacy,4,1024,2,48000,-16,experiment,3,odd,1,863801,860488,861589,5341,138035,861591,771587,5350,129102,865807,862596,866605,NA,49692,865806,NA,Sternberg Task,121,133149,126,yes,1024
96.06299213,96.06299213,1053.244094,1053.244094,black,experiment,legacy,legacy,legacy,0,uniform,1,undefined,1,left,126,126,126,0,0,126,126,0,0,126,126,126,NA,0,126,0,10/27/19 10:30,The main experiment item,yes,SternbergTask.osexp,C:\Users\Jeanette\Desktop\Jeanette Master's\AQM&ED,no,mono,no,18,no,white,no,yes,768,legacy,114,11,C:/Users/Jeanette/Desktop/Jeanette Master's/AQM&ED/Sternberg task subjects/jh-subject-3.csv,legacy,4 6 2 5 1,Kafkaesque Koffka,3.2.8,5,y,0,left,right,left,left,NA,NA,613,44341,8933,613,NA,NA,2,legacy,5,1024,2,48000,-16,experiment,3,odd,1,869959,866631,867747,5341,138035,867749,771587,5350,129102,871967,868754,872581,NA,49692,871966,NA,Sternberg Task,122,133762,127,yes,1024
96.09375,96.09375,1051.21875,1051.21875,black,experiment,legacy,legacy,legacy,0,uniform,1,undefined,1,left,127,127,127,0,0,127,127,0,0,127,127,127,NA,0,127,0,10/27/19 10:30,The main experiment item,yes,SternbergTask.osexp,C:\Users\Jeanette\Desktop\Jeanette Master's\AQM&ED,no,mono,no,18,no,white,no,yes,768,legacy,115,11,C:/Users/Jeanette/Desktop/Jeanette Master's/AQM&ED/Sternberg task subjects/jh-subject-3.csv,legacy,5 2 9 6 1 7,Kafkaesque Koffka,3.2.8,3,y,0,left,right,left,left,NA,NA,794,44341,8933,794,NA,NA,2,legacy,6,1024,2,48000,-16,experiment,3,odd,9,875972,872606,873760,5341,138035,873763,771587,5350,129102,877977,874768,878772,NA,49692,877977,NA,Sternberg Task,123,134556,128,yes,1024
96.12403101,96.12403101,1049.24031,1049.24031,black,experiment,legacy,legacy,legacy,0,uniform,1,undefined,1,right,128,128,128,0,0,128,128,0,0,128,128,128,NA,0,128,0,10/27/19 10:30,The main experiment item,yes,SternbergTask.osexp,C:\Users\Jeanette\Desktop\Jeanette Master's\AQM&ED,no,mono,no,18,no,white,no,yes,768,legacy,116,11,C:/Users/Jeanette/Desktop/Jeanette Master's/AQM&ED/Sternberg task subjects/jh-subject-3.csv,legacy,7 1,Kafkaesque Koffka,3.2.8,0,n,0,right,right,left,right,NA,NA,796,44341,8933,796,NA,NA,2,legacy,2,1024,2,48000,-16,experiment,3,odd,8,882129,878806,879916,5341,138035,879918,771587,5350,129102,884135,880923,884932,NA,49692,884135,NA,Sternberg Task,124,135352,129,yes,1024
95.38461538,95.38461538,1056.553846,1056.553846,black,experiment,legacy,legacy,legacy,0,uniform,0,undefined,0,right,129,129,129,0,0,129,129,0,0,129,129,129,NA,0,129,0,10/27/19 10:30,The main experiment item,yes,SternbergTask.osexp,C:\Users\Jeanette\Desktop\Jeanette Master's\AQM&ED,no,mono,no,18,no,white,no,yes,768,legacy,117,11,C:/Users/Jeanette/Desktop/Jeanette Master's/AQM&ED/Sternberg task subjects/jh-subject-3.csv,legacy,1 7 8 3 9,Kafkaesque Koffka,3.2.8,0,n,0,None,right,left,None,NA,NA,2000,44341,8933,2000,NA,NA,2,legacy,5,1024,2,48000,-16,experiment,3,odd,2,888259,884949,886048,5341,138035,886051,771587,5350,129102,890265,887057,892266,NA,49692,890264,NA,Sternberg Task,124,137352,130,yes,1024
94.65648855,94.65648855,1063.755725,1063.755725,black,experiment,legacy,legacy,legacy,0,uniform,0,undefined,0,right,130,130,130,0,0,130,130,0,0,130,130,130,NA,0,130,0,10/27/19 10:30,The main experiment item,yes,SternbergTask.osexp,C:\Users\Jeanette\Desktop\Jeanette Master's\AQM&ED,no,mono,no,18,no,white,no,yes,768,legacy,118,11,C:/Users/Jeanette/Desktop/Jeanette Master's/AQM&ED/Sternberg task subjects/jh-subject-3.csv,legacy,5,Kafkaesque Koffka,3.2.8,0,n,0,None,right,left,None,NA,NA,2000,44341,8933,2000,NA,NA,2,legacy,1,1024,2,48000,-16,experiment,3,odd,8,895607,884949,893393,5341,138035,893396,892284,5350,129102,897614,894401,899615,NA,49692,897613,NA,Sternberg Task,124,139352,131,yes,1024
94.6969697,94.6969697,1063.916667,1063.916667,black,experiment,legacy,legacy,legacy,0,uniform,1,undefined,1,right,131,131,131,0,0,131,131,0,0,131,131,131,NA,0,131,0,10/27/19 10:30,The main experiment item,yes,SternbergTask.osexp,C:\Users\Jeanette\Desktop\Jeanette Master's\AQM&ED,no,mono,no,18,no,white,no,yes,768,legacy,119,11,C:/Users/Jeanette/Desktop/Jeanette Master's/AQM&ED/Sternberg task subjects/jh-subject-3.csv,legacy,5 3 8 7 2 4,Kafkaesque Koffka,3.2.8,0,n,0,right,right,left,right,NA,NA,1085,44341,8933,1085,NA,NA,2,legacy,6,1024,2,48000,-16,experiment,3,odd,9,902959,884949,900747,5341,138035,900749,899634,5350,129102,904966,901754,906052,NA,49692,904966,NA,Sternberg Task,125,140437,132,yes,1024
94.73684211,94.73684211,1062.135338,1062.135338,black,experiment,legacy,legacy,legacy,0,uniform,1,undefined,1,right,132,132,132,0,0,132,132,0,0,132,132,132,NA,0,132,0,10/27/19 10:30,The main experiment item,yes,SternbergTask.osexp,C:\Users\Jeanette\Desktop\Jeanette Master's\AQM&ED,no,mono,no,18,no,white,no,yes,768,legacy,120,11,C:/Users/Jeanette/Desktop/Jeanette Master's/AQM&ED/Sternberg task subjects/jh-subject-3.csv,legacy,6 8 4,Kafkaesque Koffka,3.2.8,0,n,0,right,right,left,right,NA,NA,827,44341,8933,827,NA,NA,2,legacy,3,1024,2,48000,-16,experiment,3,odd,1,909403,906076,907188,5341,138035,907191,899634,5350,129102,911408,908196,912236,NA,49692,911408,NA,Sternberg Task,126,141264,133,yes,1024
94.7761194,94.7761194,1059.171642,1059.171642,black,experiment,legacy,legacy,legacy,0,uniform,1,undefined,1,left,133,133,133,0,0,133,133,0,0,133,133,133,NA,0,133,0,10/27/19 10:30,The main experiment item,yes,SternbergTask.osexp,C:\Users\Jeanette\Desktop\Jeanette Master's\AQM&ED,no,mono,no,18,no,white,no,yes,768,legacy,121,11,C:/Users/Jeanette/Desktop/Jeanette Master's/AQM&ED/Sternberg task subjects/jh-subject-3.csv,legacy,9 8 4,Kafkaesque Koffka,3.2.8,1,y,0,left,right,left,left,NA,NA,665,44341,8933,665,NA,NA,2,legacy,3,1024,2,48000,-16,experiment,3,odd,9,915582,912252,913372,5341,138035,913375,899634,5350,129102,917587,914377,918253,NA,49692,917587,NA,Sternberg Task,127,141929,134,yes,1024
94.81481481,94.81481481,1058.022222,1058.022222,black,experiment,legacy,legacy,legacy,0,uniform,1,undefined,1,left,134,134,134,0,0,134,134,0,0,134,134,134,NA,0,134,0,10/27/19 10:30,The main experiment item,yes,SternbergTask.osexp,C:\Users\Jeanette\Desktop\Jeanette Master's\AQM&ED,no,mono,no,18,no,white,no,yes,768,legacy,122,11,C:/Users/Jeanette/Desktop/Jeanette Master's/AQM&ED/Sternberg task subjects/jh-subject-3.csv,legacy,7 2 3,Kafkaesque Koffka,3.2.8,3,y,0,left,right,left,left,NA,NA,904,44341,8933,904,NA,NA,2,legacy,3,1024,2,48000,-16,experiment,3,odd,3,921606,918269,919392,5341,138035,919394,899634,5350,129102,923611,920399,924517,NA,49692,923611,NA,Sternberg Task,128,142833,135,yes,1024
94.85294118,94.85294118,1055.529412,1055.529412,black,experiment,legacy,legacy,legacy,0,uniform,1,undefined,1,right,135,135,135,0,0,135,135,0,0,135,135,135,NA,0,135,0,10/27/19 10:30,The main experiment item,yes,SternbergTask.osexp,C:\Users\Jeanette\Desktop\Jeanette Master's\AQM&ED,no,mono,no,18,no,white,no,yes,768,legacy,123,11,C:/Users/Jeanette/Desktop/Jeanette Master's/AQM&ED/Sternberg task subjects/jh-subject-3.csv,legacy,7 6 4 8 1 2,Kafkaesque Koffka,3.2.8,0,n,0,right,right,left,right,NA,NA,719,44341,8933,719,NA,NA,2,legacy,6,1024,2,48000,-16,experiment,3,odd,9,927887,924537,925675,5341,138035,925677,899634,5350,129102,929892,926682,930613,NA,49692,929892,NA,Sternberg Task,129,143552,136,yes,1024
94.89051095,94.89051095,1052.729927,1052.729927,black,experiment,legacy,legacy,legacy,0,uniform,1,undefined,1,left,136,136,136,0,0,136,136,0,0,136,136,136,NA,0,136,0,10/27/19 10:30,The main experiment item,yes,SternbergTask.osexp,C:\Users\Jeanette\Desktop\Jeanette Master's\AQM&ED,no,mono,no,18,no,white,no,yes,768,legacy,124,11,C:/Users/Jeanette/Desktop/Jeanette Master's/AQM&ED/Sternberg task subjects/jh-subject-3.csv,legacy,6 2,Kafkaesque Koffka,3.2.8,1,y,0,left,right,left,left,NA,NA,672,44341,8933,672,NA,NA,2,legacy,2,1024,2,48000,-16,experiment,3,odd,6,933965,930629,931753,5341,138035,931755,899634,5350,129102,935971,932760,936644,NA,49692,935971,NA,Sternberg Task,130,144224,137,yes,1024
94.92753623,94.92753623,1051.115942,1051.115942,black,experiment,legacy,legacy,legacy,0,uniform,1,undefined,1,right,137,137,137,0,0,137,137,0,0,137,137,137,NA,0,137,0,10/27/19 10:30,The main experiment item,yes,SternbergTask.osexp,C:\Users\Jeanette\Desktop\Jeanette Master's\AQM&ED,no,mono,no,18,no,white,no,yes,768,legacy,125,11,C:/Users/Jeanette/Desktop/Jeanette Master's/AQM&ED/Sternberg task subjects/jh-subject-3.csv,legacy,9,Kafkaesque Koffka,3.2.8,0,n,0,right,right,left,right,NA,NA,830,44341,8933,830,NA,NA,2,legacy,1,1024,2,48000,-16,experiment,3,odd,6,939983,936663,937771,5341,138035,937773,899634,5350,129102,941989,938778,942821,NA,49692,941989,NA,Sternberg Task,131,145054,138,yes,1024