acc,accuracy,average_response_time,avg_rt,background,block,canvas_backend,clock_backend,color_backend,compensation,coordinates,correct,correct_instruction1,correct_keyboard_response,correct_response,count_ISI,count_correctFeedback,count_experiment,count_experimentLoop,count_fixation,count_incorrectFeedback,count_instruction1,count_instructions2,count_keyboard_response,count_logger,count_memorySet,count_memorySet_1,count_practiceLoop,count_probe,count_thankYou,datetime,description,disable_garbage_collection,experiment_file,experiment_path,font_bold,font_family,font_italic,font_size,font_underline,foreground,form_clicks,fullscreen,height,keyboard_backend,live_row,live_row_practiceLoop,logfile,mouse_backend,numberSet,opensesame_codename,opensesame_version,posInSet,present,repeat_cycle,response,response_instruction1,response_instructions2,response_keyboard_response,response_thankYou,response_time,response_time_instruction1,response_time_instructions2,response_time_keyboard_response,response_time_thankYou,round_decimals,sampler_backend,setSize,sound_buf_size,sound_channels,sound_freq,sound_sample_size,start,subject_nr,subject_parity,target,time_ISI,time_correctFeedback,time_experiment,time_experimentLoop,time_fixation,time_incorrectFeedback,time_instruction1,time_instructions2,time_keyboard_response,time_logger,time_memorySet,time_memorySet_1,time_practiceLoop,time_probe,time_thankYou,title,total_correct,total_response_time,total_responses,uniform_coordinates,width
0,0,902,902,black,practice,legacy,legacy,legacy,0,uniform,0,undefined,0,right,0,0,0,0,0,0,0,0,0,0,0,0,0,0,0,Sat Oct 26 21:28:40 2019,The main experiment item,yes,Sternbergtask.osexp,/Users/Linzi/Desktop,no,mono,no,18,no,white,no,yes,768,legacy,0,0,/Users/Linzi/Desktop/LM-subject-3M27.csv,legacy,5,Kafkaesque Koffka,3.2.8,0,n,0,left,right,NA,left,NA,902,6330,NA,902,NA,2,legacy,1,1024,2,48000,-16,experiment,3,odd,3,15088,NA,5512,NA,12831,NA,5548,NA,17117,18022,12803,13860,11895,17117,NA,Sternberg task,0,902,1,yes,1024
50,50,1147,1147,black,practice,legacy,legacy,legacy,0,uniform,1,undefined,1,right,1,1,0,0,1,1,0,0,1,1,1,1,0,1,0,Sat Oct 26 21:28:40 2019,The main experiment item,yes,Sternbergtask.osexp,/Users/Linzi/Desktop,no,mono,no,18,no,white,no,yes,768,legacy,1,1,/Users/Linzi/Desktop/LM-subject-3M27.csv,legacy,3 1 9 4,Kafkaesque Koffka,3.2.8,0,n,0,right,right,NA,right,NA,1392,6330,NA,1392,NA,2,legacy,4,1024,2,48000,-16,experiment,3,odd,6,21809,NA,5512,NA,19555,18213,5548,NA,23837,25231,19528,20582,11895,23836,NA,Sternberg task,1,2294,2,yes,1024
33.33333333,33.33333333,1052.333333,1052.333333,black,practice,legacy,legacy,legacy,0,uniform,0,undefined,0,left,2,2,0,0,2,2,0,0,2,2,2,2,0,2,0,Sat Oct 26 21:28:40 2019,The main experiment item,yes,Sternbergtask.osexp,/Users/Linzi/Desktop,no,mono,no,18,no,white,no,yes,768,legacy,2,2,/Users/Linzi/Desktop/LM-subject-3M27.csv,legacy,1 5 2 9,Kafkaesque Koffka,3.2.8,2,y,0,right,right,NA,right,NA,863,6330,NA,863,NA,2,legacy,4,1024,2,48000,-16,experiment,3,odd,5,28825,25263,5512,NA,26572,18213,5548,NA,30853,31718,26545,27598,11895,30852,NA,Sternberg task,1,3157,3,yes,1024
50,50,1020.5,1020.5,black,practice,legacy,legacy,legacy,0,uniform,1,undefined,1,right,3,3,0,0,3,3,0,0,3,3,3,3,0,3,0,Sat Oct 26 21:28:40 2019,The main experiment item,yes,Sternbergtask.osexp,/Users/Linzi/Desktop,no,mono,no,18,no,white,no,yes,768,legacy,3,3,/Users/Linzi/Desktop/LM-subject-3M27.csv,legacy,5 7 8 4 1 2,Kafkaesque Koffka,3.2.8,0,n,0,right,right,NA,right,NA,925,6330,NA,925,NA,2,legacy,6,1024,2,48000,-16,experiment,3,odd,6,35314,25263,5512,NA,33061,31750,5548,NA,37341,38269,33034,34087,11895,37341,NA,Sternberg task,2,4082,4,yes,1024
60,60,1028.6,1028.6,black,practice,legacy,legacy,legacy,0,uniform,1,undefined,1,right,4,4,0,0,4,4,0,0,4,4,4,4,0,4,0,Sat Oct 26 21:28:40 2019,The main experiment item,yes,Sternbergtask.osexp,/Users/Linzi/Desktop,no,mono,no,18,no,white,no,yes,768,legacy,4,4,/Users/Linzi/Desktop/LM-subject-3M27.csv,legacy,2 1,Kafkaesque Koffka,3.2.8,0,n,0,right,right,NA,right,NA,1061,6330,NA,1061,NA,2,legacy,2,1024,2,48000,-16,experiment,3,odd,5,41864,38300,5512,NA,39610,31750,5548,NA,43891,44955,39584,40637,11895,43891,NA,Sternberg task,3,5143,5,yes,1024
66.66666667,66.66666667,991.8333333,991.8333333,black,practice,legacy,legacy,legacy,0,uniform,1,undefined,1,right,5,5,0,0,5,5,0,0,5,5,5,5,0,5,0,Sat Oct 26 21:28:40 2019,The main experiment item,yes,Sternbergtask.osexp,/Users/Linzi/Desktop,no,mono,no,18,no,white,no,yes,768,legacy,5,5,/Users/Linzi/Desktop/LM-subject-3M27.csv,legacy,9 6 7 4 5,Kafkaesque Koffka,3.2.8,0,n,0,right,right,NA,right,NA,808,6330,NA,808,NA,2,legacy,5,1024,2,48000,-16,experiment,3,odd,3,48550,44988,5512,NA,46297,31750,5548,NA,50577,51388,46270,47323,11895,50576,NA,Sternberg task,4,5951,6,yes,1024
71.42857143,71.42857143,959.7142857,959.7142857,black,practice,legacy,legacy,legacy,0,uniform,1,undefined,1,right,6,6,0,0,6,6,0,0,6,6,6,6,0,6,0,Sat Oct 26 21:28:40 2019,The main experiment item,yes,Sternbergtask.osexp,/Users/Linzi/Desktop,no,mono,no,18,no,white,no,yes,768,legacy,6,6,/Users/Linzi/Desktop/LM-subject-3M27.csv,legacy,4 1 5,Kafkaesque Koffka,3.2.8,0,n,0,right,right,NA,right,NA,767,6330,NA,767,NA,2,legacy,3,1024,2,48000,-16,experiment,3,odd,2,54982,51420,5512,NA,52729,31750,5548,NA,57010,57780,52702,53756,11895,57010,NA,Sternberg task,5,6718,7,yes,1024
75,75,961.25,961.25,black,practice,legacy,legacy,legacy,0,uniform,1,undefined,1,left,7,7,0,0,7,7,0,0,7,7,7,7,0,7,0,Sat Oct 26 21:28:40 2019,The main experiment item,yes,Sternbergtask.osexp,/Users/Linzi/Desktop,no,mono,no,18,no,white,no,yes,768,legacy,7,7,/Users/Linzi/Desktop/LM-subject-3M27.csv,legacy,4 3 1 7 9 8,Kafkaesque Koffka,3.2.8,1,y,0,left,right,NA,left,NA,972,6330,NA,972,NA,2,legacy,6,1024,2,48000,-16,experiment,3,odd,4,61372,57811,5512,NA,59119,31750,5548,NA,63399,64374,59093,60146,11895,63398,NA,Sternberg task,6,7690,8,yes,1024
77.77777778,77.77777778,967.8888889,967.8888889,black,practice,legacy,legacy,legacy,0,uniform,1,undefined,1,left,8,8,0,0,8,8,0,0,8,8,8,8,0,8,0,Sat Oct 26 21:28:40 2019,The main experiment item,yes,Sternbergtask.osexp,/Users/Linzi/Desktop,no,mono,no,18,no,white,no,yes,768,legacy,8,8,/Users/Linzi/Desktop/LM-subject-3M27.csv,legacy,2 9 4,Kafkaesque Koffka,3.2.8,3,y,0,left,right,NA,left,NA,1021,6330,NA,1021,NA,2,legacy,3,1024,2,48000,-16,experiment,3,odd,4,67969,64405,5512,NA,65716,31750,5548,NA,69998,71022,65690,66743,11895,69997,NA,Sternberg task,7,8711,9,yes,1024
70,70,980.9,980.9,black,practice,legacy,legacy,legacy,0,uniform,0,undefined,0,left,9,9,0,0,9,9,0,0,9,9,9,9,0,9,0,Sat Oct 26 21:28:40 2019,The main experiment item,yes,Sternbergtask.osexp,/Users/Linzi/Desktop,no,mono,no,18,no,white,no,yes,768,legacy,9,9,/Users/Linzi/Desktop/LM-subject-3M27.csv,legacy,1 7 9 8 5,Kafkaesque Koffka,3.2.8,4,y,0,right,right,NA,right,NA,1098,6330,NA,1098,NA,2,legacy,5,1024,2,48000,-16,experiment,3,odd,8,74612,71053,5512,NA,72359,31750,5548,NA,76640,77741,72332,73385,11895,76639,NA,Sternberg task,7,9809,10,yes,1024
72.72727273,72.72727273,959.5454545,959.5454545,black,practice,legacy,legacy,legacy,0,uniform,1,undefined,1,left,10,10,0,0,10,10,0,0,10,10,10,10,0,10,0,Sat Oct 26 21:28:40 2019,The main experiment item,yes,Sternbergtask.osexp,/Users/Linzi/Desktop,no,mono,no,18,no,white,no,yes,768,legacy,10,10,/Users/Linzi/Desktop/LM-subject-3M27.csv,legacy,6,Kafkaesque Koffka,3.2.8,1,y,0,left,right,NA,left,NA,746,6330,NA,746,NA,2,legacy,1,1024,2,48000,-16,experiment,3,odd,6,81329,71053,5512,NA,79076,77774,5548,NA,83357,84106,79049,80102,11895,83357,NA,Sternberg task,8,10555,11,yes,1024
75,75,940.5,940.5,black,practice,legacy,legacy,legacy,0,uniform,1,undefined,1,left,11,11,0,0,11,11,0,0,11,11,11,11,0,11,0,Sat Oct 26 21:28:40 2019,The main experiment item,yes,Sternbergtask.osexp,/Users/Linzi/Desktop,no,mono,no,18,no,white,no,yes,768,legacy,11,11,/Users/Linzi/Desktop/LM-subject-3M27.csv,legacy,4 8,Kafkaesque Koffka,3.2.8,1,y,0,left,right,NA,left,NA,731,6330,NA,731,NA,2,legacy,2,1024,2,48000,-16,experiment,3,odd,4,87698,84137,5512,NA,85444,77774,5548,NA,89726,90461,85417,86471,11895,89725,NA,Sternberg task,9,11286,12,yes,1024
76.92307692,76.92307692,922.5384615,922.5384615,black,experiment,legacy,legacy,legacy,0,uniform,1,undefined,1,left,12,12,0,0,12,12,0,0,12,12,12,12,0,12,0,Sat Oct 26 21:28:40 2019,The main experiment item,yes,Sternbergtask.osexp,/Users/Linzi/Desktop,no,mono,no,18,no,white,no,yes,768,legacy,0,11,/Users/Linzi/Desktop/LM-subject-3M27.csv,legacy,9 5 3 8 4,Kafkaesque Koffka,3.2.8,1,y,0,left,right,right,left,NA,707,6330,8999,707,NA,2,legacy,5,1024,2,48000,-16,experiment,3,odd,9,103213,90492,5512,100580,100960,77774,5548,91578,105240,105951,100934,101986,11895,105240,NA,Sternberg task,10,11993,13,yes,1024
78.57142857,78.57142857,928.7857143,928.7857143,black,experiment,legacy,legacy,legacy,0,uniform,1,undefined,1,left,13,13,0,0,13,13,0,0,13,13,13,13,0,13,0,Sat Oct 26 21:28:40 2019,The main experiment item,yes,Sternbergtask.osexp,/Users/Linzi/Desktop,no,mono,no,18,no,white,no,yes,768,legacy,1,11,/Users/Linzi/Desktop/LM-subject-3M27.csv,legacy,6 5,Kafkaesque Koffka,3.2.8,2,y,0,left,right,right,left,NA,1010,6330,8999,1010,NA,2,legacy,2,1024,2,48000,-16,experiment,3,odd,5,109544,105983,5512,100580,107291,77774,5548,91578,111572,112585,107264,108318,11895,111571,NA,Sternberg task,11,13003,14,yes,1024
80,80,930.2,930.2,black,experiment,legacy,legacy,legacy,0,uniform,1,undefined,1,right,14,14,0,0,14,14,0,0,14,14,14,14,0,14,0,Sat Oct 26 21:28:40 2019,The main experiment item,yes,Sternbergtask.osexp,/Users/Linzi/Desktop,no,mono,no,18,no,white,no,yes,768,legacy,2,11,/Users/Linzi/Desktop/LM-subject-3M27.csv,legacy,5 3 8 7 2 4,Kafkaesque Koffka,3.2.8,0,n,0,right,right,right,right,NA,950,6330,8999,950,NA,2,legacy,6,1024,2,48000,-16,experiment,3,odd,9,116180,112617,5512,100580,113927,77774,5548,91578,118207,119160,113900,114953,11895,118207,NA,Sternberg task,12,13953,15,yes,1024
81.25,81.25,916.125,916.125,black,experiment,legacy,legacy,legacy,0,uniform,1,undefined,1,left,15,15,0,0,15,15,0,0,15,15,15,15,0,15,0,Sat Oct 26 21:28:40 2019,The main experiment item,yes,Sternbergtask.osexp,/Users/Linzi/Desktop,no,mono,no,18,no,white,no,yes,768,legacy,3,11,/Users/Linzi/Desktop/LM-subject-3M27.csv,legacy,8 9 5 7 1 6,Kafkaesque Koffka,3.2.8,4,y,0,left,right,right,left,NA,705,6330,8999,705,NA,2,legacy,6,1024,2,48000,-16,experiment,3,odd,7,122757,119192,5512,100580,120503,77774,5548,91578,124784,125492,120476,121530,11895,124784,NA,Sternberg task,13,14658,16,yes,1024
82.35294118,82.35294118,898.5294118,898.5294118,black,experiment,legacy,legacy,legacy,0,uniform,1,undefined,1,left,16,16,0,0,16,16,0,0,16,16,16,16,0,16,0,Sat Oct 26 21:28:40 2019,The main experiment item,yes,Sternbergtask.osexp,/Users/Linzi/Desktop,no,mono,no,18,no,white,no,yes,768,legacy,4,11,/Users/Linzi/Desktop/LM-subject-3M27.csv,legacy,2 3 7 4,Kafkaesque Koffka,3.2.8,1,y,0,left,right,right,left,NA,617,6330,8999,617,NA,2,legacy,4,1024,2,48000,-16,experiment,3,odd,2,129087,125524,5512,100580,126833,77774,5548,91578,131115,131735,126806,127861,11895,131115,NA,Sternberg task,14,15275,17,yes,1024
83.33333333,83.33333333,886.6666667,886.6666667,black,experiment,legacy,legacy,legacy,0,uniform,1,undefined,1,right,17,17,0,0,17,17,0,0,17,17,17,17,0,17,0,Sat Oct 26 21:28:40 2019,The main experiment item,yes,Sternbergtask.osexp,/Users/Linzi/Desktop,no,mono,no,18,no,white,no,yes,768,legacy,5,11,/Users/Linzi/Desktop/LM-subject-3M27.csv,legacy,2 3 8 5 6 7,Kafkaesque Koffka,3.2.8,0,n,0,right,right,right,right,NA,685,6330,8999,685,NA,2,legacy,6,1024,2,48000,-16,experiment,3,odd,1,135332,131767,5512,100580,133078,77774,5548,91578,137359,138047,133052,134105,11895,137358,NA,Sternberg task,15,15960,18,yes,1024
84.21052632,84.21052632,876.5263158,876.5263158,black,experiment,legacy,legacy,legacy,0,uniform,1,undefined,1,right,18,18,0,0,18,18,0,0,18,18,18,18,0,18,0,Sat Oct 26 21:28:40 2019,The main experiment item,yes,Sternbergtask.osexp,/Users/Linzi/Desktop,no,mono,no,18,no,white,no,yes,768,legacy,6,11,/Users/Linzi/Desktop/LM-subject-3M27.csv,legacy,7 9,Kafkaesque Koffka,3.2.8,0,n,0,right,right,right,right,NA,694,6330,8999,694,NA,2,legacy,2,1024,2,48000,-16,experiment,3,odd,1,141638,138078,5512,100580,139385,77774,5548,91578,143666,144363,139358,140411,11895,143665,NA,Sternberg task,16,16654,19,yes,1024
85,85,858.5,858.5,black,experiment,legacy,legacy,legacy,0,uniform,1,undefined,1,left,19,19,0,0,19,19,0,0,19,19,19,19,0,19,0,Sat Oct 26 21:28:40 2019,The main experiment item,yes,Sternbergtask.osexp,/Users/Linzi/Desktop,no,mono,no,18,no,white,no,yes,768,legacy,7,11,/Users/Linzi/Desktop/LM-subject-3M27.csv,legacy,3 4,Kafkaesque Koffka,3.2.8,1,y,0,left,right,right,left,NA,516,6330,8999,516,NA,2,legacy,2,1024,2,48000,-16,experiment,3,odd,3,147954,144395,5512,100580,145701,77774,5548,91578,149981,150501,145674,146727,11895,149980,NA,Sternberg task,17,17170,20,yes,1024
85.71428571,85.71428571,854.6190476,854.6190476,black,experiment,legacy,legacy,legacy,0,uniform,1,undefined,1,left,20,20,0,0,20,20,0,0,20,20,20,20,0,20,0,Sat Oct 26 21:28:40 2019,The main experiment item,yes,Sternbergtask.osexp,/Users/Linzi/Desktop,no,mono,no,18,no,white,no,yes,768,legacy,8,11,/Users/Linzi/Desktop/LM-subject-3M27.csv,legacy,7 4 2 6 3 5,Kafkaesque Koffka,3.2.8,6,y,0,left,right,right,left,NA,777,6330,8999,777,NA,2,legacy,6,1024,2,48000,-16,experiment,3,odd,5,154095,150532,5512,100580,151842,77774,5548,91578,156123,156903,151815,152868,11895,156123,NA,Sternberg task,18,17947,21,yes,1024
86.36363636,86.36363636,847.4090909,847.4090909,black,experiment,legacy,legacy,legacy,0,uniform,1,undefined,1,left,21,21,0,0,21,21,0,0,21,21,21,21,0,21,0,Sat Oct 26 21:28:40 2019,The main experiment item,yes,Sternbergtask.osexp,/Users/Linzi/Desktop,no,mono,no,18,no,white,no,yes,768,legacy,9,11,/Users/Linzi/Desktop/LM-subject-3M27.csv,legacy,4 3 2 5 8,Kafkaesque Koffka,3.2.8,2,y,0,left,right,right,left,NA,696,6330,8999,696,NA,2,legacy,5,1024,2,48000,-16,experiment,3,odd,3,160494,156935,5512,100580,158241,77774,5548,91578,162521,163220,158214,159267,11895,162520,NA,Sternberg task,19,18643,22,yes,1024
86.95652174,86.95652174,840.0869565,840.0869565,black,experiment,legacy,legacy,legacy,0,uniform,1,undefined,1,right,22,22,0,0,22,22,0,0,22,22,22,22,0,22,0,Sat Oct 26 21:28:40 2019,The main experiment item,yes,Sternbergtask.osexp,/Users/Linzi/Desktop,no,mono,no,18,no,white,no,yes,768,legacy,10,11,/Users/Linzi/Desktop/LM-subject-3M27.csv,legacy,2 8 9,Kafkaesque Koffka,3.2.8,0,n,0,right,right,right,right,NA,679,6330,8999,679,NA,2,legacy,3,1024,2,48000,-16,experiment,3,odd,6,166813,163253,5512,100580,164560,77774,5548,91578,168841,169523,164533,165586,11895,168840,NA,Sternberg task,20,19322,23,yes,1024
87.5,87.5,833.8333333,833.8333333,black,experiment,legacy,legacy,legacy,0,uniform,1,undefined,1,right,23,23,0,0,23,23,0,0,23,23,23,23,0,23,0,Sat Oct 26 21:28:40 2019,The main experiment item,yes,Sternbergtask.osexp,/Users/Linzi/Desktop,no,mono,no,18,no,white,no,yes,768,legacy,11,11,/Users/Linzi/Desktop/LM-subject-3M27.csv,legacy,4 1,Kafkaesque Koffka,3.2.8,0,n,0,right,right,right,right,NA,690,6330,8999,690,NA,2,legacy,2,1024,2,48000,-16,experiment,3,odd,6,173113,169554,5512,100580,170859,77774,5548,91578,175140,175834,170833,171887,11895,175140,NA,Sternberg task,21,20012,24,yes,1024
88,88,833.48,833.48,black,experiment,legacy,legacy,legacy,0,uniform,1,undefined,1,left,24,24,0,0,24,24,0,0,24,24,24,24,0,24,0,Sat Oct 26 21:28:40 2019,The main experiment item,yes,Sternbergtask.osexp,/Users/Linzi/Desktop,no,mono,no,18,no,white,no,yes,768,legacy,12,11,/Users/Linzi/Desktop/LM-subject-3M27.csv,legacy,8 5 1 3 9,Kafkaesque Koffka,3.2.8,4,y,0,left,right,right,left,NA,825,6330,8999,825,NA,2,legacy,5,1024,2,48000,-16,experiment,3,odd,3,179429,175865,5512,100580,177175,77774,5548,91578,181456,182285,177149,178203,11895,181456,NA,Sternberg task,22,20837,25,yes,1024
88.46153846,88.46153846,837.4615385,837.4615385,black,experiment,legacy,legacy,legacy,0,uniform,1,undefined,1,right,25,25,0,0,25,25,0,0,25,25,25,25,0,25,0,Sat Oct 26 21:28:40 2019,The main experiment item,yes,Sternbergtask.osexp,/Users/Linzi/Desktop,no,mono,no,18,no,white,no,yes,768,legacy,13,11,/Users/Linzi/Desktop/LM-subject-3M27.csv,legacy,1 6 4 3 9 7,Kafkaesque Koffka,3.2.8,0,n,0,right,right,right,right,NA,937,6330,8999,937,NA,2,legacy,6,1024,2,48000,-16,experiment,3,odd,8,185880,182316,5512,100580,183626,77774,5548,91578,187907,188847,183599,184653,11895,187906,NA,Sternberg task,23,21774,26,yes,1024
88.88888889,88.88888889,829.3333333,829.3333333,black,experiment,legacy,legacy,legacy,0,uniform,1,undefined,1,left,26,26,0,0,26,26,0,0,26,26,26,26,0,26,0,Sat Oct 26 21:28:40 2019,The main experiment item,yes,Sternbergtask.osexp,/Users/Linzi/Desktop,no,mono,no,18,no,white,no,yes,768,legacy,14,11,/Users/Linzi/Desktop/LM-subject-3M27.csv,legacy,9 5 8 1,Kafkaesque Koffka,3.2.8,2,y,0,left,right,right,left,NA,618,6330,8999,618,NA,2,legacy,4,1024,2,48000,-16,experiment,3,odd,5,192439,188879,5512,100580,190186,77774,5548,91578,194468,195089,190159,191212,11895,194468,NA,Sternberg task,24,22392,27,yes,1024
89.28571429,89.28571429,824.5,824.5,black,experiment,legacy,legacy,legacy,0,uniform,1,undefined,1,right,27,27,0,0,27,27,0,0,27,27,27,27,0,27,0,Sat Oct 26 21:28:40 2019,The main experiment item,yes,Sternbergtask.osexp,/Users/Linzi/Desktop,no,mono,no,18,no,white,no,yes,768,legacy,15,11,/Users/Linzi/Desktop/LM-subject-3M27.csv,legacy,8 6 3 4 7,Kafkaesque Koffka,3.2.8,0,n,0,right,right,right,right,NA,694,6330,8999,694,NA,2,legacy,5,1024,2,48000,-16,experiment,3,odd,1,198683,195122,5512,100580,196429,77774,5548,91578,200709,201407,196402,197456,11895,200709,NA,Sternberg task,25,23086,28,yes,1024
89.65517241,89.65517241,815.862069,815.862069,black,experiment,legacy,legacy,legacy,0,uniform,1,undefined,1,right,28,28,0,0,28,28,0,0,28,28,28,28,0,28,0,Sat Oct 26 21:28:40 2019,The main experiment item,yes,Sternbergtask.osexp,/Users/Linzi/Desktop,no,mono,no,18,no,white,no,yes,768,legacy,16,11,/Users/Linzi/Desktop/LM-subject-3M27.csv,legacy,7 1,Kafkaesque Koffka,3.2.8,0,n,0,right,right,right,right,NA,574,6330,8999,574,NA,2,legacy,2,1024,2,48000,-16,experiment,3,odd,8,205000,201438,5512,100580,202747,77774,5548,91578,207026,207603,202720,203773,11895,207026,NA,Sternberg task,26,23660,29,yes,1024
90,90,811,811,black,experiment,legacy,legacy,legacy,0,uniform,1,undefined,1,left,29,29,0,0,29,29,0,0,29,29,29,29,0,29,0,Sat Oct 26 21:28:40 2019,The main experiment item,yes,Sternbergtask.osexp,/Users/Linzi/Desktop,no,mono,no,18,no,white,no,yes,768,legacy,17,11,/Users/Linzi/Desktop/LM-subject-3M27.csv,legacy,4 1 8 7 5,Kafkaesque Koffka,3.2.8,3,y,0,left,right,right,left,NA,670,6330,8999,670,NA,2,legacy,5,1024,2,48000,-16,experiment,3,odd,8,211195,207634,5512,100580,208942,77774,5548,91578,213222,213896,208915,209969,11895,213222,NA,Sternberg task,27,24330,30,yes,1024
90.32258065,90.32258065,804.9354839,804.9354839,black,experiment,legacy,legacy,legacy,0,uniform,1,undefined,1,left,30,30,0,0,30,30,0,0,30,30,30,30,0,30,0,Sat Oct 26 21:28:40 2019,The main experiment item,yes,Sternbergtask.osexp,/Users/Linzi/Desktop,no,mono,no,18,no,white,no,yes,768,legacy,18,11,/Users/Linzi/Desktop/LM-subject-3M27.csv,legacy,1 4 9 3 2 5,Kafkaesque Koffka,3.2.8,3,y,0,left,right,right,left,NA,623,6330,8999,623,NA,2,legacy,6,1024,2,48000,-16,experiment,3,odd,9,217488,213927,5512,100580,215235,77774,5548,91578,219517,220144,215207,216261,11895,219516,NA,Sternberg task,28,24953,31,yes,1024
90.625,90.625,799,799,black,experiment,legacy,legacy,legacy,0,uniform,1,undefined,1,left,31,31,0,0,31,31,0,0,31,31,31,31,0,31,0,Sat Oct 26 21:28:40 2019,The main experiment item,yes,Sternbergtask.osexp,/Users/Linzi/Desktop,no,mono,no,18,no,white,no,yes,768,legacy,19,11,/Users/Linzi/Desktop/LM-subject-3M27.csv,legacy,4 9 7 8 5 3,Kafkaesque Koffka,3.2.8,4,y,0,left,right,right,left,NA,615,6330,8999,615,NA,2,legacy,6,1024,2,48000,-16,experiment,3,odd,8,223736,220174,5512,100580,221483,77774,5548,91578,225763,226381,221455,222510,11895,225763,NA,Sternberg task,29,25568,32,yes,1024
87.87878788,87.87878788,799.7878788,799.7878788,black,experiment,legacy,legacy,legacy,0,uniform,0,undefined,0,right,32,32,0,0,32,32,0,0,32,32,32,32,0,32,0,Sat Oct 26 21:28:40 2019,The main experiment item,yes,Sternbergtask.osexp,/Users/Linzi/Desktop,no,mono,no,18,no,white,no,yes,768,legacy,20,11,/Users/Linzi/Desktop/LM-subject-3M27.csv,legacy,1 4 9 3,Kafkaesque Koffka,3.2.8,0,n,0,left,right,right,left,NA,825,6330,8999,825,NA,2,legacy,4,1024,2,48000,-16,experiment,3,odd,5,229975,226413,5512,100580,227722,77774,5548,91578,232003,232832,227695,228748,11895,232003,NA,Sternberg task,29,26393,33,yes,1024
88.23529412,88.23529412,808.9411765,808.9411765,black,experiment,legacy,legacy,legacy,0,uniform,1,undefined,1,left,33,33,0,0,33,33,0,0,33,33,33,33,0,33,0,Sat Oct 26 21:28:40 2019,The main experiment item,yes,Sternbergtask.osexp,/Users/Linzi/Desktop,no,mono,no,18,no,white,no,yes,768,legacy,21,11,/Users/Linzi/Desktop/LM-subject-3M27.csv,legacy,5 7 8 2 3 8,Kafkaesque Koffka,3.2.8,5,y,0,left,right,right,left,NA,1111,6330,8999,1111,NA,2,legacy,6,1024,2,48000,-16,experiment,3,odd,3,236420,226413,5512,100580,234168,232863,5548,91578,238448,239563,234142,235194,11895,238447,NA,Sternberg task,30,27504,34,yes,1024
88.57142857,88.57142857,816.0285714,816.0285714,black,experiment,legacy,legacy,legacy,0,uniform,1,undefined,1,right,34,34,0,0,34,34,0,0,34,34,34,34,0,34,0,Sat Oct 26 21:28:40 2019,The main experiment item,yes,Sternbergtask.osexp,/Users/Linzi/Desktop,no,mono,no,18,no,white,no,yes,768,legacy,22,11,/Users/Linzi/Desktop/LM-subject-3M27.csv,legacy,1 5 3 2 8,Kafkaesque Koffka,3.2.8,0,n,0,right,right,right,right,NA,1057,6330,8999,1057,NA,2,legacy,5,1024,2,48000,-16,experiment,3,odd,4,243157,239594,5512,100580,240904,232863,5548,91578,245185,246246,240878,241931,11895,245184,NA,Sternberg task,31,28561,35,yes,1024
88.88888889,88.88888889,822.0277778,822.0277778,black,experiment,legacy,legacy,legacy,0,uniform,1,undefined,1,left,35,35,0,0,35,35,0,0,35,35,35,35,0,35,0,Sat Oct 26 21:28:40 2019,The main experiment item,yes,Sternbergtask.osexp,/Users/Linzi/Desktop,no,mono,no,18,no,white,no,yes,768,legacy,23,11,/Users/Linzi/Desktop/LM-subject-3M27.csv,legacy,3 2 1 4 7,Kafkaesque Koffka,3.2.8,2,y,0,left,right,right,left,NA,1032,6330,8999,1032,NA,2,legacy,5,1024,2,48000,-16,experiment,3,odd,2,249842,246277,5512,100580,247588,232863,5548,91578,251869,252905,247561,248615,11895,251869,NA,Sternberg task,32,29593,36,yes,1024
89.18918919,89.18918919,818.9459459,818.9459459,black,experiment,legacy,legacy,legacy,0,uniform,1,undefined,1,right,36,36,0,0,36,36,0,0,36,36,36,36,0,36,0,Sat Oct 26 21:28:40 2019,The main experiment item,yes,Sternbergtask.osexp,/Users/Linzi/Desktop,no,mono,no,18,no,white,no,yes,768,legacy,24,11,/Users/Linzi/Desktop/LM-subject-3M27.csv,legacy,7 6 4 8 1 2,Kafkaesque Koffka,3.2.8,0,n,0,right,right,right,right,NA,708,6330,8999,708,NA,2,legacy,6,1024,2,48000,-16,experiment,3,odd,9,256499,252937,5512,100580,254245,232863,5548,91578,258527,259239,254218,255272,11895,258527,NA,Sternberg task,33,30301,37,yes,1024
89.47368421,89.47368421,817.3947368,817.3947368,black,experiment,legacy,legacy,legacy,0,uniform,1,undefined,1,right,37,37,0,0,37,37,0,0,37,37,37,37,0,37,0,Sat Oct 26 21:28:40 2019,The main experiment item,yes,Sternbergtask.osexp,/Users/Linzi/Desktop,no,mono,no,18,no,white,no,yes,768,legacy,25,11,/Users/Linzi/Desktop/LM-subject-3M27.csv,legacy,1 4 9 2 5,Kafkaesque Koffka,3.2.8,0,n,0,right,right,right,right,NA,760,6330,8999,760,NA,2,legacy,5,1024,2,48000,-16,experiment,3,odd,7,262830,259270,5512,100580,260577,232863,5548,91578,264857,265621,260550,261603,11895,264856,NA,Sternberg task,34,31061,38,yes,1024
89.74358974,89.74358974,821.8461538,821.8461538,black,experiment,legacy,legacy,legacy,0,uniform,1,undefined,1,right,38,38,0,0,38,38,0,0,38,38,38,38,0,38,0,Sat Oct 26 21:28:40 2019,The main experiment item,yes,Sternbergtask.osexp,/Users/Linzi/Desktop,no,mono,no,18,no,white,no,yes,768,legacy,26,11,/Users/Linzi/Desktop/LM-subject-3M27.csv,legacy,1 7 5 2 9,Kafkaesque Koffka,3.2.8,0,n,0,right,right,right,right,NA,991,6330,8999,991,NA,2,legacy,5,1024,2,48000,-16,experiment,3,odd,3,269214,265652,5512,100580,266962,232863,5548,91578,271241,272236,266935,267988,11895,271241,NA,Sternberg task,35,32052,39,yes,1024
90,90,816.8,816.8,black,experiment,legacy,legacy,legacy,0,uniform,1,undefined,1,left,39,39,0,0,39,39,0,0,39,39,39,39,0,39,0,Sat Oct 26 21:28:40 2019,The main experiment item,yes,Sternbergtask.osexp,/Users/Linzi/Desktop,no,mono,no,18,no,white,no,yes,768,legacy,27,11,/Users/Linzi/Desktop/LM-subject-3M27.csv,legacy,3 9 7 6 4,Kafkaesque Koffka,3.2.8,3,y,0,left,right,right,left,NA,620,6330,8999,620,NA,2,legacy,5,1024,2,48000,-16,experiment,3,odd,7,275830,272268,5512,100580,273577,232863,5548,91578,277857,278481,273550,274604,11895,277857,NA,Sternberg task,36,32672,40,yes,1024
90.24390244,90.24390244,814.1707317,814.1707317,black,experiment,legacy,legacy,legacy,0,uniform,1,undefined,1,right,40,40,0,0,40,40,0,0,40,40,40,40,0,40,0,Sat Oct 26 21:28:40 2019,The main experiment item,yes,Sternbergtask.osexp,/Users/Linzi/Desktop,no,mono,no,18,no,white,no,yes,768,legacy,28,11,/Users/Linzi/Desktop/LM-subject-3M27.csv,legacy,5 7 3,Kafkaesque Koffka,3.2.8,0,n,0,right,right,right,right,NA,709,6330,8999,709,NA,2,legacy,3,1024,2,48000,-16,experiment,3,odd,9,282074,278513,5512,100580,279820,232863,5548,91578,284102,284815,279793,280847,11895,284102,NA,Sternberg task,37,33381,41,yes,1024
90.47619048,90.47619048,819.0952381,819.0952381,black,experiment,legacy,legacy,legacy,0,uniform,1,undefined,1,right,41,41,0,0,41,41,0,0,41,41,41,41,0,41,0,Sat Oct 26 21:28:40 2019,The main experiment item,yes,Sternbergtask.osexp,/Users/Linzi/Desktop,no,mono,no,18,no,white,no,yes,768,legacy,29,11,/Users/Linzi/Desktop/LM-subject-3M27.csv,legacy,6 9 4 5 3 2,Kafkaesque Koffka,3.2.8,0,n,0,right,right,right,right,NA,1021,6330,8999,1021,NA,2,legacy,6,1024,2,48000,-16,experiment,3,odd,8,288404,284846,5512,100580,286151,232863,5548,91578,290431,291456,286124,287177,11895,290431,NA,Sternberg task,38,34402,42,yes,1024
90.69767442,90.69767442,822.2093023,822.2093023,black,experiment,legacy,legacy,legacy,0,uniform,1,undefined,1,right,42,42,0,0,42,42,0,0,42,42,42,42,0,42,0,Sat Oct 26 21:28:40 2019,The main experiment item,yes,Sternbergtask.osexp,/Users/Linzi/Desktop,no,mono,no,18,no,white,no,yes,768,legacy,30,11,/Users/Linzi/Desktop/LM-subject-3M27.csv,legacy,9 8 2 7 4,Kafkaesque Koffka,3.2.8,0,n,0,right,right,right,right,NA,953,6330,8999,953,NA,2,legacy,5,1024,2,48000,-16,experiment,3,odd,5,295049,291488,5512,100580,292796,232863,5548,91578,297077,298034,292769,293822,11895,297076,NA,Sternberg task,39,35355,43,yes,1024
90.90909091,90.90909091,817.3636364,817.3636364,black,experiment,legacy,legacy,legacy,0,uniform,1,undefined,1,right,43,43,0,0,43,43,0,0,43,43,43,43,0,43,0,Sat Oct 26 21:28:40 2019,The main experiment item,yes,Sternbergtask.osexp,/Users/Linzi/Desktop,no,mono,no,18,no,white,no,yes,768,legacy,31,11,/Users/Linzi/Desktop/LM-subject-3M27.csv,legacy,5 2,Kafkaesque Koffka,3.2.8,0,n,0,right,right,right,right,NA,609,6330,8999,609,NA,2,legacy,2,1024,2,48000,-16,experiment,3,odd,7,301623,298065,5512,100580,299369,232863,5548,91578,303650,304264,299342,300395,11895,303649,NA,Sternberg task,40,35964,44,yes,1024
91.11111111,91.11111111,816.7777778,816.7777778,black,experiment,legacy,legacy,legacy,0,uniform,1,undefined,1,right,44,44,0,0,44,44,0,0,44,44,44,44,0,44,0,Sat Oct 26 21:28:40 2019,The main experiment item,yes,Sternbergtask.osexp,/Users/Linzi/Desktop,no,mono,no,18,no,white,no,yes,768,legacy,32,11,/Users/Linzi/Desktop/LM-subject-3M27.csv,legacy,6 9 5,Kafkaesque Koffka,3.2.8,0,n,0,right,right,right,right,NA,791,6330,8999,791,NA,2,legacy,3,1024,2,48000,-16,experiment,3,odd,8,307854,304295,5512,100580,305601,232863,5548,91578,309881,310677,305574,306627,11895,309881,NA,Sternberg task,41,36755,45,yes,1024
91.30434783,91.30434783,815.1304348,815.1304348,black,experiment,legacy,legacy,legacy,0,uniform,1,undefined,1,right,45,45,0,0,45,45,0,0,45,45,45,45,0,45,0,Sat Oct 26 21:28:40 2019,The main experiment item,yes,Sternbergtask.osexp,/Users/Linzi/Desktop,no,mono,no,18,no,white,no,yes,768,legacy,33,11,/Users/Linzi/Desktop/LM-subject-3M27.csv,legacy,8 4 3 9,Kafkaesque Koffka,3.2.8,0,n,0,right,right,right,right,NA,741,6330,8999,741,NA,2,legacy,4,1024,2,48000,-16,experiment,3,odd,5,314269,310708,5512,100580,312016,232863,5548,91578,316297,317042,311990,313042,11895,316297,NA,Sternberg task,42,37496,46,yes,1024
89.36170213,89.36170213,814.5106383,814.5106383,black,experiment,legacy,legacy,legacy,0,uniform,0,undefined,0,left,46,46,0,0,46,46,0,0,46,46,46,46,0,46,0,Sat Oct 26 21:28:40 2019,The main experiment item,yes,Sternbergtask.osexp,/Users/Linzi/Desktop,no,mono,no,18,no,white,no,yes,768,legacy,34,11,/Users/Linzi/Desktop/LM-subject-3M27.csv,legacy,2 6 1 7 4,Kafkaesque Koffka,3.2.8,2,y,0,right,right,right,right,NA,786,6330,8999,786,NA,2,legacy,5,1024,2,48000,-16,experiment,3,odd,6,320637,317075,5512,100580,318384,232863,5548,91578,322665,323456,318357,319410,11895,322664,NA,Sternberg task,42,38282,47,yes,1024
89.58333333,89.58333333,810.5416667,810.5416667,black,experiment,legacy,legacy,legacy,0,uniform,1,undefined,1,right,47,47,0,0,47,47,0,0,47,47,47,47,0,47,0,Sat Oct 26 21:28:40 2019,The main experiment item,yes,Sternbergtask.osexp,/Users/Linzi/Desktop,no,mono,no,18,no,white,no,yes,768,legacy,35,11,/Users/Linzi/Desktop/LM-subject-3M27.csv,legacy,2 5 1 4,Kafkaesque Koffka,3.2.8,0,n,0,right,right,right,right,NA,624,6330,8999,624,NA,2,legacy,4,1024,2,48000,-16,experiment,3,odd,6,327048,317075,5512,100580,324795,323488,5548,91578,329075,329703,324768,325821,11895,329074,NA,Sternberg task,43,38906,48,yes,1024
89.79591837,89.79591837,808.877551,808.877551,black,experiment,legacy,legacy,legacy,0,uniform,1,undefined,1,right,48,48,0,0,48,48,0,0,48,48,48,48,0,48,0,Sat Oct 26 21:28:40 2019,The main experiment item,yes,Sternbergtask.osexp,/Users/Linzi/Desktop,no,mono,no,18,no,white,no,yes,768,legacy,36,11,/Users/Linzi/Desktop/LM-subject-3M27.csv,legacy,1 6 4,Kafkaesque Koffka,3.2.8,0,n,0,right,right,right,right,NA,729,6330,8999,729,NA,2,legacy,3,1024,2,48000,-16,experiment,3,odd,7,333294,329734,5512,100580,331042,323488,5548,91578,335321,336054,331015,332068,11895,335321,NA,Sternberg task,44,39635,49,yes,1024
90,90,813.1,813.1,black,experiment,legacy,legacy,legacy,0,uniform,1,undefined,1,left,49,49,0,0,49,49,0,0,49,49,49,49,0,49,0,Sat Oct 26 21:28:40 2019,The main experiment item,yes,Sternbergtask.osexp,/Users/Linzi/Desktop,no,mono,no,18,no,white,no,yes,768,legacy,37,11,/Users/Linzi/Desktop/LM-subject-3M27.csv,legacy,5 7 3 6 2,Kafkaesque Koffka,3.2.8,5,y,0,left,right,right,left,NA,1020,6330,8999,1020,NA,2,legacy,5,1024,2,48000,-16,experiment,3,odd,2,339649,336086,5512,100580,337395,323488,5548,91578,341676,342700,337368,338422,11895,341675,NA,Sternberg task,45,40655,50,yes,1024
90.19607843,90.19607843,815.2352941,815.2352941,black,experiment,legacy,legacy,legacy,0,uniform,1,undefined,1,left,50,50,0,0,50,50,0,0,50,50,50,50,0,50,0,Sat Oct 26 21:28:40 2019,The main experiment item,yes,Sternbergtask.osexp,/Users/Linzi/Desktop,no,mono,no,18,no,white,no,yes,768,legacy,38,11,/Users/Linzi/Desktop/LM-subject-3M27.csv,legacy,5 2 9 6 1 7,Kafkaesque Koffka,3.2.8,3,y,0,left,right,right,left,NA,922,6330,8999,922,NA,2,legacy,6,1024,2,48000,-16,experiment,3,odd,9,346294,342732,5512,100580,344042,323488,5548,91578,348323,349250,344015,345068,11895,348323,NA,Sternberg task,46,41577,51,yes,1024
90.38461538,90.38461538,814.6923077,814.6923077,black,experiment,legacy,legacy,legacy,0,uniform,1,undefined,1,left,51,51,0,0,51,51,0,0,51,51,51,51,0,51,0,Sat Oct 26 21:28:40 2019,The main experiment item,yes,Sternbergtask.osexp,/Users/Linzi/Desktop,no,mono,no,18,no,white,no,yes,768,legacy,39,11,/Users/Linzi/Desktop/LM-subject-3M27.csv,legacy,2 8 5 1,Kafkaesque Koffka,3.2.8,4,y,0,left,right,right,left,NA,787,6330,8999,787,NA,2,legacy,4,1024,2,48000,-16,experiment,3,odd,1,352842,349281,5512,100580,350588,323488,5548,91578,354869,355661,350560,351614,11895,354869,NA,Sternberg task,47,42364,52,yes,1024
90.56603774,90.56603774,812.9433962,812.9433962,black,experiment,legacy,legacy,legacy,0,uniform,1,undefined,1,right,52,52,0,0,52,52,0,0,52,52,52,52,0,52,0,Sat Oct 26 21:28:40 2019,The main experiment item,yes,Sternbergtask.osexp,/Users/Linzi/Desktop,no,mono,no,18,no,white,no,yes,768,legacy,40,11,/Users/Linzi/Desktop/LM-subject-3M27.csv,legacy,5,Kafkaesque Koffka,3.2.8,0,n,0,right,right,right,right,NA,722,6330,8999,722,NA,2,legacy,1,1024,2,48000,-16,experiment,3,odd,8,359249,355692,5512,100580,356997,323488,5548,91578,361276,362001,356970,358023,11895,361276,NA,Sternberg task,48,43086,53,yes,1024
90.74074074,90.74074074,809.7777778,809.7777778,black,experiment,legacy,legacy,legacy,0,uniform,1,undefined,1,left,53,53,0,0,53,53,0,0,53,53,53,53,0,53,0,Sat Oct 26 21:28:40 2019,The main experiment item,yes,Sternbergtask.osexp,/Users/Linzi/Desktop,no,mono,no,18,no,white,no,yes,768,legacy,41,11,/Users/Linzi/Desktop/LM-subject-3M27.csv,legacy,6 1 2,Kafkaesque Koffka,3.2.8,3,y,0,left,right,right,left,NA,642,6330,8999,642,NA,2,legacy,3,1024,2,48000,-16,experiment,3,odd,2,365593,362033,5512,100580,363340,323488,5548,91578,367620,368266,363312,364366,11895,367620,NA,Sternberg task,49,43728,54,yes,1024
90.90909091,90.90909091,807.4545455,807.4545455,black,experiment,legacy,legacy,legacy,0,uniform,1,undefined,1,left,54,54,0,0,54,54,0,0,54,54,54,54,0,54,0,Sat Oct 26 21:28:40 2019,The main experiment item,yes,Sternbergtask.osexp,/Users/Linzi/Desktop,no,mono,no,18,no,white,no,yes,768,legacy,42,11,/Users/Linzi/Desktop/LM-subject-3M27.csv,legacy,2 5 4 8 7,Kafkaesque Koffka,3.2.8,3,y,0,left,right,right,left,NA,682,6330,8999,682,NA,2,legacy,5,1024,2,48000,-16,experiment,3,odd,4,371862,368297,5512,100580,369609,323488,5548,91578,373890,374576,369582,370635,11895,373889,NA,Sternberg task,50,44410,55,yes,1024
91.07142857,91.07142857,813.5178571,813.5178571,black,experiment,legacy,legacy,legacy,0,uniform,1,undefined,1,right,55,55,0,0,55,55,0,0,55,55,55,55,0,55,0,Sat Oct 26 21:28:40 2019,The main experiment item,yes,Sternbergtask.osexp,/Users/Linzi/Desktop,no,mono,no,18,no,white,no,yes,768,legacy,43,11,/Users/Linzi/Desktop/LM-subject-3M27.csv,legacy,6 9 7 3 8 2,Kafkaesque Koffka,3.2.8,0,n,0,right,right,right,right,NA,1147,6330,8999,1147,NA,2,legacy,6,1024,2,48000,-16,experiment,3,odd,5,378172,374609,5512,100580,375919,323488,5548,91578,380200,381351,375892,376946,11895,380199,NA,Sternberg task,51,45557,56,yes,1024
91.22807018,91.22807018,810.9298246,810.9298246,black,experiment,legacy,legacy,legacy,0,uniform,1,undefined,1,left,56,56,0,0,56,56,0,0,56,56,56,56,0,56,0,Sat Oct 26 21:28:40 2019,The main experiment item,yes,Sternbergtask.osexp,/Users/Linzi/Desktop,no,mono,no,18,no,white,no,yes,768,legacy,44,11,/Users/Linzi/Desktop/LM-subject-3M27.csv,legacy,4 6 5 8,Kafkaesque Koffka,3.2.8,1,y,0,left,right,right,left,NA,666,6330,8999,666,NA,2,legacy,4,1024,2,48000,-16,experiment,3,odd,4,384945,381383,5512,100580,382693,323488,5548,91578,386972,387643,382666,383719,11895,386972,NA,Sternberg task,52,46223,57,yes,1024
91.37931034,91.37931034,807.4137931,807.4137931,black,experiment,legacy,legacy,legacy,0,uniform,1,undefined,1,left,57,57,0,0,57,57,0,0,57,57,57,57,0,57,0,Sat Oct 26 21:28:40 2019,The main experiment item,yes,Sternbergtask.osexp,/Users/Linzi/Desktop,no,mono,no,18,no,white,no,yes,768,legacy,45,11,/Users/Linzi/Desktop/LM-subject-3M27.csv,legacy,3 5 7 1,Kafkaesque Koffka,3.2.8,3,y,0,left,right,right,left,NA,607,6330,8999,607,NA,2,legacy,4,1024,2,48000,-16,experiment,3,odd,7,391236,387674,5512,100580,388982,323488,5548,91578,393263,393874,388956,390009,11895,393263,NA,Sternberg task,53,46830,58,yes,1024
91.52542373,91.52542373,803.5084746,803.5084746,black,experiment,legacy,legacy,legacy,0,uniform,1,undefined,1,left,58,58,0,0,58,58,0,0,58,58,58,58,0,58,0,Sat Oct 26 21:28:40 2019,The main experiment item,yes,Sternbergtask.osexp,/Users/Linzi/Desktop,no,mono,no,18,no,white,no,yes,768,legacy,46,11,/Users/Linzi/Desktop/LM-subject-3M27.csv,legacy,6 7 8 5,Kafkaesque Koffka,3.2.8,3,y,0,left,right,right,left,NA,577,6330,8999,577,NA,2,legacy,4,1024,2,48000,-16,experiment,3,odd,8,397467,393905,5512,100580,395214,323488,5548,91578,399495,400076,395187,396240,11895,399494,NA,Sternberg task,54,47407,59,yes,1024
91.66666667,91.66666667,804.85,804.85,black,experiment,legacy,legacy,legacy,0,uniform,1,undefined,1,left,59,59,0,0,59,59,0,0,59,59,59,59,0,59,0,Sat Oct 26 21:28:40 2019,The main experiment item,yes,Sternbergtask.osexp,/Users/Linzi/Desktop,no,mono,no,18,no,white,no,yes,768,legacy,47,11,/Users/Linzi/Desktop/LM-subject-3M27.csv,legacy,6 9 3 1,Kafkaesque Koffka,3.2.8,4,y,0,left,right,right,left,NA,884,6330,8999,884,NA,2,legacy,4,1024,2,48000,-16,experiment,3,odd,1,403672,400107,5512,100580,401417,323488,5548,91578,405699,406588,401390,402445,11895,405699,NA,Sternberg task,55,48291,60,yes,1024
91.80327869,91.80327869,807.1639344,807.1639344,black,experiment,legacy,legacy,legacy,0,uniform,1,undefined,1,right,60,60,0,0,60,60,0,0,60,60,60,60,0,60,0,Sat Oct 26 21:28:40 2019,The main experiment item,yes,Sternbergtask.osexp,/Users/Linzi/Desktop,no,mono,no,18,no,white,no,yes,768,legacy,48,11,/Users/Linzi/Desktop/LM-subject-3M27.csv,legacy,7 4 2 8 1 9,Kafkaesque Koffka,3.2.8,0,n,0,right,right,right,right,NA,946,6330,8999,946,NA,2,legacy,6,1024,2,48000,-16,experiment,3,odd,5,410192,406619,5512,100580,407937,323488,5548,91578,412220,413171,407911,408966,11895,412220,NA,Sternberg task,56,49237,61,yes,1024
91.93548387,91.93548387,806.2258065,806.2258065,black,experiment,legacy,legacy,legacy,0,uniform,1,undefined,1,right,61,61,0,0,61,61,0,0,61,61,61,61,0,61,0,Sat Oct 26 21:28:40 2019,The main experiment item,yes,Sternbergtask.osexp,/Users/Linzi/Desktop,no,mono,no,18,no,white,no,yes,768,legacy,49,11,/Users/Linzi/Desktop/LM-subject-3M27.csv,legacy,7 8 6 1,Kafkaesque Koffka,3.2.8,0,n,0,right,right,right,right,NA,749,6330,8999,749,NA,2,legacy,4,1024,2,48000,-16,experiment,3,odd,3,416765,413202,5512,100580,414510,323488,5548,91578,418792,419546,414483,415538,11895,418791,NA,Sternberg task,57,49986,62,yes,1024
92.06349206,92.06349206,805.9206349,805.9206349,black,experiment,legacy,legacy,legacy,0,uniform,1,undefined,1,right,62,62,0,0,62,62,0,0,62,62,62,62,0,62,0,Sat Oct 26 21:28:40 2019,The main experiment item,yes,Sternbergtask.osexp,/Users/Linzi/Desktop,no,mono,no,18,no,white,no,yes,768,legacy,50,11,/Users/Linzi/Desktop/LM-subject-3M27.csv,legacy,8 5 4 2 9 6,Kafkaesque Koffka,3.2.8,0,n,0,right,right,right,right,NA,787,6330,8999,787,NA,2,legacy,6,1024,2,48000,-16,experiment,3,odd,3,423138,419577,5512,100580,420884,323488,5548,91578,425166,425957,420858,421912,11895,425166,NA,Sternberg task,58,50773,63,yes,1024
92.1875,92.1875,807.171875,807.171875,black,experiment,legacy,legacy,legacy,0,uniform,1,undefined,1,right,63,63,0,0,63,63,0,0,63,63,63,63,0,63,0,Sat Oct 26 21:28:40 2019,The main experiment item,yes,Sternbergtask.osexp,/Users/Linzi/Desktop,no,mono,no,18,no,white,no,yes,768,legacy,51,11,/Users/Linzi/Desktop/LM-subject-3M27.csv,legacy,7 1 5 6 3,Kafkaesque Koffka,3.2.8,0,n,0,right,right,right,right,NA,886,6330,8999,886,NA,2,legacy,5,1024,2,48000,-16,experiment,3,odd,8,429551,425989,5512,100580,427296,323488,5548,91578,431578,432469,427270,428324,11895,431578,NA,Sternberg task,59,51659,64,yes,1024
92.30769231,92.30769231,807.0923077,807.0923077,black,experiment,legacy,legacy,legacy,0,uniform,1,undefined,1,right,64,64,0,0,64,64,0,0,64,64,64,64,0,64,0,Sat Oct 26 21:28:40 2019,The main experiment item,yes,Sternbergtask.osexp,/Users/Linzi/Desktop,no,mono,no,18,no,white,no,yes,768,legacy,52,11,/Users/Linzi/Desktop/LM-subject-3M27.csv,legacy,8 9,Kafkaesque Koffka,3.2.8,0,n,0,right,right,right,right,NA,802,6330,8999,802,NA,2,legacy,2,1024,2,48000,-16,experiment,3,odd,5,436060,432501,5512,100580,433808,323488,5548,91578,438088,438894,433781,434834,11895,438088,NA,Sternberg task,60,52461,65,yes,1024
92.42424242,92.42424242,811.8181818,811.8181818,black,experiment,legacy,legacy,legacy,0,uniform,1,undefined,1,right,65,65,0,0,65,65,0,0,65,65,65,65,0,65,0,Sat Oct 26 21:28:40 2019,The main experiment item,yes,Sternbergtask.osexp,/Users/Linzi/Desktop,no,mono,no,18,no,white,no,yes,768,legacy,53,11,/Users/Linzi/Desktop/LM-subject-3M27.csv,legacy,3 9 8 1 6 4,Kafkaesque Koffka,3.2.8,0,n,0,right,right,right,right,NA,1119,6330,8999,1119,NA,2,legacy,6,1024,2,48000,-16,experiment,3,odd,7,442488,438926,5512,100580,440234,323488,5548,91578,444515,445639,440207,441260,11895,444515,NA,Sternberg task,61,53580,66,yes,1024
92.53731343,92.53731343,815.6716418,815.6716418,black,experiment,legacy,legacy,legacy,0,uniform,1,undefined,1,right,66,66,0,0,66,66,0,0,66,66,66,66,0,66,0,Sat Oct 26 21:28:40 2019,The main experiment item,yes,Sternbergtask.osexp,/Users/Linzi/Desktop,no,mono,no,18,no,white,no,yes,768,legacy,54,11,/Users/Linzi/Desktop/LM-subject-3M27.csv,legacy,2 8 7 9 5 3,Kafkaesque Koffka,3.2.8,0,n,0,right,right,right,right,NA,1070,6330,8999,1070,NA,2,legacy,6,1024,2,48000,-16,experiment,3,odd,6,449232,445670,5512,100580,446980,323488,5548,91578,451260,452335,446953,448005,11895,451259,NA,Sternberg task,62,54650,67,yes,1024
92.64705882,92.64705882,812.8676471,812.8676471,black,experiment,legacy,legacy,legacy,0,uniform,1,undefined,1,right,67,67,0,0,67,67,0,0,67,67,67,67,0,67,0,Sat Oct 26 21:28:40 2019,The main experiment item,yes,Sternbergtask.osexp,/Users/Linzi/Desktop,no,mono,no,18,no,white,no,yes,768,legacy,55,11,/Users/Linzi/Desktop/LM-subject-3M27.csv,legacy,1,Kafkaesque Koffka,3.2.8,0,n,0,right,right,right,right,NA,625,6330,8999,625,NA,2,legacy,1,1024,2,48000,-16,experiment,3,odd,7,455927,452366,5512,100580,453674,323488,5548,91578,457954,458584,453647,454700,11895,457954,NA,Sternberg task,63,55275,68,yes,1024
92.75362319,92.75362319,815.0724638,815.0724638,black,experiment,legacy,legacy,legacy,0,uniform,1,undefined,1,left,68,68,0,0,68,68,0,0,68,68,68,68,0,68,0,Sat Oct 26 21:28:40 2019,The main experiment item,yes,Sternbergtask.osexp,/Users/Linzi/Desktop,no,mono,no,18,no,white,no,yes,768,legacy,56,11,/Users/Linzi/Desktop/LM-subject-3M27.csv,legacy,6 2,Kafkaesque Koffka,3.2.8,1,y,0,left,right,right,left,NA,965,6330,8999,965,NA,2,legacy,2,1024,2,48000,-16,experiment,3,odd,6,462173,458616,5512,100580,459921,323488,5548,91578,464202,465172,459894,460947,11895,464201,NA,Sternberg task,64,56240,69,yes,1024
92.85714286,92.85714286,812.5142857,812.5142857,black,experiment,legacy,legacy,legacy,0,uniform,1,undefined,1,left,69,69,0,0,69,69,0,0,69,69,69,69,0,69,0,Sat Oct 26 21:28:40 2019,The main experiment item,yes,Sternbergtask.osexp,/Users/Linzi/Desktop,no,mono,no,18,no,white,no,yes,768,legacy,57,11,/Users/Linzi/Desktop/LM-subject-3M27.csv,legacy,4 6 2 5 1,Kafkaesque Koffka,3.2.8,5,y,0,left,right,right,left,NA,636,6330,8999,636,NA,2,legacy,5,1024,2,48000,-16,experiment,3,odd,1,468768,465204,5512,100580,466515,323488,5548,91578,470795,471436,466488,467541,11895,470795,NA,Sternberg task,65,56876,70,yes,1024
92.95774648,92.95774648,814.5915493,814.5915493,black,experiment,legacy,legacy,legacy,0,uniform,1,undefined,1,right,70,70,0,0,70,70,0,0,70,70,70,70,0,70,0,Sat Oct 26 21:28:40 2019,The main experiment item,yes,Sternbergtask.osexp,/Users/Linzi/Desktop,no,mono,no,18,no,white,no,yes,768,legacy,58,11,/Users/Linzi/Desktop/LM-subject-3M27.csv,legacy,3 4 9 6 7 8,Kafkaesque Koffka,3.2.8,0,n,0,right,right,right,right,NA,960,6330,8999,960,NA,2,legacy,6,1024,2,48000,-16,experiment,3,odd,2,475032,471469,5512,100580,472778,323488,5548,91578,477060,478025,472751,473805,11895,477060,NA,Sternberg task,66,57836,71,yes,1024
93.05555556,93.05555556,820.3055556,820.3055556,black,experiment,legacy,legacy,legacy,0,uniform,1,undefined,1,left,71,71,0,0,71,71,0,0,71,71,71,71,0,71,0,Sat Oct 26 21:28:40 2019,The main experiment item,yes,Sternbergtask.osexp,/Users/Linzi/Desktop,no,mono,no,18,no,white,no,yes,768,legacy,59,11,/Users/Linzi/Desktop/LM-subject-3M27.csv,legacy,6 9 7 4 5 1,Kafkaesque Koffka,3.2.8,2,y,0,left,right,right,left,NA,1226,6330,8999,1226,NA,2,legacy,6,1024,2,48000,-16,experiment,3,odd,9,481619,478057,5512,100580,479366,323488,5548,91578,483645,484876,479339,480392,11895,483645,NA,Sternberg task,67,59062,72,yes,1024
93.15068493,93.15068493,816.2739726,816.2739726,black,experiment,legacy,legacy,legacy,0,uniform,1,undefined,1,left,72,72,0,0,72,72,0,0,72,72,72,72,0,72,0,Sat Oct 26 21:28:40 2019,The main experiment item,yes,Sternbergtask.osexp,/Users/Linzi/Desktop,no,mono,no,18,no,white,no,yes,768,legacy,60,11,/Users/Linzi/Desktop/LM-subject-3M27.csv,legacy,8 1 6,Kafkaesque Koffka,3.2.8,3,y,0,left,right,right,left,NA,526,6330,8999,526,NA,2,legacy,3,1024,2,48000,-16,experiment,3,odd,6,488470,484907,5512,100580,486215,323488,5548,91578,490498,491030,486188,487242,11895,490497,NA,Sternberg task,68,59588,73,yes,1024
93.24324324,93.24324324,813.9054054,813.9054054,black,experiment,legacy,legacy,legacy,0,uniform,1,undefined,1,right,73,73,0,0,73,73,0,0,73,73,73,73,0,73,0,Sat Oct 26 21:28:40 2019,The main experiment item,yes,Sternbergtask.osexp,/Users/Linzi/Desktop,no,mono,no,18,no,white,no,yes,768,legacy,61,11,/Users/Linzi/Desktop/LM-subject-3M27.csv,legacy,9,Kafkaesque Koffka,3.2.8,0,n,0,right,right,right,right,NA,641,6330,8999,641,NA,2,legacy,1,1024,2,48000,-16,experiment,3,odd,6,494622,491061,5512,100580,492368,323488,5548,91578,496649,497295,492340,493394,11895,496649,NA,Sternberg task,69,60229,74,yes,1024
93.33333333,93.33333333,810.7866667,810.7866667,black,experiment,legacy,legacy,legacy,0,uniform,1,undefined,1,left,74,74,0,0,74,74,0,0,74,74,74,74,0,74,0,Sat Oct 26 21:28:40 2019,The main experiment item,yes,Sternbergtask.osexp,/Users/Linzi/Desktop,no,mono,no,18,no,white,no,yes,768,legacy,62,11,/Users/Linzi/Desktop/LM-subject-3M27.csv,legacy,2 3,Kafkaesque Koffka,3.2.8,1,y,0,left,right,right,left,NA,580,6330,8999,580,NA,2,legacy,2,1024,2,48000,-16,experiment,3,odd,2,500887,497327,5512,100580,498633,323488,5548,91578,502915,503501,498606,499660,11895,502914,NA,Sternberg task,70,60809,75,yes,1024
93.42105263,93.42105263,811.5394737,811.5394737,black,experiment,legacy,legacy,legacy,0,uniform,1,undefined,1,left,75,75,0,0,75,75,0,0,75,75,75,75,0,75,0,Sat Oct 26 21:28:40 2019,The main experiment item,yes,Sternbergtask.osexp,/Users/Linzi/Desktop,no,mono,no,18,no,white,no,yes,768,legacy,63,11,/Users/Linzi/Desktop/LM-subject-3M27.csv,legacy,9 6 2 4 1,Kafkaesque Koffka,3.2.8,4,y,0,left,right,right,left,NA,868,6330,8999,868,NA,2,legacy,5,1024,2,48000,-16,experiment,3,odd,4,507095,503532,5512,100580,504843,323488,5548,91578,509123,509996,504816,505869,11895,509123,NA,Sternberg task,71,61677,76,yes,1024
93.50649351,93.50649351,814.5064935,814.5064935,black,experiment,legacy,legacy,legacy,0,uniform,1,undefined,1,right,76,76,0,0,76,76,0,0,76,76,76,76,0,76,0,Sat Oct 26 21:28:40 2019,The main experiment item,yes,Sternbergtask.osexp,/Users/Linzi/Desktop,no,mono,no,18,no,white,no,yes,768,legacy,64,11,/Users/Linzi/Desktop/LM-subject-3M27.csv,legacy,7 9 1 6,Kafkaesque Koffka,3.2.8,0,n,0,right,right,right,right,NA,1040,6330,8999,1040,NA,2,legacy,4,1024,2,48000,-16,experiment,3,odd,4,513588,510025,5512,100580,511334,323488,5548,91578,515616,516661,511307,512361,11895,515615,NA,Sternberg task,72,62717,77,yes,1024
92.30769231,92.30769231,815.0512821,815.0512821,black,experiment,legacy,legacy,legacy,0,uniform,0,undefined,0,right,77,77,0,0,77,77,0,0,77,77,77,77,0,77,0,Sat Oct 26 21:28:40 2019,The main experiment item,yes,Sternbergtask.osexp,/Users/Linzi/Desktop,no,mono,no,18,no,white,no,yes,768,legacy,65,11,/Users/Linzi/Desktop/LM-subject-3M27.csv,legacy,5 3 2 6 9 8,Kafkaesque Koffka,3.2.8,0,n,0,left,right,right,left,NA,857,6330,8999,857,NA,2,legacy,6,1024,2,48000,-16,experiment,3,odd,4,520253,516692,5512,100580,518000,323488,5548,91578,522280,523142,517974,519026,11895,522280,NA,Sternberg task,72,63574,78,yes,1024
92.40506329,92.40506329,819.0506329,819.0506329,black,experiment,legacy,legacy,legacy,0,uniform,1,undefined,1,right,78,78,0,0,78,78,0,0,78,78,78,78,0,78,0,Sat Oct 26 21:28:40 2019,The main experiment item,yes,Sternbergtask.osexp,/Users/Linzi/Desktop,no,mono,no,18,no,white,no,yes,768,legacy,66,11,/Users/Linzi/Desktop/LM-subject-3M27.csv,legacy,9 5 3 2 8 6,Kafkaesque Koffka,3.2.8,0,n,0,right,right,right,right,NA,1131,6330,8999,1131,NA,2,legacy,6,1024,2,48000,-16,experiment,3,odd,7,526736,516692,5512,100580,524483,523175,5548,91578,528764,529900,524455,525509,11895,528764,NA,Sternberg task,73,64705,79,yes,1024
92.5,92.5,817.1375,817.1375,black,experiment,legacy,legacy,legacy,0,uniform,1,undefined,1,left,79,79,0,0,79,79,0,0,79,79,79,79,0,79,0,Sat Oct 26 21:28:40 2019,The main experiment item,yes,Sternbergtask.osexp,/Users/Linzi/Desktop,no,mono,no,18,no,white,no,yes,768,legacy,67,11,/Users/Linzi/Desktop/LM-subject-3M27.csv,legacy,4,Kafkaesque Koffka,3.2.8,1,y,0,left,right,right,left,NA,666,6330,8999,666,NA,2,legacy,1,1024,2,48000,-16,experiment,3,odd,4,533492,529931,5512,100580,531238,523175,5548,91578,535519,536190,531211,532265,11895,535518,NA,Sternberg task,74,65371,80,yes,1024
92.59259259,92.59259259,819.2716049,819.2716049,black,experiment,legacy,legacy,legacy,0,uniform,1,undefined,1,right,80,80,0,0,80,80,0,0,80,80,80,80,0,80,0,Sat Oct 26 21:28:40 2019,The main experiment item,yes,Sternbergtask.osexp,/Users/Linzi/Desktop,no,mono,no,18,no,white,no,yes,768,legacy,68,11,/Users/Linzi/Desktop/LM-subject-3M27.csv,legacy,2 8 9 4 1,Kafkaesque Koffka,3.2.8,0,n,0,right,right,right,right,NA,990,6330,8999,990,NA,2,legacy,5,1024,2,48000,-16,experiment,3,odd,5,539783,536222,5512,100580,537530,523175,5548,91578,541812,542807,537504,538556,11895,541812,NA,Sternberg task,75,66361,81,yes,1024
92.68292683,92.68292683,819.2560976,819.2560976,black,experiment,legacy,legacy,legacy,0,uniform,1,undefined,1,right,81,81,0,0,81,81,0,0,81,81,81,81,0,81,0,Sat Oct 26 21:28:40 2019,The main experiment item,yes,Sternbergtask.osexp,/Users/Linzi/Desktop,no,mono,no,18,no,white,no,yes,768,legacy,69,11,/Users/Linzi/Desktop/LM-subject-3M27.csv,legacy,4 2 6 9,Kafkaesque Koffka,3.2.8,0,n,0,right,right,right,right,NA,818,6330,8999,818,NA,2,legacy,4,1024,2,48000,-16,experiment,3,odd,7,546397,542838,5512,100580,544143,523175,5548,91578,548425,549248,544117,545171,11895,548425,NA,Sternberg task,76,67179,82,yes,1024
92.77108434,92.77108434,817.2891566,817.2891566,black,experiment,legacy,legacy,legacy,0,uniform,1,undefined,1,left,82,82,0,0,82,82,0,0,82,82,82,82,0,82,0,Sat Oct 26 21:28:40 2019,The main experiment item,yes,Sternbergtask.osexp,/Users/Linzi/Desktop,no,mono,no,18,no,white,no,yes,768,legacy,70,11,/Users/Linzi/Desktop/LM-subject-3M27.csv,legacy,7 8 6 3 1,Kafkaesque Koffka,3.2.8,5,y,0,left,right,right,left,NA,656,6330,8999,656,NA,2,legacy,5,1024,2,48000,-16,experiment,3,odd,1,552841,549279,5512,100580,550588,523175,5548,91578,554869,555531,550561,551615,11895,554869,NA,Sternberg task,77,67835,83,yes,1024
92.85714286,92.85714286,817.0357143,817.0357143,black,experiment,legacy,legacy,legacy,0,uniform,1,undefined,1,left,83,83,0,0,83,83,0,0,83,83,83,83,0,83,0,Sat Oct 26 21:28:40 2019,The main experiment item,yes,Sternbergtask.osexp,/Users/Linzi/Desktop,no,mono,no,18,no,white,no,yes,768,legacy,71,11,/Users/Linzi/Desktop/LM-subject-3M27.csv,legacy,6 7 9 3 1 2,Kafkaesque Koffka,3.2.8,1,y,0,left,right,right,left,NA,796,6330,8999,796,NA,2,legacy,6,1024,2,48000,-16,experiment,3,odd,6,559129,555563,5512,100580,556877,523175,5548,91578,561157,561958,556847,557903,11895,561157,NA,Sternberg task,78,68631,84,yes,1024
92.94117647,92.94117647,814.1058824,814.1058824,black,experiment,legacy,legacy,legacy,0,uniform,1,undefined,1,left,84,84,0,0,84,84,0,0,84,84,84,84,0,84,0,Sat Oct 26 21:28:40 2019,The main experiment item,yes,Sternbergtask.osexp,/Users/Linzi/Desktop,no,mono,no,18,no,white,no,yes,768,legacy,72,11,/Users/Linzi/Desktop/LM-subject-3M27.csv,legacy,7,Kafkaesque Koffka,3.2.8,1,y,0,left,right,right,left,NA,568,6330,8999,568,NA,2,legacy,1,1024,2,48000,-16,experiment,3,odd,7,565545,561989,5512,100580,563292,523175,5548,91578,567574,568147,563266,564319,11895,567574,NA,Sternberg task,79,69199,85,yes,1024
93.02325581,93.02325581,814.4767442,814.4767442,black,experiment,legacy,legacy,legacy,0,uniform,1,undefined,1,left,85,85,0,0,85,85,0,0,85,85,85,85,0,85,0,Sat Oct 26 21:28:40 2019,The main experiment item,yes,Sternbergtask.osexp,/Users/Linzi/Desktop,no,mono,no,18,no,white,no,yes,768,legacy,73,11,/Users/Linzi/Desktop/LM-subject-3M27.csv,legacy,3 9 6 2,Kafkaesque Koffka,3.2.8,4,y,0,left,right,right,left,NA,846,6330,8999,846,NA,2,legacy,4,1024,2,48000,-16,experiment,3,odd,2,571740,568178,5512,100580,569487,523175,5548,91578,573767,574618,569460,570514,11895,573766,NA,Sternberg task,80,70045,86,yes,1024
93.10344828,93.10344828,814,814,black,experiment,legacy,legacy,legacy,0,uniform,1,undefined,1,right,86,86,0,0,86,86,0,0,86,86,86,86,0,86,0,Sat Oct 26 21:28:40 2019,The main experiment item,yes,Sternbergtask.osexp,/Users/Linzi/Desktop,no,mono,no,18,no,white,no,yes,768,legacy,74,11,/Users/Linzi/Desktop/LM-subject-3M27.csv,legacy,1 8 7,Kafkaesque Koffka,3.2.8,0,n,0,right,right,right,right,NA,773,6330,8999,773,NA,2,legacy,3,1024,2,48000,-16,experiment,3,odd,4,578209,574649,5512,100580,575956,523175,5548,91578,580237,581016,575930,576983,11895,580237,NA,Sternberg task,81,70818,87,yes,1024
93.18181818,93.18181818,814.0113636,814.0113636,black,experiment,legacy,legacy,legacy,0,uniform,1,undefined,1,right,87,87,0,0,87,87,0,0,87,87,87,87,0,87,0,Sat Oct 26 21:28:40 2019,The main experiment item,yes,Sternbergtask.osexp,/Users/Linzi/Desktop,no,mono,no,18,no,white,no,yes,768,legacy,75,11,/Users/Linzi/Desktop/LM-subject-3M27.csv,legacy,3 4 2,Kafkaesque Koffka,3.2.8,0,n,0,right,right,right,right,NA,815,6330,8999,815,NA,2,legacy,3,1024,2,48000,-16,experiment,3,odd,5,584607,581047,5512,100580,582354,523175,5548,91578,586634,587455,582327,583380,11895,586633,NA,Sternberg task,82,71633,88,yes,1024
93.25842697,93.25842697,810.6629213,810.6629213,black,experiment,legacy,legacy,legacy,0,uniform,1,undefined,1,left,88,88,0,0,88,88,0,0,88,88,88,88,0,88,0,Sat Oct 26 21:28:40 2019,The main experiment item,yes,Sternbergtask.osexp,/Users/Linzi/Desktop,no,mono,no,18,no,white,no,yes,768,legacy,76,11,/Users/Linzi/Desktop/LM-subject-3M27.csv,legacy,8,Kafkaesque Koffka,3.2.8,1,y,0,left,right,right,left,NA,516,6330,8999,516,NA,2,legacy,1,1024,2,48000,-16,experiment,3,odd,8,591042,587488,5512,100580,588790,523175,5548,91578,593070,593592,588764,589816,11895,593069,NA,Sternberg task,83,72149,89,yes,1024
93.33333333,93.33333333,814.1444444,814.1444444,black,experiment,legacy,legacy,legacy,0,uniform,1,undefined,1,left,89,89,0,0,89,89,0,0,89,89,89,89,0,89,0,Sat Oct 26 21:28:40 2019,The main experiment item,yes,Sternbergtask.osexp,/Users/Linzi/Desktop,no,mono,no,18,no,white,no,yes,768,legacy,77,11,/Users/Linzi/Desktop/LM-subject-3M27.csv,legacy,8 5 3 7 4 6,Kafkaesque Koffka,3.2.8,6,y,0,left,right,right,left,NA,1124,6330,8999,1124,NA,2,legacy,6,1024,2,48000,-16,experiment,3,odd,6,597185,593623,5512,100580,594932,523175,5548,91578,599212,600341,594906,595958,11895,599212,NA,Sternberg task,84,73273,90,yes,1024
93.40659341,93.40659341,814.3516484,814.3516484,black,experiment,legacy,legacy,legacy,0,uniform,1,undefined,1,right,90,90,0,0,90,90,0,0,90,90,90,90,0,90,0,Sat Oct 26 21:28:40 2019,The main experiment item,yes,Sternbergtask.osexp,/Users/Linzi/Desktop,no,mono,no,18,no,white,no,yes,768,legacy,78,11,/Users/Linzi/Desktop/LM-subject-3M27.csv,legacy,6 7 5 9,Kafkaesque Koffka,3.2.8,0,n,0,right,right,right,right,NA,833,6330,8999,833,NA,2,legacy,4,1024,2,48000,-16,experiment,3,odd,2,603934,600372,5512,100580,601682,523175,5548,91578,605961,606800,601655,602708,11895,605961,NA,Sternberg task,85,74106,91,yes,1024
93.47826087,93.47826087,817.3695652,817.3695652,black,experiment,legacy,legacy,legacy,0,uniform,1,undefined,1,right,91,91,0,0,91,91,0,0,91,91,91,91,0,91,0,Sat Oct 26 21:28:40 2019,The main experiment item,yes,Sternbergtask.osexp,/Users/Linzi/Desktop,no,mono,no,18,no,white,no,yes,768,legacy,79,11,/Users/Linzi/Desktop/LM-subject-3M27.csv,legacy,9 7 4 5 8,Kafkaesque Koffka,3.2.8,0,n,0,right,right,right,right,NA,1092,6330,8999,1092,NA,2,legacy,5,1024,2,48000,-16,experiment,3,odd,6,610390,606831,5512,100580,608138,523175,5548,91578,612418,613516,608111,609164,11895,612417,NA,Sternberg task,86,75198,92,yes,1024
93.5483871,93.5483871,822.655914,822.655914,black,experiment,legacy,legacy,legacy,0,uniform,1,undefined,1,right,92,92,0,0,92,92,0,0,92,92,92,92,0,92,0,Sat Oct 26 21:28:40 2019,The main experiment item,yes,Sternbergtask.osexp,/Users/Linzi/Desktop,no,mono,no,18,no,white,no,yes,768,legacy,80,11,/Users/Linzi/Desktop/LM-subject-3M27.csv,legacy,8 5 7 3 6,Kafkaesque Koffka,3.2.8,0,n,0,right,right,right,right,NA,1309,6330,8999,1309,NA,2,legacy,5,1024,2,48000,-16,experiment,3,odd,9,617113,613548,5512,100580,614861,523175,5548,91578,619141,620456,614834,615887,11895,619141,NA,Sternberg task,87,76507,93,yes,1024
93.61702128,93.61702128,822.2021277,822.2021277,black,experiment,legacy,legacy,legacy,0,uniform,1,undefined,1,right,93,93,0,0,93,93,0,0,93,93,93,93,0,93,0,Sat Oct 26 21:28:40 2019,The main experiment item,yes,Sternbergtask.osexp,/Users/Linzi/Desktop,no,mono,no,18,no,white,no,yes,768,legacy,81,11,/Users/Linzi/Desktop/LM-subject-3M27.csv,legacy,7 3 2 8,Kafkaesque Koffka,3.2.8,0,n,0,right,right,right,right,NA,780,6330,8999,780,NA,2,legacy,4,1024,2,48000,-16,experiment,3,odd,4,624048,620489,5512,100580,621795,523175,5548,91578,626076,626861,621768,622821,11895,626076,NA,Sternberg task,88,77287,94,yes,1024
92.63157895,92.63157895,821.4421053,821.4421053,black,experiment,legacy,legacy,legacy,0,uniform,0,undefined,0,left,94,94,0,0,94,94,0,0,94,94,94,94,0,94,0,Sat Oct 26 21:28:40 2019,The main experiment item,yes,Sternbergtask.osexp,/Users/Linzi/Desktop,no,mono,no,18,no,white,no,yes,768,legacy,82,11,/Users/Linzi/Desktop/LM-subject-3M27.csv,legacy,8 7 3,Kafkaesque Koffka,3.2.8,1,y,0,right,right,right,right,NA,750,6330,8999,750,NA,2,legacy,3,1024,2,48000,-16,experiment,3,odd,8,630451,626893,5512,100580,628199,523175,5548,91578,632480,633235,628172,629225,11895,632480,NA,Sternberg task,88,78037,95,yes,1024
92.70833333,92.70833333,823.1041667,823.1041667,black,experiment,legacy,legacy,legacy,0,uniform,1,undefined,1,right,95,95,0,0,95,95,0,0,95,95,95,95,0,95,0,Sat Oct 26 21:28:40 2019,The main experiment item,yes,Sternbergtask.osexp,/Users/Linzi/Desktop,no,mono,no,18,no,white,no,yes,768,legacy,83,11,/Users/Linzi/Desktop/LM-subject-3M27.csv,legacy,1 3 2 6 9,Kafkaesque Koffka,3.2.8,0,n,0,right,right,right,right,NA,981,6330,8999,981,NA,2,legacy,5,1024,2,48000,-16,experiment,3,odd,5,636832,626893,5512,100580,634578,633266,5548,91578,638859,639846,634551,635605,11895,638859,NA,Sternberg task,89,79018,96,yes,1024
92.78350515,92.78350515,822.443299,822.443299,black,experiment,legacy,legacy,legacy,0,uniform,1,undefined,1,right,96,96,0,0,96,96,0,0,96,96,96,96,0,96,0,Sat Oct 26 21:28:40 2019,The main experiment item,yes,Sternbergtask.osexp,/Users/Linzi/Desktop,no,mono,no,18,no,white,no,yes,768,legacy,84,11,/Users/Linzi/Desktop/LM-subject-3M27.csv,legacy,1 4 3 6 5,Kafkaesque Koffka,3.2.8,0,n,0,right,right,right,right,NA,759,6330,8999,759,NA,2,legacy,5,1024,2,48000,-16,experiment,3,odd,8,643439,639877,5512,100580,641187,633266,5548,91578,645469,646234,641161,642213,11895,645468,NA,Sternberg task,90,79777,97,yes,1024
92.85714286,92.85714286,821.3469388,821.3469388,black,experiment,legacy,legacy,legacy,0,uniform,1,undefined,1,right,97,97,0,0,97,97,0,0,97,97,97,97,0,97,0,Sat Oct 26 21:28:40 2019,The main experiment item,yes,Sternbergtask.osexp,/Users/Linzi/Desktop,no,mono,no,18,no,white,no,yes,768,legacy,85,11,/Users/Linzi/Desktop/LM-subject-3M27.csv,legacy,1 7 5 2,Kafkaesque Koffka,3.2.8,0,n,0,right,right,right,right,NA,715,6330,8999,715,NA,2,legacy,4,1024,2,48000,-16,experiment,3,odd,3,649831,646266,5512,100580,647577,633266,5548,91578,651858,652579,647550,648603,11895,651858,NA,Sternberg task,91,80492,98,yes,1024
92.92929293,92.92929293,820.3636364,820.3636364,black,experiment,legacy,legacy,legacy,0,uniform,1,undefined,1,right,98,98,0,0,98,98,0,0,98,98,98,98,0,98,0,Sat Oct 26 21:28:40 2019,The main experiment item,yes,Sternbergtask.osexp,/Users/Linzi/Desktop,no,mono,no,18,no,white,no,yes,768,legacy,86,11,/Users/Linzi/Desktop/LM-subject-3M27.csv,legacy,2 6 4 3 9,Kafkaesque Koffka,3.2.8,0,n,0,right,right,right,right,NA,724,6330,8999,724,NA,2,legacy,5,1024,2,48000,-16,experiment,3,odd,1,656172,652611,5512,100580,653919,633266,5548,91578,658199,658928,653892,654945,11895,658199,NA,Sternberg task,92,81216,99,yes,1024
93,93,820.17,820.17,black,experiment,legacy,legacy,legacy,0,uniform,1,undefined,1,right,99,99,0,0,99,99,0,0,99,99,99,99,0,99,0,Sat Oct 26 21:28:40 2019,The main experiment item,yes,Sternbergtask.osexp,/Users/Linzi/Desktop,no,mono,no,18,no,white,no,yes,768,legacy,87,11,/Users/Linzi/Desktop/LM-subject-3M27.csv,legacy,6 9 4 5 2,Kafkaesque Koffka,3.2.8,0,n,0,right,right,right,right,NA,801,6330,8999,801,NA,2,legacy,5,1024,2,48000,-16,experiment,3,odd,1,662523,658959,5512,100580,660270,633266,5548,91578,664550,665357,660243,661296,11895,664549,NA,Sternberg task,93,82017,100,yes,1024
93.06930693,93.06930693,818.7623762,818.7623762,black,experiment,legacy,legacy,legacy,0,uniform,1,undefined,1,left,100,100,0,0,100,100,0,0,100,100,100,100,0,100,0,Sat Oct 26 21:28:40 2019,The main experiment item,yes,Sternbergtask.osexp,/Users/Linzi/Desktop,no,mono,no,18,no,white,no,yes,768,legacy,88,11,/Users/Linzi/Desktop/LM-subject-3M27.csv,legacy,8 3,Kafkaesque Koffka,3.2.8,2,y,0,left,right,right,left,NA,678,6330,8999,678,NA,2,legacy,2,1024,2,48000,-16,experiment,3,odd,3,668946,665389,5512,100580,666694,633266,5548,91578,670975,671659,666667,667720,11895,670975,NA,Sternberg task,94,82695,101,yes,1024
93.1372549,93.1372549,815.8137255,815.8137255,black,experiment,legacy,legacy,legacy,0,uniform,1,undefined,1,left,101,101,0,0,101,101,0,0,101,101,101,101,0,101,0,Sat Oct 26 21:28:40 2019,The main experiment item,yes,Sternbergtask.osexp,/Users/Linzi/Desktop,no,mono,no,18,no,white,no,yes,768,legacy,89,11,/Users/Linzi/Desktop/LM-subject-3M27.csv,legacy,9 8 4,Kafkaesque Koffka,3.2.8,1,y,0,left,right,right,left,NA,518,6330,8999,518,NA,2,legacy,3,1024,2,48000,-16,experiment,3,odd,9,675246,671690,5512,100580,672995,633266,5548,91578,677274,677798,672968,674020,11895,677274,NA,Sternberg task,95,83213,102,yes,1024
93.2038835,93.2038835,814.5242718,814.5242718,black,experiment,legacy,legacy,legacy,0,uniform,1,undefined,1,left,102,102,0,0,102,102,0,0,102,102,102,102,0,102,0,Sat Oct 26 21:28:40 2019,The main experiment item,yes,Sternbergtask.osexp,/Users/Linzi/Desktop,no,mono,no,18,no,white,no,yes,768,legacy,90,11,/Users/Linzi/Desktop/LM-subject-3M27.csv,legacy,9 1 7 2,Kafkaesque Koffka,3.2.8,2,y,0,left,right,right,left,NA,683,6330,8999,683,NA,2,legacy,4,1024,2,48000,-16,experiment,3,odd,1,681390,677829,5512,100580,679137,633266,5548,91578,683419,684107,679110,680163,11895,683419,NA,Sternberg task,96,83896,103,yes,1024
93.26923077,93.26923077,812.2211538,812.2211538,black,experiment,legacy,legacy,legacy,0,uniform,1,undefined,1,left,103,103,0,0,103,103,0,0,103,103,103,103,0,103,0,Sat Oct 26 21:28:40 2019,The main experiment item,yes,Sternbergtask.osexp,/Users/Linzi/Desktop,no,mono,no,18,no,white,no,yes,768,legacy,91,11,/Users/Linzi/Desktop/LM-subject-3M27.csv,legacy,7 2 3,Kafkaesque Koffka,3.2.8,3,y,0,left,right,right,left,NA,575,6330,8999,575,NA,2,legacy,3,1024,2,48000,-16,experiment,3,odd,3,687696,684138,5512,100580,685443,633266,5548,91578,689724,690305,685417,686470,11895,689723,NA,Sternberg task,97,84471,104,yes,1024
93.33333333,93.33333333,811.2666667,811.2666667,black,experiment,legacy,legacy,legacy,0,uniform,1,undefined,1,right,104,104,0,0,104,104,0,0,104,104,104,104,0,104,0,Sat Oct 26 21:28:40 2019,The main experiment item,yes,Sternbergtask.osexp,/Users/Linzi/Desktop,no,mono,no,18,no,white,no,yes,768,legacy,92,11,/Users/Linzi/Desktop/LM-subject-3M27.csv,legacy,6 8 4,Kafkaesque Koffka,3.2.8,0,n,0,right,right,right,right,NA,712,6330,8999,712,NA,2,legacy,3,1024,2,48000,-16,experiment,3,odd,1,693900,690336,5512,100580,691647,633266,5548,91578,695928,696646,691620,692673,11895,695928,NA,Sternberg task,98,85183,105,yes,1024
93.39622642,93.39622642,812.6037736,812.6037736,black,experiment,legacy,legacy,legacy,0,uniform,1,undefined,1,right,105,105,0,0,105,105,0,0,105,105,105,105,0,105,0,Sat Oct 26 21:28:40 2019,The main experiment item,yes,Sternbergtask.osexp,/Users/Linzi/Desktop,no,mono,no,18,no,white,no,yes,768,legacy,93,11,/Users/Linzi/Desktop/LM-subject-3M27.csv,legacy,8 2 1 4 5 9,Kafkaesque Koffka,3.2.8,0,n,0,right,right,right,right,NA,953,6330,8999,953,NA,2,legacy,6,1024,2,48000,-16,experiment,3,odd,7,700237,696677,5512,100580,697985,633266,5548,91578,702265,703225,697958,699011,11895,702265,NA,Sternberg task,99,86136,106,yes,1024
93.45794393,93.45794393,813.0280374,813.0280374,black,experiment,legacy,legacy,legacy,0,uniform,1,undefined,1,left,106,106,0,0,106,106,0,0,106,106,106,106,0,106,0,Sat Oct 26 21:28:40 2019,The main experiment item,yes,Sternbergtask.osexp,/Users/Linzi/Desktop,no,mono,no,18,no,white,no,yes,768,legacy,94,11,/Users/Linzi/Desktop/LM-subject-3M27.csv,legacy,7 1 3,Kafkaesque Koffka,3.2.8,2,y,0,left,right,right,left,NA,858,6330,8999,858,NA,2,legacy,3,1024,2,48000,-16,experiment,3,odd,1,706821,703257,5512,100580,704568,633266,5548,91578,708848,709712,704541,705595,11895,708848,NA,Sternberg task,100,86994,107,yes,1024
93.51851852,93.51851852,812.212963,812.212963,black,experiment,legacy,legacy,legacy,0,uniform,1,undefined,1,right,107,107,0,0,107,107,0,0,107,107,107,107,0,107,0,Sat Oct 26 21:28:40 2019,The main experiment item,yes,Sternbergtask.osexp,/Users/Linzi/Desktop,no,mono,no,18,no,white,no,yes,768,legacy,95,11,/Users/Linzi/Desktop/LM-subject-3M27.csv,legacy,5 9 2 3,Kafkaesque Koffka,3.2.8,0,n,0,right,right,right,right,NA,725,6330,8999,725,NA,2,legacy,4,1024,2,48000,-16,experiment,3,odd,8,713303,709742,5512,100580,711051,633266,5548,91578,715331,716062,711024,712077,11895,715330,NA,Sternberg task,101,87719,108,yes,1024
93.57798165,93.57798165,812.0825688,812.0825688,black,experiment,legacy,legacy,legacy,0,uniform,1,undefined,1,right,108,108,0,0,108,108,0,0,108,108,108,108,0,108,0,Sat Oct 26 21:28:40 2019,The main experiment item,yes,Sternbergtask.osexp,/Users/Linzi/Desktop,no,mono,no,18,no,white,no,yes,768,legacy,96,11,/Users/Linzi/Desktop/LM-subject-3M27.csv,legacy,8 4 3 5,Kafkaesque Koffka,3.2.8,0,n,0,right,right,right,right,NA,798,6330,8999,798,NA,2,legacy,4,1024,2,48000,-16,experiment,3,odd,6,719659,716094,5512,100580,717405,633266,5548,91578,721687,722491,717378,718431,11895,721687,NA,Sternberg task,102,88517,109,yes,1024
93.63636364,93.63636364,810.0636364,810.0636364,black,experiment,legacy,legacy,legacy,0,uniform,1,undefined,1,left,109,109,0,0,109,109,0,0,109,109,109,109,0,109,0,Sat Oct 26 21:28:40 2019,The main experiment item,yes,Sternbergtask.osexp,/Users/Linzi/Desktop,no,mono,no,18,no,white,no,yes,768,legacy,97,11,/Users/Linzi/Desktop/LM-subject-3M27.csv,legacy,9 1 6 7 8,Kafkaesque Koffka,3.2.8,1,y,0,left,right,right,left,NA,590,6330,8999,590,NA,2,legacy,5,1024,2,48000,-16,experiment,3,odd,9,726086,722522,5512,100580,723833,633266,5548,91578,728114,728710,723806,724860,11895,728113,NA,Sternberg task,103,89107,110,yes,1024
93.69369369,93.69369369,810.7297297,810.7297297,black,experiment,legacy,legacy,legacy,0,uniform,1,undefined,1,left,110,110,0,0,110,110,0,0,110,110,110,110,0,110,0,Sat Oct 26 21:28:40 2019,The main experiment item,yes,Sternbergtask.osexp,/Users/Linzi/Desktop,no,mono,no,18,no,white,no,yes,768,legacy,98,11,/Users/Linzi/Desktop/LM-subject-3M27.csv,legacy,6 8 9 3 4 9,Kafkaesque Koffka,3.2.8,5,y,0,left,right,right,left,NA,884,6330,8999,884,NA,2,legacy,6,1024,2,48000,-16,experiment,3,odd,4,732303,728742,5512,100580,730050,633266,5548,91578,734331,735221,730023,731077,11895,734331,NA,Sternberg task,104,89991,111,yes,1024
93.75,93.75,810.0535714,810.0535714,black,experiment,legacy,legacy,legacy,0,uniform,1,undefined,1,right,111,111,0,0,111,111,0,0,111,111,111,111,0,111,0,Sat Oct 26 21:28:40 2019,The main experiment item,yes,Sternbergtask.osexp,/Users/Linzi/Desktop,no,mono,no,18,no,white,no,yes,768,legacy,99,11,/Users/Linzi/Desktop/LM-subject-3M27.csv,legacy,1 7 8 3 9,Kafkaesque Koffka,3.2.8,0,n,0,right,right,right,right,NA,735,6330,8999,735,NA,2,legacy,5,1024,2,48000,-16,experiment,3,odd,2,738814,735253,5512,100580,736562,633266,5548,91578,740841,741582,736536,737588,11895,740840,NA,Sternberg task,105,90726,112,yes,1024
93.80530973,93.80530973,808.9734513,808.9734513,black,experiment,legacy,legacy,legacy,0,uniform,1,undefined,1,right,112,112,0,0,112,112,0,0,112,112,112,112,0,112,0,Sat Oct 26 21:28:40 2019,The main experiment item,yes,Sternbergtask.osexp,/Users/Linzi/Desktop,no,mono,no,18,no,white,no,yes,768,legacy,100,11,/Users/Linzi/Desktop/LM-subject-3M27.csv,legacy,2 8 6 3 1,Kafkaesque Koffka,3.2.8,0,n,0,right,right,right,right,NA,688,6330,8999,688,NA,2,legacy,5,1024,2,48000,-16,experiment,3,odd,7,745173,741613,5512,100580,742921,633266,5548,91578,747201,747895,742895,743947,11895,747201,NA,Sternberg task,106,91414,113,yes,1024
93.85964912,93.85964912,807.9473684,807.9473684,black,experiment,legacy,legacy,legacy,0,uniform,1,undefined,1,right,113,113,0,0,113,113,0,0,113,113,113,113,0,113,0,Sat Oct 26 21:28:40 2019,The main experiment item,yes,Sternbergtask.osexp,/Users/Linzi/Desktop,no,mono,no,18,no,white,no,yes,768,legacy,101,11,/Users/Linzi/Desktop/LM-subject-3M27.csv,legacy,6 2 9 3 8 4,Kafkaesque Koffka,3.2.8,0,n,0,right,right,right,right,NA,692,6330,8999,692,NA,2,legacy,6,1024,2,48000,-16,experiment,3,odd,1,751491,747927,5512,100580,749237,633266,5548,91578,753517,754216,749210,750263,11895,753517,NA,Sternberg task,107,92106,114,yes,1024
93.91304348,93.91304348,807.5652174,807.5652174,black,experiment,legacy,legacy,legacy,0,uniform,1,undefined,1,left,114,114,0,0,114,114,0,0,114,114,114,114,0,114,0,Sat Oct 26 21:28:40 2019,The main experiment item,yes,Sternbergtask.osexp,/Users/Linzi/Desktop,no,mono,no,18,no,white,no,yes,768,legacy,102,11,/Users/Linzi/Desktop/LM-subject-3M27.csv,legacy,9 3 1 2 5,Kafkaesque Koffka,3.2.8,4,y,0,left,right,right,left,NA,764,6330,8999,764,NA,2,legacy,5,1024,2,48000,-16,experiment,3,odd,2,757811,754247,5512,100580,755557,633266,5548,91578,759839,760609,755531,756584,11895,759838,NA,Sternberg task,108,92870,115,yes,1024
93.96551724,93.96551724,805.3017241,805.3017241,black,experiment,legacy,legacy,legacy,0,uniform,1,undefined,1,left,115,115,0,0,115,115,0,0,115,115,115,115,0,115,0,Sat Oct 26 21:28:40 2019,The main experiment item,yes,Sternbergtask.osexp,/Users/Linzi/Desktop,no,mono,no,18,no,white,no,yes,768,legacy,103,11,/Users/Linzi/Desktop/LM-subject-3M27.csv,legacy,9 4 2,Kafkaesque Koffka,3.2.8,1,y,0,left,right,right,left,NA,545,6330,8999,545,NA,2,legacy,3,1024,2,48000,-16,experiment,3,odd,9,764198,760640,5512,100580,761945,633266,5548,91578,766226,766778,761918,762971,11895,766226,NA,Sternberg task,109,93415,116,yes,1024
94.01709402,94.01709402,806.4188034,806.4188034,black,experiment,legacy,legacy,legacy,0,uniform,1,undefined,1,left,116,116,0,0,116,116,0,0,116,116,116,116,0,116,0,Sat Oct 26 21:28:40 2019,The main experiment item,yes,Sternbergtask.osexp,/Users/Linzi/Desktop,no,mono,no,18,no,white,no,yes,768,legacy,104,11,/Users/Linzi/Desktop/LM-subject-3M27.csv,legacy,7 8 4 6 9 5,Kafkaesque Koffka,3.2.8,4,y,0,left,right,right,left,NA,936,6330,8999,936,NA,2,legacy,6,1024,2,48000,-16,experiment,3,odd,6,770370,766809,5512,100580,768116,633266,5548,91578,772398,773340,768090,769144,11895,772398,NA,Sternberg task,110,94351,117,yes,1024
94.06779661,94.06779661,804.7542373,804.7542373,black,experiment,legacy,legacy,legacy,0,uniform,1,undefined,1,right,117,117,0,0,117,117,0,0,117,117,117,117,0,117,0,Sat Oct 26 21:28:40 2019,The main experiment item,yes,Sternbergtask.osexp,/Users/Linzi/Desktop,no,mono,no,18,no,white,no,yes,768,legacy,105,11,/Users/Linzi/Desktop/LM-subject-3M27.csv,legacy,6 8,Kafkaesque Koffka,3.2.8,0,n,0,right,right,right,right,NA,610,6330,8999,610,NA,2,legacy,2,1024,2,48000,-16,experiment,3,odd,9,776931,773372,5512,100580,774676,633266,5548,91578,778958,779574,774650,775704,11895,778958,NA,Sternberg task,111,94961,118,yes,1024
93.27731092,93.27731092,806.4537815,806.4537815,black,experiment,legacy,legacy,legacy,0,uniform,0,undefined,0,left,118,118,0,0,118,118,0,0,118,118,118,118,0,118,0,Sat Oct 26 21:28:40 2019,The main experiment item,yes,Sternbergtask.osexp,/Users/Linzi/Desktop,no,mono,no,18,no,white,no,yes,768,legacy,106,11,/Users/Linzi/Desktop/LM-subject-3M27.csv,legacy,3 4 9 6 2 9,Kafkaesque Koffka,3.2.8,5,y,0,right,right,right,right,NA,1007,6330,8999,1007,NA,2,legacy,6,1024,2,48000,-16,experiment,3,odd,2,783168,779606,5512,100580,780915,633266,5548,91578,785196,786210,780888,781942,11895,785196,NA,Sternberg task,111,95968,119,yes,1024
93.33333333,93.33333333,805.2083333,805.2083333,black,experiment,legacy,legacy,legacy,0,uniform,1,undefined,1,right,119,119,0,0,119,119,0,0,119,119,119,119,0,119,0,Sat Oct 26 21:28:40 2019,The main experiment item,yes,Sternbergtask.osexp,/Users/Linzi/Desktop,no,mono,no,18,no,white,no,yes,768,legacy,107,11,/Users/Linzi/Desktop/LM-subject-3M27.csv,legacy,4 2 7 6 1 3,Kafkaesque Koffka,3.2.8,0,n,0,right,right,right,right,NA,657,6330,8999,657,NA,2,legacy,6,1024,2,48000,-16,experiment,3,odd,8,789805,779606,5512,100580,787552,786241,5548,91578,791832,792495,787525,788578,11895,791832,NA,Sternberg task,112,96625,120,yes,1024
93.38842975,93.38842975,803.1157025,803.1157025,black,experiment,legacy,legacy,legacy,0,uniform,1,undefined,1,left,120,120,0,0,120,120,0,0,120,120,120,120,0,120,0,Sat Oct 26 21:28:40 2019,The main experiment item,yes,Sternbergtask.osexp,/Users/Linzi/Desktop,no,mono,no,18,no,white,no,yes,768,legacy,108,11,/Users/Linzi/Desktop/LM-subject-3M27.csv,legacy,4 7 6 8 2 3,Kafkaesque Koffka,3.2.8,6,y,0,left,right,right,left,NA,552,6330,8999,552,NA,2,legacy,6,1024,2,48000,-16,experiment,3,odd,3,796092,792528,5512,100580,793839,786241,5548,91578,798120,798679,793813,794865,11895,798120,NA,Sternberg task,113,97177,121,yes,1024
93.44262295,93.44262295,801.7786885,801.7786885,black,experiment,legacy,legacy,legacy,0,uniform,1,undefined,1,right,121,121,0,0,121,121,0,0,121,121,121,121,0,121,0,Sat Oct 26 21:28:40 2019,The main experiment item,yes,Sternbergtask.osexp,/Users/Linzi/Desktop,no,mono,no,18,no,white,no,yes,768,legacy,109,11,/Users/Linzi/Desktop/LM-subject-3M27.csv,legacy,2 7 5,Kafkaesque Koffka,3.2.8,0,n,0,right,right,right,right,NA,640,6330,8999,640,NA,2,legacy,3,1024,2,48000,-16,experiment,3,odd,8,802267,798710,5512,100580,800015,786241,5548,91578,804294,804941,799989,801041,11895,804294,NA,Sternberg task,114,97817,122,yes,1024
93.49593496,93.49593496,802.7154472,802.7154472,black,experiment,legacy,legacy,legacy,0,uniform,1,undefined,1,left,122,122,0,0,122,122,0,0,122,122,122,122,0,122,0,Sat Oct 26 21:28:40 2019,The main experiment item,yes,Sternbergtask.osexp,/Users/Linzi/Desktop,no,mono,no,18,no,white,no,yes,768,legacy,110,11,/Users/Linzi/Desktop/LM-subject-3M27.csv,legacy,8 5 4 7 3 1,Kafkaesque Koffka,3.2.8,2,y,0,left,right,right,left,NA,917,6330,8999,917,NA,2,legacy,6,1024,2,48000,-16,experiment,3,odd,5,808536,804972,5512,100580,806283,786241,5548,91578,810563,811487,806256,807309,11895,810563,NA,Sternberg task,115,98734,123,yes,1024
93.5483871,93.5483871,804.6451613,804.6451613,black,experiment,legacy,legacy,legacy,0,uniform,1,undefined,1,left,123,123,0,0,123,123,0,0,123,123,123,123,0,123,0,Sat Oct 26 21:28:40 2019,The main experiment item,yes,Sternbergtask.osexp,/Users/Linzi/Desktop,no,mono,no,18,no,white,no,yes,768,legacy,111,11,/Users/Linzi/Desktop/LM-subject-3M27.csv,legacy,2 4 6 9,Kafkaesque Koffka,3.2.8,3,y,0,left,right,right,left,NA,1042,6330,8999,1042,NA,2,legacy,4,1024,2,48000,-16,experiment,3,odd,6,815076,811518,5512,100580,812823,786241,5548,91578,817103,818152,812797,813850,11895,817103,NA,Sternberg task,116,99776,124,yes,1024
93.6,93.6,802.568,802.568,black,experiment,legacy,legacy,legacy,0,uniform,1,undefined,1,left,124,124,0,0,124,124,0,0,124,124,124,124,0,124,0,Sat Oct 26 21:28:40 2019,The main experiment item,yes,Sternbergtask.osexp,/Users/Linzi/Desktop,no,mono,no,18,no,white,no,yes,768,legacy,112,11,/Users/Linzi/Desktop/LM-subject-3M27.csv,legacy,3 5 4 7,Kafkaesque Koffka,3.2.8,1,y,0,left,right,right,left,NA,545,6330,8999,545,NA,2,legacy,4,1024,2,48000,-16,experiment,3,odd,3,821748,818183,5512,100580,819495,786241,5548,91578,823777,824329,819469,820522,11895,823777,NA,Sternberg task,117,100321,125,yes,1024
93.65079365,93.65079365,803.0714286,803.0714286,black,experiment,legacy,legacy,legacy,0,uniform,1,undefined,1,left,125,125,0,0,125,125,0,0,125,125,125,125,0,125,0,Sat Oct 26 21:28:40 2019,The main experiment item,yes,Sternbergtask.osexp,/Users/Linzi/Desktop,no,mono,no,18,no,white,no,yes,768,legacy,113,11,/Users/Linzi/Desktop/LM-subject-3M27.csv,legacy,5 2 6,Kafkaesque Koffka,3.2.8,2,y,0,left,right,right,left,NA,866,6330,8999,866,NA,2,legacy,3,1024,2,48000,-16,experiment,3,odd,2,827924,824361,5512,100580,825670,786241,5548,91578,829951,830824,825643,826697,11895,829950,NA,Sternberg task,118,101187,126,yes,1024
93.7007874,93.7007874,805.2283465,805.2283465,black,experiment,legacy,legacy,legacy,0,uniform,1,undefined,1,right,126,126,0,0,126,126,0,0,126,126,126,126,0,126,0,Sat Oct 26 21:28:40 2019,The main experiment item,yes,Sternbergtask.osexp,/Users/Linzi/Desktop,no,mono,no,18,no,white,no,yes,768,legacy,114,11,/Users/Linzi/Desktop/LM-subject-3M27.csv,legacy,7 1 8 4 9 3,Kafkaesque Koffka,3.2.8,0,n,0,right,right,right,right,NA,1077,6330,8999,1077,NA,2,legacy,6,1024,2,48000,-16,experiment,3,odd,6,834420,830855,5512,100580,832168,786241,5548,91578,836448,837531,832141,833194,11895,836448,NA,Sternberg task,119,102264,127,yes,1024
93.75,93.75,805.0859375,805.0859375,black,experiment,legacy,legacy,legacy,0,uniform,1,undefined,1,right,127,127,0,0,127,127,0,0,127,127,127,127,0,127,0,Sat Oct 26 21:28:40 2019,The main experiment item,yes,Sternbergtask.osexp,/Users/Linzi/Desktop,no,mono,no,18,no,white,no,yes,768,legacy,115,11,/Users/Linzi/Desktop/LM-subject-3M27.csv,legacy,6 3 1 7 9 8,Kafkaesque Koffka,3.2.8,0,n,0,right,right,right,right,NA,787,6330,8999,787,NA,2,legacy,6,1024,2,48000,-16,experiment,3,odd,4,841126,837563,5512,100580,838872,786241,5548,91578,843153,843947,838845,839899,11895,843153,NA,Sternberg task,120,103051,128,yes,1024
93.79844961,93.79844961,803.9689922,803.9689922,black,experiment,legacy,legacy,legacy,0,uniform,1,undefined,1,left,128,128,0,0,128,128,0,0,128,128,128,128,0,128,0,Sat Oct 26 21:28:40 2019,The main experiment item,yes,Sternbergtask.osexp,/Users/Linzi/Desktop,no,mono,no,18,no,white,no,yes,768,legacy,116,11,/Users/Linzi/Desktop/LM-subject-3M27.csv,legacy,4 1 5,Kafkaesque Koffka,3.2.8,2,y,0,left,right,right,left,NA,661,6330,8999,661,NA,2,legacy,3,1024,2,48000,-16,experiment,3,odd,1,847540,843979,5512,100580,845285,786241,5548,91578,849567,850235,845259,846313,11895,849567,NA,Sternberg task,121,103712,129,yes,1024
93.84615385,93.84615385,803.3384615,803.3384615,black,experiment,legacy,legacy,legacy,0,uniform,1,undefined,1,left,129,129,0,0,129,129,0,0,129,129,129,129,0,129,0,Sat Oct 26 21:28:40 2019,The main experiment item,yes,Sternbergtask.osexp,/Users/Linzi/Desktop,no,mono,no,18,no,white,no,yes,768,legacy,117,11,/Users/Linzi/Desktop/LM-subject-3M27.csv,legacy,9 3 8 2 1 4,Kafkaesque Koffka,3.2.8,3,y,0,left,right,right,left,NA,722,6330,8999,722,NA,2,legacy,6,1024,2,48000,-16,experiment,3,odd,8,853832,850266,5512,100580,851579,786241,5548,91578,855860,856589,851552,852605,11895,855860,NA,Sternberg task,122,104434,130,yes,1024
93.89312977,93.89312977,801.480916,801.480916,black,experiment,legacy,legacy,legacy,0,uniform,1,undefined,1,left,130,130,0,0,130,130,0,0,130,130,130,130,0,130,0,Sat Oct 26 21:28:40 2019,The main experiment item,yes,Sternbergtask.osexp,/Users/Linzi/Desktop,no,mono,no,18,no,white,no,yes,768,legacy,118,11,/Users/Linzi/Desktop/LM-subject-3M27.csv,legacy,8 9 5 6 7,Kafkaesque Koffka,3.2.8,1,y,0,left,right,right,left,NA,560,6330,8999,560,NA,2,legacy,5,1024,2,48000,-16,experiment,3,odd,8,860184,856621,5512,100580,857931,786241,5548,91578,862211,862778,857904,858957,11895,862211,NA,Sternberg task,123,104994,131,yes,1024
93.93939394,93.93939394,800.6969697,800.6969697,black,experiment,legacy,legacy,legacy,0,uniform,1,undefined,1,right,131,131,0,0,131,131,0,0,131,131,131,131,0,131,0,Sat Oct 26 21:28:40 2019,The main experiment item,yes,Sternbergtask.osexp,/Users/Linzi/Desktop,no,mono,no,18,no,white,no,yes,768,legacy,119,11,/Users/Linzi/Desktop/LM-subject-3M27.csv,legacy,4 8 1 2,Kafkaesque Koffka,3.2.8,0,n,0,right,right,right,right,NA,698,6330,8999,698,NA,2,legacy,4,1024,2,48000,-16,experiment,3,odd,7,866366,862809,5512,100580,864113,786241,5548,91578,868394,869098,864086,865139,11895,868394,NA,Sternberg task,124,105692,132,yes,1024
93.98496241,93.98496241,798.6015038,798.6015038,black,experiment,legacy,legacy,legacy,0,uniform,1,undefined,1,left,132,132,0,0,132,132,0,0,132,132,132,132,0,132,0,Sat Oct 26 21:28:40 2019,The main experiment item,yes,Sternbergtask.osexp,/Users/Linzi/Desktop,no,mono,no,18,no,white,no,yes,768,legacy,120,11,/Users/Linzi/Desktop/LM-subject-3M27.csv,legacy,7 6,Kafkaesque Koffka,3.2.8,2,y,0,left,right,right,left,NA,522,6330,8999,522,NA,2,legacy,2,1024,2,48000,-16,experiment,3,odd,6,872690,869130,5512,100580,870437,786241,5548,91578,874717,875247,870410,871464,11895,874717,NA,Sternberg task,125,106214,133,yes,1024
93.28358209,93.28358209,800.1791045,800.1791045,black,experiment,legacy,legacy,legacy,0,uniform,0,undefined,0,left,133,133,0,0,133,133,0,0,133,133,133,133,0,133,0,Sat Oct 26 21:28:40 2019,The main experiment item,yes,Sternbergtask.osexp,/Users/Linzi/Desktop,no,mono,no,18,no,white,no,yes,768,legacy,121,11,/Users/Linzi/Desktop/LM-subject-3M27.csv,legacy,7 1 8 5 6 2,Kafkaesque Koffka,3.2.8,2,y,0,right,right,right,right,NA,1010,6330,8999,1010,NA,2,legacy,6,1024,2,48000,-16,experiment,3,odd,1,878841,875278,5512,100580,876588,786241,5548,91578,880868,881885,876562,877614,11895,880868,NA,Sternberg task,125,107224,134,yes,1024
93.33333333,93.33333333,798.962963,798.962963,black,experiment,legacy,legacy,legacy,0,uniform,1,undefined,1,left,134,134,0,0,134,134,0,0,134,134,134,134,0,134,0,Sat Oct 26 21:28:40 2019,The main experiment item,yes,Sternbergtask.osexp,/Users/Linzi/Desktop,no,mono,no,18,no,white,no,yes,768,legacy,122,11,/Users/Linzi/Desktop/LM-subject-3M27.csv,legacy,2 4 8 5 1 3,Kafkaesque Koffka,3.2.8,1,y,0,left,right,right,left,NA,636,6330,8999,636,NA,2,legacy,6,1024,2,48000,-16,experiment,3,odd,2,885479,875278,5512,100580,883224,881916,5548,91578,887507,888150,883197,884250,11895,887506,NA,Sternberg task,126,107860,135,yes,1024
93.38235294,93.38235294,802.2279412,802.2279412,black,experiment,legacy,legacy,legacy,0,uniform,1,undefined,1,left,135,135,0,0,135,135,0,0,135,135,135,135,0,135,0,Sat Oct 26 21:28:40 2019,The main experiment item,yes,Sternbergtask.osexp,/Users/Linzi/Desktop,no,mono,no,18,no,white,no,yes,768,legacy,123,11,/Users/Linzi/Desktop/LM-subject-3M27.csv,legacy,3 5 9 6 2 4,Kafkaesque Koffka,3.2.8,1,y,0,left,right,right,left,NA,1243,6330,8999,1243,NA,2,legacy,6,1024,2,48000,-16,experiment,3,odd,3,891748,888182,5512,100580,889496,881916,5548,91578,893776,895026,889469,890522,11895,893776,NA,Sternberg task,127,109103,136,yes,1024
93.43065693,93.43065693,801.8759124,801.8759124,black,experiment,legacy,legacy,legacy,0,uniform,1,undefined,1,right,136,136,0,0,136,136,0,0,136,136,136,136,0,136,0,Sat Oct 26 21:28:40 2019,The main experiment item,yes,Sternbergtask.osexp,/Users/Linzi/Desktop,no,mono,no,18,no,white,no,yes,768,legacy,124,11,/Users/Linzi/Desktop/LM-subject-3M27.csv,legacy,3 9 1,Kafkaesque Koffka,3.2.8,0,n,0,right,right,right,right,NA,754,6330,8999,754,NA,2,legacy,3,1024,2,48000,-16,experiment,3,odd,7,898620,895058,5512,100580,896365,881916,5548,91578,900647,901408,896339,897393,11895,900647,NA,Sternberg task,128,109857,137,yes,1024
93.47826087,93.47826087,800.4710145,800.4710145,black,experiment,legacy,legacy,legacy,0,uniform,1,undefined,1,left,137,137,0,0,137,137,0,0,137,137,137,137,0,137,0,Sat Oct 26 21:28:40 2019,The main experiment item,yes,Sternbergtask.osexp,/Users/Linzi/Desktop,no,mono,no,18,no,white,no,yes,768,legacy,125,11,/Users/Linzi/Desktop/LM-subject-3M27.csv,legacy,8 9 6 1,Kafkaesque Koffka,3.2.8,2,y,0,left,right,right,left,NA,608,6330,8999,608,NA,2,legacy,4,1024,2,48000,-16,experiment,3,odd,9,905000,901440,5512,100580,902747,881916,5548,91578,907026,907641,902720,903773,11895,907025,NA,Sternberg task,129,110465,138,yes,1024