acc,accuracy,average_response_time,avg_rt,background,block,canvas_backend,clock_backend,color_backend,compensation,coordinates,correct,correct_instruction1,correct_new_keyboard_response,correct_response,count_ISI,count_correctFeedback,count_expSequence,count_experiment,count_experimentLoop,count_fixation,count_getting_started,count_incorrectFeeback,count_instruction1,count_instructions2,count_logger,count_memorySet,count_new_keyboard_response,count_practiceLoop,count_probe,count_thankYou,count_welcome,datetime,description,disable_garbage_collection,experiment_file,experiment_path,font_bold,font_family,font_italic,font_size,font_underline,foreground,form_clicks,fullscreen,height,keyboard_backend,live_row,live_row_practiceLoop,logfile,mouse_backend,numberSet,opensesame_codename,opensesame_version,posInSet,present,repeat_cycle,response,response_instruction1,response_instructions2,response_new_keyboard_response,response_thankYou,response_time,response_time_instruction1,response_time_instructions2,response_time_new_keyboard_response,response_time_thankYou,response_time_welcome,response_welcome,round_decimals,sampler_backend,setSize,sound_buf_size,sound_channels,sound_freq,sound_sample_size,start,subject_nr,subject_parity,target,time_ISI,time_correctFeedback,time_expSequence,time_experiment,time_experimentLoop,time_fixation,time_getting_started,time_incorrectFeeback,time_instruction1,time_instructions2,time_logger,time_memorySet,time_new_keyboard_response,time_practiceLoop,time_probe,time_thankYou,time_welcome,title,total_correct,total_response_time,total_responses,uniform_coordinates,width
100,100,1082,1082,black,practice,legacy,legacy,legacy,0,uniform,1,undefined,1,right,0,0,0,0,0,0,NA,0,0,0,0,0,0,0,0,0,NA,Fri Oct 25 19:51:04 2019,The main experiment item,yes,SternbergTask.osexp,/Users/juancastaneda/Documents/Grad School /Advanced Quantitative Methods & Experimental Design,no,mono,no,18,no,white,no,yes,768,legacy,0,0,/Users/juancastaneda/Documents/Grad School /Advanced Quantitative Methods & Experimental Design/Sterberg Task/JC-subject-4.csv,legacy,5 7 8 4 1 2,Kafkaesque Koffka,3.2.8,0,n,0,right,left,NA,right,NA,1082,19715,NA,1082,NA,NA,NA,2,legacy,6,1024,2,48000,-16,experiment,3,odd,6,24973,NA,22734,2728,NA,22746,NA,NA,2743,NA,28069,23759,26986,22468,26986,NA,NA,Sternberg Task,1,1082,1,yes,1024
100,100,814.5,814.5,black,practice,legacy,legacy,legacy,0,uniform,1,undefined,1,left,1,1,1,0,0,1,NA,1,0,0,1,1,1,0,1,0,NA,Fri Oct 25 19:51:04 2019,The main experiment item,yes,SternbergTask.osexp,/Users/juancastaneda/Documents/Grad School /Advanced Quantitative Methods & Experimental Design,no,mono,no,18,no,white,no,yes,768,legacy,1,1,/Users/juancastaneda/Documents/Grad School /Advanced Quantitative Methods & Experimental Design/Sterberg Task/JC-subject-4.csv,legacy,1 5 2 9,Kafkaesque Koffka,3.2.8,2,y,0,left,left,NA,left,NA,547,19715,NA,547,NA,NA,NA,2,legacy,4,1024,2,48000,-16,experiment,3,odd,5,31462,28128,29223,2728,NA,29235,NA,NA,2743,NA,34025,30247,33477,22468,33477,NA,NA,Sternberg Task,2,1629,2,yes,1024
100,100,921,921,black,practice,legacy,legacy,legacy,0,uniform,1,undefined,1,left,2,2,2,0,0,2,NA,2,0,0,2,2,2,0,2,0,NA,Fri Oct 25 19:51:04 2019,The main experiment item,yes,SternbergTask.osexp,/Users/juancastaneda/Documents/Grad School /Advanced Quantitative Methods & Experimental Design,no,mono,no,18,no,white,no,yes,768,legacy,2,2,/Users/juancastaneda/Documents/Grad School /Advanced Quantitative Methods & Experimental Design/Sterberg Task/JC-subject-4.csv,legacy,4 8,Kafkaesque Koffka,3.2.8,1,y,0,left,left,NA,left,NA,1134,19715,NA,1134,NA,NA,NA,2,legacy,2,1024,2,48000,-16,experiment,3,odd,4,37372,34041,35128,2728,NA,35140,NA,NA,2743,NA,40520,36154,39385,22468,39385,NA,NA,Sternberg Task,3,2763,3,yes,1024
100,100,878.25,878.25,black,practice,legacy,legacy,legacy,0,uniform,1,undefined,1,right,3,3,3,0,0,3,NA,3,0,0,3,3,3,0,3,0,NA,Fri Oct 25 19:51:04 2019,The main experiment item,yes,SternbergTask.osexp,/Users/juancastaneda/Documents/Grad School /Advanced Quantitative Methods & Experimental Design,no,mono,no,18,no,white,no,yes,768,legacy,3,3,/Users/juancastaneda/Documents/Grad School /Advanced Quantitative Methods & Experimental Design/Sterberg Task/JC-subject-4.csv,legacy,5,Kafkaesque Koffka,3.2.8,0,n,0,right,left,NA,right,NA,750,19715,NA,750,NA,NA,NA,2,legacy,1,1024,2,48000,-16,experiment,3,odd,3,43865,40535,41622,2728,NA,41635,NA,NA,2743,NA,46629,42649,45878,22468,45878,NA,NA,Sternberg Task,4,3513,4,yes,1024
100,100,863.4,863.4,black,practice,legacy,legacy,legacy,0,uniform,1,undefined,1,right,4,4,4,0,0,4,NA,4,0,0,4,4,4,0,4,0,NA,Fri Oct 25 19:51:04 2019,The main experiment item,yes,SternbergTask.osexp,/Users/juancastaneda/Documents/Grad School /Advanced Quantitative Methods & Experimental Design,no,mono,no,18,no,white,no,yes,768,legacy,4,4,/Users/juancastaneda/Documents/Grad School /Advanced Quantitative Methods & Experimental Design/Sterberg Task/JC-subject-4.csv,legacy,4 1 5,Kafkaesque Koffka,3.2.8,0,n,0,right,left,NA,right,NA,804,19715,NA,804,NA,NA,NA,2,legacy,3,1024,2,48000,-16,experiment,3,odd,2,49971,46645,47732,2728,NA,47744,NA,NA,2743,NA,52789,48758,51984,22468,51984,NA,NA,Sternberg Task,5,4317,5,yes,1024
100,100,845.3333333,845.3333333,black,practice,legacy,legacy,legacy,0,uniform,1,undefined,1,right,5,5,5,0,0,5,NA,5,0,0,5,5,5,0,5,0,NA,Fri Oct 25 19:51:04 2019,The main experiment item,yes,SternbergTask.osexp,/Users/juancastaneda/Documents/Grad School /Advanced Quantitative Methods & Experimental Design,no,mono,no,18,no,white,no,yes,768,legacy,5,5,/Users/juancastaneda/Documents/Grad School /Advanced Quantitative Methods & Experimental Design/Sterberg Task/JC-subject-4.csv,legacy,2 1,Kafkaesque Koffka,3.2.8,0,n,0,right,left,NA,right,NA,755,19715,NA,755,NA,NA,NA,2,legacy,2,1024,2,48000,-16,experiment,3,odd,5,56131,52805,53889,2728,NA,53901,NA,NA,2743,NA,58900,54915,58144,22468,58144,NA,NA,Sternberg Task,6,5072,6,yes,1024
100,100,786.2857143,786.2857143,black,practice,legacy,legacy,legacy,0,uniform,1,undefined,1,left,6,6,6,0,0,6,NA,6,0,0,6,6,6,0,6,0,NA,Fri Oct 25 19:51:04 2019,The main experiment item,yes,SternbergTask.osexp,/Users/juancastaneda/Documents/Grad School /Advanced Quantitative Methods & Experimental Design,no,mono,no,18,no,white,no,yes,768,legacy,6,6,/Users/juancastaneda/Documents/Grad School /Advanced Quantitative Methods & Experimental Design/Sterberg Task/JC-subject-4.csv,legacy,6,Kafkaesque Koffka,3.2.8,1,y,0,left,left,NA,left,NA,432,19715,NA,432,NA,NA,NA,2,legacy,1,1024,2,48000,-16,experiment,3,odd,6,62246,58916,60001,2728,NA,60014,NA,NA,2743,NA,64693,61029,64260,22468,64259,NA,NA,Sternberg Task,7,5504,7,yes,1024
100,100,834.375,834.375,black,practice,legacy,legacy,legacy,0,uniform,1,undefined,1,left,7,7,7,0,0,7,NA,7,0,0,7,7,7,0,7,0,NA,Fri Oct 25 19:51:04 2019,The main experiment item,yes,SternbergTask.osexp,/Users/juancastaneda/Documents/Grad School /Advanced Quantitative Methods & Experimental Design,no,mono,no,18,no,white,no,yes,768,legacy,7,7,/Users/juancastaneda/Documents/Grad School /Advanced Quantitative Methods & Experimental Design/Sterberg Task/JC-subject-4.csv,legacy,4 3 1 7 9 8,Kafkaesque Koffka,3.2.8,1,y,0,left,left,NA,left,NA,1171,19715,NA,1171,NA,NA,NA,2,legacy,6,1024,2,48000,-16,experiment,3,odd,4,68039,64709,65797,2728,NA,65809,NA,NA,2743,NA,71225,66823,70053,22468,70053,NA,NA,Sternberg Task,8,6675,8,yes,1024
100,100,874.7777778,874.7777778,black,practice,legacy,legacy,legacy,0,uniform,1,undefined,1,left,8,8,8,0,0,8,NA,8,0,0,8,8,8,0,8,0,NA,Fri Oct 25 19:51:04 2019,The main experiment item,yes,SternbergTask.osexp,/Users/juancastaneda/Documents/Grad School /Advanced Quantitative Methods & Experimental Design,no,mono,no,18,no,white,no,yes,768,legacy,8,8,/Users/juancastaneda/Documents/Grad School /Advanced Quantitative Methods & Experimental Design/Sterberg Task/JC-subject-4.csv,legacy,1 7 9 8 5,Kafkaesque Koffka,3.2.8,4,y,0,left,left,NA,left,NA,1198,19715,NA,1198,NA,NA,NA,2,legacy,5,1024,2,48000,-16,experiment,3,odd,8,74574,71241,72328,2728,NA,72340,NA,NA,2743,NA,77787,73356,76588,22468,76588,NA,NA,Sternberg Task,9,7873,9,yes,1024
100,100,882.4,882.4,black,practice,legacy,legacy,legacy,0,uniform,1,undefined,1,right,9,9,9,0,0,9,NA,9,0,0,9,9,9,0,9,0,NA,Fri Oct 25 19:51:04 2019,The main experiment item,yes,SternbergTask.osexp,/Users/juancastaneda/Documents/Grad School /Advanced Quantitative Methods & Experimental Design,no,mono,no,18,no,white,no,yes,768,legacy,9,9,/Users/juancastaneda/Documents/Grad School /Advanced Quantitative Methods & Experimental Design/Sterberg Task/JC-subject-4.csv,legacy,9 6 7 4 5,Kafkaesque Koffka,3.2.8,0,n,0,right,left,NA,right,NA,951,19715,NA,951,NA,NA,NA,2,legacy,5,1024,2,48000,-16,experiment,3,odd,3,81133,77803,78891,2728,NA,78903,NA,NA,2743,NA,84099,79917,83146,22468,83146,NA,NA,Sternberg Task,10,8824,10,yes,1024
100,100,866.2727273,866.2727273,black,practice,legacy,legacy,legacy,0,uniform,1,undefined,1,right,10,10,10,0,0,10,NA,10,0,0,10,10,10,0,10,0,NA,Fri Oct 25 19:51:04 2019,The main experiment item,yes,SternbergTask.osexp,/Users/juancastaneda/Documents/Grad School /Advanced Quantitative Methods & Experimental Design,no,mono,no,18,no,white,no,yes,768,legacy,10,10,/Users/juancastaneda/Documents/Grad School /Advanced Quantitative Methods & Experimental Design/Sterberg Task/JC-subject-4.csv,legacy,3 1 9 4,Kafkaesque Koffka,3.2.8,0,n,0,right,left,NA,right,NA,705,19715,NA,705,NA,NA,NA,2,legacy,4,1024,2,48000,-16,experiment,3,odd,6,87446,84115,85201,2728,NA,85214,NA,NA,2743,NA,90166,86229,89460,22468,89460,NA,NA,Sternberg Task,11,9529,11,yes,1024
100,100,869.5833333,869.5833333,black,practice,legacy,legacy,legacy,0,uniform,1,undefined,1,left,11,11,11,0,0,11,NA,11,0,0,11,11,11,0,11,0,NA,Fri Oct 25 19:51:04 2019,The main experiment item,yes,SternbergTask.osexp,/Users/juancastaneda/Documents/Grad School /Advanced Quantitative Methods & Experimental Design,no,mono,no,18,no,white,no,yes,768,legacy,11,11,/Users/juancastaneda/Documents/Grad School /Advanced Quantitative Methods & Experimental Design/Sterberg Task/JC-subject-4.csv,legacy,2 9 4,Kafkaesque Koffka,3.2.8,3,y,0,left,left,NA,left,NA,906,19715,NA,906,NA,NA,NA,2,legacy,3,1024,2,48000,-16,experiment,3,odd,4,93513,90182,91269,2728,NA,91282,NA,NA,2743,NA,96435,92296,95527,22468,95527,NA,NA,Sternberg Task,12,10435,12,yes,1024
92.30769231,92.30769231,858.0769231,858.0769231,black,experiment,legacy,legacy,legacy,0,uniform,0,undefined,0,left,12,12,12,0,0,12,NA,12,0,0,12,12,12,0,12,0,NA,Fri Oct 25 19:51:04 2019,The main experiment item,yes,SternbergTask.osexp,/Users/juancastaneda/Documents/Grad School /Advanced Quantitative Methods & Experimental Design,no,mono,no,18,no,white,no,yes,768,legacy,0,11,/Users/juancastaneda/Documents/Grad School /Advanced Quantitative Methods & Experimental Design/Sterberg Task/JC-subject-4.csv,legacy,2 6 1 7 4,Kafkaesque Koffka,3.2.8,2,y,0,right,left,left,right,NA,720,19715,16103,720,NA,NA,NA,2,legacy,5,1024,2,48000,-16,experiment,3,odd,6,115932,96450,113687,2728,113592,113700,NA,NA,2743,97488,118668,114715,117946,22468,117945,NA,NA,Sternberg Task,12,11155,13,yes,1024
92.85714286,92.85714286,862.5,862.5,black,experiment,legacy,legacy,legacy,0,uniform,1,undefined,1,right,13,13,13,0,0,13,NA,13,0,0,13,13,13,0,13,0,NA,Fri Oct 25 19:51:04 2019,The main experiment item,yes,SternbergTask.osexp,/Users/juancastaneda/Documents/Grad School /Advanced Quantitative Methods & Experimental Design,no,mono,no,18,no,white,no,yes,768,legacy,1,11,/Users/juancastaneda/Documents/Grad School /Advanced Quantitative Methods & Experimental Design/Sterberg Task/JC-subject-4.csv,legacy,1 8 7,Kafkaesque Koffka,3.2.8,0,n,0,right,left,left,right,NA,920,19715,16103,920,NA,NA,NA,2,legacy,3,1024,2,48000,-16,experiment,3,odd,4,122014,96450,119771,2728,113592,119784,NA,118684,2743,97488,124949,120798,124028,22468,124028,NA,NA,Sternberg Task,13,12075,14,yes,1024
93.33333333,93.33333333,848.5333333,848.5333333,black,experiment,legacy,legacy,legacy,0,uniform,1,undefined,1,left,14,14,14,0,0,14,NA,14,0,0,14,14,14,0,14,0,NA,Fri Oct 25 19:51:04 2019,The main experiment item,yes,SternbergTask.osexp,/Users/juancastaneda/Documents/Grad School /Advanced Quantitative Methods & Experimental Design,no,mono,no,18,no,white,no,yes,768,legacy,2,11,/Users/juancastaneda/Documents/Grad School /Advanced Quantitative Methods & Experimental Design/Sterberg Task/JC-subject-4.csv,legacy,7 1 3,Kafkaesque Koffka,3.2.8,2,y,0,left,left,left,left,NA,653,19715,16103,653,NA,NA,NA,2,legacy,3,1024,2,48000,-16,experiment,3,odd,1,128295,124963,126050,2728,113592,126063,NA,118684,2743,97488,130964,127078,130309,22468,130309,NA,NA,Sternberg Task,14,12728,15,yes,1024
93.75,93.75,843.875,843.875,black,experiment,legacy,legacy,legacy,0,uniform,1,undefined,1,left,15,15,15,0,0,15,NA,15,0,0,15,15,15,0,15,0,NA,Fri Oct 25 19:51:04 2019,The main experiment item,yes,SternbergTask.osexp,/Users/juancastaneda/Documents/Grad School /Advanced Quantitative Methods & Experimental Design,no,mono,no,18,no,white,no,yes,768,legacy,3,11,/Users/juancastaneda/Documents/Grad School /Advanced Quantitative Methods & Experimental Design/Sterberg Task/JC-subject-4.csv,legacy,1 4 9 3 2 5,Kafkaesque Koffka,3.2.8,3,y,0,left,left,left,left,NA,774,19715,16103,774,NA,NA,NA,2,legacy,6,1024,2,48000,-16,experiment,3,odd,9,134311,130980,132068,2728,113592,132080,NA,118684,2743,97488,137100,133094,136324,22468,136324,NA,NA,Sternberg Task,15,13502,16,yes,1024
94.11764706,94.11764706,849.6470588,849.6470588,black,experiment,legacy,legacy,legacy,0,uniform,1,undefined,1,left,16,16,16,0,0,16,NA,16,0,0,16,16,16,0,16,0,NA,Fri Oct 25 19:51:04 2019,The main experiment item,yes,SternbergTask.osexp,/Users/juancastaneda/Documents/Grad School /Advanced Quantitative Methods & Experimental Design,no,mono,no,18,no,white,no,yes,768,legacy,4,11,/Users/juancastaneda/Documents/Grad School /Advanced Quantitative Methods & Experimental Design/Sterberg Task/JC-subject-4.csv,legacy,4 3 2 5 8,Kafkaesque Koffka,3.2.8,2,y,0,left,left,left,left,NA,942,19715,16103,942,NA,NA,NA,2,legacy,5,1024,2,48000,-16,experiment,3,odd,3,140446,137114,138201,2728,113592,138214,NA,118684,2743,97488,143404,139229,142460,22468,142460,NA,NA,Sternberg Task,16,14444,17,yes,1024
94.44444444,94.44444444,841.4444444,841.4444444,black,experiment,legacy,legacy,legacy,0,uniform,1,undefined,1,right,17,17,17,0,0,17,NA,17,0,0,17,17,17,0,17,0,NA,Fri Oct 25 19:51:04 2019,The main experiment item,yes,SternbergTask.osexp,/Users/juancastaneda/Documents/Grad School /Advanced Quantitative Methods & Experimental Design,no,mono,no,18,no,white,no,yes,768,legacy,5,11,/Users/juancastaneda/Documents/Grad School /Advanced Quantitative Methods & Experimental Design/Sterberg Task/JC-subject-4.csv,legacy,8 9,Kafkaesque Koffka,3.2.8,0,n,0,right,left,left,right,NA,702,19715,16103,702,NA,NA,NA,2,legacy,2,1024,2,48000,-16,experiment,3,odd,5,146751,143420,144507,2728,113592,144520,NA,118684,2743,97488,149468,145534,148765,22468,148764,NA,NA,Sternberg Task,17,15146,18,yes,1024
94.73684211,94.73684211,842.5263158,842.5263158,black,experiment,legacy,legacy,legacy,0,uniform,1,undefined,1,right,18,18,18,0,0,18,NA,18,0,0,18,18,18,0,18,0,NA,Fri Oct 25 19:51:04 2019,The main experiment item,yes,SternbergTask.osexp,/Users/juancastaneda/Documents/Grad School /Advanced Quantitative Methods & Experimental Design,no,mono,no,18,no,white,no,yes,768,legacy,6,11,/Users/juancastaneda/Documents/Grad School /Advanced Quantitative Methods & Experimental Design/Sterberg Task/JC-subject-4.csv,legacy,5 9 2 3,Kafkaesque Koffka,3.2.8,0,n,0,right,left,left,right,NA,862,19715,16103,862,NA,NA,NA,2,legacy,4,1024,2,48000,-16,experiment,3,odd,8,152816,149484,150572,2728,113592,150584,NA,118684,2743,97488,155694,151599,154830,22468,154830,NA,NA,Sternberg Task,18,16008,19,yes,1024
95,95,834.75,834.75,black,experiment,legacy,legacy,legacy,0,uniform,1,undefined,1,right,19,19,19,0,0,19,NA,19,0,0,19,19,19,0,19,0,NA,Fri Oct 25 19:51:04 2019,The main experiment item,yes,SternbergTask.osexp,/Users/juancastaneda/Documents/Grad School /Advanced Quantitative Methods & Experimental Design,no,mono,no,18,no,white,no,yes,768,legacy,7,11,/Users/juancastaneda/Documents/Grad School /Advanced Quantitative Methods & Experimental Design/Sterberg Task/JC-subject-4.csv,legacy,6 3 1 7 9 8,Kafkaesque Koffka,3.2.8,0,n,0,right,left,left,right,NA,687,19715,16103,687,NA,NA,NA,2,legacy,6,1024,2,48000,-16,experiment,3,odd,4,159041,155710,156798,2728,113592,156810,NA,118684,2743,97488,161743,157825,161055,22468,161054,NA,NA,Sternberg Task,19,16695,20,yes,1024
95.23809524,95.23809524,842.5714286,842.5714286,black,experiment,legacy,legacy,legacy,0,uniform,1,undefined,1,left,20,20,20,0,0,20,NA,20,0,0,20,20,20,0,20,0,NA,Fri Oct 25 19:51:04 2019,The main experiment item,yes,SternbergTask.osexp,/Users/juancastaneda/Documents/Grad School /Advanced Quantitative Methods & Experimental Design,no,mono,no,18,no,white,no,yes,768,legacy,8,11,/Users/juancastaneda/Documents/Grad School /Advanced Quantitative Methods & Experimental Design/Sterberg Task/JC-subject-4.csv,legacy,4 9 7 8 5 3,Kafkaesque Koffka,3.2.8,4,y,0,left,left,left,left,NA,999,19715,16103,999,NA,NA,NA,2,legacy,6,1024,2,48000,-16,experiment,3,odd,8,165090,161759,162846,2728,113592,162859,NA,118684,2743,97488,168104,163874,167104,22468,167104,NA,NA,Sternberg Task,20,17694,21,yes,1024
95.45454545,95.45454545,836.2727273,836.2727273,black,experiment,legacy,legacy,legacy,0,uniform,1,undefined,1,left,21,21,21,0,0,21,NA,21,0,0,21,21,21,0,21,0,NA,Fri Oct 25 19:51:04 2019,The main experiment item,yes,SternbergTask.osexp,/Users/juancastaneda/Documents/Grad School /Advanced Quantitative Methods & Experimental Design,no,mono,no,18,no,white,no,yes,768,legacy,9,11,/Users/juancastaneda/Documents/Grad School /Advanced Quantitative Methods & Experimental Design/Sterberg Task/JC-subject-4.csv,legacy,9 1 6 7 8,Kafkaesque Koffka,3.2.8,1,y,0,left,left,left,left,NA,704,19715,16103,704,NA,NA,NA,2,legacy,5,1024,2,48000,-16,experiment,3,odd,9,171449,168118,169205,2728,113592,169218,NA,118684,2743,97488,174168,170232,173462,22468,173462,NA,NA,Sternberg Task,21,18398,22,yes,1024
95.65217391,95.65217391,836.4347826,836.4347826,black,experiment,legacy,legacy,legacy,0,uniform,1,undefined,1,left,22,22,22,0,0,22,NA,22,0,0,22,22,22,0,22,0,NA,Fri Oct 25 19:51:04 2019,The main experiment item,yes,SternbergTask.osexp,/Users/juancastaneda/Documents/Grad School /Advanced Quantitative Methods & Experimental Design,no,mono,no,18,no,white,no,yes,768,legacy,10,11,/Users/juancastaneda/Documents/Grad School /Advanced Quantitative Methods & Experimental Design/Sterberg Task/JC-subject-4.csv,legacy,9 5 8 1,Kafkaesque Koffka,3.2.8,2,y,0,left,left,left,left,NA,840,19715,16103,840,NA,NA,NA,2,legacy,4,1024,2,48000,-16,experiment,3,odd,5,177515,174184,175271,2728,113592,175283,NA,118684,2743,97488,180371,176298,179529,22468,179529,NA,NA,Sternberg Task,22,19238,23,yes,1024
95.83333333,95.83333333,841.25,841.25,black,experiment,legacy,legacy,legacy,0,uniform,1,undefined,1,right,23,23,23,0,0,23,NA,23,0,0,23,23,23,0,23,0,NA,Fri Oct 25 19:51:04 2019,The main experiment item,yes,SternbergTask.osexp,/Users/juancastaneda/Documents/Grad School /Advanced Quantitative Methods & Experimental Design,no,mono,no,18,no,white,no,yes,768,legacy,11,11,/Users/juancastaneda/Documents/Grad School /Advanced Quantitative Methods & Experimental Design/Sterberg Task/JC-subject-4.csv,legacy,3 4 9 6 7 8,Kafkaesque Koffka,3.2.8,0,n,0,right,left,left,right,NA,952,19715,16103,952,NA,NA,NA,2,legacy,6,1024,2,48000,-16,experiment,3,odd,2,183718,180386,181474,2728,113592,181487,NA,118684,2743,97488,186686,182502,185732,22468,185732,NA,NA,Sternberg Task,23,20190,24,yes,1024
96,96,827.24,827.24,black,experiment,legacy,legacy,legacy,0,uniform,1,undefined,1,left,24,24,24,0,0,24,NA,24,0,0,24,24,24,0,24,0,NA,Fri Oct 25 19:51:04 2019,The main experiment item,yes,SternbergTask.osexp,/Users/juancastaneda/Documents/Grad School /Advanced Quantitative Methods & Experimental Design,no,mono,no,18,no,white,no,yes,768,legacy,12,11,/Users/juancastaneda/Documents/Grad School /Advanced Quantitative Methods & Experimental Design/Sterberg Task/JC-subject-4.csv,legacy,4,Kafkaesque Koffka,3.2.8,1,y,0,left,left,left,left,NA,491,19715,16103,491,NA,NA,NA,2,legacy,1,1024,2,48000,-16,experiment,3,odd,4,190027,186702,187783,2728,113592,187796,NA,118684,2743,97488,192534,188811,192041,22468,192040,NA,NA,Sternberg Task,24,20681,25,yes,1024
96.15384615,96.15384615,845.2307692,845.2307692,black,experiment,legacy,legacy,legacy,0,uniform,1,undefined,1,right,25,25,25,0,0,25,NA,25,0,0,25,25,25,0,25,0,NA,Fri Oct 25 19:51:04 2019,The main experiment item,yes,SternbergTask.osexp,/Users/juancastaneda/Documents/Grad School /Advanced Quantitative Methods & Experimental Design,no,mono,no,18,no,white,no,yes,768,legacy,13,11,/Users/juancastaneda/Documents/Grad School /Advanced Quantitative Methods & Experimental Design/Sterberg Task/JC-subject-4.csv,legacy,1 6 4 3 9 7,Kafkaesque Koffka,3.2.8,0,n,0,right,left,left,right,NA,1295,19715,16103,1295,NA,NA,NA,2,legacy,6,1024,2,48000,-16,experiment,3,odd,8,195876,192550,193633,2728,113592,193645,NA,118684,2743,97488,199186,194660,197890,22468,197890,NA,NA,Sternberg Task,25,21976,26,yes,1024
96.2962963,96.2962963,875.1111111,875.1111111,black,experiment,legacy,legacy,legacy,0,uniform,1,undefined,1,right,26,26,26,0,0,26,NA,26,0,0,26,26,26,0,26,0,NA,Fri Oct 25 19:51:04 2019,The main experiment item,yes,SternbergTask.osexp,/Users/juancastaneda/Documents/Grad School /Advanced Quantitative Methods & Experimental Design,no,mono,no,18,no,white,no,yes,768,legacy,14,11,/Users/juancastaneda/Documents/Grad School /Advanced Quantitative Methods & Experimental Design/Sterberg Task/JC-subject-4.csv,legacy,1 3 2 6 9,Kafkaesque Koffka,3.2.8,0,n,0,right,left,left,right,NA,1652,19715,16103,1652,NA,NA,NA,2,legacy,5,1024,2,48000,-16,experiment,3,odd,5,202530,199202,200284,2728,113592,200297,NA,118684,2743,97488,206197,201312,204544,22468,204543,NA,NA,Sternberg Task,26,23628,27,yes,1024
96.42857143,96.42857143,899.1428571,899.1428571,black,experiment,legacy,legacy,legacy,0,uniform,1,undefined,1,left,27,27,27,0,0,27,NA,27,0,0,27,27,27,0,27,0,NA,Fri Oct 25 19:51:04 2019,The main experiment item,yes,SternbergTask.osexp,/Users/juancastaneda/Documents/Grad School /Advanced Quantitative Methods & Experimental Design,no,mono,no,18,no,white,no,yes,768,legacy,15,11,/Users/juancastaneda/Documents/Grad School /Advanced Quantitative Methods & Experimental Design/Sterberg Task/JC-subject-4.csv,legacy,6 9 7 4 5 1,Kafkaesque Koffka,3.2.8,2,y,0,left,left,left,left,NA,1548,19715,16103,1548,NA,NA,NA,2,legacy,6,1024,2,48000,-16,experiment,3,odd,9,209541,206214,207296,2728,113592,207309,NA,118684,2743,97488,213103,208323,211554,22468,211554,NA,NA,Sternberg Task,27,25176,28,yes,1024
96.55172414,96.55172414,895.4827586,895.4827586,black,experiment,legacy,legacy,legacy,0,uniform,1,undefined,1,left,28,28,28,0,0,28,NA,28,0,0,28,28,28,0,28,0,NA,Fri Oct 25 19:51:04 2019,The main experiment item,yes,SternbergTask.osexp,/Users/juancastaneda/Documents/Grad School /Advanced Quantitative Methods & Experimental Design,no,mono,no,18,no,white,no,yes,768,legacy,16,11,/Users/juancastaneda/Documents/Grad School /Advanced Quantitative Methods & Experimental Design/Sterberg Task/JC-subject-4.csv,legacy,8 9 5 7 1 6,Kafkaesque Koffka,3.2.8,4,y,0,left,left,left,left,NA,793,19715,16103,793,NA,NA,NA,2,legacy,6,1024,2,48000,-16,experiment,3,odd,7,216446,213119,214201,2728,113592,214213,NA,118684,2743,97488,219253,215229,218459,22468,218459,NA,NA,Sternberg Task,28,25969,29,yes,1024
96.66666667,96.66666667,896.4666667,896.4666667,black,experiment,legacy,legacy,legacy,0,uniform,1,undefined,1,right,29,29,29,0,0,29,NA,29,0,0,29,29,29,0,29,0,NA,Fri Oct 25 19:51:04 2019,The main experiment item,yes,SternbergTask.osexp,/Users/juancastaneda/Documents/Grad School /Advanced Quantitative Methods & Experimental Design,no,mono,no,18,no,white,no,yes,768,legacy,17,11,/Users/juancastaneda/Documents/Grad School /Advanced Quantitative Methods & Experimental Design/Sterberg Task/JC-subject-4.csv,legacy,3 9 1,Kafkaesque Koffka,3.2.8,0,n,0,right,left,left,right,NA,925,19715,16103,925,NA,NA,NA,2,legacy,3,1024,2,48000,-16,experiment,3,odd,7,222596,219270,220351,2728,113592,220364,NA,118684,2743,97488,225536,221379,224610,22468,224609,NA,NA,Sternberg Task,29,26894,30,yes,1024
93.5483871,93.5483871,895.9032258,895.9032258,black,experiment,legacy,legacy,legacy,0,uniform,0,undefined,0,right,30,30,30,0,0,30,NA,30,0,0,30,30,30,0,30,0,NA,Fri Oct 25 19:51:04 2019,The main experiment item,yes,SternbergTask.osexp,/Users/juancastaneda/Documents/Grad School /Advanced Quantitative Methods & Experimental Design,no,mono,no,18,no,white,no,yes,768,legacy,18,11,/Users/juancastaneda/Documents/Grad School /Advanced Quantitative Methods & Experimental Design/Sterberg Task/JC-subject-4.csv,legacy,4 8 1 2,Kafkaesque Koffka,3.2.8,0,n,0,left,left,left,left,NA,879,19715,16103,879,NA,NA,NA,2,legacy,4,1024,2,48000,-16,experiment,3,odd,7,228882,225551,226637,2728,113592,226650,NA,118684,2743,97488,231777,227665,230896,22468,230896,NA,NA,Sternberg Task,29,27773,31,yes,1024
93.75,93.75,894.4375,894.4375,black,experiment,legacy,legacy,legacy,0,uniform,1,undefined,1,right,31,31,31,0,0,31,NA,31,0,0,31,31,31,0,31,0,NA,Fri Oct 25 19:51:04 2019,The main experiment item,yes,SternbergTask.osexp,/Users/juancastaneda/Documents/Grad School /Advanced Quantitative Methods & Experimental Design,no,mono,no,18,no,white,no,yes,768,legacy,19,11,/Users/juancastaneda/Documents/Grad School /Advanced Quantitative Methods & Experimental Design/Sterberg Task/JC-subject-4.csv,legacy,1 4 9 2 5,Kafkaesque Koffka,3.2.8,0,n,0,right,left,left,right,NA,849,19715,16103,849,NA,NA,NA,2,legacy,5,1024,2,48000,-16,experiment,3,odd,7,235125,225551,232881,2728,113592,232894,NA,231793,2743,97488,237990,233909,237139,22468,237139,NA,NA,Sternberg Task,30,28622,32,yes,1024
93.93939394,93.93939394,890.7575758,890.7575758,black,experiment,legacy,legacy,legacy,0,uniform,1,undefined,1,left,32,32,32,0,0,32,NA,32,0,0,32,32,32,0,32,0,NA,Fri Oct 25 19:51:04 2019,The main experiment item,yes,SternbergTask.osexp,/Users/juancastaneda/Documents/Grad School /Advanced Quantitative Methods & Experimental Design,no,mono,no,18,no,white,no,yes,768,legacy,20,11,/Users/juancastaneda/Documents/Grad School /Advanced Quantitative Methods & Experimental Design/Sterberg Task/JC-subject-4.csv,legacy,3 9 7 6 4,Kafkaesque Koffka,3.2.8,3,y,0,left,left,left,left,NA,773,19715,16103,773,NA,NA,NA,2,legacy,5,1024,2,48000,-16,experiment,3,odd,7,241336,238005,239091,2728,113592,239104,NA,231793,2743,97488,244124,240119,243350,22468,243350,NA,NA,Sternberg Task,31,29395,33,yes,1024
94.11764706,94.11764706,884.6470588,884.6470588,black,experiment,legacy,legacy,legacy,0,uniform,1,undefined,1,right,33,33,33,0,0,33,NA,33,0,0,33,33,33,0,33,0,NA,Fri Oct 25 19:51:04 2019,The main experiment item,yes,SternbergTask.osexp,/Users/juancastaneda/Documents/Grad School /Advanced Quantitative Methods & Experimental Design,no,mono,no,18,no,white,no,yes,768,legacy,21,11,/Users/juancastaneda/Documents/Grad School /Advanced Quantitative Methods & Experimental Design/Sterberg Task/JC-subject-4.csv,legacy,7 9,Kafkaesque Koffka,3.2.8,0,n,0,right,left,left,right,NA,683,19715,16103,683,NA,NA,NA,2,legacy,2,1024,2,48000,-16,experiment,3,odd,1,247471,244140,245226,2728,113592,245239,NA,231793,2743,97488,250169,246253,249485,22468,249485,NA,NA,Sternberg Task,32,30078,34,yes,1024
91.42857143,91.42857143,916.5142857,916.5142857,black,experiment,legacy,legacy,legacy,0,uniform,0,undefined,0,left,34,34,34,0,0,34,NA,34,0,0,34,34,34,0,34,0,NA,Fri Oct 25 19:51:04 2019,The main experiment item,yes,SternbergTask.osexp,/Users/juancastaneda/Documents/Grad School /Advanced Quantitative Methods & Experimental Design,no,mono,no,18,no,white,no,yes,768,legacy,22,11,/Users/juancastaneda/Documents/Grad School /Advanced Quantitative Methods & Experimental Design/Sterberg Task/JC-subject-4.csv,legacy,6 2,Kafkaesque Koffka,3.2.8,1,y,0,None,left,left,None,NA,2000,19715,16103,2000,NA,NA,NA,2,legacy,2,1024,2,48000,-16,experiment,3,odd,6,253516,250185,251272,2728,113592,251284,NA,231793,2743,97488,257531,252299,255531,22468,255531,NA,NA,Sternberg Task,32,32078,35,yes,1024
91.66666667,91.66666667,906.0833333,906.0833333,black,experiment,legacy,legacy,legacy,0,uniform,1,undefined,1,right,35,35,35,0,0,35,NA,35,0,0,35,35,35,0,35,0,NA,Fri Oct 25 19:51:04 2019,The main experiment item,yes,SternbergTask.osexp,/Users/juancastaneda/Documents/Grad School /Advanced Quantitative Methods & Experimental Design,no,mono,no,18,no,white,no,yes,768,legacy,23,11,/Users/juancastaneda/Documents/Grad School /Advanced Quantitative Methods & Experimental Design/Sterberg Task/JC-subject-4.csv,legacy,5 7 3,Kafkaesque Koffka,3.2.8,0,n,0,right,left,left,right,NA,541,19715,16103,541,NA,NA,NA,2,legacy,3,1024,2,48000,-16,experiment,3,odd,9,260879,250185,258635,2728,113592,258647,NA,257548,2743,97488,263436,259662,262893,22468,262892,NA,NA,Sternberg Task,33,32619,36,yes,1024
91.89189189,91.89189189,895.8648649,895.8648649,black,experiment,legacy,legacy,legacy,0,uniform,1,undefined,1,right,36,36,36,0,0,36,NA,36,0,0,36,36,36,0,36,0,NA,Fri Oct 25 19:51:04 2019,The main experiment item,yes,SternbergTask.osexp,/Users/juancastaneda/Documents/Grad School /Advanced Quantitative Methods & Experimental Design,no,mono,no,18,no,white,no,yes,768,legacy,24,11,/Users/juancastaneda/Documents/Grad School /Advanced Quantitative Methods & Experimental Design/Sterberg Task/JC-subject-4.csv,legacy,1 6 4,Kafkaesque Koffka,3.2.8,0,n,0,right,left,left,right,NA,528,19715,16103,528,NA,NA,NA,2,legacy,3,1024,2,48000,-16,experiment,3,odd,7,266783,263452,264539,2728,113592,264551,NA,257548,2743,97488,269326,265566,268797,22468,268796,NA,NA,Sternberg Task,34,33147,37,yes,1024
92.10526316,92.10526316,892.0263158,892.0263158,black,experiment,legacy,legacy,legacy,0,uniform,1,undefined,1,left,37,37,37,0,0,37,NA,37,0,0,37,37,37,0,37,0,NA,Fri Oct 25 19:51:04 2019,The main experiment item,yes,SternbergTask.osexp,/Users/juancastaneda/Documents/Grad School /Advanced Quantitative Methods & Experimental Design,no,mono,no,18,no,white,no,yes,768,legacy,25,11,/Users/juancastaneda/Documents/Grad School /Advanced Quantitative Methods & Experimental Design/Sterberg Task/JC-subject-4.csv,legacy,8,Kafkaesque Koffka,3.2.8,1,y,0,left,left,left,left,NA,750,19715,16103,750,NA,NA,NA,2,legacy,1,1024,2,48000,-16,experiment,3,odd,8,272671,269342,270427,2728,113592,270440,NA,257548,2743,97488,275435,271454,274684,22468,274684,NA,NA,Sternberg Task,35,33897,38,yes,1024
92.30769231,92.30769231,896.7948718,896.7948718,black,experiment,legacy,legacy,legacy,0,uniform,1,undefined,1,left,38,38,38,0,0,38,NA,38,0,0,38,38,38,0,38,0,NA,Fri Oct 25 19:51:04 2019,The main experiment item,yes,SternbergTask.osexp,/Users/juancastaneda/Documents/Grad School /Advanced Quantitative Methods & Experimental Design,no,mono,no,18,no,white,no,yes,768,legacy,26,11,/Users/juancastaneda/Documents/Grad School /Advanced Quantitative Methods & Experimental Design/Sterberg Task/JC-subject-4.csv,legacy,4 1 8 7 5,Kafkaesque Koffka,3.2.8,3,y,0,left,left,left,left,NA,1078,19715,16103,1078,NA,NA,NA,2,legacy,5,1024,2,48000,-16,experiment,3,odd,8,278784,275451,276539,2728,113592,276552,NA,257548,2743,97488,281878,277567,280798,22468,280798,NA,NA,Sternberg Task,36,34975,39,yes,1024
92.5,92.5,891,891,black,experiment,legacy,legacy,legacy,0,uniform,1,undefined,1,right,39,39,39,0,0,39,NA,39,0,0,39,39,39,0,39,0,NA,Fri Oct 25 19:51:04 2019,The main experiment item,yes,SternbergTask.osexp,/Users/juancastaneda/Documents/Grad School /Advanced Quantitative Methods & Experimental Design,no,mono,no,18,no,white,no,yes,768,legacy,27,11,/Users/juancastaneda/Documents/Grad School /Advanced Quantitative Methods & Experimental Design/Sterberg Task/JC-subject-4.csv,legacy,4 1,Kafkaesque Koffka,3.2.8,0,n,0,right,left,left,right,NA,665,19715,16103,665,NA,NA,NA,2,legacy,2,1024,2,48000,-16,experiment,3,odd,6,285223,281896,282981,2728,113592,282994,NA,257548,2743,97488,287903,284007,287236,22468,287236,NA,NA,Sternberg Task,37,35640,40,yes,1024
92.68292683,92.68292683,891.804878,891.804878,black,experiment,legacy,legacy,legacy,0,uniform,1,undefined,1,right,40,40,40,0,0,40,NA,40,0,0,40,40,40,0,40,0,NA,Fri Oct 25 19:51:04 2019,The main experiment item,yes,SternbergTask.osexp,/Users/juancastaneda/Documents/Grad School /Advanced Quantitative Methods & Experimental Design,no,mono,no,18,no,white,no,yes,768,legacy,28,11,/Users/juancastaneda/Documents/Grad School /Advanced Quantitative Methods & Experimental Design/Sterberg Task/JC-subject-4.csv,legacy,1 7 5 2 9,Kafkaesque Koffka,3.2.8,0,n,0,right,left,left,right,NA,924,19715,16103,924,NA,NA,NA,2,legacy,5,1024,2,48000,-16,experiment,3,odd,3,291251,287919,289006,2728,113592,289019,NA,257548,2743,97488,294189,290034,293264,22468,293264,NA,NA,Sternberg Task,38,36564,41,yes,1024
92.85714286,92.85714286,895.5238095,895.5238095,black,experiment,legacy,legacy,legacy,0,uniform,1,undefined,1,left,41,41,41,0,0,41,NA,41,0,0,41,41,41,0,41,0,NA,Fri Oct 25 19:51:04 2019,The main experiment item,yes,SternbergTask.osexp,/Users/juancastaneda/Documents/Grad School /Advanced Quantitative Methods & Experimental Design,no,mono,no,18,no,white,no,yes,768,legacy,29,11,/Users/juancastaneda/Documents/Grad School /Advanced Quantitative Methods & Experimental Design/Sterberg Task/JC-subject-4.csv,legacy,8 3,Kafkaesque Koffka,3.2.8,2,y,0,left,left,left,left,NA,1048,19715,16103,1048,NA,NA,NA,2,legacy,2,1024,2,48000,-16,experiment,3,odd,3,297536,294205,295292,2728,113592,295304,NA,257548,2743,97488,300599,296319,299550,22468,299550,NA,NA,Sternberg Task,39,37612,42,yes,1024
93.02325581,93.02325581,902.0232558,902.0232558,black,experiment,legacy,legacy,legacy,0,uniform,1,undefined,1,left,42,42,42,0,0,42,NA,42,0,0,42,42,42,0,42,0,NA,Fri Oct 25 19:51:04 2019,The main experiment item,yes,SternbergTask.osexp,/Users/juancastaneda/Documents/Grad School /Advanced Quantitative Methods & Experimental Design,no,mono,no,18,no,white,no,yes,768,legacy,30,11,/Users/juancastaneda/Documents/Grad School /Advanced Quantitative Methods & Experimental Design/Sterberg Task/JC-subject-4.csv,legacy,9 3 1 2 5,Kafkaesque Koffka,3.2.8,4,y,0,left,left,left,left,NA,1175,19715,16103,1175,NA,NA,NA,2,legacy,5,1024,2,48000,-16,experiment,3,odd,2,303946,300615,301702,2728,113592,301714,NA,257548,2743,97488,307137,302729,305960,22468,305959,NA,NA,Sternberg Task,40,38787,43,yes,1024
93.18181818,93.18181818,896.0454545,896.0454545,black,experiment,legacy,legacy,legacy,0,uniform,1,undefined,1,right,43,43,43,0,0,43,NA,43,0,0,43,43,43,0,43,0,NA,Fri Oct 25 19:51:04 2019,The main experiment item,yes,SternbergTask.osexp,/Users/juancastaneda/Documents/Grad School /Advanced Quantitative Methods & Experimental Design,no,mono,no,18,no,white,no,yes,768,legacy,31,11,/Users/juancastaneda/Documents/Grad School /Advanced Quantitative Methods & Experimental Design/Sterberg Task/JC-subject-4.csv,legacy,1 5 3 2 8,Kafkaesque Koffka,3.2.8,0,n,0,right,left,left,right,NA,639,19715,16103,639,NA,NA,NA,2,legacy,5,1024,2,48000,-16,experiment,3,odd,4,310485,307153,308240,2728,113592,308253,NA,257548,2743,97488,313140,309268,312499,22468,312499,NA,NA,Sternberg Task,41,39426,44,yes,1024
93.33333333,93.33333333,887.6,887.6,black,experiment,legacy,legacy,legacy,0,uniform,1,undefined,1,left,44,44,44,0,0,44,NA,44,0,0,44,44,44,0,44,0,NA,Fri Oct 25 19:51:04 2019,The main experiment item,yes,SternbergTask.osexp,/Users/juancastaneda/Documents/Grad School /Advanced Quantitative Methods & Experimental Design,no,mono,no,18,no,white,no,yes,768,legacy,32,11,/Users/juancastaneda/Documents/Grad School /Advanced Quantitative Methods & Experimental Design/Sterberg Task/JC-subject-4.csv,legacy,2 5 4 8 7,Kafkaesque Koffka,3.2.8,3,y,0,left,left,left,left,NA,516,19715,16103,516,NA,NA,NA,2,legacy,5,1024,2,48000,-16,experiment,3,odd,4,316488,313156,314243,2728,113592,314255,NA,257548,2743,97488,319019,315270,318502,22468,318502,NA,NA,Sternberg Task,42,39942,45,yes,1024
93.47826087,93.47826087,887.5652174,887.5652174,black,experiment,legacy,legacy,legacy,0,uniform,1,undefined,1,right,45,45,45,0,0,45,NA,45,0,0,45,45,45,0,45,0,NA,Fri Oct 25 19:51:04 2019,The main experiment item,yes,SternbergTask.osexp,/Users/juancastaneda/Documents/Grad School /Advanced Quantitative Methods & Experimental Design,no,mono,no,18,no,white,no,yes,768,legacy,33,11,/Users/juancastaneda/Documents/Grad School /Advanced Quantitative Methods & Experimental Design/Sterberg Task/JC-subject-4.csv,legacy,6 9 7 3 8 2,Kafkaesque Koffka,3.2.8,0,n,0,right,left,left,right,NA,886,19715,16103,886,NA,NA,NA,2,legacy,6,1024,2,48000,-16,experiment,3,odd,5,322365,319035,320122,2728,113592,320134,NA,257548,2743,97488,325266,321149,324379,22468,324378,NA,NA,Sternberg Task,43,40828,46,yes,1024
93.61702128,93.61702128,880.1276596,880.1276596,black,experiment,legacy,legacy,legacy,0,uniform,1,undefined,1,right,46,46,46,0,0,46,NA,46,0,0,46,46,46,0,46,0,NA,Fri Oct 25 19:51:04 2019,The main experiment item,yes,SternbergTask.osexp,/Users/juancastaneda/Documents/Grad School /Advanced Quantitative Methods & Experimental Design,no,mono,no,18,no,white,no,yes,768,legacy,34,11,/Users/juancastaneda/Documents/Grad School /Advanced Quantitative Methods & Experimental Design/Sterberg Task/JC-subject-4.csv,legacy,4 2 6 9,Kafkaesque Koffka,3.2.8,0,n,0,right,left,left,right,NA,538,19715,16103,538,NA,NA,NA,2,legacy,4,1024,2,48000,-16,experiment,3,odd,7,328613,325282,326369,2728,113592,326381,NA,257548,2743,97488,331167,327396,330627,22468,330627,NA,NA,Sternberg Task,44,41366,47,yes,1024
93.75,93.75,886.0208333,886.0208333,black,experiment,legacy,legacy,legacy,0,uniform,1,undefined,1,left,47,47,47,0,0,47,NA,47,0,0,47,47,47,0,47,0,NA,Fri Oct 25 19:51:04 2019,The main experiment item,yes,SternbergTask.osexp,/Users/juancastaneda/Documents/Grad School /Advanced Quantitative Methods & Experimental Design,no,mono,no,18,no,white,no,yes,768,legacy,35,11,/Users/juancastaneda/Documents/Grad School /Advanced Quantitative Methods & Experimental Design/Sterberg Task/JC-subject-4.csv,legacy,3 9 6 2,Kafkaesque Koffka,3.2.8,4,y,0,left,left,left,left,NA,1163,19715,16103,1163,NA,NA,NA,2,legacy,4,1024,2,48000,-16,experiment,3,odd,2,334515,331183,332271,2728,113592,332283,NA,257548,2743,97488,337693,333298,336529,22468,336529,NA,NA,Sternberg Task,45,42529,48,yes,1024
93.87755102,93.87755102,887.6530612,887.6530612,black,experiment,legacy,legacy,legacy,0,uniform,1,undefined,1,left,48,48,48,0,0,48,NA,48,0,0,48,48,48,0,48,0,NA,Fri Oct 25 19:51:04 2019,The main experiment item,yes,SternbergTask.osexp,/Users/juancastaneda/Documents/Grad School /Advanced Quantitative Methods & Experimental Design,no,mono,no,18,no,white,no,yes,768,legacy,36,11,/Users/juancastaneda/Documents/Grad School /Advanced Quantitative Methods & Experimental Design/Sterberg Task/JC-subject-4.csv,legacy,8 9 5 6 7,Kafkaesque Koffka,3.2.8,1,y,0,left,left,left,left,NA,966,19715,16103,966,NA,NA,NA,2,legacy,5,1024,2,48000,-16,experiment,3,odd,8,341040,337710,338796,2728,113592,338809,NA,257548,2743,97488,344021,339823,343053,22468,343053,NA,NA,Sternberg Task,46,43495,49,yes,1024
94,94,884.7,884.7,black,experiment,legacy,legacy,legacy,0,uniform,1,undefined,1,right,49,49,49,0,0,49,NA,49,0,0,49,49,49,0,49,0,NA,Fri Oct 25 19:51:04 2019,The main experiment item,yes,SternbergTask.osexp,/Users/juancastaneda/Documents/Grad School /Advanced Quantitative Methods & Experimental Design,no,mono,no,18,no,white,no,yes,768,legacy,37,11,/Users/juancastaneda/Documents/Grad School /Advanced Quantitative Methods & Experimental Design/Sterberg Task/JC-subject-4.csv,legacy,1,Kafkaesque Koffka,3.2.8,0,n,0,right,left,left,right,NA,740,19715,16103,740,NA,NA,NA,2,legacy,1,1024,2,48000,-16,experiment,3,odd,7,347365,344036,345121,2728,113592,345133,NA,257548,2743,97488,350123,346149,349381,22468,349381,NA,NA,Sternberg Task,47,44235,50,yes,1024
94.11764706,94.11764706,883,883,black,experiment,legacy,legacy,legacy,0,uniform,1,undefined,1,right,50,50,50,0,0,50,NA,50,0,0,50,50,50,0,50,0,NA,Fri Oct 25 19:51:04 2019,The main experiment item,yes,SternbergTask.osexp,/Users/juancastaneda/Documents/Grad School /Advanced Quantitative Methods & Experimental Design,no,mono,no,18,no,white,no,yes,768,legacy,38,11,/Users/juancastaneda/Documents/Grad School /Advanced Quantitative Methods & Experimental Design/Sterberg Task/JC-subject-4.csv,legacy,2 5 1 4,Kafkaesque Koffka,3.2.8,0,n,0,right,left,left,right,NA,798,19715,16103,798,NA,NA,NA,2,legacy,4,1024,2,48000,-16,experiment,3,odd,6,353471,350139,351225,2728,113592,351238,NA,257548,2743,97488,356284,352253,355485,22468,355484,NA,NA,Sternberg Task,48,45033,51,yes,1024
94.23076923,94.23076923,877.6538462,877.6538462,black,experiment,legacy,legacy,legacy,0,uniform,1,undefined,1,left,51,51,51,0,0,51,NA,51,0,0,51,51,51,0,51,0,NA,Fri Oct 25 19:51:04 2019,The main experiment item,yes,SternbergTask.osexp,/Users/juancastaneda/Documents/Grad School /Advanced Quantitative Methods & Experimental Design,no,mono,no,18,no,white,no,yes,768,legacy,39,11,/Users/juancastaneda/Documents/Grad School /Advanced Quantitative Methods & Experimental Design/Sterberg Task/JC-subject-4.csv,legacy,5 2 6,Kafkaesque Koffka,3.2.8,2,y,0,left,left,left,left,NA,605,19715,16103,605,NA,NA,NA,2,legacy,3,1024,2,48000,-16,experiment,3,odd,2,359631,356301,357387,2728,113592,357399,NA,257548,2743,97488,362251,358414,361645,22468,361645,NA,NA,Sternberg Task,49,45638,52,yes,1024
94.33962264,94.33962264,873.6037736,873.6037736,black,experiment,legacy,legacy,legacy,0,uniform,1,undefined,1,left,52,52,52,0,0,52,NA,52,0,0,52,52,52,0,52,0,NA,Fri Oct 25 19:51:04 2019,The main experiment item,yes,SternbergTask.osexp,/Users/juancastaneda/Documents/Grad School /Advanced Quantitative Methods & Experimental Design,no,mono,no,18,no,white,no,yes,768,legacy,40,11,/Users/juancastaneda/Documents/Grad School /Advanced Quantitative Methods & Experimental Design/Sterberg Task/JC-subject-4.csv,legacy,8 7 3,Kafkaesque Koffka,3.2.8,1,y,0,left,left,left,left,NA,663,19715,16103,663,NA,NA,NA,2,legacy,3,1024,2,48000,-16,experiment,3,odd,8,365597,362267,363353,2728,113592,363365,NA,257548,2743,97488,368275,364379,367610,22468,367610,NA,NA,Sternberg Task,50,46301,53,yes,1024
94.44444444,94.44444444,865.8888889,865.8888889,black,experiment,legacy,legacy,legacy,0,uniform,1,undefined,1,right,53,53,53,0,0,53,NA,53,0,0,53,53,53,0,53,0,NA,Fri Oct 25 19:51:04 2019,The main experiment item,yes,SternbergTask.osexp,/Users/juancastaneda/Documents/Grad School /Advanced Quantitative Methods & Experimental Design,no,mono,no,18,no,white,no,yes,768,legacy,41,11,/Users/juancastaneda/Documents/Grad School /Advanced Quantitative Methods & Experimental Design/Sterberg Task/JC-subject-4.csv,legacy,2 8 6 3 1,Kafkaesque Koffka,3.2.8,0,n,0,right,left,left,right,NA,457,19715,16103,457,NA,NA,NA,2,legacy,5,1024,2,48000,-16,experiment,3,odd,7,371622,368291,369377,2728,113592,369389,NA,257548,2743,97488,374095,370404,373636,22468,373636,NA,NA,Sternberg Task,51,46758,54,yes,1024
94.54545455,94.54545455,863.7090909,863.7090909,black,experiment,legacy,legacy,legacy,0,uniform,1,undefined,1,left,54,54,54,0,0,54,NA,54,0,0,54,54,54,0,54,0,NA,Fri Oct 25 19:51:04 2019,The main experiment item,yes,SternbergTask.osexp,/Users/juancastaneda/Documents/Grad School /Advanced Quantitative Methods & Experimental Design,no,mono,no,18,no,white,no,yes,768,legacy,42,11,/Users/juancastaneda/Documents/Grad School /Advanced Quantitative Methods & Experimental Design/Sterberg Task/JC-subject-4.csv,legacy,7 2 3,Kafkaesque Koffka,3.2.8,3,y,0,left,left,left,left,NA,746,19715,16103,746,NA,NA,NA,2,legacy,3,1024,2,48000,-16,experiment,3,odd,3,377438,374109,375195,2728,113592,375207,NA,257548,2743,97488,380201,376222,379453,22468,379452,NA,NA,Sternberg Task,52,47504,55,yes,1024
94.64285714,94.64285714,858.5535714,858.5535714,black,experiment,legacy,legacy,legacy,0,uniform,1,undefined,1,left,55,55,55,0,0,55,NA,55,0,0,55,55,55,0,55,0,NA,Fri Oct 25 19:51:04 2019,The main experiment item,yes,SternbergTask.osexp,/Users/juancastaneda/Documents/Grad School /Advanced Quantitative Methods & Experimental Design,no,mono,no,18,no,white,no,yes,768,legacy,43,11,/Users/juancastaneda/Documents/Grad School /Advanced Quantitative Methods & Experimental Design/Sterberg Task/JC-subject-4.csv,legacy,8 5 1 3 9,Kafkaesque Koffka,3.2.8,4,y,0,left,left,left,left,NA,575,19715,16103,575,NA,NA,NA,2,legacy,5,1024,2,48000,-16,experiment,3,odd,3,383548,380217,381303,2728,113592,381316,NA,257548,2743,97488,386138,382331,385562,22468,385562,NA,NA,Sternberg Task,53,48079,56,yes,1024
94.73684211,94.73684211,857.9298246,857.9298246,black,experiment,legacy,legacy,legacy,0,uniform,1,undefined,1,right,56,56,56,0,0,56,NA,56,0,0,56,56,56,0,56,0,NA,Fri Oct 25 19:51:04 2019,The main experiment item,yes,SternbergTask.osexp,/Users/juancastaneda/Documents/Grad School /Advanced Quantitative Methods & Experimental Design,no,mono,no,18,no,white,no,yes,768,legacy,44,11,/Users/juancastaneda/Documents/Grad School /Advanced Quantitative Methods & Experimental Design/Sterberg Task/JC-subject-4.csv,legacy,2 8 7 9 5 3,Kafkaesque Koffka,3.2.8,0,n,0,right,left,left,right,NA,823,19715,16103,823,NA,NA,NA,2,legacy,6,1024,2,48000,-16,experiment,3,odd,6,389486,386154,387241,2728,113592,387254,NA,257548,2743,97488,392325,388268,391500,22468,391499,NA,NA,Sternberg Task,54,48902,57,yes,1024
94.82758621,94.82758621,860.637931,860.637931,black,experiment,legacy,legacy,legacy,0,uniform,1,undefined,1,left,57,57,57,0,0,57,NA,57,0,0,57,57,57,0,57,0,NA,Fri Oct 25 19:51:04 2019,The main experiment item,yes,SternbergTask.osexp,/Users/juancastaneda/Documents/Grad School /Advanced Quantitative Methods & Experimental Design,no,mono,no,18,no,white,no,yes,768,legacy,45,11,/Users/juancastaneda/Documents/Grad School /Advanced Quantitative Methods & Experimental Design/Sterberg Task/JC-subject-4.csv,legacy,2 8 5 1,Kafkaesque Koffka,3.2.8,4,y,0,left,left,left,left,NA,1015,19715,16103,1015,NA,NA,NA,2,legacy,4,1024,2,48000,-16,experiment,3,odd,1,395674,392344,393430,2728,113592,393442,NA,257548,2743,97488,398705,394456,397688,22468,397687,NA,NA,Sternberg Task,55,49917,58,yes,1024
94.91525424,94.91525424,860.0169492,860.0169492,black,experiment,legacy,legacy,legacy,0,uniform,1,undefined,1,left,58,58,58,0,0,58,NA,58,0,0,58,58,58,0,58,0,NA,Fri Oct 25 19:51:04 2019,The main experiment item,yes,SternbergTask.osexp,/Users/juancastaneda/Documents/Grad School /Advanced Quantitative Methods & Experimental Design,no,mono,no,18,no,white,no,yes,768,legacy,46,11,/Users/juancastaneda/Documents/Grad School /Advanced Quantitative Methods & Experimental Design/Sterberg Task/JC-subject-4.csv,legacy,7,Kafkaesque Koffka,3.2.8,1,y,0,left,left,left,left,NA,824,19715,16103,824,NA,NA,NA,2,legacy,1,1024,2,48000,-16,experiment,3,odd,7,402049,398721,399805,2728,113592,399818,NA,257548,2743,97488,404890,400833,404063,22468,404062,NA,NA,Sternberg Task,56,50741,59,yes,1024
95,95,863.7833333,863.7833333,black,experiment,legacy,legacy,legacy,0,uniform,1,undefined,1,left,59,59,59,0,0,59,NA,59,0,0,59,59,59,0,59,0,NA,Fri Oct 25 19:51:04 2019,The main experiment item,yes,SternbergTask.osexp,/Users/juancastaneda/Documents/Grad School /Advanced Quantitative Methods & Experimental Design,no,mono,no,18,no,white,no,yes,768,legacy,47,11,/Users/juancastaneda/Documents/Grad School /Advanced Quantitative Methods & Experimental Design/Sterberg Task/JC-subject-4.csv,legacy,3 5 9 6 2 4,Kafkaesque Koffka,3.2.8,1,y,0,left,left,left,left,NA,1086,19715,16103,1086,NA,NA,NA,2,legacy,6,1024,2,48000,-16,experiment,3,odd,3,408237,404904,405994,2728,113592,406005,NA,257548,2743,97488,411338,407020,410251,22468,410251,NA,NA,Sternberg Task,57,51827,60,yes,1024
95.08196721,95.08196721,857.7540984,857.7540984,black,experiment,legacy,legacy,legacy,0,uniform,1,undefined,1,left,60,60,60,0,0,60,NA,60,0,0,60,60,60,0,60,0,NA,Fri Oct 25 19:51:04 2019,The main experiment item,yes,SternbergTask.osexp,/Users/juancastaneda/Documents/Grad School /Advanced Quantitative Methods & Experimental Design,no,mono,no,18,no,white,no,yes,768,legacy,48,11,/Users/juancastaneda/Documents/Grad School /Advanced Quantitative Methods & Experimental Design/Sterberg Task/JC-subject-4.csv,legacy,6 9 3 1,Kafkaesque Koffka,3.2.8,4,y,0,left,left,left,left,NA,496,19715,16103,496,NA,NA,NA,2,legacy,4,1024,2,48000,-16,experiment,3,odd,1,414686,411355,412441,2728,113592,412453,NA,257548,2743,97488,417196,413470,416699,22468,416699,NA,NA,Sternberg Task,58,52323,61,yes,1024
95.16129032,95.16129032,852.6774194,852.6774194,black,experiment,legacy,legacy,legacy,0,uniform,1,undefined,1,left,61,61,61,0,0,61,NA,61,0,0,61,61,61,0,61,0,NA,Fri Oct 25 19:51:04 2019,The main experiment item,yes,SternbergTask.osexp,/Users/juancastaneda/Documents/Grad School /Advanced Quantitative Methods & Experimental Design,no,mono,no,18,no,white,no,yes,768,legacy,49,11,/Users/juancastaneda/Documents/Grad School /Advanced Quantitative Methods & Experimental Design/Sterberg Task/JC-subject-4.csv,legacy,5 7 8 2 3 8,Kafkaesque Koffka,3.2.8,5,y,0,left,left,left,left,NA,543,19715,16103,543,NA,NA,NA,2,legacy,6,1024,2,48000,-16,experiment,3,odd,3,420544,417212,418299,2728,113592,418311,NA,257548,2743,97488,423103,419326,422558,22468,422558,NA,NA,Sternberg Task,59,52866,62,yes,1024
95.23809524,95.23809524,853.2539683,853.2539683,black,experiment,legacy,legacy,legacy,0,uniform,1,undefined,1,left,62,62,62,0,0,62,NA,62,0,0,62,62,62,0,62,0,NA,Fri Oct 25 19:51:04 2019,The main experiment item,yes,SternbergTask.osexp,/Users/juancastaneda/Documents/Grad School /Advanced Quantitative Methods & Experimental Design,no,mono,no,18,no,white,no,yes,768,legacy,50,11,/Users/juancastaneda/Documents/Grad School /Advanced Quantitative Methods & Experimental Design/Sterberg Task/JC-subject-4.csv,legacy,2 4 6 9,Kafkaesque Koffka,3.2.8,3,y,0,left,left,left,left,NA,889,19715,16103,889,NA,NA,NA,2,legacy,4,1024,2,48000,-16,experiment,3,odd,6,426450,423119,424205,2728,113592,424217,NA,257548,2743,97488,429355,425233,428464,22468,428463,NA,NA,Sternberg Task,60,53755,63,yes,1024
95.3125,95.3125,846.625,846.625,black,experiment,legacy,legacy,legacy,0,uniform,1,undefined,1,left,63,63,63,0,0,63,NA,63,0,0,63,63,63,0,63,0,NA,Fri Oct 25 19:51:04 2019,The main experiment item,yes,SternbergTask.osexp,/Users/juancastaneda/Documents/Grad School /Advanced Quantitative Methods & Experimental Design,no,mono,no,18,no,white,no,yes,768,legacy,51,11,/Users/juancastaneda/Documents/Grad School /Advanced Quantitative Methods & Experimental Design/Sterberg Task/JC-subject-4.csv,legacy,3 5 4 7,Kafkaesque Koffka,3.2.8,1,y,0,left,left,left,left,NA,429,19715,16103,429,NA,NA,NA,2,legacy,4,1024,2,48000,-16,experiment,3,odd,3,432701,429371,430457,2728,113592,430470,NA,257548,2743,97488,435145,431484,434715,22468,434715,NA,NA,Sternberg Task,61,54184,64,yes,1024
95.38461538,95.38461538,844.0153846,844.0153846,black,experiment,legacy,legacy,legacy,0,uniform,1,undefined,1,right,64,64,64,0,0,64,NA,64,0,0,64,64,64,0,64,0,NA,Fri Oct 25 19:51:04 2019,The main experiment item,yes,SternbergTask.osexp,/Users/juancastaneda/Documents/Grad School /Advanced Quantitative Methods & Experimental Design,no,mono,no,18,no,white,no,yes,768,legacy,52,11,/Users/juancastaneda/Documents/Grad School /Advanced Quantitative Methods & Experimental Design/Sterberg Task/JC-subject-4.csv,legacy,6 9 4 5 2,Kafkaesque Koffka,3.2.8,0,n,0,right,left,left,right,NA,677,19715,16103,677,NA,NA,NA,2,legacy,5,1024,2,48000,-16,experiment,3,odd,1,438490,435159,436245,2728,113592,436258,NA,257548,2743,97488,441183,437273,440504,22468,440504,NA,NA,Sternberg Task,62,54861,65,yes,1024
95.45454545,95.45454545,853.2575758,853.2575758,black,experiment,legacy,legacy,legacy,0,uniform,1,undefined,1,left,65,65,65,0,0,65,NA,65,0,0,65,65,65,0,65,0,NA,Fri Oct 25 19:51:04 2019,The main experiment item,yes,SternbergTask.osexp,/Users/juancastaneda/Documents/Grad School /Advanced Quantitative Methods & Experimental Design,no,mono,no,18,no,white,no,yes,768,legacy,53,11,/Users/juancastaneda/Documents/Grad School /Advanced Quantitative Methods & Experimental Design/Sterberg Task/JC-subject-4.csv,legacy,5 7 3 6 2,Kafkaesque Koffka,3.2.8,5,y,0,left,left,left,left,NA,1454,19715,16103,1454,NA,NA,NA,2,legacy,5,1024,2,48000,-16,experiment,3,odd,2,444530,441199,442285,2728,113592,442298,NA,257548,2743,97488,448000,443313,446544,22468,446544,NA,NA,Sternberg Task,63,56315,66,yes,1024
95.52238806,95.52238806,848.119403,848.119403,black,experiment,legacy,legacy,legacy,0,uniform,1,undefined,1,left,66,66,66,0,0,66,NA,66,0,0,66,66,66,0,66,0,NA,Fri Oct 25 19:51:04 2019,The main experiment item,yes,SternbergTask.osexp,/Users/juancastaneda/Documents/Grad School /Advanced Quantitative Methods & Experimental Design,no,mono,no,18,no,white,no,yes,768,legacy,54,11,/Users/juancastaneda/Documents/Grad School /Advanced Quantitative Methods & Experimental Design/Sterberg Task/JC-subject-4.csv,legacy,8 9 6 1,Kafkaesque Koffka,3.2.8,2,y,0,left,left,left,left,NA,509,19715,16103,509,NA,NA,NA,2,legacy,4,1024,2,48000,-16,experiment,3,odd,9,451345,448014,449100,2728,113592,449113,NA,257548,2743,97488,453869,450128,453358,22468,453358,NA,NA,Sternberg Task,64,56824,67,yes,1024
95.58823529,95.58823529,846.9117647,846.9117647,black,experiment,legacy,legacy,legacy,0,uniform,1,undefined,1,right,67,67,67,0,0,67,NA,67,0,0,67,67,67,0,67,0,NA,Fri Oct 25 19:51:04 2019,The main experiment item,yes,SternbergTask.osexp,/Users/juancastaneda/Documents/Grad School /Advanced Quantitative Methods & Experimental Design,no,mono,no,18,no,white,no,yes,768,legacy,55,11,/Users/juancastaneda/Documents/Grad School /Advanced Quantitative Methods & Experimental Design/Sterberg Task/JC-subject-4.csv,legacy,9 8 2 7 4,Kafkaesque Koffka,3.2.8,0,n,0,right,left,left,right,NA,766,19715,16103,766,NA,NA,NA,2,legacy,5,1024,2,48000,-16,experiment,3,odd,5,457215,453884,454972,2728,113592,454984,NA,257548,2743,97488,459997,455999,459229,22468,459229,NA,NA,Sternberg Task,65,57590,68,yes,1024
95.65217391,95.65217391,851.7826087,851.7826087,black,experiment,legacy,legacy,legacy,0,uniform,1,undefined,1,right,68,68,68,0,0,68,NA,68,0,0,68,68,68,0,68,0,NA,Fri Oct 25 19:51:04 2019,The main experiment item,yes,SternbergTask.osexp,/Users/juancastaneda/Documents/Grad School /Advanced Quantitative Methods & Experimental Design,no,mono,no,18,no,white,no,yes,768,legacy,56,11,/Users/juancastaneda/Documents/Grad School /Advanced Quantitative Methods & Experimental Design/Sterberg Task/JC-subject-4.csv,legacy,7 6 4 8 1 2,Kafkaesque Koffka,3.2.8,0,n,0,right,left,left,right,NA,1183,19715,16103,1183,NA,NA,NA,2,legacy,6,1024,2,48000,-16,experiment,3,odd,9,463343,460012,461098,2728,113592,461111,NA,257548,2743,97488,466541,462126,465356,22468,465356,NA,NA,Sternberg Task,66,58773,69,yes,1024
95.71428571,95.71428571,852.4571429,852.4571429,black,experiment,legacy,legacy,legacy,0,uniform,1,undefined,1,right,69,69,69,0,0,69,NA,69,0,0,69,69,69,0,69,0,NA,Fri Oct 25 19:51:04 2019,The main experiment item,yes,SternbergTask.osexp,/Users/juancastaneda/Documents/Grad School /Advanced Quantitative Methods & Experimental Design,no,mono,no,18,no,white,no,yes,768,legacy,57,11,/Users/juancastaneda/Documents/Grad School /Advanced Quantitative Methods & Experimental Design/Sterberg Task/JC-subject-4.csv,legacy,2 8 9 4 1,Kafkaesque Koffka,3.2.8,0,n,0,right,left,left,right,NA,899,19715,16103,899,NA,NA,NA,2,legacy,5,1024,2,48000,-16,experiment,3,odd,5,469883,466554,467640,2728,113592,467653,NA,257548,2743,97488,472798,468667,471897,22468,471897,NA,NA,Sternberg Task,67,59672,70,yes,1024
95.77464789,95.77464789,850.8732394,850.8732394,black,experiment,legacy,legacy,legacy,0,uniform,1,undefined,1,right,70,70,70,0,0,70,NA,70,0,0,70,70,70,0,70,0,NA,Fri Oct 25 19:51:04 2019,The main experiment item,yes,SternbergTask.osexp,/Users/juancastaneda/Documents/Grad School /Advanced Quantitative Methods & Experimental Design,no,mono,no,18,no,white,no,yes,768,legacy,58,11,/Users/juancastaneda/Documents/Grad School /Advanced Quantitative Methods & Experimental Design/Sterberg Task/JC-subject-4.csv,legacy,8 5 7 3 6,Kafkaesque Koffka,3.2.8,0,n,0,right,left,left,right,NA,740,19715,16103,740,NA,NA,NA,2,legacy,5,1024,2,48000,-16,experiment,3,odd,9,476145,472814,473900,2728,113592,473913,NA,257548,2743,97488,478900,474928,478159,22468,478159,NA,NA,Sternberg Task,68,60412,71,yes,1024
95.83333333,95.83333333,861.4305556,861.4305556,black,experiment,legacy,legacy,legacy,0,uniform,1,undefined,1,right,71,71,71,0,0,71,NA,71,0,0,71,71,71,0,71,0,NA,Fri Oct 25 19:51:04 2019,The main experiment item,yes,SternbergTask.osexp,/Users/juancastaneda/Documents/Grad School /Advanced Quantitative Methods & Experimental Design,no,mono,no,18,no,white,no,yes,768,legacy,59,11,/Users/juancastaneda/Documents/Grad School /Advanced Quantitative Methods & Experimental Design/Sterberg Task/JC-subject-4.csv,legacy,4 2 7 6 1 3,Kafkaesque Koffka,3.2.8,0,n,0,right,left,left,right,NA,1611,19715,16103,1611,NA,NA,NA,2,legacy,6,1024,2,48000,-16,experiment,3,odd,8,482245,478916,480001,2728,113592,480014,NA,257548,2743,97488,485872,481028,484259,22468,484258,NA,NA,Sternberg Task,69,62023,72,yes,1024
94.52054795,94.52054795,862.4246575,862.4246575,black,experiment,legacy,legacy,legacy,0,uniform,0,undefined,0,left,72,72,72,0,0,72,NA,72,0,0,72,72,72,0,72,0,NA,Fri Oct 25 19:51:04 2019,The main experiment item,yes,SternbergTask.osexp,/Users/juancastaneda/Documents/Grad School /Advanced Quantitative Methods & Experimental Design,no,mono,no,18,no,white,no,yes,768,legacy,60,11,/Users/juancastaneda/Documents/Grad School /Advanced Quantitative Methods & Experimental Design/Sterberg Task/JC-subject-4.csv,legacy,2 3,Kafkaesque Koffka,3.2.8,1,y,0,right,left,left,right,NA,934,19715,16103,934,NA,NA,NA,2,legacy,2,1024,2,48000,-16,experiment,3,odd,2,489215,485886,486972,2728,113592,486984,NA,257548,2743,97488,492164,487999,491229,22468,491228,NA,NA,Sternberg Task,69,62957,73,yes,1024
94.59459459,94.59459459,860.8108108,860.8108108,black,experiment,legacy,legacy,legacy,0,uniform,1,undefined,1,right,73,73,73,0,0,73,NA,73,0,0,73,73,73,0,73,0,NA,Fri Oct 25 19:51:04 2019,The main experiment item,yes,SternbergTask.osexp,/Users/juancastaneda/Documents/Grad School /Advanced Quantitative Methods & Experimental Design,no,mono,no,18,no,white,no,yes,768,legacy,61,11,/Users/juancastaneda/Documents/Grad School /Advanced Quantitative Methods & Experimental Design/Sterberg Task/JC-subject-4.csv,legacy,6 8,Kafkaesque Koffka,3.2.8,0,n,0,right,left,left,right,NA,743,19715,16103,743,NA,NA,NA,2,legacy,2,1024,2,48000,-16,experiment,3,odd,9,495511,485886,493266,2728,113592,493278,NA,492180,2743,97488,498270,494293,497525,22468,497525,NA,NA,Sternberg Task,70,63700,74,yes,1024
94.66666667,94.66666667,860.1733333,860.1733333,black,experiment,legacy,legacy,legacy,0,uniform,1,undefined,1,right,74,74,74,0,0,74,NA,74,0,0,74,74,74,0,74,0,NA,Fri Oct 25 19:51:04 2019,The main experiment item,yes,SternbergTask.osexp,/Users/juancastaneda/Documents/Grad School /Advanced Quantitative Methods & Experimental Design,no,mono,no,18,no,white,no,yes,768,legacy,62,11,/Users/juancastaneda/Documents/Grad School /Advanced Quantitative Methods & Experimental Design/Sterberg Task/JC-subject-4.csv,legacy,7 4 2 8 1 9,Kafkaesque Koffka,3.2.8,0,n,0,right,left,left,right,NA,813,19715,16103,813,NA,NA,NA,2,legacy,6,1024,2,48000,-16,experiment,3,odd,5,501614,498284,499370,2728,113592,499382,NA,492180,2743,97488,504443,500397,503628,22468,503628,NA,NA,Sternberg Task,71,64513,75,yes,1024
94.73684211,94.73684211,857.1973684,857.1973684,black,experiment,legacy,legacy,legacy,0,uniform,1,undefined,1,left,75,75,75,0,0,75,NA,75,0,0,75,75,75,0,75,0,NA,Fri Oct 25 19:51:04 2019,The main experiment item,yes,SternbergTask.osexp,/Users/juancastaneda/Documents/Grad School /Advanced Quantitative Methods & Experimental Design,no,mono,no,18,no,white,no,yes,768,legacy,63,11,/Users/juancastaneda/Documents/Grad School /Advanced Quantitative Methods & Experimental Design/Sterberg Task/JC-subject-4.csv,legacy,8 1 6,Kafkaesque Koffka,3.2.8,3,y,0,left,left,left,left,NA,634,19715,16103,634,NA,NA,NA,2,legacy,3,1024,2,48000,-16,experiment,3,odd,6,507788,504459,505545,2728,113592,505557,NA,492180,2743,97488,510438,506571,509802,22468,509802,NA,NA,Sternberg Task,72,65147,76,yes,1024
94.80519481,94.80519481,862.1948052,862.1948052,black,experiment,legacy,legacy,legacy,0,uniform,1,undefined,1,left,76,76,76,0,0,76,NA,76,0,0,76,76,76,0,76,0,NA,Fri Oct 25 19:51:04 2019,The main experiment item,yes,SternbergTask.osexp,/Users/juancastaneda/Documents/Grad School /Advanced Quantitative Methods & Experimental Design,no,mono,no,18,no,white,no,yes,768,legacy,64,11,/Users/juancastaneda/Documents/Grad School /Advanced Quantitative Methods & Experimental Design/Sterberg Task/JC-subject-4.csv,legacy,9 4 2,Kafkaesque Koffka,3.2.8,1,y,0,left,left,left,left,NA,1242,19715,16103,1242,NA,NA,NA,2,legacy,3,1024,2,48000,-16,experiment,3,odd,9,513784,510454,511540,2728,113592,511552,NA,492180,2743,97488,517041,512567,515797,22468,515797,NA,NA,Sternberg Task,73,66389,77,yes,1024
94.87179487,94.87179487,868.6410256,868.6410256,black,experiment,legacy,legacy,legacy,0,uniform,1,undefined,1,right,77,77,77,0,0,77,NA,77,0,0,77,77,77,0,77,0,NA,Fri Oct 25 19:51:04 2019,The main experiment item,yes,SternbergTask.osexp,/Users/juancastaneda/Documents/Grad School /Advanced Quantitative Methods & Experimental Design,no,mono,no,18,no,white,no,yes,768,legacy,65,11,/Users/juancastaneda/Documents/Grad School /Advanced Quantitative Methods & Experimental Design/Sterberg Task/JC-subject-4.csv,legacy,2 3 8 5 6 7,Kafkaesque Koffka,3.2.8,0,n,0,right,left,left,right,NA,1365,19715,16103,1365,NA,NA,NA,2,legacy,6,1024,2,48000,-16,experiment,3,odd,1,520386,517056,518143,2728,113592,518155,NA,492180,2743,97488,523767,519170,522400,22468,522400,NA,NA,Sternberg Task,74,67754,78,yes,1024
93.67088608,93.67088608,882.9620253,882.9620253,black,experiment,legacy,legacy,legacy,0,uniform,0,undefined,0,left,78,78,78,0,0,78,NA,78,0,0,78,78,78,0,78,0,NA,Fri Oct 25 19:51:04 2019,The main experiment item,yes,SternbergTask.osexp,/Users/juancastaneda/Documents/Grad School /Advanced Quantitative Methods & Experimental Design,no,mono,no,18,no,white,no,yes,768,legacy,66,11,/Users/juancastaneda/Documents/Grad School /Advanced Quantitative Methods & Experimental Design/Sterberg Task/JC-subject-4.csv,legacy,6 1 2,Kafkaesque Koffka,3.2.8,3,y,0,None,left,left,None,NA,2000,19715,16103,2000,NA,NA,NA,2,legacy,3,1024,2,48000,-16,experiment,3,odd,2,527111,523782,524867,2728,113592,524880,NA,492180,2743,97488,531125,525894,529125,22468,529125,NA,NA,Sternberg Task,74,69754,79,yes,1024
93.75,93.75,884.0125,884.0125,black,experiment,legacy,legacy,legacy,0,uniform,1,undefined,1,right,79,79,79,0,0,79,NA,79,0,0,79,79,79,0,79,0,NA,Fri Oct 25 19:51:04 2019,The main experiment item,yes,SternbergTask.osexp,/Users/juancastaneda/Documents/Grad School /Advanced Quantitative Methods & Experimental Design,no,mono,no,18,no,white,no,yes,768,legacy,67,11,/Users/juancastaneda/Documents/Grad School /Advanced Quantitative Methods & Experimental Design/Sterberg Task/JC-subject-4.csv,legacy,5 2,Kafkaesque Koffka,3.2.8,0,n,0,right,left,left,right,NA,967,19715,16103,967,NA,NA,NA,2,legacy,2,1024,2,48000,-16,experiment,3,odd,7,534472,523782,532227,2728,113592,532240,NA,531142,2743,97488,537455,533255,536486,22468,536486,NA,NA,Sternberg Task,75,70721,80,yes,1024
93.82716049,93.82716049,885.382716,885.382716,black,experiment,legacy,legacy,legacy,0,uniform,1,undefined,1,right,80,80,80,0,0,80,NA,80,0,0,80,80,80,0,80,0,NA,Fri Oct 25 19:51:04 2019,The main experiment item,yes,SternbergTask.osexp,/Users/juancastaneda/Documents/Grad School /Advanced Quantitative Methods & Experimental Design,no,mono,no,18,no,white,no,yes,768,legacy,68,11,/Users/juancastaneda/Documents/Grad School /Advanced Quantitative Methods & Experimental Design/Sterberg Task/JC-subject-4.csv,legacy,8 6 3 4 7,Kafkaesque Koffka,3.2.8,0,n,0,right,left,left,right,NA,995,19715,16103,995,NA,NA,NA,2,legacy,5,1024,2,48000,-16,experiment,3,odd,1,540802,537472,538557,2728,113592,538570,NA,531142,2743,97488,543813,539585,542816,22468,542816,NA,NA,Sternberg Task,76,71716,81,yes,1024
92.68292683,92.68292683,884.6707317,884.6707317,black,experiment,legacy,legacy,legacy,0,uniform,0,undefined,0,right,81,81,81,0,0,81,NA,81,0,0,81,81,81,0,81,0,NA,Fri Oct 25 19:51:04 2019,The main experiment item,yes,SternbergTask.osexp,/Users/juancastaneda/Documents/Grad School /Advanced Quantitative Methods & Experimental Design,no,mono,no,18,no,white,no,yes,768,legacy,69,11,/Users/juancastaneda/Documents/Grad School /Advanced Quantitative Methods & Experimental Design/Sterberg Task/JC-subject-4.csv,legacy,1 4 9 3,Kafkaesque Koffka,3.2.8,0,n,0,left,left,left,left,NA,827,19715,16103,827,NA,NA,NA,2,legacy,4,1024,2,48000,-16,experiment,3,odd,5,547158,543829,544915,2728,113592,544928,NA,531142,2743,97488,550000,545942,549171,22468,549171,NA,NA,Sternberg Task,76,72543,82,yes,1024
92.77108434,92.77108434,884.8192771,884.8192771,black,experiment,legacy,legacy,legacy,0,uniform,1,undefined,1,left,82,82,82,0,0,82,NA,82,0,0,82,82,82,0,82,0,NA,Fri Oct 25 19:51:04 2019,The main experiment item,yes,SternbergTask.osexp,/Users/juancastaneda/Documents/Grad School /Advanced Quantitative Methods & Experimental Design,no,mono,no,18,no,white,no,yes,768,legacy,70,11,/Users/juancastaneda/Documents/Grad School /Advanced Quantitative Methods & Experimental Design/Sterberg Task/JC-subject-4.csv,legacy,3 2 1 4 7,Kafkaesque Koffka,3.2.8,2,y,0,left,left,left,left,NA,897,19715,16103,897,NA,NA,NA,2,legacy,5,1024,2,48000,-16,experiment,3,odd,2,553345,543829,551101,2728,113592,551114,NA,550015,2743,97488,556258,552128,555359,22468,555359,NA,NA,Sternberg Task,77,73440,83,yes,1024
91.66666667,91.66666667,895.6309524,895.6309524,black,experiment,legacy,legacy,legacy,0,uniform,0,undefined,0,left,83,83,83,0,0,83,NA,83,0,0,83,83,83,0,83,0,NA,Fri Oct 25 19:51:04 2019,The main experiment item,yes,SternbergTask.osexp,/Users/juancastaneda/Documents/Grad School /Advanced Quantitative Methods & Experimental Design,no,mono,no,18,no,white,no,yes,768,legacy,71,11,/Users/juancastaneda/Documents/Grad School /Advanced Quantitative Methods & Experimental Design/Sterberg Task/JC-subject-4.csv,legacy,6 5,Kafkaesque Koffka,3.2.8,2,y,0,right,left,left,right,NA,1793,19715,16103,1793,NA,NA,NA,2,legacy,2,1024,2,48000,-16,experiment,3,odd,5,559603,556272,557359,2728,113592,557371,NA,550015,2743,97488,563412,558386,561617,22468,561617,NA,NA,Sternberg Task,77,75233,84,yes,1024
90.58823529,90.58823529,908.6235294,908.6235294,black,experiment,legacy,legacy,legacy,0,uniform,0,undefined,0,right,84,84,84,0,0,84,NA,84,0,0,84,84,84,0,84,0,NA,Fri Oct 25 19:51:04 2019,The main experiment item,yes,SternbergTask.osexp,/Users/juancastaneda/Documents/Grad School /Advanced Quantitative Methods & Experimental Design,no,mono,no,18,no,white,no,yes,768,legacy,72,11,/Users/juancastaneda/Documents/Grad School /Advanced Quantitative Methods & Experimental Design/Sterberg Task/JC-subject-4.csv,legacy,5,Kafkaesque Koffka,3.2.8,0,n,0,None,left,left,None,NA,2000,19715,16103,2000,NA,NA,NA,2,legacy,1,1024,2,48000,-16,experiment,3,odd,8,566758,556272,564514,2728,113592,564527,NA,563427,2743,97488,570772,565541,568772,22468,568771,NA,NA,Sternberg Task,77,77233,85,yes,1024
90.69767442,90.69767442,906.2209302,906.2209302,black,experiment,legacy,legacy,legacy,0,uniform,1,undefined,1,left,85,85,85,0,0,85,NA,85,0,0,85,85,85,0,85,0,NA,Fri Oct 25 19:51:04 2019,The main experiment item,yes,SternbergTask.osexp,/Users/juancastaneda/Documents/Grad School /Advanced Quantitative Methods & Experimental Design,no,mono,no,18,no,white,no,yes,768,legacy,73,11,/Users/juancastaneda/Documents/Grad School /Advanced Quantitative Methods & Experimental Design/Sterberg Task/JC-subject-4.csv,legacy,9 3 8 2 1 4,Kafkaesque Koffka,3.2.8,3,y,0,left,left,left,left,NA,702,19715,16103,702,NA,NA,NA,2,legacy,6,1024,2,48000,-16,experiment,3,odd,8,574118,556272,571875,2728,113592,571887,NA,570788,2743,97488,576835,572901,576132,22468,576132,NA,NA,Sternberg Task,78,77935,86,yes,1024
90.8045977,90.8045977,901.1034483,901.1034483,black,experiment,legacy,legacy,legacy,0,uniform,1,undefined,1,left,86,86,86,0,0,86,NA,86,0,0,86,86,86,0,86,0,NA,Fri Oct 25 19:51:04 2019,The main experiment item,yes,SternbergTask.osexp,/Users/juancastaneda/Documents/Grad School /Advanced Quantitative Methods & Experimental Design,no,mono,no,18,no,white,no,yes,768,legacy,74,11,/Users/juancastaneda/Documents/Grad School /Advanced Quantitative Methods & Experimental Design/Sterberg Task/JC-subject-4.csv,legacy,9 5 3 8 4,Kafkaesque Koffka,3.2.8,1,y,0,left,left,left,left,NA,461,19715,16103,461,NA,NA,NA,2,legacy,5,1024,2,48000,-16,experiment,3,odd,9,580183,576851,577938,2728,113592,577951,NA,570788,2743,97488,582660,578966,582197,22468,582197,NA,NA,Sternberg Task,79,78396,87,yes,1024
89.77272727,89.77272727,913.5909091,913.5909091,black,experiment,legacy,legacy,legacy,0,uniform,0,undefined,0,right,87,87,87,0,0,87,NA,87,0,0,87,87,87,0,87,0,NA,Fri Oct 25 19:51:04 2019,The main experiment item,yes,SternbergTask.osexp,/Users/juancastaneda/Documents/Grad School /Advanced Quantitative Methods & Experimental Design,no,mono,no,18,no,white,no,yes,768,legacy,75,11,/Users/juancastaneda/Documents/Grad School /Advanced Quantitative Methods & Experimental Design/Sterberg Task/JC-subject-4.csv,legacy,1 7 8 3 9,Kafkaesque Koffka,3.2.8,0,n,0,None,left,left,None,NA,2000,19715,16103,2000,NA,NA,NA,2,legacy,5,1024,2,48000,-16,experiment,3,odd,2,586006,582676,583763,2728,113592,583775,NA,570788,2743,97488,590019,584790,588019,22468,588019,NA,NA,Sternberg Task,79,80396,88,yes,1024
89.88764045,89.88764045,912.752809,912.752809,black,experiment,legacy,legacy,legacy,0,uniform,1,undefined,1,right,88,88,88,0,0,88,NA,88,0,0,88,88,88,0,88,0,NA,Fri Oct 25 19:51:04 2019,The main experiment item,yes,SternbergTask.osexp,/Users/juancastaneda/Documents/Grad School /Advanced Quantitative Methods & Experimental Design,no,mono,no,18,no,white,no,yes,768,legacy,76,11,/Users/juancastaneda/Documents/Grad School /Advanced Quantitative Methods & Experimental Design/Sterberg Task/JC-subject-4.csv,legacy,6 8 4,Kafkaesque Koffka,3.2.8,0,n,0,right,left,left,right,NA,839,19715,16103,839,NA,NA,NA,2,legacy,3,1024,2,48000,-16,experiment,3,odd,1,593366,582676,591121,2728,113592,591134,NA,590036,2743,97488,596220,592149,595379,22468,595379,NA,NA,Sternberg Task,80,81235,89,yes,1024
90,90,916.6555556,916.6555556,black,experiment,legacy,legacy,legacy,0,uniform,1,undefined,1,right,89,89,89,0,0,89,NA,89,0,0,89,89,89,0,89,0,NA,Fri Oct 25 19:51:04 2019,The main experiment item,yes,SternbergTask.osexp,/Users/juancastaneda/Documents/Grad School /Advanced Quantitative Methods & Experimental Design,no,mono,no,18,no,white,no,yes,768,legacy,77,11,/Users/juancastaneda/Documents/Grad School /Advanced Quantitative Methods & Experimental Design/Sterberg Task/JC-subject-4.csv,legacy,6 2 9 3 8 4,Kafkaesque Koffka,3.2.8,0,n,0,right,left,left,right,NA,1264,19715,16103,1264,NA,NA,NA,2,legacy,6,1024,2,48000,-16,experiment,3,odd,1,599569,596236,597324,2728,113592,597336,NA,590036,2743,97488,602849,598351,601583,22468,601583,NA,NA,Sternberg Task,81,82499,90,yes,1024
90.10989011,90.10989011,925.0659341,925.0659341,black,experiment,legacy,legacy,legacy,0,uniform,1,undefined,1,left,90,90,90,0,0,90,NA,90,0,0,90,90,90,0,90,0,NA,Fri Oct 25 19:51:04 2019,The main experiment item,yes,SternbergTask.osexp,/Users/juancastaneda/Documents/Grad School /Advanced Quantitative Methods & Experimental Design,no,mono,no,18,no,white,no,yes,768,legacy,78,11,/Users/juancastaneda/Documents/Grad School /Advanced Quantitative Methods & Experimental Design/Sterberg Task/JC-subject-4.csv,legacy,9 1 7 2,Kafkaesque Koffka,3.2.8,2,y,0,left,left,left,left,NA,1682,19715,16103,1682,NA,NA,NA,2,legacy,4,1024,2,48000,-16,experiment,3,odd,1,606196,602864,603952,2728,113592,603965,NA,590036,2743,97488,609894,604980,608210,22468,608209,NA,NA,Sternberg Task,82,84181,91,yes,1024
90.2173913,90.2173913,929.3369565,929.3369565,black,experiment,legacy,legacy,legacy,0,uniform,1,undefined,1,right,91,91,91,0,0,91,NA,91,0,0,91,91,91,0,91,0,NA,Fri Oct 25 19:51:04 2019,The main experiment item,yes,SternbergTask.osexp,/Users/juancastaneda/Documents/Grad School /Advanced Quantitative Methods & Experimental Design,no,mono,no,18,no,white,no,yes,768,legacy,79,11,/Users/juancastaneda/Documents/Grad School /Advanced Quantitative Methods & Experimental Design/Sterberg Task/JC-subject-4.csv,legacy,8 2 1 4 5 9,Kafkaesque Koffka,3.2.8,0,n,0,right,left,left,right,NA,1318,19715,16103,1318,NA,NA,NA,2,legacy,6,1024,2,48000,-16,experiment,3,odd,7,613241,609911,610998,2728,113592,611010,NA,590036,2743,97488,616575,612024,615255,22468,615255,NA,NA,Sternberg Task,83,85499,92,yes,1024
90.32258065,90.32258065,930.2688172,930.2688172,black,experiment,legacy,legacy,legacy,0,uniform,1,undefined,1,left,92,92,92,0,0,92,NA,92,0,0,92,92,92,0,92,0,NA,Fri Oct 25 19:51:04 2019,The main experiment item,yes,SternbergTask.osexp,/Users/juancastaneda/Documents/Grad School /Advanced Quantitative Methods & Experimental Design,no,mono,no,18,no,white,no,yes,768,legacy,80,11,/Users/juancastaneda/Documents/Grad School /Advanced Quantitative Methods & Experimental Design/Sterberg Task/JC-subject-4.csv,legacy,6 7 8 5,Kafkaesque Koffka,3.2.8,3,y,0,left,left,left,left,NA,1016,19715,16103,1016,NA,NA,NA,2,legacy,4,1024,2,48000,-16,experiment,3,odd,8,619918,616591,617677,2728,113592,617690,NA,590036,2743,97488,622951,618705,621933,22468,621933,NA,NA,Sternberg Task,84,86515,93,yes,1024
90.42553191,90.42553191,927.8085106,927.8085106,black,experiment,legacy,legacy,legacy,0,uniform,1,undefined,1,right,93,93,93,0,0,93,NA,93,0,0,93,93,93,0,93,0,NA,Fri Oct 25 19:51:04 2019,The main experiment item,yes,SternbergTask.osexp,/Users/juancastaneda/Documents/Grad School /Advanced Quantitative Methods & Experimental Design,no,mono,no,18,no,white,no,yes,768,legacy,81,11,/Users/juancastaneda/Documents/Grad School /Advanced Quantitative Methods & Experimental Design/Sterberg Task/JC-subject-4.csv,legacy,1 7 5 2,Kafkaesque Koffka,3.2.8,0,n,0,right,left,left,right,NA,699,19715,16103,699,NA,NA,NA,2,legacy,4,1024,2,48000,-16,experiment,3,odd,3,626298,622968,624054,2728,113592,624067,NA,590036,2743,97488,629012,625081,628311,22468,628311,NA,NA,Sternberg Task,85,87214,94,yes,1024
89.47368421,89.47368421,930.3578947,930.3578947,black,experiment,legacy,legacy,legacy,0,uniform,0,undefined,0,left,94,94,94,0,0,94,NA,94,0,0,94,94,94,0,94,0,NA,Fri Oct 25 19:51:04 2019,The main experiment item,yes,SternbergTask.osexp,/Users/juancastaneda/Documents/Grad School /Advanced Quantitative Methods & Experimental Design,no,mono,no,18,no,white,no,yes,768,legacy,82,11,/Users/juancastaneda/Documents/Grad School /Advanced Quantitative Methods & Experimental Design/Sterberg Task/JC-subject-4.csv,legacy,4 6 2 5 1,Kafkaesque Koffka,3.2.8,5,y,0,right,left,left,right,NA,1170,19715,16103,1170,NA,NA,NA,2,legacy,5,1024,2,48000,-16,experiment,3,odd,1,632360,629029,630116,2728,113592,630128,NA,590036,2743,97488,635546,631143,634374,22468,634374,NA,NA,Sternberg Task,85,88384,95,yes,1024
89.58333333,89.58333333,928.625,928.625,black,experiment,legacy,legacy,legacy,0,uniform,1,undefined,1,left,95,95,95,0,0,95,NA,95,0,0,95,95,95,0,95,0,NA,Fri Oct 25 19:51:04 2019,The main experiment item,yes,SternbergTask.osexp,/Users/juancastaneda/Documents/Grad School /Advanced Quantitative Methods & Experimental Design,no,mono,no,18,no,white,no,yes,768,legacy,83,11,/Users/juancastaneda/Documents/Grad School /Advanced Quantitative Methods & Experimental Design/Sterberg Task/JC-subject-4.csv,legacy,3 4 9 6 2 9,Kafkaesque Koffka,3.2.8,5,y,0,left,left,left,left,NA,764,19715,16103,764,NA,NA,NA,2,legacy,6,1024,2,48000,-16,experiment,3,odd,2,638894,629029,636649,2728,113592,636662,NA,635562,2743,97488,641674,637677,640908,22468,640908,NA,NA,Sternberg Task,86,89148,96,yes,1024
88.65979381,88.65979381,931.1958763,931.1958763,black,experiment,legacy,legacy,legacy,0,uniform,0,undefined,0,right,96,96,96,0,0,96,NA,96,0,0,96,96,96,0,96,0,NA,Fri Oct 25 19:51:04 2019,The main experiment item,yes,SternbergTask.osexp,/Users/juancastaneda/Documents/Grad School /Advanced Quantitative Methods & Experimental Design,no,mono,no,18,no,white,no,yes,768,legacy,84,11,/Users/juancastaneda/Documents/Grad School /Advanced Quantitative Methods & Experimental Design/Sterberg Task/JC-subject-4.csv,legacy,7 9 1 6,Kafkaesque Koffka,3.2.8,0,n,0,left,left,left,left,NA,1178,19715,16103,1178,NA,NA,NA,2,legacy,4,1024,2,48000,-16,experiment,3,odd,4,645019,641690,642777,2728,113592,642790,NA,635562,2743,97488,648213,643805,647033,22468,647033,NA,NA,Sternberg Task,86,90326,97,yes,1024
88.7755102,88.7755102,929.2040816,929.2040816,black,experiment,legacy,legacy,legacy,0,uniform,1,undefined,1,left,97,97,97,0,0,97,NA,97,0,0,97,97,97,0,97,0,NA,Fri Oct 25 19:51:04 2019,The main experiment item,yes,SternbergTask.osexp,/Users/juancastaneda/Documents/Grad School /Advanced Quantitative Methods & Experimental Design,no,mono,no,18,no,white,no,yes,768,legacy,85,11,/Users/juancastaneda/Documents/Grad School /Advanced Quantitative Methods & Experimental Design/Sterberg Task/JC-subject-4.csv,legacy,4 1 5,Kafkaesque Koffka,3.2.8,2,y,0,left,left,left,left,NA,736,19715,16103,736,NA,NA,NA,2,legacy,3,1024,2,48000,-16,experiment,3,odd,1,651557,641690,649316,2728,113592,649328,NA,648229,2743,97488,654309,650343,653571,22468,653571,NA,NA,Sternberg Task,87,91062,98,yes,1024
87.87878788,87.87878788,940.020202,940.020202,black,experiment,legacy,legacy,legacy,0,uniform,0,undefined,0,left,98,98,98,0,0,98,NA,98,0,0,98,98,98,0,98,0,NA,Fri Oct 25 19:51:04 2019,The main experiment item,yes,SternbergTask.osexp,/Users/juancastaneda/Documents/Grad School /Advanced Quantitative Methods & Experimental Design,no,mono,no,18,no,white,no,yes,768,legacy,86,11,/Users/juancastaneda/Documents/Grad School /Advanced Quantitative Methods & Experimental Design/Sterberg Task/JC-subject-4.csv,legacy,8 5 4 7 3 1,Kafkaesque Koffka,3.2.8,2,y,0,None,left,left,None,NA,2000,19715,16103,2000,NA,NA,NA,2,legacy,6,1024,2,48000,-16,experiment,3,odd,5,657654,654325,655413,2728,113592,655426,NA,648229,2743,97488,661669,656441,659668,22468,659668,NA,NA,Sternberg Task,87,93062,99,yes,1024
88,88,937.51,937.51,black,experiment,legacy,legacy,legacy,0,uniform,1,undefined,1,left,99,99,99,0,0,99,NA,99,0,0,99,99,99,0,99,0,NA,Fri Oct 25 19:51:04 2019,The main experiment item,yes,SternbergTask.osexp,/Users/juancastaneda/Documents/Grad School /Advanced Quantitative Methods & Experimental Design,no,mono,no,18,no,white,no,yes,768,legacy,87,11,/Users/juancastaneda/Documents/Grad School /Advanced Quantitative Methods & Experimental Design/Sterberg Task/JC-subject-4.csv,legacy,2 3 7 4,Kafkaesque Koffka,3.2.8,1,y,0,left,left,left,left,NA,689,19715,16103,689,NA,NA,NA,2,legacy,4,1024,2,48000,-16,experiment,3,odd,2,665011,654325,662771,2728,113592,662783,NA,661685,2743,97488,667715,663798,667024,22468,667024,NA,NA,Sternberg Task,88,93751,100,yes,1024
88.11881188,88.11881188,936.3564356,936.3564356,black,experiment,legacy,legacy,legacy,0,uniform,1,undefined,1,right,100,100,100,0,0,100,NA,100,0,0,100,100,100,0,100,0,NA,Fri Oct 25 19:51:04 2019,The main experiment item,yes,SternbergTask.osexp,/Users/juancastaneda/Documents/Grad School /Advanced Quantitative Methods & Experimental Design,no,mono,no,18,no,white,no,yes,768,legacy,88,11,/Users/juancastaneda/Documents/Grad School /Advanced Quantitative Methods & Experimental Design/Sterberg Task/JC-subject-4.csv,legacy,9 7 4 5 8,Kafkaesque Koffka,3.2.8,0,n,0,right,left,left,right,NA,821,19715,16103,821,NA,NA,NA,2,legacy,5,1024,2,48000,-16,experiment,3,odd,6,671061,667731,668819,2728,113592,668832,NA,661685,2743,97488,673898,669845,673075,22468,673074,NA,NA,Sternberg Task,89,94572,101,yes,1024
88.23529412,88.23529412,937.7352941,937.7352941,black,experiment,legacy,legacy,legacy,0,uniform,1,undefined,1,left,101,101,101,0,0,101,NA,101,0,0,101,101,101,0,101,0,NA,Fri Oct 25 19:51:04 2019,The main experiment item,yes,SternbergTask.osexp,/Users/juancastaneda/Documents/Grad School /Advanced Quantitative Methods & Experimental Design,no,mono,no,18,no,white,no,yes,768,legacy,89,11,/Users/juancastaneda/Documents/Grad School /Advanced Quantitative Methods & Experimental Design/Sterberg Task/JC-subject-4.csv,legacy,4 7 6 8 2 3,Kafkaesque Koffka,3.2.8,6,y,0,left,left,left,left,NA,1077,19715,16103,1077,NA,NA,NA,2,legacy,6,1024,2,48000,-16,experiment,3,odd,3,677243,673914,675000,2728,113592,675012,NA,661685,2743,97488,680336,676026,679257,22468,679256,NA,NA,Sternberg Task,90,95649,102,yes,1024
88.34951456,88.34951456,944.2427184,944.2427184,black,experiment,legacy,legacy,legacy,0,uniform,1,undefined,1,left,102,102,102,0,0,102,NA,102,0,0,102,102,102,0,102,0,NA,Fri Oct 25 19:51:04 2019,The main experiment item,yes,SternbergTask.osexp,/Users/juancastaneda/Documents/Grad School /Advanced Quantitative Methods & Experimental Design,no,mono,no,18,no,white,no,yes,768,legacy,90,11,/Users/juancastaneda/Documents/Grad School /Advanced Quantitative Methods & Experimental Design/Sterberg Task/JC-subject-4.csv,legacy,3 5 7 1,Kafkaesque Koffka,3.2.8,3,y,0,left,left,left,left,NA,1608,19715,16103,1608,NA,NA,NA,2,legacy,4,1024,2,48000,-16,experiment,3,odd,7,683682,680352,681437,2728,113592,681450,NA,661685,2743,97488,687306,682464,685696,22468,685695,NA,NA,Sternberg Task,91,97257,103,yes,1024
88.46153846,88.46153846,941.875,941.875,black,experiment,legacy,legacy,legacy,0,uniform,1,undefined,1,right,103,103,103,0,0,103,NA,103,0,0,103,103,103,0,103,0,NA,Fri Oct 25 19:51:04 2019,The main experiment item,yes,SternbergTask.osexp,/Users/juancastaneda/Documents/Grad School /Advanced Quantitative Methods & Experimental Design,no,mono,no,18,no,white,no,yes,768,legacy,91,11,/Users/juancastaneda/Documents/Grad School /Advanced Quantitative Methods & Experimental Design/Sterberg Task/JC-subject-4.csv,legacy,9,Kafkaesque Koffka,3.2.8,0,n,0,right,left,left,right,NA,698,19715,16103,698,NA,NA,NA,2,legacy,1,1024,2,48000,-16,experiment,3,odd,6,690660,687322,688413,2728,113592,688427,NA,661685,2743,97488,693374,689442,692674,22468,692674,NA,NA,Sternberg Task,92,97955,104,yes,1024
88.57142857,88.57142857,941.6285714,941.6285714,black,experiment,legacy,legacy,legacy,0,uniform,1,undefined,1,left,104,104,104,0,0,104,NA,104,0,0,104,104,104,0,104,0,NA,Fri Oct 25 19:51:04 2019,The main experiment item,yes,SternbergTask.osexp,/Users/juancastaneda/Documents/Grad School /Advanced Quantitative Methods & Experimental Design,no,mono,no,18,no,white,no,yes,768,legacy,92,11,/Users/juancastaneda/Documents/Grad School /Advanced Quantitative Methods & Experimental Design/Sterberg Task/JC-subject-4.csv,legacy,9 8 4,Kafkaesque Koffka,3.2.8,1,y,0,left,left,left,left,NA,916,19715,16103,916,NA,NA,NA,2,legacy,3,1024,2,48000,-16,experiment,3,odd,9,696721,693390,694477,2728,113592,694490,NA,661685,2743,97488,699653,695504,698735,22468,698735,NA,NA,Sternberg Task,93,98871,105,yes,1024
88.67924528,88.67924528,939.7924528,939.7924528,black,experiment,legacy,legacy,legacy,0,uniform,1,undefined,1,left,105,105,105,0,0,105,NA,105,0,0,105,105,105,0,105,0,NA,Fri Oct 25 19:51:04 2019,The main experiment item,yes,SternbergTask.osexp,/Users/juancastaneda/Documents/Grad School /Advanced Quantitative Methods & Experimental Design,no,mono,no,18,no,white,no,yes,768,legacy,93,11,/Users/juancastaneda/Documents/Grad School /Advanced Quantitative Methods & Experimental Design/Sterberg Task/JC-subject-4.csv,legacy,7 8 6 3 1,Kafkaesque Koffka,3.2.8,5,y,0,left,left,left,left,NA,747,19715,16103,747,NA,NA,NA,2,legacy,5,1024,2,48000,-16,experiment,3,odd,1,702998,699669,700755,2728,113592,700768,NA,661685,2743,97488,705760,701781,705011,22468,705011,NA,NA,Sternberg Task,94,99618,106,yes,1024
88.78504673,88.78504673,939.1682243,939.1682243,black,experiment,legacy,legacy,legacy,0,uniform,1,undefined,1,left,106,106,106,0,0,106,NA,106,0,0,106,106,106,0,106,0,NA,Fri Oct 25 19:51:04 2019,The main experiment item,yes,SternbergTask.osexp,/Users/juancastaneda/Documents/Grad School /Advanced Quantitative Methods & Experimental Design,no,mono,no,18,no,white,no,yes,768,legacy,94,11,/Users/juancastaneda/Documents/Grad School /Advanced Quantitative Methods & Experimental Design/Sterberg Task/JC-subject-4.csv,legacy,2 4 8 5 1 3,Kafkaesque Koffka,3.2.8,1,y,0,left,left,left,left,NA,873,19715,16103,873,NA,NA,NA,2,legacy,6,1024,2,48000,-16,experiment,3,odd,2,709107,705776,706864,2728,113592,706877,NA,661685,2743,97488,711995,707890,711121,22468,711121,NA,NA,Sternberg Task,95,100491,107,yes,1024
88.88888889,88.88888889,938.5925926,938.5925926,black,experiment,legacy,legacy,legacy,0,uniform,1,undefined,1,right,107,107,107,0,0,107,NA,107,0,0,107,107,107,0,107,0,NA,Fri Oct 25 19:51:04 2019,The main experiment item,yes,SternbergTask.osexp,/Users/juancastaneda/Documents/Grad School /Advanced Quantitative Methods & Experimental Design,no,mono,no,18,no,white,no,yes,768,legacy,95,11,/Users/juancastaneda/Documents/Grad School /Advanced Quantitative Methods & Experimental Design/Sterberg Task/JC-subject-4.csv,legacy,8 4 3 5,Kafkaesque Koffka,3.2.8,0,n,0,right,left,left,right,NA,877,19715,16103,877,NA,NA,NA,2,legacy,4,1024,2,48000,-16,experiment,3,odd,6,715341,712010,713097,2728,113592,713109,NA,661685,2743,97488,718235,714124,717355,22468,717355,NA,NA,Sternberg Task,96,101368,108,yes,1024
88.99082569,88.99082569,938.4954128,938.4954128,black,experiment,legacy,legacy,legacy,0,uniform,1,undefined,1,right,108,108,108,0,0,108,NA,108,0,0,108,108,108,0,108,0,NA,Fri Oct 25 19:51:04 2019,The main experiment item,yes,SternbergTask.osexp,/Users/juancastaneda/Documents/Grad School /Advanced Quantitative Methods & Experimental Design,no,mono,no,18,no,white,no,yes,768,legacy,96,11,/Users/juancastaneda/Documents/Grad School /Advanced Quantitative Methods & Experimental Design/Sterberg Task/JC-subject-4.csv,legacy,6 9 5,Kafkaesque Koffka,3.2.8,0,n,0,right,left,left,right,NA,928,19715,16103,928,NA,NA,NA,2,legacy,3,1024,2,48000,-16,experiment,3,odd,8,721580,718251,719337,2728,113592,719350,NA,661685,2743,97488,724524,720364,723594,22468,723593,NA,NA,Sternberg Task,97,102296,109,yes,1024
89.09090909,89.09090909,936.9363636,936.9363636,black,experiment,legacy,legacy,legacy,0,uniform,1,undefined,1,left,109,109,109,0,0,109,NA,109,0,0,109,109,109,0,109,0,NA,Fri Oct 25 19:51:04 2019,The main experiment item,yes,SternbergTask.osexp,/Users/juancastaneda/Documents/Grad School /Advanced Quantitative Methods & Experimental Design,no,mono,no,18,no,white,no,yes,768,legacy,97,11,/Users/juancastaneda/Documents/Grad School /Advanced Quantitative Methods & Experimental Design/Sterberg Task/JC-subject-4.csv,legacy,7 6,Kafkaesque Koffka,3.2.8,2,y,0,left,left,left,left,NA,767,19715,16103,767,NA,NA,NA,2,legacy,2,1024,2,48000,-16,experiment,3,odd,6,727869,724540,725625,2728,113592,725638,NA,661685,2743,97488,730652,726652,729883,22468,729883,NA,NA,Sternberg Task,98,103063,110,yes,1024
89.18918919,89.18918919,933.2702703,933.2702703,black,experiment,legacy,legacy,legacy,0,uniform,1,undefined,1,left,110,110,110,0,0,110,NA,110,0,0,110,110,110,0,110,0,NA,Fri Oct 25 19:51:04 2019,The main experiment item,yes,SternbergTask.osexp,/Users/juancastaneda/Documents/Grad School /Advanced Quantitative Methods & Experimental Design,no,mono,no,18,no,white,no,yes,768,legacy,98,11,/Users/juancastaneda/Documents/Grad School /Advanced Quantitative Methods & Experimental Design/Sterberg Task/JC-subject-4.csv,legacy,6 7 9 3 1 2,Kafkaesque Koffka,3.2.8,1,y,0,left,left,left,left,NA,530,19715,16103,530,NA,NA,NA,2,legacy,6,1024,2,48000,-16,experiment,3,odd,6,734000,730669,731756,2728,113592,731769,NA,661685,2743,97488,736546,732782,736014,22468,736014,NA,NA,Sternberg Task,99,103593,111,yes,1024
89.28571429,89.28571429,930.0803571,930.0803571,black,experiment,legacy,legacy,legacy,0,uniform,1,undefined,1,right,111,111,111,0,0,111,NA,111,0,0,111,111,111,0,111,0,NA,Fri Oct 25 19:51:04 2019,The main experiment item,yes,SternbergTask.osexp,/Users/juancastaneda/Documents/Grad School /Advanced Quantitative Methods & Experimental Design,no,mono,no,18,no,white,no,yes,768,legacy,99,11,/Users/juancastaneda/Documents/Grad School /Advanced Quantitative Methods & Experimental Design/Sterberg Task/JC-subject-4.csv,legacy,7 3 2 8,Kafkaesque Koffka,3.2.8,0,n,0,right,left,left,right,NA,576,19715,16103,576,NA,NA,NA,2,legacy,4,1024,2,48000,-16,experiment,3,odd,4,739890,736562,737648,2728,113592,737660,NA,661685,2743,97488,742482,738674,741904,22468,741904,NA,NA,Sternberg Task,100,104169,112,yes,1024
89.38053097,89.38053097,932.699115,932.699115,black,experiment,legacy,legacy,legacy,0,uniform,1,undefined,1,left,112,112,112,0,0,112,NA,112,0,0,112,112,112,0,112,0,NA,Fri Oct 25 19:51:04 2019,The main experiment item,yes,SternbergTask.osexp,/Users/juancastaneda/Documents/Grad School /Advanced Quantitative Methods & Experimental Design,no,mono,no,18,no,white,no,yes,768,legacy,100,11,/Users/juancastaneda/Documents/Grad School /Advanced Quantitative Methods & Experimental Design/Sterberg Task/JC-subject-4.csv,legacy,9 6 2 4 1,Kafkaesque Koffka,3.2.8,4,y,0,left,left,left,left,NA,1226,19715,16103,1226,NA,NA,NA,2,legacy,5,1024,2,48000,-16,experiment,3,odd,4,745829,742497,743585,2728,113592,743597,NA,661685,2743,97488,749070,744611,747842,22468,747842,NA,NA,Sternberg Task,101,105395,113,yes,1024
89.47368421,89.47368421,933.1842105,933.1842105,black,experiment,legacy,legacy,legacy,0,uniform,1,undefined,1,right,113,113,113,0,0,113,NA,113,0,0,113,113,113,0,113,0,NA,Fri Oct 25 19:51:04 2019,The main experiment item,yes,SternbergTask.osexp,/Users/juancastaneda/Documents/Grad School /Advanced Quantitative Methods & Experimental Design,no,mono,no,18,no,white,no,yes,768,legacy,101,11,/Users/juancastaneda/Documents/Grad School /Advanced Quantitative Methods & Experimental Design/Sterberg Task/JC-subject-4.csv,legacy,5 3 2 6 9 8,Kafkaesque Koffka,3.2.8,0,n,0,right,left,left,right,NA,988,19715,16103,988,NA,NA,NA,2,legacy,6,1024,2,48000,-16,experiment,3,odd,4,752416,749086,750173,2728,113592,750185,NA,661685,2743,97488,755421,751200,754431,22468,754431,NA,NA,Sternberg Task,102,106383,114,yes,1024
89.56521739,89.56521739,936.826087,936.826087,black,experiment,legacy,legacy,legacy,0,uniform,1,undefined,1,right,114,114,114,0,0,114,NA,114,0,0,114,114,114,0,114,0,NA,Fri Oct 25 19:51:04 2019,The main experiment item,yes,SternbergTask.osexp,/Users/juancastaneda/Documents/Grad School /Advanced Quantitative Methods & Experimental Design,no,mono,no,18,no,white,no,yes,768,legacy,102,11,/Users/juancastaneda/Documents/Grad School /Advanced Quantitative Methods & Experimental Design/Sterberg Task/JC-subject-4.csv,legacy,8 5 4 2 9 6,Kafkaesque Koffka,3.2.8,0,n,0,right,left,left,right,NA,1352,19715,16103,1352,NA,NA,NA,2,legacy,6,1024,2,48000,-16,experiment,3,odd,3,758767,755437,756525,2728,113592,756538,NA,661685,2743,97488,762135,757553,760781,22468,760780,NA,NA,Sternberg Task,103,107735,115,yes,1024
89.65517241,89.65517241,939.3275862,939.3275862,black,experiment,legacy,legacy,legacy,0,uniform,1,undefined,1,right,115,115,115,0,0,115,NA,115,0,0,115,115,115,0,115,0,NA,Fri Oct 25 19:51:04 2019,The main experiment item,yes,SternbergTask.osexp,/Users/juancastaneda/Documents/Grad School /Advanced Quantitative Methods & Experimental Design,no,mono,no,18,no,white,no,yes,768,legacy,103,11,/Users/juancastaneda/Documents/Grad School /Advanced Quantitative Methods & Experimental Design/Sterberg Task/JC-subject-4.csv,legacy,7 1 8 4 9 3,Kafkaesque Koffka,3.2.8,0,n,0,right,left,left,right,NA,1227,19715,16103,1227,NA,NA,NA,2,legacy,6,1024,2,48000,-16,experiment,3,odd,6,765484,762152,763239,2728,113592,763251,NA,661685,2743,97488,768728,764266,767498,22468,767498,NA,NA,Sternberg Task,104,108962,116,yes,1024
89.74358974,89.74358974,938.2478632,938.2478632,black,experiment,legacy,legacy,legacy,0,uniform,1,undefined,1,left,116,116,116,0,0,116,NA,116,0,0,116,116,116,0,116,0,NA,Fri Oct 25 19:51:04 2019,The main experiment item,yes,SternbergTask.osexp,/Users/juancastaneda/Documents/Grad School /Advanced Quantitative Methods & Experimental Design,no,mono,no,18,no,white,no,yes,768,legacy,104,11,/Users/juancastaneda/Documents/Grad School /Advanced Quantitative Methods & Experimental Design/Sterberg Task/JC-subject-4.csv,legacy,8 5 3 7 4 6,Kafkaesque Koffka,3.2.8,6,y,0,left,left,left,left,NA,813,19715,16103,813,NA,NA,NA,2,legacy,6,1024,2,48000,-16,experiment,3,odd,6,772074,768744,769831,2728,113592,769843,NA,661685,2743,97488,774903,770858,774088,22468,774088,NA,NA,Sternberg Task,105,109775,117,yes,1024
89.83050847,89.83050847,939.3559322,939.3559322,black,experiment,legacy,legacy,legacy,0,uniform,1,undefined,1,left,117,117,117,0,0,117,NA,117,0,0,117,117,117,0,117,0,NA,Fri Oct 25 19:51:04 2019,The main experiment item,yes,SternbergTask.osexp,/Users/juancastaneda/Documents/Grad School /Advanced Quantitative Methods & Experimental Design,no,mono,no,18,no,white,no,yes,768,legacy,105,11,/Users/juancastaneda/Documents/Grad School /Advanced Quantitative Methods & Experimental Design/Sterberg Task/JC-subject-4.csv,legacy,7 8 4 6 9 5,Kafkaesque Koffka,3.2.8,4,y,0,left,left,left,left,NA,1069,19715,16103,1069,NA,NA,NA,2,legacy,6,1024,2,48000,-16,experiment,3,odd,6,778250,774919,776006,2728,113592,776019,NA,661685,2743,97488,781335,777033,780264,22468,780263,NA,NA,Sternberg Task,106,110844,118,yes,1024
89.91596639,89.91596639,938.6806723,938.6806723,black,experiment,legacy,legacy,legacy,0,uniform,1,undefined,1,left,118,118,118,0,0,118,NA,118,0,0,118,118,118,0,118,0,NA,Fri Oct 25 19:51:04 2019,The main experiment item,yes,SternbergTask.osexp,/Users/juancastaneda/Documents/Grad School /Advanced Quantitative Methods & Experimental Design,no,mono,no,18,no,white,no,yes,768,legacy,106,11,/Users/juancastaneda/Documents/Grad School /Advanced Quantitative Methods & Experimental Design/Sterberg Task/JC-subject-4.csv,legacy,5 2 9 6 1 7,Kafkaesque Koffka,3.2.8,3,y,0,left,left,left,left,NA,859,19715,16103,859,NA,NA,NA,2,legacy,6,1024,2,48000,-16,experiment,3,odd,9,784683,781351,782438,2728,113592,782451,NA,661685,2743,97488,787558,783465,786697,22468,786697,NA,NA,Sternberg Task,107,111703,119,yes,1024
90,90,945.8916667,945.8916667,black,experiment,legacy,legacy,legacy,0,uniform,1,undefined,1,right,119,119,119,0,0,119,NA,119,0,0,119,119,119,0,119,0,NA,Fri Oct 25 19:51:04 2019,The main experiment item,yes,SternbergTask.osexp,/Users/juancastaneda/Documents/Grad School /Advanced Quantitative Methods & Experimental Design,no,mono,no,18,no,white,no,yes,768,legacy,107,11,/Users/juancastaneda/Documents/Grad School /Advanced Quantitative Methods & Experimental Design/Sterberg Task/JC-subject-4.csv,legacy,2 6 4 3 9,Kafkaesque Koffka,3.2.8,0,n,0,right,left,left,right,NA,1804,19715,16103,1804,NA,NA,NA,2,legacy,5,1024,2,48000,-16,experiment,3,odd,1,790905,787575,788662,2728,113592,788674,NA,661685,2743,97488,794725,789689,792919,22468,792919,NA,NA,Sternberg Task,108,113507,120,yes,1024
89.25619835,89.25619835,949.7768595,949.7768595,black,experiment,legacy,legacy,legacy,0,uniform,0,undefined,0,left,120,120,120,0,0,120,NA,120,0,0,120,120,120,0,120,0,NA,Fri Oct 25 19:51:04 2019,The main experiment item,yes,SternbergTask.osexp,/Users/juancastaneda/Documents/Grad School /Advanced Quantitative Methods & Experimental Design,no,mono,no,18,no,white,no,yes,768,legacy,108,11,/Users/juancastaneda/Documents/Grad School /Advanced Quantitative Methods & Experimental Design/Sterberg Task/JC-subject-4.csv,legacy,4 6 5 8,Kafkaesque Koffka,3.2.8,1,y,0,right,left,left,right,NA,1416,19715,16103,1416,NA,NA,NA,2,legacy,4,1024,2,48000,-16,experiment,3,odd,4,798071,794740,795827,2728,113592,795839,NA,661685,2743,97488,801503,796854,800085,22468,800084,NA,NA,Sternberg Task,108,114923,121,yes,1024
89.3442623,89.3442623,950.0245902,950.0245902,black,experiment,legacy,legacy,legacy,0,uniform,1,undefined,1,right,121,121,121,0,0,121,NA,121,0,0,121,121,121,0,121,0,NA,Fri Oct 25 19:51:04 2019,The main experiment item,yes,SternbergTask.osexp,/Users/juancastaneda/Documents/Grad School /Advanced Quantitative Methods & Experimental Design,no,mono,no,18,no,white,no,yes,768,legacy,109,11,/Users/juancastaneda/Documents/Grad School /Advanced Quantitative Methods & Experimental Design/Sterberg Task/JC-subject-4.csv,legacy,3 9 8 1 6 4,Kafkaesque Koffka,3.2.8,0,n,0,right,left,left,right,NA,980,19715,16103,980,NA,NA,NA,2,legacy,6,1024,2,48000,-16,experiment,3,odd,7,804851,794740,802606,2728,113592,802619,NA,801519,2743,97488,807847,803634,806865,22468,806865,NA,NA,Sternberg Task,109,115903,122,yes,1024
89.43089431,89.43089431,951.7073171,951.7073171,black,experiment,legacy,legacy,legacy,0,uniform,1,undefined,1,right,122,122,122,0,0,122,NA,122,0,0,122,122,122,0,122,0,NA,Fri Oct 25 19:51:04 2019,The main experiment item,yes,SternbergTask.osexp,/Users/juancastaneda/Documents/Grad School /Advanced Quantitative Methods & Experimental Design,no,mono,no,18,no,white,no,yes,768,legacy,110,11,/Users/juancastaneda/Documents/Grad School /Advanced Quantitative Methods & Experimental Design/Sterberg Task/JC-subject-4.csv,legacy,1 4 3 6 5,Kafkaesque Koffka,3.2.8,0,n,0,right,left,left,right,NA,1157,19715,16103,1157,NA,NA,NA,2,legacy,5,1024,2,48000,-16,experiment,3,odd,8,811193,807863,808949,2728,113592,808962,NA,801519,2743,97488,814366,809977,813207,22468,813206,NA,NA,Sternberg Task,110,117060,123,yes,1024
89.51612903,89.51612903,953.2258065,953.2258065,black,experiment,legacy,legacy,legacy,0,uniform,1,undefined,1,left,123,123,123,0,0,123,NA,123,0,0,123,123,123,0,123,0,NA,Fri Oct 25 19:51:04 2019,The main experiment item,yes,SternbergTask.osexp,/Users/juancastaneda/Documents/Grad School /Advanced Quantitative Methods & Experimental Design,no,mono,no,18,no,white,no,yes,768,legacy,111,11,/Users/juancastaneda/Documents/Grad School /Advanced Quantitative Methods & Experimental Design/Sterberg Task/JC-subject-4.csv,legacy,7 1 8 5 6 2,Kafkaesque Koffka,3.2.8,2,y,0,left,left,left,left,NA,1140,19715,16103,1140,NA,NA,NA,2,legacy,6,1024,2,48000,-16,experiment,3,odd,1,817714,814382,815470,2728,113592,815483,NA,801519,2743,97488,820870,816497,819727,22468,819727,NA,NA,Sternberg Task,111,118200,124,yes,1024
89.6,89.6,951.072,951.072,black,experiment,legacy,legacy,legacy,0,uniform,1,undefined,1,left,124,124,124,0,0,124,NA,124,0,0,124,124,124,0,124,0,NA,Fri Oct 25 19:51:04 2019,The main experiment item,yes,SternbergTask.osexp,/Users/juancastaneda/Documents/Grad School /Advanced Quantitative Methods & Experimental Design,no,mono,no,18,no,white,no,yes,768,legacy,112,11,/Users/juancastaneda/Documents/Grad School /Advanced Quantitative Methods & Experimental Design/Sterberg Task/JC-subject-4.csv,legacy,7 4 2 6 3 5,Kafkaesque Koffka,3.2.8,6,y,0,left,left,left,left,NA,684,19715,16103,684,NA,NA,NA,2,legacy,6,1024,2,48000,-16,experiment,3,odd,5,824217,820886,821973,2728,113592,821986,NA,801519,2743,97488,826917,823000,826231,22468,826231,NA,NA,Sternberg Task,112,118884,125,yes,1024
