acc,accuracy,average_response_time,avg_rt,background,block,canvas_backend,clock_backend,color_backend,compensation,coordinates,correct,correct_Instruction1,correct_keyboard_response,correct_response,count_CorrectFeedback,count_ExperimentLoop,count_Fixation,count_ISI,count_IncorrectFeedback,count_Instruction1,count_Instruction2,count_MemorySet,count_Practiceloop,count_Probe,count_ThankYou,count_expSequence,count_experiment,count_keyboard_response,count_logger,datetime,description,disable_garbage_collection,experiment_file,experiment_path,font_bold,font_family,font_italic,font_size,font_underline,foreground,form_clicks,fullscreen,height,keyboard_backend,live_row,live_row_Practiceloop,logfile,mouse_backend,numberSet,opensesame_codename,opensesame_version,posInSet,present,repeat_cycle,response,response_Instruction1,response_Instruction2,response_ThankYou,response_keyboard_response,response_time,response_time_Instruction1,response_time_Instruction2,response_time_ThankYou,response_time_keyboard_response,round_decimals,sampler_backend,setSize,sound_buf_size,sound_channels,sound_freq,sound_sample_size,start,subject_nr,subject_parity,target,time_CorrectFeedback,time_ExperimentLoop,time_Fixation,time_ISI,time_IncorrectFeedback,time_Instruction1,time_Instruction2,time_MemorySet,time_Practiceloop,time_Probe,time_ThankYou,time_expSequence,time_experiment,time_keyboard_response,time_logger,title,total_correct,total_response_time,total_responses,uniform_coordinates,width
100,100,1200,1200,black,practice,legacy,legacy,legacy,0,uniform,1,undefined,1,right,0,0,0,0,0,0,0,0,0,0,0,0,0,0,0,10/18/19 17:15,The main experiment item,yes,SternbergTask.osexp,C:/Users/Carolyn/Desktop,no,mono,no,18,no,white,no,yes,768,legacy,0,0,C:/Users/Carolyn/Desktop/cp_subject-4.csv,legacy,5 7 8 4 1 2,Kafkaesque Koffka,3.2.8,0,n,0,right,right,NA,NA,right,1200,67135,NA,NA,1200,2,legacy,6,1024,2,48000,-16,experiment,4,even,6,NA,NA,79936,82143,NA,5579,NA,80939,72716,84146,NA,79930,5574,84146,85347,Sternberg Task,1,1200,1,yes,1024
100,100,1568.5,1568.5,black,practice,legacy,legacy,legacy,0,uniform,1,undefined,1,right,1,0,1,1,1,0,0,1,0,1,0,1,0,1,1,10/18/19 17:15,The main experiment item,yes,SternbergTask.osexp,C:/Users/Carolyn/Desktop,no,mono,no,18,no,white,no,yes,768,legacy,1,1,C:/Users/Carolyn/Desktop/cp_subject-4.csv,legacy,5,Kafkaesque Koffka,3.2.8,0,n,0,right,right,NA,NA,right,1937,67135,NA,NA,1937,2,legacy,1,1024,2,48000,-16,experiment,4,even,3,85557,NA,86735,88941,NA,5579,NA,87738,72716,90944,NA,86731,5574,90945,92883,Sternberg Task,2,3137,2,yes,1024
66.66666667,66.66666667,1459.666667,1459.666667,black,practice,legacy,legacy,legacy,0,uniform,0,undefined,0,right,2,0,2,2,2,0,0,2,0,2,0,2,0,2,2,10/18/19 17:15,The main experiment item,yes,SternbergTask.osexp,C:/Users/Carolyn/Desktop,no,mono,no,18,no,white,no,yes,768,legacy,2,2,C:/Users/Carolyn/Desktop/cp_subject-4.csv,legacy,2 1,Kafkaesque Koffka,3.2.8,0,n,0,left,right,NA,NA,left,1242,67135,NA,NA,1242,2,legacy,2,1024,2,48000,-16,experiment,4,even,5,92932,NA,94109,96316,NA,5579,NA,95112,72716,98319,NA,94105,5574,98320,99563,Sternberg Task,2,4379,3,yes,1024
75,75,1308.25,1308.25,black,practice,legacy,legacy,legacy,0,uniform,1,undefined,1,right,3,0,3,3,3,0,0,3,0,3,0,3,0,3,3,10/18/19 17:15,The main experiment item,yes,SternbergTask.osexp,C:/Users/Carolyn/Desktop,no,mono,no,18,no,white,no,yes,768,legacy,3,3,C:/Users/Carolyn/Desktop/cp_subject-4.csv,legacy,3 1 9 4,Kafkaesque Koffka,3.2.8,0,n,0,right,right,NA,NA,right,854,67135,NA,NA,854,2,legacy,4,1024,2,48000,-16,experiment,4,even,6,92932,NA,100793,103001,99615,5579,NA,101796,72716,105004,NA,100789,5574,105004,105859,Sternberg Task,3,5233,4,yes,1024
60,60,1259.8,1259.8,black,practice,legacy,legacy,legacy,0,uniform,0,undefined,0,left,4,0,4,4,4,0,0,4,0,4,0,4,0,4,4,10/18/19 17:15,The main experiment item,yes,SternbergTask.osexp,C:/Users/Carolyn/Desktop,no,mono,no,18,no,white,no,yes,768,legacy,4,4,C:/Users/Carolyn/Desktop/cp_subject-4.csv,legacy,2 9 4,Kafkaesque Koffka,3.2.8,3,y,0,right,right,NA,NA,right,1066,67135,NA,NA,1066,2,legacy,3,1024,2,48000,-16,experiment,4,even,4,105907,NA,107085,109292,99615,5579,NA,108088,72716,111295,NA,107081,5574,111296,112363,Sternberg Task,3,6299,5,yes,1024
66.66666667,66.66666667,1188.666667,1188.666667,black,practice,legacy,legacy,legacy,0,uniform,1,undefined,1,left,5,0,5,5,5,0,0,5,0,5,0,5,0,5,5,10/18/19 17:15,The main experiment item,yes,SternbergTask.osexp,C:/Users/Carolyn/Desktop,no,mono,no,18,no,white,no,yes,768,legacy,5,5,C:/Users/Carolyn/Desktop/cp_subject-4.csv,legacy,4 8,Kafkaesque Koffka,3.2.8,1,y,0,left,right,NA,NA,left,833,67135,NA,NA,833,2,legacy,2,1024,2,48000,-16,experiment,4,even,4,105907,NA,113591,115797,112415,5579,NA,114594,72716,117800,NA,113587,5574,117801,118635,Sternberg Task,4,7132,6,yes,1024
71.42857143,71.42857143,1198.428571,1198.428571,black,practice,legacy,legacy,legacy,0,uniform,1,undefined,1,left,6,0,6,6,6,0,0,6,0,6,0,6,0,6,6,10/18/19 17:15,The main experiment item,yes,SternbergTask.osexp,C:/Users/Carolyn/Desktop,no,mono,no,18,no,white,no,yes,768,legacy,6,6,C:/Users/Carolyn/Desktop/cp_subject-4.csv,legacy,1 7 9 8 5,Kafkaesque Koffka,3.2.8,4,y,0,left,right,NA,NA,left,1257,67135,NA,NA,1257,2,legacy,5,1024,2,48000,-16,experiment,4,even,8,118673,NA,119855,122062,112415,5579,NA,120858,72716,124065,NA,119851,5574,124065,125323,Sternberg Task,5,8389,7,yes,1024
75,75,1162.375,1162.375,black,practice,legacy,legacy,legacy,0,uniform,1,undefined,1,right,7,0,7,7,7,0,0,7,0,7,0,7,0,7,7,10/18/19 17:15,The main experiment item,yes,SternbergTask.osexp,C:/Users/Carolyn/Desktop,no,mono,no,18,no,white,no,yes,768,legacy,7,7,C:/Users/Carolyn/Desktop/cp_subject-4.csv,legacy,4 1 5,Kafkaesque Koffka,3.2.8,0,n,0,right,right,NA,NA,right,910,67135,NA,NA,910,2,legacy,3,1024,2,48000,-16,experiment,4,even,2,125374,NA,126553,128760,112415,5579,NA,127556,72716,130763,NA,126549,5574,130764,131675,Sternberg Task,6,9299,8,yes,1024
77.77777778,77.77777778,1152.444444,1152.444444,black,practice,legacy,legacy,legacy,0,uniform,1,undefined,1,left,8,0,8,8,8,0,0,8,0,8,0,8,0,8,8,10/18/19 17:15,The main experiment item,yes,SternbergTask.osexp,C:/Users/Carolyn/Desktop,no,mono,no,18,no,white,no,yes,768,legacy,8,8,C:/Users/Carolyn/Desktop/cp_subject-4.csv,legacy,1 5 2 9,Kafkaesque Koffka,3.2.8,2,y,0,left,right,NA,NA,left,1073,67135,NA,NA,1073,2,legacy,4,1024,2,48000,-16,experiment,4,even,5,131724,NA,132903,135110,112415,5579,NA,133907,72716,137113,NA,132900,5574,137113,138187,Sternberg Task,7,10372,9,yes,1024
80,80,1110.7,1110.7,black,practice,legacy,legacy,legacy,0,uniform,1,undefined,1,left,9,0,9,9,9,0,0,9,0,9,0,9,0,9,9,10/18/19 17:15,The main experiment item,yes,SternbergTask.osexp,C:/Users/Carolyn/Desktop,no,mono,no,18,no,white,no,yes,768,legacy,9,9,C:/Users/Carolyn/Desktop/cp_subject-4.csv,legacy,4 3 1 7 9 8,Kafkaesque Koffka,3.2.8,1,y,0,left,right,NA,NA,left,735,67135,NA,NA,735,2,legacy,6,1024,2,48000,-16,experiment,4,even,4,138240,NA,139418,141624,112415,5579,NA,140421,72716,143627,NA,139414,5574,143627,144363,Sternberg Task,8,11107,10,yes,1024
72.72727273,72.72727273,1132.727273,1132.727273,black,practice,legacy,legacy,legacy,0,uniform,0,undefined,0,left,10,0,10,10,10,0,0,10,0,10,0,10,0,10,10,10/18/19 17:15,The main experiment item,yes,SternbergTask.osexp,C:/Users/Carolyn/Desktop,no,mono,no,18,no,white,no,yes,768,legacy,10,10,C:/Users/Carolyn/Desktop/cp_subject-4.csv,legacy,6,Kafkaesque Koffka,3.2.8,1,y,0,right,right,NA,NA,right,1353,67135,NA,NA,1353,2,legacy,1,1024,2,48000,-16,experiment,4,even,6,144415,NA,145591,147797,112415,5579,NA,146594,72716,149800,NA,145587,5574,149801,151155,Sternberg Task,8,12460,11,yes,1024
75,75,1138.75,1138.75,black,practice,legacy,legacy,legacy,0,uniform,1,undefined,1,right,11,0,11,11,11,0,0,11,0,11,0,11,0,11,11,10/18/19 17:15,The main experiment item,yes,SternbergTask.osexp,C:/Users/Carolyn/Desktop,no,mono,no,18,no,white,no,yes,768,legacy,11,11,C:/Users/Carolyn/Desktop/cp_subject-4.csv,legacy,9 6 7 4 5,Kafkaesque Koffka,3.2.8,0,n,0,right,right,NA,NA,right,1205,67135,NA,NA,1205,2,legacy,5,1024,2,48000,-16,experiment,4,even,3,144415,NA,152379,154586,151203,5579,NA,153382,72716,156589,NA,152375,5574,156589,157795,Sternberg Task,9,13665,12,yes,1024
76.92307692,76.92307692,1136.076923,1136.076923,black,experiment,legacy,legacy,legacy,0,uniform,1,undefined,1,left,12,0,12,12,12,0,0,12,0,12,0,12,0,12,12,10/18/19 17:15,The main experiment item,yes,SternbergTask.osexp,C:/Users/Carolyn/Desktop,no,mono,no,18,no,white,no,yes,768,legacy,0,11,C:/Users/Carolyn/Desktop/cp_subject-4.csv,legacy,2 8 5 1,Kafkaesque Koffka,3.2.8,4,y,0,left,right,left,NA,left,1104,67135,8071,NA,1104,2,legacy,4,1024,2,48000,-16,experiment,4,even,1,157840,166947,167168,169375,151203,5579,158875,168171,72716,171378,NA,167164,5574,171378,172483,Sternberg Task,10,14769,13,yes,1024
78.57142857,78.57142857,1114.428571,1114.428571,black,experiment,legacy,legacy,legacy,0,uniform,1,undefined,1,left,13,0,13,13,13,0,0,13,0,13,0,13,0,13,13,10/18/19 17:15,The main experiment item,yes,SternbergTask.osexp,C:/Users/Carolyn/Desktop,no,mono,no,18,no,white,no,yes,768,legacy,1,11,C:/Users/Carolyn/Desktop/cp_subject-4.csv,legacy,3 5 7 1,Kafkaesque Koffka,3.2.8,3,y,0,left,right,left,NA,left,833,67135,8071,NA,833,2,legacy,4,1024,2,48000,-16,experiment,4,even,7,172523,166947,173702,175909,151203,5579,158875,174705,72716,177912,NA,173698,5574,177913,178747,Sternberg Task,11,15602,14,yes,1024
80,80,1103.666667,1103.666667,black,experiment,legacy,legacy,legacy,0,uniform,1,undefined,1,right,14,0,14,14,14,0,0,14,0,14,0,14,0,14,14,10/18/19 17:15,The main experiment item,yes,SternbergTask.osexp,C:/Users/Carolyn/Desktop,no,mono,no,18,no,white,no,yes,768,legacy,2,11,C:/Users/Carolyn/Desktop/cp_subject-4.csv,legacy,9 5 3 2 8 6,Kafkaesque Koffka,3.2.8,0,n,0,right,right,left,NA,right,953,67135,8071,NA,953,2,legacy,6,1024,2,48000,-16,experiment,4,even,7,178798,166947,179975,182182,151203,5579,158875,180979,72716,184185,NA,179971,5574,184185,185139,Sternberg Task,12,16555,15,yes,1024
81.25,81.25,1074.875,1074.875,black,experiment,legacy,legacy,legacy,0,uniform,1,undefined,1,right,15,0,15,15,15,0,0,15,0,15,0,15,0,15,15,10/18/19 17:15,The main experiment item,yes,SternbergTask.osexp,C:/Users/Carolyn/Desktop,no,mono,no,18,no,white,no,yes,768,legacy,3,11,C:/Users/Carolyn/Desktop/cp_subject-4.csv,legacy,7 1,Kafkaesque Koffka,3.2.8,0,n,0,right,right,left,NA,right,643,67135,8071,NA,643,2,legacy,2,1024,2,48000,-16,experiment,4,even,8,185189,166947,186366,188572,151203,5579,158875,187369,72716,190575,NA,186362,5574,190575,191219,Sternberg Task,13,17198,16,yes,1024
82.35294118,82.35294118,1070.705882,1070.705882,black,experiment,legacy,legacy,legacy,0,uniform,1,undefined,1,right,16,0,16,16,16,0,0,16,0,16,0,16,0,16,16,10/18/19 17:15,The main experiment item,yes,SternbergTask.osexp,C:/Users/Carolyn/Desktop,no,mono,no,18,no,white,no,yes,768,legacy,4,11,C:/Users/Carolyn/Desktop/cp_subject-4.csv,legacy,1 7 5 2,Kafkaesque Koffka,3.2.8,0,n,0,right,right,left,NA,right,1004,67135,8071,NA,1004,2,legacy,4,1024,2,48000,-16,experiment,4,even,3,191273,166947,192451,194658,151203,5579,158875,193454,72716,196661,NA,192447,5574,196662,197667,Sternberg Task,14,18202,17,yes,1024
83.33333333,83.33333333,1069.555556,1069.555556,black,experiment,legacy,legacy,legacy,0,uniform,1,undefined,1,left,17,0,17,17,17,0,0,17,0,17,0,17,0,17,17,10/18/19 17:15,The main experiment item,yes,SternbergTask.osexp,C:/Users/Carolyn/Desktop,no,mono,no,18,no,white,no,yes,768,legacy,5,11,C:/Users/Carolyn/Desktop/cp_subject-4.csv,legacy,9 1 6 7 8,Kafkaesque Koffka,3.2.8,1,y,0,left,right,left,NA,left,1050,67135,8071,NA,1050,2,legacy,5,1024,2,48000,-16,experiment,4,even,9,197706,166947,198886,201092,151203,5579,158875,199889,72716,203095,NA,198882,5574,203096,204147,Sternberg Task,15,19252,18,yes,1024
84.21052632,84.21052632,1072.526316,1072.526316,black,experiment,legacy,legacy,legacy,0,uniform,1,undefined,1,left,18,0,18,18,18,0,0,18,0,18,0,18,0,18,18,10/18/19 17:15,The main experiment item,yes,SternbergTask.osexp,C:/Users/Carolyn/Desktop,no,mono,no,18,no,white,no,yes,768,legacy,6,11,C:/Users/Carolyn/Desktop/cp_subject-4.csv,legacy,9 3 1 2 5,Kafkaesque Koffka,3.2.8,4,y,0,left,right,left,NA,left,1126,67135,8071,NA,1126,2,legacy,5,1024,2,48000,-16,experiment,4,even,2,204190,166947,205371,207577,151203,5579,158875,206374,72716,209580,NA,205367,5574,209580,210707,Sternberg Task,16,20378,19,yes,1024
85,85,1071.3,1071.3,black,experiment,legacy,legacy,legacy,0,uniform,1,undefined,1,left,19,0,19,19,19,0,0,19,0,19,0,19,0,19,19,10/18/19 17:15,The main experiment item,yes,SternbergTask.osexp,C:/Users/Carolyn/Desktop,no,mono,no,18,no,white,no,yes,768,legacy,7,11,C:/Users/Carolyn/Desktop/cp_subject-4.csv,legacy,9 1 7 2,Kafkaesque Koffka,3.2.8,2,y,0,left,right,left,NA,left,1048,67135,8071,NA,1048,2,legacy,4,1024,2,48000,-16,experiment,4,even,1,210814,166947,211991,214198,151203,5579,158875,212994,72716,216201,NA,211987,5574,216202,217251,Sternberg Task,17,21426,20,yes,1024
85.71428571,85.71428571,1066.619048,1066.619048,black,experiment,legacy,legacy,legacy,0,uniform,1,undefined,1,right,20,0,20,20,20,0,0,20,0,20,0,20,0,20,20,10/18/19 17:15,The main experiment item,yes,SternbergTask.osexp,C:/Users/Carolyn/Desktop,no,mono,no,18,no,white,no,yes,768,legacy,8,11,C:/Users/Carolyn/Desktop/cp_subject-4.csv,legacy,7 6 4 8 1 2,Kafkaesque Koffka,3.2.8,0,n,0,right,right,left,NA,right,973,67135,8071,NA,973,2,legacy,6,1024,2,48000,-16,experiment,4,even,9,217297,166947,218475,220681,151203,5579,158875,219478,72716,222684,NA,218471,5574,222685,223659,Sternberg Task,18,22399,21,yes,1024
86.36363636,86.36363636,1061.045455,1061.045455,black,experiment,legacy,legacy,legacy,0,uniform,1,undefined,1,left,21,0,21,21,21,0,0,21,0,21,0,21,0,21,21,10/18/19 17:15,The main experiment item,yes,SternbergTask.osexp,C:/Users/Carolyn/Desktop,no,mono,no,18,no,white,no,yes,768,legacy,9,11,C:/Users/Carolyn/Desktop/cp_subject-4.csv,legacy,3 5 9 6 2 4,Kafkaesque Koffka,3.2.8,1,y,0,left,right,left,NA,left,944,67135,8071,NA,944,2,legacy,6,1024,2,48000,-16,experiment,4,even,3,223706,166947,224885,227093,151203,5579,158875,225889,72716,229097,NA,224881,5574,229098,230043,Sternberg Task,19,23343,22,yes,1024
86.95652174,86.95652174,1059.173913,1059.173913,black,experiment,legacy,legacy,legacy,0,uniform,1,undefined,1,left,22,0,22,22,22,0,0,22,0,22,0,22,0,22,22,10/18/19 17:15,The main experiment item,yes,SternbergTask.osexp,C:/Users/Carolyn/Desktop,no,mono,no,18,no,white,no,yes,768,legacy,10,11,C:/Users/Carolyn/Desktop/cp_subject-4.csv,legacy,3 4 9 6 2 9,Kafkaesque Koffka,3.2.8,5,y,0,left,right,left,NA,left,1018,67135,8071,NA,1018,2,legacy,6,1024,2,48000,-16,experiment,4,even,2,230097,166947,231277,233484,151203,5579,158875,232280,72716,235487,NA,231273,5574,235488,236507,Sternberg Task,20,24361,23,yes,1024
87.5,87.5,1046.041667,1046.041667,black,experiment,legacy,legacy,legacy,0,uniform,1,undefined,1,left,23,0,23,23,23,0,0,23,0,23,0,23,0,23,23,10/18/19 17:15,The main experiment item,yes,SternbergTask.osexp,C:/Users/Carolyn/Desktop,no,mono,no,18,no,white,no,yes,768,legacy,11,11,C:/Users/Carolyn/Desktop/cp_subject-4.csv,legacy,2 3,Kafkaesque Koffka,3.2.8,1,y,0,left,right,left,NA,left,744,67135,8071,NA,744,2,legacy,2,1024,2,48000,-16,experiment,4,even,2,236581,166947,237760,239966,151203,5579,158875,238763,72716,241969,NA,237756,5574,241970,242715,Sternberg Task,21,25105,24,yes,1024
88,88,1050.16,1050.16,black,experiment,legacy,legacy,legacy,0,uniform,1,undefined,1,right,24,0,24,24,24,0,0,24,0,24,0,24,0,24,24,10/18/19 17:15,The main experiment item,yes,SternbergTask.osexp,C:/Users/Carolyn/Desktop,no,mono,no,18,no,white,no,yes,768,legacy,12,11,C:/Users/Carolyn/Desktop/cp_subject-4.csv,legacy,9 7 4 5 8,Kafkaesque Koffka,3.2.8,0,n,0,right,right,left,NA,right,1149,67135,8071,NA,1149,2,legacy,5,1024,2,48000,-16,experiment,4,even,6,242764,166947,243940,246146,151203,5579,158875,244943,72716,248149,NA,243936,5574,248149,249299,Sternberg Task,22,26254,25,yes,1024
88.46153846,88.46153846,1042.846154,1042.846154,black,experiment,legacy,legacy,legacy,0,uniform,1,undefined,1,right,25,0,25,25,25,0,0,25,0,25,0,25,0,25,25,10/18/19 17:15,The main experiment item,yes,SternbergTask.osexp,C:/Users/Carolyn/Desktop,no,mono,no,18,no,white,no,yes,768,legacy,13,11,C:/Users/Carolyn/Desktop/cp_subject-4.csv,legacy,2 8 6 3 1,Kafkaesque Koffka,3.2.8,0,n,0,right,right,left,NA,right,860,67135,8071,NA,860,2,legacy,5,1024,2,48000,-16,experiment,4,even,7,249347,166947,250523,252730,151203,5579,158875,251526,72716,254733,NA,250519,5574,254734,255595,Sternberg Task,23,27114,26,yes,1024
88.88888889,88.88888889,1030.592593,1030.592593,black,experiment,legacy,legacy,legacy,0,uniform,1,undefined,1,right,26,0,26,26,26,0,0,26,0,26,0,26,0,26,26,10/18/19 17:15,The main experiment item,yes,SternbergTask.osexp,C:/Users/Carolyn/Desktop,no,mono,no,18,no,white,no,yes,768,legacy,14,11,C:/Users/Carolyn/Desktop/cp_subject-4.csv,legacy,3 9 1,Kafkaesque Koffka,3.2.8,0,n,0,right,right,left,NA,right,712,67135,8071,NA,712,2,legacy,3,1024,2,48000,-16,experiment,4,even,7,255647,166947,256825,259031,151203,5579,158875,257828,72716,261034,NA,256821,5574,261034,261747,Sternberg Task,24,27826,27,yes,1024
89.28571429,89.28571429,1021.857143,1021.857143,black,experiment,legacy,legacy,legacy,0,uniform,1,undefined,1,left,27,0,27,27,27,0,0,27,0,27,0,27,0,27,27,10/18/19 17:15,The main experiment item,yes,SternbergTask.osexp,C:/Users/Carolyn/Desktop,no,mono,no,18,no,white,no,yes,768,legacy,15,11,C:/Users/Carolyn/Desktop/cp_subject-4.csv,legacy,3 5 4 7,Kafkaesque Koffka,3.2.8,1,y,0,left,right,left,NA,left,786,67135,8071,NA,786,2,legacy,4,1024,2,48000,-16,experiment,4,even,3,261797,166947,262974,265181,151203,5579,158875,263977,72716,267184,NA,262970,5574,267184,267971,Sternberg Task,25,28612,28,yes,1024
86.20689655,86.20689655,1022.517241,1022.517241,black,experiment,legacy,legacy,legacy,0,uniform,0,undefined,0,left,28,0,28,28,28,0,0,28,0,28,0,28,0,28,28,10/18/19 17:15,The main experiment item,yes,SternbergTask.osexp,C:/Users/Carolyn/Desktop,no,mono,no,18,no,white,no,yes,768,legacy,16,11,C:/Users/Carolyn/Desktop/cp_subject-4.csv,legacy,6 9 7 4 5 1,Kafkaesque Koffka,3.2.8,2,y,0,right,right,left,NA,right,1041,67135,8071,NA,1041,2,legacy,6,1024,2,48000,-16,experiment,4,even,9,268014,166947,269191,271397,151203,5579,158875,270194,72716,273400,NA,269187,5574,273401,274443,Sternberg Task,25,29653,29,yes,1024
86.66666667,86.66666667,1018.466667,1018.466667,black,experiment,legacy,legacy,legacy,0,uniform,1,undefined,1,left,29,0,29,29,29,0,0,29,0,29,0,29,0,29,29,10/18/19 17:15,The main experiment item,yes,SternbergTask.osexp,C:/Users/Carolyn/Desktop,no,mono,no,18,no,white,no,yes,768,legacy,17,11,C:/Users/Carolyn/Desktop/cp_subject-4.csv,legacy,2 5 4 8 7,Kafkaesque Koffka,3.2.8,3,y,0,left,right,left,NA,left,901,67135,8071,NA,901,2,legacy,5,1024,2,48000,-16,experiment,4,even,4,268014,166947,275675,277881,274497,5579,158875,276678,72716,279884,NA,275671,5574,279885,280787,Sternberg Task,26,30554,30,yes,1024
87.09677419,87.09677419,1014.258065,1014.258065,black,experiment,legacy,legacy,legacy,0,uniform,1,undefined,1,left,30,0,30,30,30,0,0,30,0,30,0,30,0,30,30,10/18/19 17:15,The main experiment item,yes,SternbergTask.osexp,C:/Users/Carolyn/Desktop,no,mono,no,18,no,white,no,yes,768,legacy,18,11,C:/Users/Carolyn/Desktop/cp_subject-4.csv,legacy,7 8 6 3 1,Kafkaesque Koffka,3.2.8,5,y,0,left,right,left,NA,left,888,67135,8071,NA,888,2,legacy,5,1024,2,48000,-16,experiment,4,even,1,280838,166947,282016,284223,274497,5579,158875,283019,72716,286226,NA,282012,5574,286226,287115,Sternberg Task,27,31442,31,yes,1024
87.5,87.5,999.53125,999.53125,black,experiment,legacy,legacy,legacy,0,uniform,1,undefined,1,left,31,0,31,31,31,0,0,31,0,31,0,31,0,31,31,10/18/19 17:15,The main experiment item,yes,SternbergTask.osexp,C:/Users/Carolyn/Desktop,no,mono,no,18,no,white,no,yes,768,legacy,19,11,C:/Users/Carolyn/Desktop/cp_subject-4.csv,legacy,4 6 5 8,Kafkaesque Koffka,3.2.8,1,y,0,left,right,left,NA,left,543,67135,8071,NA,543,2,legacy,4,1024,2,48000,-16,experiment,4,even,4,287163,166947,288344,290551,274497,5579,158875,289347,72716,292554,NA,288340,5574,292555,293099,Sternberg Task,28,31985,32,yes,1024
87.87878788,87.87878788,995.3939394,995.3939394,black,experiment,legacy,legacy,legacy,0,uniform,1,undefined,1,left,32,0,32,32,32,0,0,32,0,32,0,32,0,32,32,10/18/19 17:15,The main experiment item,yes,SternbergTask.osexp,C:/Users/Carolyn/Desktop,no,mono,no,18,no,white,no,yes,768,legacy,20,11,C:/Users/Carolyn/Desktop/cp_subject-4.csv,legacy,8 5 4 7 3 1,Kafkaesque Koffka,3.2.8,2,y,0,left,right,left,NA,left,863,67135,8071,NA,863,2,legacy,6,1024,2,48000,-16,experiment,4,even,5,293146,166947,294327,296534,274497,5579,158875,295330,72716,298538,NA,294323,5574,298539,299403,Sternberg Task,29,32848,33,yes,1024
88.23529412,88.23529412,996.6764706,996.6764706,black,experiment,legacy,legacy,legacy,0,uniform,1,undefined,1,right,33,0,33,33,33,0,0,33,0,33,0,33,0,33,33,10/18/19 17:15,The main experiment item,yes,SternbergTask.osexp,C:/Users/Carolyn/Desktop,no,mono,no,18,no,white,no,yes,768,legacy,21,11,C:/Users/Carolyn/Desktop/cp_subject-4.csv,legacy,6 9 4 5 2,Kafkaesque Koffka,3.2.8,0,n,0,right,right,left,NA,right,1039,67135,8071,NA,1039,2,legacy,5,1024,2,48000,-16,experiment,4,even,1,299455,166947,300633,302840,274497,5579,158875,301636,72716,304843,NA,300629,5574,304843,305883,Sternberg Task,30,33887,34,yes,1024
88.57142857,88.57142857,1006.685714,1006.685714,black,experiment,legacy,legacy,legacy,0,uniform,1,undefined,1,right,34,0,34,34,34,0,0,34,0,34,0,34,0,34,34,10/18/19 17:15,The main experiment item,yes,SternbergTask.osexp,C:/Users/Carolyn/Desktop,no,mono,no,18,no,white,no,yes,768,legacy,22,11,C:/Users/Carolyn/Desktop/cp_subject-4.csv,legacy,8 4 3 5,Kafkaesque Koffka,3.2.8,0,n,0,right,right,left,NA,right,1347,67135,8071,NA,1347,2,legacy,4,1024,2,48000,-16,experiment,4,even,6,305930,166947,307108,309315,274497,5579,158875,308112,72716,311318,NA,307104,5574,311319,312667,Sternberg Task,31,35234,35,yes,1024
88.88888889,88.88888889,1008.833333,1008.833333,black,experiment,legacy,legacy,legacy,0,uniform,1,undefined,1,right,35,0,35,35,35,0,0,35,0,35,0,35,0,35,35,10/18/19 17:15,The main experiment item,yes,SternbergTask.osexp,C:/Users/Carolyn/Desktop,no,mono,no,18,no,white,no,yes,768,legacy,23,11,C:/Users/Carolyn/Desktop/cp_subject-4.csv,legacy,2 8 7 9 5 3,Kafkaesque Koffka,3.2.8,0,n,0,right,right,left,NA,right,1084,67135,8071,NA,1084,2,legacy,6,1024,2,48000,-16,experiment,4,even,6,312713,166947,313892,316099,274497,5579,158875,314895,72716,318102,NA,313888,5574,318102,319187,Sternberg Task,32,36318,36,yes,1024
89.18918919,89.18918919,1003.432432,1003.432432,black,experiment,legacy,legacy,legacy,0,uniform,1,undefined,1,right,36,0,36,36,36,0,0,36,0,36,0,36,0,36,36,10/18/19 17:15,The main experiment item,yes,SternbergTask.osexp,C:/Users/Carolyn/Desktop,no,mono,no,18,no,white,no,yes,768,legacy,24,11,C:/Users/Carolyn/Desktop/cp_subject-4.csv,legacy,8 4 3 9,Kafkaesque Koffka,3.2.8,0,n,0,right,right,left,NA,right,809,67135,8071,NA,809,2,legacy,4,1024,2,48000,-16,experiment,4,even,5,319238,166947,320415,322622,274497,5579,158875,321418,72716,324625,NA,320411,5574,324625,325435,Sternberg Task,33,37127,37,yes,1024
89.47368421,89.47368421,1000.131579,1000.131579,black,experiment,legacy,legacy,legacy,0,uniform,1,undefined,1,left,37,0,37,37,37,0,0,37,0,37,0,37,0,37,37,10/18/19 17:15,The main experiment item,yes,SternbergTask.osexp,C:/Users/Carolyn/Desktop,no,mono,no,18,no,white,no,yes,768,legacy,25,11,C:/Users/Carolyn/Desktop/cp_subject-4.csv,legacy,3 4,Kafkaesque Koffka,3.2.8,1,y,0,left,right,left,NA,left,878,67135,8071,NA,878,2,legacy,2,1024,2,48000,-16,experiment,4,even,3,325488,166947,326665,328872,274497,5579,158875,327668,72716,330875,NA,326661,5574,330876,331755,Sternberg Task,34,38005,38,yes,1024
89.74358974,89.74358974,997.2051282,997.2051282,black,experiment,legacy,legacy,legacy,0,uniform,1,undefined,1,right,38,0,38,38,38,0,0,38,0,38,0,38,0,38,38,10/18/19 17:15,The main experiment item,yes,SternbergTask.osexp,C:/Users/Carolyn/Desktop,no,mono,no,18,no,white,no,yes,768,legacy,26,11,C:/Users/Carolyn/Desktop/cp_subject-4.csv,legacy,1 5 3 2 8,Kafkaesque Koffka,3.2.8,0,n,0,right,right,left,NA,right,886,67135,8071,NA,886,2,legacy,5,1024,2,48000,-16,experiment,4,even,4,331805,166947,332986,335192,274497,5579,158875,333989,72716,337195,NA,332982,5574,337196,338083,Sternberg Task,35,38891,39,yes,1024
90,90,991.425,991.425,black,experiment,legacy,legacy,legacy,0,uniform,1,undefined,1,right,39,0,39,39,39,0,0,39,0,39,0,39,0,39,39,10/18/19 17:15,The main experiment item,yes,SternbergTask.osexp,C:/Users/Carolyn/Desktop,no,mono,no,18,no,white,no,yes,768,legacy,27,11,C:/Users/Carolyn/Desktop/cp_subject-4.csv,legacy,8 5 7 3 6,Kafkaesque Koffka,3.2.8,0,n,0,right,right,left,NA,right,766,67135,8071,NA,766,2,legacy,5,1024,2,48000,-16,experiment,4,even,9,338129,166947,339307,341513,274497,5579,158875,340310,72716,343516,NA,339303,5574,343516,344283,Sternberg Task,36,39657,40,yes,1024
90.24390244,90.24390244,984.1463415,984.1463415,black,experiment,legacy,legacy,legacy,0,uniform,1,undefined,1,right,40,0,40,40,40,0,0,40,0,40,0,40,0,40,40,10/18/19 17:15,The main experiment item,yes,SternbergTask.osexp,C:/Users/Carolyn/Desktop,no,mono,no,18,no,white,no,yes,768,legacy,28,11,C:/Users/Carolyn/Desktop/cp_subject-4.csv,legacy,1 6 4,Kafkaesque Koffka,3.2.8,0,n,0,right,right,left,NA,right,693,67135,8071,NA,693,2,legacy,3,1024,2,48000,-16,experiment,4,even,7,344329,166947,345508,347714,274497,5579,158875,346511,72716,349717,NA,345504,5574,349717,350411,Sternberg Task,37,40350,41,yes,1024
90.47619048,90.47619048,973.1190476,973.1190476,black,experiment,legacy,legacy,legacy,0,uniform,1,undefined,1,right,41,0,41,41,41,0,0,41,0,41,0,41,0,41,41,10/18/19 17:15,The main experiment item,yes,SternbergTask.osexp,C:/Users/Carolyn/Desktop,no,mono,no,18,no,white,no,yes,768,legacy,29,11,C:/Users/Carolyn/Desktop/cp_subject-4.csv,legacy,4 1,Kafkaesque Koffka,3.2.8,0,n,0,right,right,left,NA,right,521,67135,8071,NA,521,2,legacy,2,1024,2,48000,-16,experiment,4,even,6,350463,166947,351640,353846,274497,5579,158875,352643,72716,355849,NA,351636,5574,355849,356371,Sternberg Task,38,40871,42,yes,1024
90.69767442,90.69767442,970.7674419,970.7674419,black,experiment,legacy,legacy,legacy,0,uniform,1,undefined,1,right,42,0,42,42,42,0,0,42,0,42,0,42,0,42,42,10/18/19 17:15,The main experiment item,yes,SternbergTask.osexp,C:/Users/Carolyn/Desktop,no,mono,no,18,no,white,no,yes,768,legacy,30,11,C:/Users/Carolyn/Desktop/cp_subject-4.csv,legacy,8 2 1 4 5 9,Kafkaesque Koffka,3.2.8,0,n,0,right,right,left,NA,right,872,67135,8071,NA,872,2,legacy,6,1024,2,48000,-16,experiment,4,even,7,356413,166947,357593,359799,274497,5579,158875,358596,72716,361802,NA,357589,5574,361802,362675,Sternberg Task,39,41743,43,yes,1024
90.90909091,90.90909091,972.0454545,972.0454545,black,experiment,legacy,legacy,legacy,0,uniform,1,undefined,1,right,43,0,43,43,43,0,0,43,0,43,0,43,0,43,43,10/18/19 17:15,The main experiment item,yes,SternbergTask.osexp,C:/Users/Carolyn/Desktop,no,mono,no,18,no,white,no,yes,768,legacy,31,11,C:/Users/Carolyn/Desktop/cp_subject-4.csv,legacy,2 6 4 3 9,Kafkaesque Koffka,3.2.8,0,n,0,right,right,left,NA,right,1027,67135,8071,NA,1027,2,legacy,5,1024,2,48000,-16,experiment,4,even,1,362722,166947,363900,366107,274497,5579,158875,364903,72716,368110,NA,363896,5574,368111,369139,Sternberg Task,40,42770,44,yes,1024
91.11111111,91.11111111,967.9111111,967.9111111,black,experiment,legacy,legacy,legacy,0,uniform,1,undefined,1,left,44,0,44,44,44,0,0,44,0,44,0,44,0,44,44,10/18/19 17:15,The main experiment item,yes,SternbergTask.osexp,C:/Users/Carolyn/Desktop,no,mono,no,18,no,white,no,yes,768,legacy,32,11,C:/Users/Carolyn/Desktop/cp_subject-4.csv,legacy,7 2 3,Kafkaesque Koffka,3.2.8,3,y,0,left,right,left,NA,left,786,67135,8071,NA,786,2,legacy,3,1024,2,48000,-16,experiment,4,even,3,369188,166947,370364,372572,274497,5579,158875,371367,72716,374575,NA,370360,5574,374576,375363,Sternberg Task,41,43556,45,yes,1024
91.30434783,91.30434783,962.9130435,962.9130435,black,experiment,legacy,legacy,legacy,0,uniform,1,undefined,1,left,45,0,45,45,45,0,0,45,0,45,0,45,0,45,45,10/18/19 17:15,The main experiment item,yes,SternbergTask.osexp,C:/Users/Carolyn/Desktop,no,mono,no,18,no,white,no,yes,768,legacy,33,11,C:/Users/Carolyn/Desktop/cp_subject-4.csv,legacy,3 9 7 6 4,Kafkaesque Koffka,3.2.8,3,y,0,left,right,left,NA,left,738,67135,8071,NA,738,2,legacy,5,1024,2,48000,-16,experiment,4,even,7,375421,166947,376598,378804,274497,5579,158875,377601,72716,380808,NA,376594,5574,380808,381548,Sternberg Task,42,44294,46,yes,1024
91.4893617,91.4893617,960.8723404,960.8723404,black,experiment,legacy,legacy,legacy,0,uniform,1,undefined,1,right,46,0,46,46,46,0,0,46,0,46,0,46,0,46,46,10/18/19 17:15,The main experiment item,yes,SternbergTask.osexp,C:/Users/Carolyn/Desktop,no,mono,no,18,no,white,no,yes,768,legacy,34,11,C:/Users/Carolyn/Desktop/cp_subject-4.csv,legacy,1 7 5 2 9,Kafkaesque Koffka,3.2.8,0,n,0,right,right,left,NA,right,867,67135,8071,NA,867,2,legacy,5,1024,2,48000,-16,experiment,4,even,3,381588,166947,382765,384972,274497,5579,158875,383768,72716,386975,NA,382761,5574,386975,387844,Sternberg Task,43,45161,47,yes,1024
91.66666667,91.66666667,957.7916667,957.7916667,black,experiment,legacy,legacy,legacy,0,uniform,1,undefined,1,left,47,0,47,47,47,0,0,47,0,47,0,47,0,47,47,10/18/19 17:15,The main experiment item,yes,SternbergTask.osexp,C:/Users/Carolyn/Desktop,no,mono,no,18,no,white,no,yes,768,legacy,35,11,C:/Users/Carolyn/Desktop/cp_subject-4.csv,legacy,2 4 8 5 1 3,Kafkaesque Koffka,3.2.8,1,y,0,left,right,left,NA,left,813,67135,8071,NA,813,2,legacy,6,1024,2,48000,-16,experiment,4,even,2,387879,166947,389058,391265,274497,5579,158875,390061,72716,393268,NA,389054,5574,393269,394084,Sternberg Task,44,45974,48,yes,1024
91.83673469,91.83673469,953.6326531,953.6326531,black,experiment,legacy,legacy,legacy,0,uniform,1,undefined,1,left,48,0,48,48,48,0,0,48,0,48,0,48,0,48,48,10/18/19 17:15,The main experiment item,yes,SternbergTask.osexp,C:/Users/Carolyn/Desktop,no,mono,no,18,no,white,no,yes,768,legacy,36,11,C:/Users/Carolyn/Desktop/cp_subject-4.csv,legacy,7 1 8 5 6 2,Kafkaesque Koffka,3.2.8,2,y,0,left,right,left,NA,left,754,67135,8071,NA,754,2,legacy,6,1024,2,48000,-16,experiment,4,even,1,394121,166947,395302,397509,274497,5579,158875,396305,72716,399512,NA,395298,5574,399512,400268,Sternberg Task,45,46728,49,yes,1024
92,92,948.76,948.76,black,experiment,legacy,legacy,legacy,0,uniform,1,undefined,1,right,49,0,49,49,49,0,0,49,0,49,0,49,0,49,49,10/18/19 17:15,The main experiment item,yes,SternbergTask.osexp,C:/Users/Carolyn/Desktop,no,mono,no,18,no,white,no,yes,768,legacy,37,11,C:/Users/Carolyn/Desktop/cp_subject-4.csv,legacy,4 8 1 2,Kafkaesque Koffka,3.2.8,0,n,0,right,right,left,NA,right,710,67135,8071,NA,710,2,legacy,4,1024,2,48000,-16,experiment,4,even,7,400304,166947,401481,403688,274497,5579,158875,402484,72716,405691,NA,401477,5574,405692,406404,Sternberg Task,46,47438,50,yes,1024
92.15686275,92.15686275,943.0588235,943.0588235,black,experiment,legacy,legacy,legacy,0,uniform,1,undefined,1,left,50,0,50,50,50,0,0,50,0,50,0,50,0,50,50,10/18/19 17:15,The main experiment item,yes,SternbergTask.osexp,C:/Users/Carolyn/Desktop,no,mono,no,18,no,white,no,yes,768,legacy,38,11,C:/Users/Carolyn/Desktop/cp_subject-4.csv,legacy,9 5 3 8 4,Kafkaesque Koffka,3.2.8,1,y,0,left,right,left,NA,left,658,67135,8071,NA,658,2,legacy,5,1024,2,48000,-16,experiment,4,even,9,406454,166947,407630,409837,274497,5579,158875,408634,72716,411840,NA,407627,5574,411840,412499,Sternberg Task,47,48096,51,yes,1024
92.30769231,92.30769231,945.1538462,945.1538462,black,experiment,legacy,legacy,legacy,0,uniform,1,undefined,1,left,51,0,51,51,51,0,0,51,0,51,0,51,0,51,51,10/18/19 17:15,The main experiment item,yes,SternbergTask.osexp,C:/Users/Carolyn/Desktop,no,mono,no,18,no,white,no,yes,768,legacy,39,11,C:/Users/Carolyn/Desktop/cp_subject-4.csv,legacy,7 1 3,Kafkaesque Koffka,3.2.8,2,y,0,left,right,left,NA,left,1052,67135,8071,NA,1052,2,legacy,3,1024,2,48000,-16,experiment,4,even,1,412546,166947,413724,415931,274497,5579,158875,414727,72716,417934,NA,413720,5574,417934,418988,Sternberg Task,48,49148,52,yes,1024
92.45283019,92.45283019,945.3018868,945.3018868,black,experiment,legacy,legacy,legacy,0,uniform,1,undefined,1,right,52,0,52,52,52,0,0,52,0,52,0,52,0,52,52,10/18/19 17:15,The main experiment item,yes,SternbergTask.osexp,C:/Users/Carolyn/Desktop,no,mono,no,18,no,white,no,yes,768,legacy,40,11,C:/Users/Carolyn/Desktop/cp_subject-4.csv,legacy,4 2 7 6 1 3,Kafkaesque Koffka,3.2.8,0,n,0,right,right,left,NA,right,953,67135,8071,NA,953,2,legacy,6,1024,2,48000,-16,experiment,4,even,8,419029,166947,420207,422413,274497,5579,158875,421210,72716,424416,NA,420203,5574,424417,425372,Sternberg Task,49,50101,53,yes,1024
92.59259259,92.59259259,941.1296296,941.1296296,black,experiment,legacy,legacy,legacy,0,uniform,1,undefined,1,right,53,0,53,53,53,0,0,53,0,53,0,53,0,53,53,10/18/19 17:15,The main experiment item,yes,SternbergTask.osexp,C:/Users/Carolyn/Desktop,no,mono,no,18,no,white,no,yes,768,legacy,41,11,C:/Users/Carolyn/Desktop/cp_subject-4.csv,legacy,1,Kafkaesque Koffka,3.2.8,0,n,0,right,right,left,NA,right,720,67135,8071,NA,720,2,legacy,1,1024,2,48000,-16,experiment,4,even,7,425412,166947,426592,428799,274497,5579,158875,427595,72716,430802,NA,426588,5574,430802,431523,Sternberg Task,50,50821,54,yes,1024
92.72727273,92.72727273,936.1636364,936.1636364,black,experiment,legacy,legacy,legacy,0,uniform,1,undefined,1,right,54,0,54,54,54,0,0,54,0,54,0,54,0,54,54,10/18/19 17:15,The main experiment item,yes,SternbergTask.osexp,C:/Users/Carolyn/Desktop,no,mono,no,18,no,white,no,yes,768,legacy,42,11,C:/Users/Carolyn/Desktop/cp_subject-4.csv,legacy,6 8,Kafkaesque Koffka,3.2.8,0,n,0,right,right,left,NA,right,668,67135,8071,NA,668,2,legacy,2,1024,2,48000,-16,experiment,4,even,9,431562,166947,432741,434947,274497,5579,158875,433744,72716,436950,NA,432737,5574,436950,437619,Sternberg Task,51,51489,55,yes,1024
92.85714286,92.85714286,932.7142857,932.7142857,black,experiment,legacy,legacy,legacy,0,uniform,1,undefined,1,left,55,0,55,55,55,0,0,55,0,55,0,55,0,55,55,10/18/19 17:15,The main experiment item,yes,SternbergTask.osexp,C:/Users/Carolyn/Desktop,no,mono,no,18,no,white,no,yes,768,legacy,43,11,C:/Users/Carolyn/Desktop/cp_subject-4.csv,legacy,2 3 7 4,Kafkaesque Koffka,3.2.8,1,y,0,left,right,left,NA,left,743,67135,8071,NA,743,2,legacy,4,1024,2,48000,-16,experiment,4,even,2,437646,166947,438824,441032,274497,5579,158875,439828,72716,443035,NA,438821,5574,443035,443780,Sternberg Task,52,52232,56,yes,1024
92.98245614,92.98245614,928.0175439,928.0175439,black,experiment,legacy,legacy,legacy,0,uniform,1,undefined,1,left,56,0,56,56,56,0,0,56,0,56,0,56,0,56,56,10/18/19 17:15,The main experiment item,yes,SternbergTask.osexp,C:/Users/Carolyn/Desktop,no,mono,no,18,no,white,no,yes,768,legacy,44,11,C:/Users/Carolyn/Desktop/cp_subject-4.csv,legacy,8 7 3,Kafkaesque Koffka,3.2.8,1,y,0,left,right,left,NA,left,665,67135,8071,NA,665,2,legacy,3,1024,2,48000,-16,experiment,4,even,8,443829,166947,445005,447213,274497,5579,158875,446008,72716,449216,NA,445001,5574,449217,449883,Sternberg Task,53,52897,57,yes,1024
93.10344828,93.10344828,925.362069,925.362069,black,experiment,legacy,legacy,legacy,0,uniform,1,undefined,1,right,57,0,57,57,57,0,0,57,0,57,0,57,0,57,57,10/18/19 17:15,The main experiment item,yes,SternbergTask.osexp,C:/Users/Carolyn/Desktop,no,mono,no,18,no,white,no,yes,768,legacy,45,11,C:/Users/Carolyn/Desktop/cp_subject-4.csv,legacy,7 9 1 6,Kafkaesque Koffka,3.2.8,0,n,0,right,right,left,NA,right,774,67135,8071,NA,774,2,legacy,4,1024,2,48000,-16,experiment,4,even,4,449929,166947,451106,453313,274497,5579,158875,452109,72716,455316,NA,451102,5574,455316,456092,Sternberg Task,54,53671,58,yes,1024
93.22033898,93.22033898,921.1694915,921.1694915,black,experiment,legacy,legacy,legacy,0,uniform,1,undefined,1,right,58,0,58,58,58,0,0,58,0,58,0,58,0,58,58,10/18/19 17:15,The main experiment item,yes,SternbergTask.osexp,C:/Users/Carolyn/Desktop,no,mono,no,18,no,white,no,yes,768,legacy,46,11,C:/Users/Carolyn/Desktop/cp_subject-4.csv,legacy,1 8 7,Kafkaesque Koffka,3.2.8,0,n,0,right,right,left,NA,right,678,67135,8071,NA,678,2,legacy,3,1024,2,48000,-16,experiment,4,even,4,456129,166947,457307,459513,274497,5579,158875,458310,72716,461516,NA,457303,5574,461516,462196,Sternberg Task,55,54349,59,yes,1024
93.33333333,93.33333333,919.1833333,919.1833333,black,experiment,legacy,legacy,legacy,0,uniform,1,undefined,1,left,59,0,59,59,59,0,0,59,0,59,0,59,0,59,59,10/18/19 17:15,The main experiment item,yes,SternbergTask.osexp,C:/Users/Carolyn/Desktop,no,mono,no,18,no,white,no,yes,768,legacy,47,11,C:/Users/Carolyn/Desktop/cp_subject-4.csv,legacy,8 3,Kafkaesque Koffka,3.2.8,2,y,0,left,right,left,NA,left,802,67135,8071,NA,802,2,legacy,2,1024,2,48000,-16,experiment,4,even,3,462237,166947,463414,465621,274497,5579,158875,464417,72716,467624,NA,463410,5574,467624,468428,Sternberg Task,56,55151,60,yes,1024
93.44262295,93.44262295,920,920,black,experiment,legacy,legacy,legacy,0,uniform,1,undefined,1,left,60,0,60,60,60,0,0,60,0,60,0,60,0,60,60,10/18/19 17:15,The main experiment item,yes,SternbergTask.osexp,C:/Users/Carolyn/Desktop,no,mono,no,18,no,white,no,yes,768,legacy,48,11,C:/Users/Carolyn/Desktop/cp_subject-4.csv,legacy,5 7 3 6 2,Kafkaesque Koffka,3.2.8,5,y,0,left,right,left,NA,left,969,67135,8071,NA,969,2,legacy,5,1024,2,48000,-16,experiment,4,even,2,468470,166947,469656,471862,274497,5579,158875,470659,72716,473865,NA,469652,5574,473865,474836,Sternberg Task,57,56120,61,yes,1024
93.5483871,93.5483871,923.2258065,923.2258065,black,experiment,legacy,legacy,legacy,0,uniform,1,undefined,1,left,61,0,61,61,61,0,0,61,0,61,0,61,0,61,61,10/18/19 17:15,The main experiment item,yes,SternbergTask.osexp,C:/Users/Carolyn/Desktop,no,mono,no,18,no,white,no,yes,768,legacy,49,11,C:/Users/Carolyn/Desktop/cp_subject-4.csv,legacy,5 7 8 2 3 8,Kafkaesque Koffka,3.2.8,5,y,0,left,right,left,NA,left,1120,67135,8071,NA,1120,2,legacy,6,1024,2,48000,-16,experiment,4,even,3,474871,166947,476048,478254,274497,5579,158875,477051,72716,480257,NA,476044,5574,480258,481380,Sternberg Task,58,57240,62,yes,1024
93.65079365,93.65079365,919.4126984,919.4126984,black,experiment,legacy,legacy,legacy,0,uniform,1,undefined,1,left,62,0,62,62,62,0,0,62,0,62,0,62,0,62,62,10/18/19 17:15,The main experiment item,yes,SternbergTask.osexp,C:/Users/Carolyn/Desktop,no,mono,no,18,no,white,no,yes,768,legacy,50,11,C:/Users/Carolyn/Desktop/cp_subject-4.csv,legacy,2 6 1 7 4,Kafkaesque Koffka,3.2.8,2,y,0,left,right,left,NA,left,683,67135,8071,NA,683,2,legacy,5,1024,2,48000,-16,experiment,4,even,6,481428,166947,482605,484812,274497,5579,158875,483608,72716,486815,NA,482601,5574,486815,487500,Sternberg Task,59,57923,63,yes,1024
93.75,93.75,916.125,916.125,black,experiment,legacy,legacy,legacy,0,uniform,1,undefined,1,left,63,0,63,63,63,0,0,63,0,63,0,63,0,63,63,10/18/19 17:15,The main experiment item,yes,SternbergTask.osexp,C:/Users/Carolyn/Desktop,no,mono,no,18,no,white,no,yes,768,legacy,51,11,C:/Users/Carolyn/Desktop/cp_subject-4.csv,legacy,9 8 4,Kafkaesque Koffka,3.2.8,1,y,0,left,right,left,NA,left,709,67135,8071,NA,709,2,legacy,3,1024,2,48000,-16,experiment,4,even,9,487537,166947,488715,490921,274497,5579,158875,489718,72716,492924,NA,488711,5574,492925,493636,Sternberg Task,60,58632,64,yes,1024
93.84615385,93.84615385,914.7076923,914.7076923,black,experiment,legacy,legacy,legacy,0,uniform,1,undefined,1,right,64,0,64,64,64,0,0,64,0,64,0,64,0,64,64,10/18/19 17:15,The main experiment item,yes,SternbergTask.osexp,C:/Users/Carolyn/Desktop,no,mono,no,18,no,white,no,yes,768,legacy,52,11,C:/Users/Carolyn/Desktop/cp_subject-4.csv,legacy,2 3 8 5 6 7,Kafkaesque Koffka,3.2.8,0,n,0,right,right,left,NA,right,824,67135,8071,NA,824,2,legacy,6,1024,2,48000,-16,experiment,4,even,1,493687,166947,494865,497071,274497,5579,158875,495868,72716,499074,NA,494861,5574,499074,499900,Sternberg Task,61,59456,65,yes,1024
93.93939394,93.93939394,910.2878788,910.2878788,black,experiment,legacy,legacy,legacy,0,uniform,1,undefined,1,right,65,0,65,65,65,0,0,65,0,65,0,65,0,65,65,10/18/19 17:15,The main experiment item,yes,SternbergTask.osexp,C:/Users/Carolyn/Desktop,no,mono,no,18,no,white,no,yes,768,legacy,53,11,C:/Users/Carolyn/Desktop/cp_subject-4.csv,legacy,6 8 4,Kafkaesque Koffka,3.2.8,0,n,0,right,right,left,NA,right,623,67135,8071,NA,623,2,legacy,3,1024,2,48000,-16,experiment,4,even,1,499937,166947,501113,503319,274497,5579,158875,502116,72716,505322,NA,501109,5574,505323,505948,Sternberg Task,62,60079,66,yes,1024
94.02985075,94.02985075,912.1492537,912.1492537,black,experiment,legacy,legacy,legacy,0,uniform,1,undefined,1,right,66,0,66,66,66,0,0,66,0,66,0,66,0,66,66,10/18/19 17:15,The main experiment item,yes,SternbergTask.osexp,C:/Users/Carolyn/Desktop,no,mono,no,18,no,white,no,yes,768,legacy,54,11,C:/Users/Carolyn/Desktop/cp_subject-4.csv,legacy,1 6 4 3 9 7,Kafkaesque Koffka,3.2.8,0,n,0,right,right,left,NA,right,1035,67135,8071,NA,1035,2,legacy,6,1024,2,48000,-16,experiment,4,even,8,505986,166947,507163,509371,274497,5579,158875,508167,72716,511374,NA,507160,5574,511375,512412,Sternberg Task,63,61114,67,yes,1024
92.64705882,92.64705882,911.1764706,911.1764706,black,experiment,legacy,legacy,legacy,0,uniform,0,undefined,0,left,67,0,67,67,67,0,0,67,0,67,0,67,0,67,67,10/18/19 17:15,The main experiment item,yes,SternbergTask.osexp,C:/Users/Carolyn/Desktop,no,mono,no,18,no,white,no,yes,768,legacy,55,11,C:/Users/Carolyn/Desktop/cp_subject-4.csv,legacy,4 3 2 5 8,Kafkaesque Koffka,3.2.8,2,y,0,right,right,left,NA,right,846,67135,8071,NA,846,2,legacy,5,1024,2,48000,-16,experiment,4,even,3,512445,166947,513625,515832,274497,5579,158875,514628,72716,517835,NA,513621,5574,517836,518684,Sternberg Task,63,61960,68,yes,1024
92.75362319,92.75362319,908.6086957,908.6086957,black,experiment,legacy,legacy,legacy,0,uniform,1,undefined,1,right,68,0,68,68,68,0,0,68,0,68,0,68,0,68,68,10/18/19 17:15,The main experiment item,yes,SternbergTask.osexp,C:/Users/Carolyn/Desktop,no,mono,no,18,no,white,no,yes,768,legacy,56,11,C:/Users/Carolyn/Desktop/cp_subject-4.csv,legacy,4 2 6 9,Kafkaesque Koffka,3.2.8,0,n,0,right,right,left,NA,right,734,67135,8071,NA,734,2,legacy,4,1024,2,48000,-16,experiment,4,even,7,512445,166947,519897,522104,518720,5579,158875,520901,72716,524107,NA,519893,5574,524108,524844,Sternberg Task,64,62694,69,yes,1024
92.85714286,92.85714286,907.3,907.3,black,experiment,legacy,legacy,legacy,0,uniform,1,undefined,1,right,69,0,69,69,69,0,0,69,0,69,0,69,0,69,69,10/18/19 17:15,The main experiment item,yes,SternbergTask.osexp,C:/Users/Carolyn/Desktop,no,mono,no,18,no,white,no,yes,768,legacy,57,11,C:/Users/Carolyn/Desktop/cp_subject-4.csv,legacy,7 8 6 1,Kafkaesque Koffka,3.2.8,0,n,0,right,right,left,NA,right,817,67135,8071,NA,817,2,legacy,4,1024,2,48000,-16,experiment,4,even,3,524895,166947,526072,528278,518720,5579,158875,527075,72716,530281,NA,526068,5574,530281,531100,Sternberg Task,65,63511,70,yes,1024
92.95774648,92.95774648,905.0985915,905.0985915,black,experiment,legacy,legacy,legacy,0,uniform,1,undefined,1,left,70,0,70,70,70,0,0,70,0,70,0,70,0,70,70,10/18/19 17:15,The main experiment item,yes,SternbergTask.osexp,C:/Users/Carolyn/Desktop,no,mono,no,18,no,white,no,yes,768,legacy,58,11,C:/Users/Carolyn/Desktop/cp_subject-4.csv,legacy,6 7 8 5,Kafkaesque Koffka,3.2.8,3,y,0,left,right,left,NA,left,751,67135,8071,NA,751,2,legacy,4,1024,2,48000,-16,experiment,4,even,8,531136,166947,532313,534520,518720,5579,158875,533316,72716,536523,NA,532309,5574,536523,537276,Sternberg Task,66,64262,71,yes,1024
93.05555556,93.05555556,903.75,903.75,black,experiment,legacy,legacy,legacy,0,uniform,1,undefined,1,left,71,0,71,71,71,0,0,71,0,71,0,71,0,71,71,10/18/19 17:15,The main experiment item,yes,SternbergTask.osexp,C:/Users/Carolyn/Desktop,no,mono,no,18,no,white,no,yes,768,legacy,59,11,C:/Users/Carolyn/Desktop/cp_subject-4.csv,legacy,8 5 1 3 9,Kafkaesque Koffka,3.2.8,4,y,0,left,right,left,NA,left,808,67135,8071,NA,808,2,legacy,5,1024,2,48000,-16,experiment,4,even,3,537319,166947,538497,540703,518720,5579,158875,539500,72716,542706,NA,538493,5574,542706,543516,Sternberg Task,67,65070,72,yes,1024
93.15068493,93.15068493,904.0136986,904.0136986,black,experiment,legacy,legacy,legacy,0,uniform,1,undefined,1,right,72,0,72,72,72,0,0,72,0,72,0,72,0,72,72,10/18/19 17:15,The main experiment item,yes,SternbergTask.osexp,C:/Users/Carolyn/Desktop,no,mono,no,18,no,white,no,yes,768,legacy,60,11,C:/Users/Carolyn/Desktop/cp_subject-4.csv,legacy,5 3 8 7 2 4,Kafkaesque Koffka,3.2.8,0,n,0,right,right,left,NA,right,923,67135,8071,NA,923,2,legacy,6,1024,2,48000,-16,experiment,4,even,9,543544,166947,544724,546931,518720,5579,158875,545727,72716,548934,NA,544720,5574,548935,549860,Sternberg Task,68,65993,73,yes,1024
93.24324324,93.24324324,905.7972973,905.7972973,black,experiment,legacy,legacy,legacy,0,uniform,1,undefined,1,left,73,0,73,73,73,0,0,73,0,73,0,73,0,73,73,10/18/19 17:15,The main experiment item,yes,SternbergTask.osexp,C:/Users/Carolyn/Desktop,no,mono,no,18,no,white,no,yes,768,legacy,61,11,C:/Users/Carolyn/Desktop/cp_subject-4.csv,legacy,4 1 8 7 5,Kafkaesque Koffka,3.2.8,3,y,0,left,right,left,NA,left,1036,67135,8071,NA,1036,2,legacy,5,1024,2,48000,-16,experiment,4,even,8,549933,166947,551109,553315,518720,5579,158875,552112,72716,555318,NA,551105,5574,555318,556356,Sternberg Task,69,67029,74,yes,1024
93.33333333,93.33333333,903.7066667,903.7066667,black,experiment,legacy,legacy,legacy,0,uniform,1,undefined,1,left,74,0,74,74,74,0,0,74,0,74,0,74,0,74,74,10/18/19 17:15,The main experiment item,yes,SternbergTask.osexp,C:/Users/Carolyn/Desktop,no,mono,no,18,no,white,no,yes,768,legacy,62,11,C:/Users/Carolyn/Desktop/cp_subject-4.csv,legacy,6 7 9 3 1 2,Kafkaesque Koffka,3.2.8,1,y,0,left,right,left,NA,left,749,67135,8071,NA,749,2,legacy,6,1024,2,48000,-16,experiment,4,even,6,556402,166947,557579,559785,518720,5579,158875,558582,72716,561788,NA,557575,5574,561789,562540,Sternberg Task,70,67778,75,yes,1024
93.42105263,93.42105263,901.3684211,901.3684211,black,experiment,legacy,legacy,legacy,0,uniform,1,undefined,1,right,75,0,75,75,75,0,0,75,0,75,0,75,0,75,75,10/18/19 17:15,The main experiment item,yes,SternbergTask.osexp,C:/Users/Carolyn/Desktop,no,mono,no,18,no,white,no,yes,768,legacy,63,11,C:/Users/Carolyn/Desktop/cp_subject-4.csv,legacy,1 4 9 2 5,Kafkaesque Koffka,3.2.8,0,n,0,right,right,left,NA,right,726,67135,8071,NA,726,2,legacy,5,1024,2,48000,-16,experiment,4,even,7,562629,166947,563811,566017,518720,5579,158875,564814,72716,568020,NA,563807,5574,568020,568748,Sternberg Task,71,68504,76,yes,1024
93.50649351,93.50649351,897.8311688,897.8311688,black,experiment,legacy,legacy,legacy,0,uniform,1,undefined,1,right,76,0,76,76,76,0,0,76,0,76,0,76,0,76,76,10/18/19 17:15,The main experiment item,yes,SternbergTask.osexp,C:/Users/Carolyn/Desktop,no,mono,no,18,no,white,no,yes,768,legacy,64,11,C:/Users/Carolyn/Desktop/cp_subject-4.csv,legacy,7 9,Kafkaesque Koffka,3.2.8,0,n,0,right,right,left,NA,right,629,67135,8071,NA,629,2,legacy,2,1024,2,48000,-16,experiment,4,even,1,568794,166947,569971,572178,518720,5579,158875,570975,72716,574181,NA,569968,5574,574181,574812,Sternberg Task,72,69133,77,yes,1024
93.58974359,93.58974359,895.5897436,895.5897436,black,experiment,legacy,legacy,legacy,0,uniform,1,undefined,1,right,77,0,77,77,77,0,0,77,0,77,0,77,0,77,77,10/18/19 17:15,The main experiment item,yes,SternbergTask.osexp,C:/Users/Carolyn/Desktop,no,mono,no,18,no,white,no,yes,768,legacy,65,11,C:/Users/Carolyn/Desktop/cp_subject-4.csv,legacy,2 8 9,Kafkaesque Koffka,3.2.8,0,n,0,right,right,left,NA,right,723,67135,8071,NA,723,2,legacy,3,1024,2,48000,-16,experiment,4,even,6,574853,166947,576029,578235,518720,5579,158875,577032,72716,580238,NA,576025,5574,580239,580964,Sternberg Task,73,69856,78,yes,1024
93.67088608,93.67088608,891.3924051,891.3924051,black,experiment,legacy,legacy,legacy,0,uniform,1,undefined,1,right,78,0,78,78,78,0,0,78,0,78,0,78,0,78,78,10/18/19 17:15,The main experiment item,yes,SternbergTask.osexp,C:/Users/Carolyn/Desktop,no,mono,no,18,no,white,no,yes,768,legacy,66,11,C:/Users/Carolyn/Desktop/cp_subject-4.csv,legacy,2 7 5,Kafkaesque Koffka,3.2.8,0,n,0,right,right,left,NA,right,564,67135,8071,NA,564,2,legacy,3,1024,2,48000,-16,experiment,4,even,8,581053,166947,582229,584435,518720,5579,158875,583232,72716,586438,NA,582225,5574,586438,587004,Sternberg Task,74,70420,79,yes,1024
93.75,93.75,892.5875,892.5875,black,experiment,legacy,legacy,legacy,0,uniform,1,undefined,1,left,79,0,79,79,79,0,0,79,0,79,0,79,0,79,79,10/18/19 17:15,The main experiment item,yes,SternbergTask.osexp,C:/Users/Carolyn/Desktop,no,mono,no,18,no,white,no,yes,768,legacy,67,11,C:/Users/Carolyn/Desktop/cp_subject-4.csv,legacy,3 2 1 4 7,Kafkaesque Koffka,3.2.8,2,y,0,left,right,left,NA,left,987,67135,8071,NA,987,2,legacy,5,1024,2,48000,-16,experiment,4,even,2,587044,166947,588221,590428,518720,5579,158875,589225,72716,592431,NA,588217,5574,592431,593420,Sternberg Task,75,71407,80,yes,1024
93.82716049,93.82716049,891.3580247,891.3580247,black,experiment,legacy,legacy,legacy,0,uniform,1,undefined,1,right,80,0,80,80,80,0,0,80,0,80,0,80,0,80,80,10/18/19 17:15,The main experiment item,yes,SternbergTask.osexp,C:/Users/Carolyn/Desktop,no,mono,no,18,no,white,no,yes,768,legacy,68,11,C:/Users/Carolyn/Desktop/cp_subject-4.csv,legacy,1 7 8 3 9,Kafkaesque Koffka,3.2.8,0,n,0,right,right,left,NA,right,793,67135,8071,NA,793,2,legacy,5,1024,2,48000,-16,experiment,4,even,2,593510,166947,594688,596894,518720,5579,158875,595691,72716,598897,NA,594684,5574,598897,599692,Sternberg Task,76,72200,81,yes,1024
93.90243902,93.90243902,889.8658537,889.8658537,black,experiment,legacy,legacy,legacy,0,uniform,1,undefined,1,left,81,0,81,81,81,0,0,81,0,81,0,81,0,81,81,10/18/19 17:15,The main experiment item,yes,SternbergTask.osexp,C:/Users/Carolyn/Desktop,no,mono,no,18,no,white,no,yes,768,legacy,69,11,C:/Users/Carolyn/Desktop/cp_subject-4.csv,legacy,6 9 3 1,Kafkaesque Koffka,3.2.8,4,y,0,left,right,left,NA,left,769,67135,8071,NA,769,2,legacy,4,1024,2,48000,-16,experiment,4,even,1,599727,166947,600904,603110,518720,5579,158875,601907,72716,605113,NA,600900,5574,605113,605884,Sternberg Task,77,72969,82,yes,1024
93.97590361,93.97590361,886.5060241,886.5060241,black,experiment,legacy,legacy,legacy,0,uniform,1,undefined,1,left,82,0,82,82,82,0,0,82,0,82,0,82,0,82,82,10/18/19 17:15,The main experiment item,yes,SternbergTask.osexp,C:/Users/Carolyn/Desktop,no,mono,no,18,no,white,no,yes,768,legacy,70,11,C:/Users/Carolyn/Desktop/cp_subject-4.csv,legacy,6 5,Kafkaesque Koffka,3.2.8,2,y,0,left,right,left,NA,left,611,67135,8071,NA,611,2,legacy,2,1024,2,48000,-16,experiment,4,even,5,605927,166947,607107,609315,518720,5579,158875,608111,72716,611318,NA,607103,5574,611319,611932,Sternberg Task,78,73580,83,yes,1024
94.04761905,94.04761905,883.3690476,883.3690476,black,experiment,legacy,legacy,legacy,0,uniform,1,undefined,1,right,83,0,83,83,83,0,0,83,0,83,0,83,0,83,83,10/18/19 17:15,The main experiment item,yes,SternbergTask.osexp,C:/Users/Carolyn/Desktop,no,mono,no,18,no,white,no,yes,768,legacy,71,11,C:/Users/Carolyn/Desktop/cp_subject-4.csv,legacy,1 4 3 6 5,Kafkaesque Koffka,3.2.8,0,n,0,right,right,left,NA,right,623,67135,8071,NA,623,2,legacy,5,1024,2,48000,-16,experiment,4,even,8,612024,166947,613201,615408,518720,5579,158875,614205,72716,617411,NA,613197,5574,617411,618036,Sternberg Task,79,74203,84,yes,1024
94.11764706,94.11764706,879.2117647,879.2117647,black,experiment,legacy,legacy,legacy,0,uniform,1,undefined,1,right,84,0,84,84,84,0,0,84,0,84,0,84,0,84,84,10/18/19 17:15,The main experiment item,yes,SternbergTask.osexp,C:/Users/Carolyn/Desktop,no,mono,no,18,no,white,no,yes,768,legacy,72,11,C:/Users/Carolyn/Desktop/cp_subject-4.csv,legacy,5 2,Kafkaesque Koffka,3.2.8,0,n,0,right,right,left,NA,right,530,67135,8071,NA,530,2,legacy,2,1024,2,48000,-16,experiment,4,even,7,618085,166947,619262,621468,518720,5579,158875,620265,72716,623471,NA,619258,5574,623472,624004,Sternberg Task,80,74733,85,yes,1024
94.18604651,94.18604651,876.2674419,876.2674419,black,experiment,legacy,legacy,legacy,0,uniform,1,undefined,1,right,85,0,85,85,85,0,0,85,0,85,0,85,0,85,85,10/18/19 17:15,The main experiment item,yes,SternbergTask.osexp,C:/Users/Carolyn/Desktop,no,mono,no,18,no,white,no,yes,768,legacy,73,11,C:/Users/Carolyn/Desktop/cp_subject-4.csv,legacy,5,Kafkaesque Koffka,3.2.8,0,n,0,right,right,left,NA,right,626,67135,8071,NA,626,2,legacy,1,1024,2,48000,-16,experiment,4,even,8,624035,166947,625213,627420,518720,5579,158875,626216,72716,629423,NA,625209,5574,629424,630052,Sternberg Task,81,75359,86,yes,1024
94.25287356,94.25287356,872.6321839,872.6321839,black,experiment,legacy,legacy,legacy,0,uniform,1,undefined,1,right,86,0,86,86,86,0,0,86,0,86,0,86,0,86,86,10/18/19 17:15,The main experiment item,yes,SternbergTask.osexp,C:/Users/Carolyn/Desktop,no,mono,no,18,no,white,no,yes,768,legacy,74,11,C:/Users/Carolyn/Desktop/cp_subject-4.csv,legacy,6 9 5,Kafkaesque Koffka,3.2.8,0,n,0,right,right,left,NA,right,560,67135,8071,NA,560,2,legacy,3,1024,2,48000,-16,experiment,4,even,8,630094,166947,631272,633479,518720,5579,158875,632275,72716,635482,NA,631268,5574,635482,636044,Sternberg Task,82,75919,87,yes,1024
94.31818182,94.31818182,870.2386364,870.2386364,black,experiment,legacy,legacy,legacy,0,uniform,1,undefined,1,left,87,0,87,87,87,0,0,87,0,87,0,87,0,87,87,10/18/19 17:15,The main experiment item,yes,SternbergTask.osexp,C:/Users/Carolyn/Desktop,no,mono,no,18,no,white,no,yes,768,legacy,75,11,C:/Users/Carolyn/Desktop/cp_subject-4.csv,legacy,8 9 6 1,Kafkaesque Koffka,3.2.8,2,y,0,left,right,left,NA,left,662,67135,8071,NA,662,2,legacy,4,1024,2,48000,-16,experiment,4,even,9,636085,166947,637265,639472,518720,5579,158875,638268,72716,641475,NA,637261,5574,641476,642140,Sternberg Task,83,76581,88,yes,1024
94.38202247,94.38202247,870.0337079,870.0337079,black,experiment,legacy,legacy,legacy,0,uniform,1,undefined,1,right,88,0,88,88,88,0,0,88,0,88,0,88,0,88,88,10/18/19 17:15,The main experiment item,yes,SternbergTask.osexp,C:/Users/Carolyn/Desktop,no,mono,no,18,no,white,no,yes,768,legacy,76,11,C:/Users/Carolyn/Desktop/cp_subject-4.csv,legacy,5 7 3,Kafkaesque Koffka,3.2.8,0,n,0,right,right,left,NA,right,852,67135,8071,NA,852,2,legacy,3,1024,2,48000,-16,experiment,4,even,9,642177,166947,643355,645562,518720,5579,158875,644358,72716,647565,NA,643351,5574,647566,648420,Sternberg Task,84,77433,89,yes,1024
94.44444444,94.44444444,871.9555556,871.9555556,black,experiment,legacy,legacy,legacy,0,uniform,1,undefined,1,right,89,0,89,89,89,0,0,89,0,89,0,89,0,89,89,10/18/19 17:15,The main experiment item,yes,SternbergTask.osexp,C:/Users/Carolyn/Desktop,no,mono,no,18,no,white,no,yes,768,legacy,77,11,C:/Users/Carolyn/Desktop/cp_subject-4.csv,legacy,3 9 8 1 6 4,Kafkaesque Koffka,3.2.8,0,n,0,right,right,left,NA,right,1043,67135,8071,NA,1043,2,legacy,6,1024,2,48000,-16,experiment,4,even,7,648469,166947,649646,651852,518720,5579,158875,650649,72716,653855,NA,649642,5574,653855,654900,Sternberg Task,85,78476,90,yes,1024
94.50549451,94.50549451,872.5494505,872.5494505,black,experiment,legacy,legacy,legacy,0,uniform,1,undefined,1,left,90,0,90,90,90,0,0,90,0,90,0,90,0,90,90,10/18/19 17:15,The main experiment item,yes,SternbergTask.osexp,C:/Users/Carolyn/Desktop,no,mono,no,18,no,white,no,yes,768,legacy,78,11,C:/Users/Carolyn/Desktop/cp_subject-4.csv,legacy,6 8 9 3 4 9,Kafkaesque Koffka,3.2.8,5,y,0,left,right,left,NA,left,926,67135,8071,NA,926,2,legacy,6,1024,2,48000,-16,experiment,4,even,4,654936,166947,656113,658320,518720,5579,158875,657116,72716,660323,NA,656109,5574,660324,661252,Sternberg Task,86,79402,91,yes,1024
94.56521739,94.56521739,869.9347826,869.9347826,black,experiment,legacy,legacy,legacy,0,uniform,1,undefined,1,right,91,0,91,91,91,0,0,91,0,91,0,91,0,91,91,10/18/19 17:15,The main experiment item,yes,SternbergTask.osexp,C:/Users/Carolyn/Desktop,no,mono,no,18,no,white,no,yes,768,legacy,79,11,C:/Users/Carolyn/Desktop/cp_subject-4.csv,legacy,5 9 2 3,Kafkaesque Koffka,3.2.8,0,n,0,right,right,left,NA,right,632,67135,8071,NA,632,2,legacy,4,1024,2,48000,-16,experiment,4,even,8,661294,166947,662471,664678,518720,5579,158875,663474,72716,666681,NA,662467,5574,666682,667316,Sternberg Task,87,80034,92,yes,1024
94.62365591,94.62365591,866.3333333,866.3333333,black,experiment,legacy,legacy,legacy,0,uniform,1,undefined,1,left,92,0,92,92,92,0,0,92,0,92,0,92,0,92,92,10/18/19 17:15,The main experiment item,yes,SternbergTask.osexp,C:/Users/Carolyn/Desktop,no,mono,no,18,no,white,no,yes,768,legacy,80,11,C:/Users/Carolyn/Desktop/cp_subject-4.csv,legacy,4 1 5,Kafkaesque Koffka,3.2.8,2,y,0,left,right,left,NA,left,535,67135,8071,NA,535,2,legacy,3,1024,2,48000,-16,experiment,4,even,1,667360,166947,668538,670744,518720,5579,158875,669541,72716,672747,NA,668534,5574,672747,673284,Sternberg Task,88,80569,93,yes,1024
93.61702128,93.61702128,862.5638298,862.5638298,black,experiment,legacy,legacy,legacy,0,uniform,0,undefined,0,left,93,0,93,93,93,0,0,93,0,93,0,93,0,93,93,10/18/19 17:15,The main experiment item,yes,SternbergTask.osexp,C:/Users/Carolyn/Desktop,no,mono,no,18,no,white,no,yes,768,legacy,81,11,C:/Users/Carolyn/Desktop/cp_subject-4.csv,legacy,8 1 6,Kafkaesque Koffka,3.2.8,3,y,0,right,right,left,NA,right,512,67135,8071,NA,512,2,legacy,3,1024,2,48000,-16,experiment,4,even,6,673327,166947,674503,676710,518720,5579,158875,675506,72716,678714,NA,674499,5574,678714,679228,Sternberg Task,88,81081,94,yes,1024
93.68421053,93.68421053,860.6315789,860.6315789,black,experiment,legacy,legacy,legacy,0,uniform,1,undefined,1,left,94,0,94,94,94,0,0,94,0,94,0,94,0,94,94,10/18/19 17:15,The main experiment item,yes,SternbergTask.osexp,C:/Users/Carolyn/Desktop,no,mono,no,18,no,white,no,yes,768,legacy,82,11,C:/Users/Carolyn/Desktop/cp_subject-4.csv,legacy,5 2 9 6 1 7,Kafkaesque Koffka,3.2.8,3,y,0,left,right,left,NA,left,679,67135,8071,NA,679,2,legacy,6,1024,2,48000,-16,experiment,4,even,9,673327,166947,680448,682655,679273,5579,158875,681451,72716,684658,NA,680444,5574,684659,685340,Sternberg Task,89,81760,95,yes,1024
93.75,93.75,859.4583333,859.4583333,black,experiment,legacy,legacy,legacy,0,uniform,1,undefined,1,left,95,0,95,95,95,0,0,95,0,95,0,95,0,95,95,10/18/19 17:15,The main experiment item,yes,SternbergTask.osexp,C:/Users/Carolyn/Desktop,no,mono,no,18,no,white,no,yes,768,legacy,83,11,C:/Users/Carolyn/Desktop/cp_subject-4.csv,legacy,7 8 4 6 9 5,Kafkaesque Koffka,3.2.8,4,y,0,left,right,left,NA,left,748,67135,8071,NA,748,2,legacy,6,1024,2,48000,-16,experiment,4,even,6,685377,166947,686557,688763,679273,5579,158875,687560,72716,690766,NA,686553,5574,690766,691516,Sternberg Task,90,82508,96,yes,1024
93.81443299,93.81443299,856.3402062,856.3402062,black,experiment,legacy,legacy,legacy,0,uniform,1,undefined,1,left,96,0,96,96,96,0,0,96,0,96,0,96,0,96,96,10/18/19 17:15,The main experiment item,yes,SternbergTask.osexp,C:/Users/Carolyn/Desktop,no,mono,no,18,no,white,no,yes,768,legacy,84,11,C:/Users/Carolyn/Desktop/cp_subject-4.csv,legacy,9 5 8 1,Kafkaesque Koffka,3.2.8,2,y,0,left,right,left,NA,left,557,67135,8071,NA,557,2,legacy,4,1024,2,48000,-16,experiment,4,even,5,691560,166947,692737,694945,679273,5579,158875,693740,72716,696948,NA,692733,5574,696949,697508,Sternberg Task,91,83065,97,yes,1024
93.87755102,93.87755102,855.2346939,855.2346939,black,experiment,legacy,legacy,legacy,0,uniform,1,undefined,1,right,97,0,97,97,97,0,0,97,0,97,0,97,0,97,97,10/18/19 17:15,The main experiment item,yes,SternbergTask.osexp,C:/Users/Carolyn/Desktop,no,mono,no,18,no,white,no,yes,768,legacy,85,11,C:/Users/Carolyn/Desktop/cp_subject-4.csv,legacy,6 2 9 3 8 4,Kafkaesque Koffka,3.2.8,0,n,0,right,right,left,NA,right,748,67135,8071,NA,748,2,legacy,6,1024,2,48000,-16,experiment,4,even,1,697560,166947,698739,700947,679273,5579,158875,699742,72716,702950,NA,698735,5574,702950,703700,Sternberg Task,92,83813,98,yes,1024
93.93939394,93.93939394,854.4242424,854.4242424,black,experiment,legacy,legacy,legacy,0,uniform,1,undefined,1,right,98,0,98,98,98,0,0,98,0,98,0,98,0,98,98,10/18/19 17:15,The main experiment item,yes,SternbergTask.osexp,C:/Users/Carolyn/Desktop,no,mono,no,18,no,white,no,yes,768,legacy,86,11,C:/Users/Carolyn/Desktop/cp_subject-4.csv,legacy,9 8 2 7 4,Kafkaesque Koffka,3.2.8,0,n,0,right,right,left,NA,right,775,67135,8071,NA,775,2,legacy,5,1024,2,48000,-16,experiment,4,even,5,703752,166947,704929,707136,679273,5579,158875,705932,72716,709139,NA,704925,5574,709139,709916,Sternberg Task,93,84588,99,yes,1024
94,94,853.55,853.55,black,experiment,legacy,legacy,legacy,0,uniform,1,undefined,1,right,99,0,99,99,99,0,0,99,0,99,0,99,0,99,99,10/18/19 17:15,The main experiment item,yes,SternbergTask.osexp,C:/Users/Carolyn/Desktop,no,mono,no,18,no,white,no,yes,768,legacy,87,11,C:/Users/Carolyn/Desktop/cp_subject-4.csv,legacy,3 4 9 6 7 8,Kafkaesque Koffka,3.2.8,0,n,0,right,right,left,NA,right,767,67135,8071,NA,767,2,legacy,6,1024,2,48000,-16,experiment,4,even,2,709968,166947,711145,713352,679273,5579,158875,712148,72716,715355,NA,711141,5574,715355,716124,Sternberg Task,94,85355,100,yes,1024
94.05940594,94.05940594,850.4158416,850.4158416,black,experiment,legacy,legacy,legacy,0,uniform,1,undefined,1,left,100,0,100,100,100,0,0,100,0,100,0,100,0,100,100,10/18/19 17:15,The main experiment item,yes,SternbergTask.osexp,C:/Users/Carolyn/Desktop,no,mono,no,18,no,white,no,yes,768,legacy,88,11,C:/Users/Carolyn/Desktop/cp_subject-4.csv,legacy,9 4 2,Kafkaesque Koffka,3.2.8,1,y,0,left,right,left,NA,left,537,67135,8071,NA,537,2,legacy,3,1024,2,48000,-16,experiment,4,even,9,716160,166947,717336,719542,679273,5579,158875,718339,72716,721545,NA,717332,5574,721545,722084,Sternberg Task,95,85892,101,yes,1024
94.11764706,94.11764706,851.4313725,851.4313725,black,experiment,legacy,legacy,legacy,0,uniform,1,undefined,1,left,101,0,101,101,101,0,0,101,0,101,0,101,0,101,101,10/18/19 17:15,The main experiment item,yes,SternbergTask.osexp,C:/Users/Carolyn/Desktop,no,mono,no,18,no,white,no,yes,768,legacy,89,11,C:/Users/Carolyn/Desktop/cp_subject-4.csv,legacy,1 4 9 3 2 5,Kafkaesque Koffka,3.2.8,3,y,0,left,right,left,NA,left,954,67135,8071,NA,954,2,legacy,6,1024,2,48000,-16,experiment,4,even,9,722127,166947,723303,725509,679273,5579,158875,724306,72716,727512,NA,723299,5574,727512,728468,Sternberg Task,96,86846,102,yes,1024
94.17475728,94.17475728,848.2135922,848.2135922,black,experiment,legacy,legacy,legacy,0,uniform,1,undefined,1,left,102,0,102,102,102,0,0,102,0,102,0,102,0,102,102,10/18/19 17:15,The main experiment item,yes,SternbergTask.osexp,C:/Users/Carolyn/Desktop,no,mono,no,18,no,white,no,yes,768,legacy,90,11,C:/Users/Carolyn/Desktop/cp_subject-4.csv,legacy,6 2,Kafkaesque Koffka,3.2.8,1,y,0,left,right,left,NA,left,520,67135,8071,NA,520,2,legacy,2,1024,2,48000,-16,experiment,4,even,6,728510,166947,729687,731894,679273,5579,158875,730691,72716,733897,NA,729683,5574,733898,734420,Sternberg Task,97,87366,103,yes,1024
93.26923077,93.26923077,846.6923077,846.6923077,black,experiment,legacy,legacy,legacy,0,uniform,0,undefined,0,left,103,0,103,103,103,0,0,103,0,103,0,103,0,103,103,10/18/19 17:15,The main experiment item,yes,SternbergTask.osexp,C:/Users/Carolyn/Desktop,no,mono,no,18,no,white,no,yes,768,legacy,91,11,C:/Users/Carolyn/Desktop/cp_subject-4.csv,legacy,4 6 2 5 1,Kafkaesque Koffka,3.2.8,5,y,0,right,right,left,NA,right,690,67135,8071,NA,690,2,legacy,5,1024,2,48000,-16,experiment,4,even,1,734452,166947,735630,737836,679273,5579,158875,736633,72716,739839,NA,735626,5574,739840,740533,Sternberg Task,97,88056,104,yes,1024
93.33333333,93.33333333,846,846,black,experiment,legacy,legacy,legacy,0,uniform,1,undefined,1,right,104,0,104,104,104,0,0,104,0,104,0,104,0,104,104,10/18/19 17:15,The main experiment item,yes,SternbergTask.osexp,C:/Users/Carolyn/Desktop,no,mono,no,18,no,white,no,yes,768,legacy,92,11,C:/Users/Carolyn/Desktop/cp_subject-4.csv,legacy,3 4 2,Kafkaesque Koffka,3.2.8,0,n,0,right,right,left,NA,right,774,67135,8071,NA,774,2,legacy,3,1024,2,48000,-16,experiment,4,even,5,734452,166947,741755,743961,740577,5579,158875,742758,72716,745964,NA,741751,5574,745964,746741,Sternberg Task,98,88830,105,yes,1024
93.39622642,93.39622642,845.3301887,845.3301887,black,experiment,legacy,legacy,legacy,0,uniform,1,undefined,1,left,105,0,105,105,105,0,0,105,0,105,0,105,0,105,105,10/18/19 17:15,The main experiment item,yes,SternbergTask.osexp,C:/Users/Carolyn/Desktop,no,mono,no,18,no,white,no,yes,768,legacy,93,11,C:/Users/Carolyn/Desktop/cp_subject-4.csv,legacy,9 3 8 2 1 4,Kafkaesque Koffka,3.2.8,3,y,0,left,right,left,NA,left,775,67135,8071,NA,775,2,legacy,6,1024,2,48000,-16,experiment,4,even,8,746784,166947,747961,750168,740577,5579,158875,748964,72716,752171,NA,747957,5574,752171,752949,Sternberg Task,99,89605,106,yes,1024
93.45794393,93.45794393,845.0093458,845.0093458,black,experiment,legacy,legacy,legacy,0,uniform,1,undefined,1,right,106,0,106,106,106,0,0,106,0,106,0,106,0,106,106,10/18/19 17:15,The main experiment item,yes,SternbergTask.osexp,C:/Users/Carolyn/Desktop,no,mono,no,18,no,white,no,yes,768,legacy,94,11,C:/Users/Carolyn/Desktop/cp_subject-4.csv,legacy,6 3 1 7 9 8,Kafkaesque Koffka,3.2.8,0,n,0,right,right,left,NA,right,811,67135,8071,NA,811,2,legacy,6,1024,2,48000,-16,experiment,4,even,4,752985,166947,754163,756371,740577,5579,158875,755167,72716,758374,NA,754160,5574,758375,759189,Sternberg Task,100,90416,107,yes,1024
93.51851852,93.51851852,843.1574074,843.1574074,black,experiment,legacy,legacy,legacy,0,uniform,1,undefined,1,left,107,0,107,107,107,0,0,107,0,107,0,107,0,107,107,10/18/19 17:15,The main experiment item,yes,SternbergTask.osexp,C:/Users/Carolyn/Desktop,no,mono,no,18,no,white,no,yes,768,legacy,95,11,C:/Users/Carolyn/Desktop/cp_subject-4.csv,legacy,7,Kafkaesque Koffka,3.2.8,1,y,0,left,right,left,NA,left,645,67135,8071,NA,645,2,legacy,1,1024,2,48000,-16,experiment,4,even,7,759251,166947,760428,762634,740577,5579,158875,761431,72716,764637,NA,760424,5574,764637,765285,Sternberg Task,101,91061,108,yes,1024
93.57798165,93.57798165,842.3944954,842.3944954,black,experiment,legacy,legacy,legacy,0,uniform,1,undefined,1,left,108,0,108,108,108,0,0,108,0,108,0,108,0,108,108,10/18/19 17:15,The main experiment item,yes,SternbergTask.osexp,C:/Users/Carolyn/Desktop,no,mono,no,18,no,white,no,yes,768,legacy,96,11,C:/Users/Carolyn/Desktop/cp_subject-4.csv,legacy,6 1 2,Kafkaesque Koffka,3.2.8,3,y,0,left,right,left,NA,left,760,67135,8071,NA,760,2,legacy,3,1024,2,48000,-16,experiment,4,even,2,765326,166947,766504,768711,740577,5579,158875,767507,72716,770714,NA,766500,5574,770714,771477,Sternberg Task,102,91821,109,yes,1024
93.63636364,93.63636364,840.3454545,840.3454545,black,experiment,legacy,legacy,legacy,0,uniform,1,undefined,1,left,109,0,109,109,109,0,0,109,0,109,0,109,0,109,109,10/18/19 17:15,The main experiment item,yes,SternbergTask.osexp,C:/Users/Carolyn/Desktop,no,mono,no,18,no,white,no,yes,768,legacy,97,11,C:/Users/Carolyn/Desktop/cp_subject-4.csv,legacy,7 6,Kafkaesque Koffka,3.2.8,2,y,0,left,right,left,NA,left,617,67135,8071,NA,617,2,legacy,2,1024,2,48000,-16,experiment,4,even,6,771518,166947,772695,774901,740577,5579,158875,773698,72716,776904,NA,772691,5574,776905,777525,Sternberg Task,103,92438,110,yes,1024
93.69369369,93.69369369,840.8738739,840.8738739,black,experiment,legacy,legacy,legacy,0,uniform,1,undefined,1,right,110,0,110,110,110,0,0,110,0,110,0,110,0,110,110,10/18/19 17:15,The main experiment item,yes,SternbergTask.osexp,C:/Users/Carolyn/Desktop,no,mono,no,18,no,white,no,yes,768,legacy,98,11,C:/Users/Carolyn/Desktop/cp_subject-4.csv,legacy,6 7 5 9,Kafkaesque Koffka,3.2.8,0,n,0,right,right,left,NA,right,899,67135,8071,NA,899,2,legacy,4,1024,2,48000,-16,experiment,4,even,2,777568,166947,778748,780955,740577,5579,158875,779751,72716,782958,NA,778744,5574,782959,783861,Sternberg Task,104,93337,111,yes,1024
93.75,93.75,839.5892857,839.5892857,black,experiment,legacy,legacy,legacy,0,uniform,1,undefined,1,right,111,0,111,111,111,0,0,111,0,111,0,111,0,111,111,10/18/19 17:15,The main experiment item,yes,SternbergTask.osexp,C:/Users/Carolyn/Desktop,no,mono,no,18,no,white,no,yes,768,legacy,99,11,C:/Users/Carolyn/Desktop/cp_subject-4.csv,legacy,8 5 4 2 9 6,Kafkaesque Koffka,3.2.8,0,n,0,right,right,left,NA,right,697,67135,8071,NA,697,2,legacy,6,1024,2,48000,-16,experiment,4,even,3,783901,166947,785079,787285,740577,5579,158875,786082,72716,789288,NA,785075,5574,789289,789989,Sternberg Task,105,94034,112,yes,1024
93.80530973,93.80530973,836.3716814,836.3716814,black,experiment,legacy,legacy,legacy,0,uniform,1,undefined,1,right,112,0,112,112,112,0,0,112,0,112,0,112,0,112,112,10/18/19 17:15,The main experiment item,yes,SternbergTask.osexp,C:/Users/Carolyn/Desktop,no,mono,no,18,no,white,no,yes,768,legacy,100,11,C:/Users/Carolyn/Desktop/cp_subject-4.csv,legacy,8 9,Kafkaesque Koffka,3.2.8,0,n,0,right,right,left,NA,right,476,67135,8071,NA,476,2,legacy,2,1024,2,48000,-16,experiment,4,even,5,790034,166947,791212,793419,740577,5579,158875,792215,72716,795422,NA,791208,5574,795422,795901,Sternberg Task,106,94510,113,yes,1024
93.85964912,93.85964912,837.1052632,837.1052632,black,experiment,legacy,legacy,legacy,0,uniform,1,undefined,1,left,113,0,113,113,113,0,0,113,0,113,0,113,0,113,113,10/18/19 17:15,The main experiment item,yes,SternbergTask.osexp,C:/Users/Carolyn/Desktop,no,mono,no,18,no,white,no,yes,768,legacy,101,11,C:/Users/Carolyn/Desktop/cp_subject-4.csv,legacy,4 7 6 8 2 3,Kafkaesque Koffka,3.2.8,6,y,0,left,right,left,NA,left,920,67135,8071,NA,920,2,legacy,6,1024,2,48000,-16,experiment,4,even,3,795951,166947,797127,799334,740577,5579,158875,798130,72716,801337,NA,797123,5574,801338,802261,Sternberg Task,107,95430,114,yes,1024
93.91304348,93.91304348,835.7478261,835.7478261,black,experiment,legacy,legacy,legacy,0,uniform,1,undefined,1,left,114,0,114,114,114,0,0,114,0,114,0,114,0,114,114,10/18/19 17:15,The main experiment item,yes,SternbergTask.osexp,C:/Users/Carolyn/Desktop,no,mono,no,18,no,white,no,yes,768,legacy,102,11,C:/Users/Carolyn/Desktop/cp_subject-4.csv,legacy,9 6 2 4 1,Kafkaesque Koffka,3.2.8,4,y,0,left,right,left,NA,left,681,67135,8071,NA,681,2,legacy,5,1024,2,48000,-16,experiment,4,even,4,802301,166947,803479,805685,740577,5579,158875,804482,72716,807688,NA,803475,5574,807689,808373,Sternberg Task,108,96111,115,yes,1024
93.96551724,93.96551724,833,833,black,experiment,legacy,legacy,legacy,0,uniform,1,undefined,1,left,115,0,115,115,115,0,0,115,0,115,0,115,0,115,115,10/18/19 17:15,The main experiment item,yes,SternbergTask.osexp,C:/Users/Carolyn/Desktop,no,mono,no,18,no,white,no,yes,768,legacy,103,11,C:/Users/Carolyn/Desktop/cp_subject-4.csv,legacy,8 9 5 6 7,Kafkaesque Koffka,3.2.8,1,y,0,left,right,left,NA,left,517,67135,8071,NA,517,2,legacy,5,1024,2,48000,-16,experiment,4,even,8,808409,166947,809587,811794,740577,5579,158875,810590,72716,813797,NA,809583,5574,813797,814317,Sternberg Task,109,96628,116,yes,1024
94.01709402,94.01709402,831.8974359,831.8974359,black,experiment,legacy,legacy,legacy,0,uniform,1,undefined,1,right,116,0,116,116,116,0,0,116,0,116,0,116,0,116,116,10/18/19 17:15,The main experiment item,yes,SternbergTask.osexp,C:/Users/Carolyn/Desktop,no,mono,no,18,no,white,no,yes,768,legacy,104,11,C:/Users/Carolyn/Desktop/cp_subject-4.csv,legacy,7 4 2 8 1 9,Kafkaesque Koffka,3.2.8,0,n,0,right,right,left,NA,right,704,67135,8071,NA,704,2,legacy,6,1024,2,48000,-16,experiment,4,even,5,814367,166947,815544,817751,740577,5579,158875,816547,72716,819754,NA,815540,5574,819754,820461,Sternberg Task,110,97332,117,yes,1024
94.06779661,94.06779661,833.1271186,833.1271186,black,experiment,legacy,legacy,legacy,0,uniform,1,undefined,1,right,117,0,117,117,117,0,0,117,0,117,0,117,0,117,117,10/18/19 17:15,The main experiment item,yes,SternbergTask.osexp,C:/Users/Carolyn/Desktop,no,mono,no,18,no,white,no,yes,768,legacy,105,11,C:/Users/Carolyn/Desktop/cp_subject-4.csv,legacy,8 6 3 4 7,Kafkaesque Koffka,3.2.8,0,n,0,right,right,left,NA,right,977,67135,8071,NA,977,2,legacy,5,1024,2,48000,-16,experiment,4,even,1,820509,166947,821686,823893,740577,5579,158875,822689,72716,825896,NA,821682,5574,825897,826877,Sternberg Task,111,98309,118,yes,1024
94.11764706,94.11764706,833.4369748,833.4369748,black,experiment,legacy,legacy,legacy,0,uniform,1,undefined,1,right,118,0,118,118,118,0,0,118,0,118,0,118,0,118,118,10/18/19 17:15,The main experiment item,yes,SternbergTask.osexp,C:/Users/Carolyn/Desktop,no,mono,no,18,no,white,no,yes,768,legacy,106,11,C:/Users/Carolyn/Desktop/cp_subject-4.csv,legacy,7 1 8 4 9 3,Kafkaesque Koffka,3.2.8,0,n,0,right,right,left,NA,right,870,67135,8071,NA,870,2,legacy,6,1024,2,48000,-16,experiment,4,even,6,826926,166947,828104,830312,740577,5579,158875,829107,72716,832315,NA,828100,5574,832316,833189,Sternberg Task,112,99179,119,yes,1024
94.16666667,94.16666667,832.9166667,832.9166667,black,experiment,legacy,legacy,legacy,0,uniform,1,undefined,1,right,119,0,119,119,119,0,0,119,0,119,0,119,0,119,119,10/18/19 17:15,The main experiment item,yes,SternbergTask.osexp,C:/Users/Carolyn/Desktop,no,mono,no,18,no,white,no,yes,768,legacy,107,11,C:/Users/Carolyn/Desktop/cp_subject-4.csv,legacy,7 3 2 8,Kafkaesque Koffka,3.2.8,0,n,0,right,right,left,NA,right,771,67135,8071,NA,771,2,legacy,4,1024,2,48000,-16,experiment,4,even,4,833225,166947,834404,836611,740577,5579,158875,835407,72716,838614,NA,834400,5574,838615,839389,Sternberg Task,113,99950,120,yes,1024
94.21487603,94.21487603,831.2892562,831.2892562,black,experiment,legacy,legacy,legacy,0,uniform,1,undefined,1,left,120,0,120,120,120,0,0,120,0,120,0,120,0,120,120,10/18/19 17:15,The main experiment item,yes,SternbergTask.osexp,C:/Users/Carolyn/Desktop,no,mono,no,18,no,white,no,yes,768,legacy,108,11,C:/Users/Carolyn/Desktop/cp_subject-4.csv,legacy,4,Kafkaesque Koffka,3.2.8,1,y,0,left,right,left,NA,left,636,67135,8071,NA,636,2,legacy,1,1024,2,48000,-16,experiment,4,even,4,839426,166947,840603,842811,740577,5579,158875,841606,72716,844814,NA,840599,5574,844814,845453,Sternberg Task,114,100586,121,yes,1024
94.26229508,94.26229508,831.147541,831.147541,black,experiment,legacy,legacy,legacy,0,uniform,1,undefined,1,right,121,0,121,121,121,0,0,121,0,121,0,121,0,121,121,10/18/19 17:15,The main experiment item,yes,SternbergTask.osexp,C:/Users/Carolyn/Desktop,no,mono,no,18,no,white,no,yes,768,legacy,109,11,C:/Users/Carolyn/Desktop/cp_subject-4.csv,legacy,2 8 9 4 1,Kafkaesque Koffka,3.2.8,0,n,0,right,right,left,NA,right,814,67135,8071,NA,814,2,legacy,5,1024,2,48000,-16,experiment,4,even,5,845501,166947,846682,848889,740577,5579,158875,847685,72716,850892,NA,846678,5574,850892,851709,Sternberg Task,115,101400,122,yes,1024
93.49593496,93.49593496,831.3252033,831.3252033,black,experiment,legacy,legacy,legacy,0,uniform,0,undefined,0,left,122,0,122,122,122,0,0,122,0,122,0,122,0,122,122,10/18/19 17:15,The main experiment item,yes,SternbergTask.osexp,C:/Users/Carolyn/Desktop,no,mono,no,18,no,white,no,yes,768,legacy,110,11,C:/Users/Carolyn/Desktop/cp_subject-4.csv,legacy,3 9 6 2,Kafkaesque Koffka,3.2.8,4,y,0,right,right,left,NA,right,853,67135,8071,NA,853,2,legacy,4,1024,2,48000,-16,experiment,4,even,2,851759,166947,852938,855144,740577,5579,158875,853941,72716,857148,NA,852934,5574,857149,858005,Sternberg Task,115,102253,123,yes,1024
93.5483871,93.5483871,830.0806452,830.0806452,black,experiment,legacy,legacy,legacy,0,uniform,1,undefined,1,right,123,0,123,123,123,0,0,123,0,123,0,123,0,123,123,10/18/19 17:15,The main experiment item,yes,SternbergTask.osexp,C:/Users/Carolyn/Desktop,no,mono,no,18,no,white,no,yes,768,legacy,111,11,C:/Users/Carolyn/Desktop/cp_subject-4.csv,legacy,9,Kafkaesque Koffka,3.2.8,0,n,0,right,right,left,NA,right,677,67135,8071,NA,677,2,legacy,1,1024,2,48000,-16,experiment,4,even,6,851759,166947,859219,861425,858042,5579,158875,860222,72716,863428,NA,859215,5574,863429,864109,Sternberg Task,116,102930,124,yes,1024
93.6,93.6,828.552,828.552,black,experiment,legacy,legacy,legacy,0,uniform,1,undefined,1,left,124,0,124,124,124,0,0,124,0,124,0,124,0,124,124,10/18/19 17:15,The main experiment item,yes,SternbergTask.osexp,C:/Users/Carolyn/Desktop,no,mono,no,18,no,white,no,yes,768,legacy,112,11,C:/Users/Carolyn/Desktop/cp_subject-4.csv,legacy,5 2 6,Kafkaesque Koffka,3.2.8,2,y,0,left,right,left,NA,left,639,67135,8071,NA,639,2,legacy,3,1024,2,48000,-16,experiment,4,even,2,864142,166947,865321,867528,858042,5579,158875,866324,72716,869531,NA,865317,5574,869531,870173,Sternberg Task,117,103569,125,yes,1024
93.65079365,93.65079365,828.9761905,828.9761905,black,experiment,legacy,legacy,legacy,0,uniform,1,undefined,1,left,125,0,125,125,125,0,0,125,0,125,0,125,0,125,125,10/18/19 17:15,The main experiment item,yes,SternbergTask.osexp,C:/Users/Carolyn/Desktop,no,mono,no,18,no,white,no,yes,768,legacy,113,11,C:/Users/Carolyn/Desktop/cp_subject-4.csv,legacy,4 9 7 8 5 3,Kafkaesque Koffka,3.2.8,4,y,0,left,right,left,NA,left,882,67135,8071,NA,882,2,legacy,6,1024,2,48000,-16,experiment,4,even,8,870217,166947,871397,873604,858042,5579,158875,872400,72716,875607,NA,871393,5574,875608,876493,Sternberg Task,118,104451,126,yes,1024
93.7007874,93.7007874,828.6929134,828.6929134,black,experiment,legacy,legacy,legacy,0,uniform,1,undefined,1,left,126,0,126,126,126,0,0,126,0,126,0,126,0,126,126,10/18/19 17:15,The main experiment item,yes,SternbergTask.osexp,C:/Users/Carolyn/Desktop,no,mono,no,18,no,white,no,yes,768,legacy,114,11,C:/Users/Carolyn/Desktop/cp_subject-4.csv,legacy,8 5 3 7 4 6,Kafkaesque Koffka,3.2.8,6,y,0,left,right,left,NA,left,793,67135,8071,NA,793,2,legacy,6,1024,2,48000,-16,experiment,4,even,6,876542,166947,877718,879925,858042,5579,158875,878721,72716,881928,NA,877714,5574,881929,882725,Sternberg Task,119,105244,127,yes,1024
93.75,93.75,827.8125,827.8125,black,experiment,legacy,legacy,legacy,0,uniform,1,undefined,1,right,127,0,127,127,127,0,0,127,0,127,0,127,0,127,127,10/18/19 17:15,The main experiment item,yes,SternbergTask.osexp,C:/Users/Carolyn/Desktop,no,mono,no,18,no,white,no,yes,768,legacy,115,11,C:/Users/Carolyn/Desktop/cp_subject-4.csv,legacy,1 4 9 3,Kafkaesque Koffka,3.2.8,0,n,0,right,right,left,NA,right,716,67135,8071,NA,716,2,legacy,4,1024,2,48000,-16,experiment,4,even,5,882775,166947,883956,886163,858042,5579,158875,884959,72716,888166,NA,883952,5574,888166,888885,Sternberg Task,120,105960,128,yes,1024
93.79844961,93.79844961,828.4341085,828.4341085,black,experiment,legacy,legacy,legacy,0,uniform,1,undefined,1,left,128,0,128,128,128,0,0,128,0,128,0,128,0,128,128,10/18/19 17:15,The main experiment item,yes,SternbergTask.osexp,C:/Users/Carolyn/Desktop,no,mono,no,18,no,white,no,yes,768,legacy,116,11,C:/Users/Carolyn/Desktop/cp_subject-4.csv,legacy,8,Kafkaesque Koffka,3.2.8,1,y,0,left,right,left,NA,left,908,67135,8071,NA,908,2,legacy,1,1024,2,48000,-16,experiment,4,even,8,888934,166947,890109,892315,858042,5579,158875,891112,72716,894318,NA,890105,5574,894318,895229,Sternberg Task,121,106868,129,yes,1024
93.84615385,93.84615385,826.3461538,826.3461538,black,experiment,legacy,legacy,legacy,0,uniform,1,undefined,1,left,129,0,129,129,129,0,0,129,0,129,0,129,0,129,129,10/18/19 17:15,The main experiment item,yes,SternbergTask.osexp,C:/Users/Carolyn/Desktop,no,mono,no,18,no,white,no,yes,768,legacy,117,11,C:/Users/Carolyn/Desktop/cp_subject-4.csv,legacy,7 4 2 6 3 5,Kafkaesque Koffka,3.2.8,6,y,0,left,right,left,NA,left,557,67135,8071,NA,557,2,legacy,6,1024,2,48000,-16,experiment,4,even,5,895267,166947,896444,898650,858042,5579,158875,897447,72716,900653,NA,896440,5574,900653,901213,Sternberg Task,122,107425,130,yes,1024
93.89312977,93.89312977,825.6335878,825.6335878,black,experiment,legacy,legacy,legacy,0,uniform,1,undefined,1,left,130,0,130,130,130,0,0,130,0,130,0,130,0,130,130,10/18/19 17:15,The main experiment item,yes,SternbergTask.osexp,C:/Users/Carolyn/Desktop,no,mono,no,18,no,white,no,yes,768,legacy,118,11,C:/Users/Carolyn/Desktop/cp_subject-4.csv,legacy,8 9 5 7 1 6,Kafkaesque Koffka,3.2.8,4,y,0,left,right,left,NA,left,733,67135,8071,NA,733,2,legacy,6,1024,2,48000,-16,experiment,4,even,7,901258,166947,902436,904642,858042,5579,158875,903439,72716,906645,NA,902432,5574,906645,907381,Sternberg Task,123,108158,131,yes,1024
93.93939394,93.93939394,823.4621212,823.4621212,black,experiment,legacy,legacy,legacy,0,uniform,1,undefined,1,left,131,0,131,131,131,0,0,131,0,131,0,131,0,131,131,10/18/19 17:15,The main experiment item,yes,SternbergTask.osexp,C:/Users/Carolyn/Desktop,no,mono,no,18,no,white,no,yes,768,legacy,119,11,C:/Users/Carolyn/Desktop/cp_subject-4.csv,legacy,2 4 6 9,Kafkaesque Koffka,3.2.8,3,y,0,left,right,left,NA,left,539,67135,8071,NA,539,2,legacy,4,1024,2,48000,-16,experiment,4,even,6,907425,166947,908604,910811,858042,5579,158875,909607,72716,912814,NA,908600,5574,912815,913357,Sternberg Task,124,108697,132,yes,1024
93.98496241,93.98496241,822.3233083,822.3233083,black,experiment,legacy,legacy,legacy,0,uniform,1,undefined,1,right,132,0,132,132,132,0,0,132,0,132,0,132,0,132,132,10/18/19 17:15,The main experiment item,yes,SternbergTask.osexp,C:/Users/Carolyn/Desktop,no,mono,no,18,no,white,no,yes,768,legacy,120,11,C:/Users/Carolyn/Desktop/cp_subject-4.csv,legacy,1 3 2 6 9,Kafkaesque Koffka,3.2.8,0,n,0,right,right,left,NA,right,672,67135,8071,NA,672,2,legacy,5,1024,2,48000,-16,experiment,4,even,5,913408,166947,914585,916791,858042,5579,158875,915588,72716,918794,NA,914581,5574,918794,919469,Sternberg Task,125,109369,133,yes,1024
94.02985075,94.02985075,821.8059701,821.8059701,black,experiment,legacy,legacy,legacy,0,uniform,1,undefined,1,right,133,0,133,133,133,0,0,133,0,133,0,133,0,133,133,10/18/19 17:15,The main experiment item,yes,SternbergTask.osexp,C:/Users/Carolyn/Desktop,no,mono,no,18,no,white,no,yes,768,legacy,121,11,C:/Users/Carolyn/Desktop/cp_subject-4.csv,legacy,6 9 7 3 8 2,Kafkaesque Koffka,3.2.8,0,n,0,right,right,left,NA,right,753,67135,8071,NA,753,2,legacy,6,1024,2,48000,-16,experiment,4,even,5,919516,166947,920695,922902,858042,5579,158875,921698,72716,924905,NA,920691,5574,924905,925661,Sternberg Task,126,110122,134,yes,1024
94.07407407,94.07407407,821.6592593,821.6592593,black,experiment,legacy,legacy,legacy,0,uniform,1,undefined,1,right,134,0,134,134,134,0,0,134,0,134,0,134,0,134,134,10/18/19 17:15,The main experiment item,yes,SternbergTask.osexp,C:/Users/Carolyn/Desktop,no,mono,no,18,no,white,no,yes,768,legacy,122,11,C:/Users/Carolyn/Desktop/cp_subject-4.csv,legacy,5 3 2 6 9 8,Kafkaesque Koffka,3.2.8,0,n,0,right,right,left,NA,right,802,67135,8071,NA,802,2,legacy,6,1024,2,48000,-16,experiment,4,even,4,925708,166947,926886,929092,858042,5579,158875,927889,72716,931095,NA,926882,5574,931096,931901,Sternberg Task,127,110924,135,yes,1024
94.11764706,94.11764706,821.3161765,821.3161765,black,experiment,legacy,legacy,legacy,0,uniform,1,undefined,1,right,135,0,135,135,135,0,0,135,0,135,0,135,0,135,135,10/18/19 17:15,The main experiment item,yes,SternbergTask.osexp,C:/Users/Carolyn/Desktop,no,mono,no,18,no,white,no,yes,768,legacy,123,11,C:/Users/Carolyn/Desktop/cp_subject-4.csv,legacy,6 9 4 5 3 2,Kafkaesque Koffka,3.2.8,0,n,0,right,right,left,NA,right,775,67135,8071,NA,775,2,legacy,6,1024,2,48000,-16,experiment,4,even,8,931941,166947,933122,935328,858042,5579,158875,934125,72716,937331,NA,933118,5574,937331,938109,Sternberg Task,128,111699,136,yes,1024
94.16058394,94.16058394,820.7080292,820.7080292,black,experiment,legacy,legacy,legacy,0,uniform,1,undefined,1,right,136,0,136,136,136,0,0,136,0,136,0,136,0,136,136,10/18/19 17:15,The main experiment item,yes,SternbergTask.osexp,C:/Users/Carolyn/Desktop,no,mono,no,18,no,white,no,yes,768,legacy,124,11,C:/Users/Carolyn/Desktop/cp_subject-4.csv,legacy,7 1 5 6 3,Kafkaesque Koffka,3.2.8,0,n,0,right,right,left,NA,right,738,67135,8071,NA,738,2,legacy,5,1024,2,48000,-16,experiment,4,even,8,938158,166947,939335,941541,858042,5579,158875,940338,72716,943544,NA,939331,5574,943544,944285,Sternberg Task,129,112437,137,yes,1024
94.20289855,94.20289855,819.4057971,819.4057971,black,experiment,legacy,legacy,legacy,0,uniform,1,undefined,1,right,137,0,137,137,137,0,0,137,0,137,0,137,0,137,137,10/18/19 17:15,The main experiment item,yes,SternbergTask.osexp,C:/Users/Carolyn/Desktop,no,mono,no,18,no,white,no,yes,768,legacy,125,11,C:/Users/Carolyn/Desktop/cp_subject-4.csv,legacy,2 5 1 4,Kafkaesque Koffka,3.2.8,0,n,0,right,right,left,NA,right,641,67135,8071,NA,641,2,legacy,4,1024,2,48000,-16,experiment,4,even,6,944333,166947,945511,947717,858042,5579,158875,946514,72716,949720,NA,945507,5574,949721,950365,Sternberg Task,130,113078,138,yes,1024