acc,accuracy,average_response_time,avg_rt,background,block,canvas_backend,clock_backend,color_backend,compensation,coordinates,correct,correct_Instruction1,correct_keyboard_response,correct_response,count_ISI,count_Instruction1,count_Instructions2,count_correctFeedback,count_expSequence,count_experiment,count_experimentLoop,count_fixation,count_incorrectFeedback,count_keyboard_response,count_logger,count_memorySet,count_practiceloop,count_probe,count_thankYou,datetime,description,disable_garbage_collection,experiment_file,experiment_path,font_bold,font_family,font_italic,font_size,font_underline,foreground,form_clicks,fullscreen,height,keyboard_backend,live_row,live_row_practiceloop,logfile,mouse_backend,numberSet,opensesame_codename,opensesame_version,posInSet,present,repeat_cycle,response,response_Instruction1,response_Instructions2,response_keyboard_response,response_thankYou,response_time,response_time_Instruction1,response_time_Instructions2,response_time_keyboard_response,response_time_thankYou,round_decimals,sampler_backend,setSize,sound_buf_size,sound_channels,sound_freq,sound_sample_size,start,subject_nr,subject_parity,target,time_ISI,time_Instruction1,time_Instructions2,time_correctFeedback,time_expSequence,time_experiment,time_experimentLoop,time_fixation,time_incorrectFeedback,time_keyboard_response,time_logger,time_memorySet,time_practiceloop,time_probe,time_thankYou,title,total_correct,total_response_time,total_responses,uniform_coordinates,width
100,100,740,740,black,practice,legacy,legacy,legacy,0,uniform,1,undefined,1,right,0,0,0,0,0,0,0,0,0,0,0,0,0,0,0,Sun Oct 27 19:18:10 2019,The main experiment item,yes,SternnbergTask.osexp,/Users/kaylicolpitts/Desktop/adv quant/lab 3,no,mono,no,18,no,white,no,yes,768,legacy,0,0,/Users/kaylicolpitts/Desktop/adv quant/lab 3/KC-subject-3.csv,legacy,3 1 9 4,Kafkaesque Koffka,3.2.8,0,n,0,right,right,NA,right,NA,740,23525,NA,740,NA,2,legacy,4,1024,2,48000,-16,experiment,3,odd,6,31008,4846,NA,NA,28768,4822,NA,28781,NA,33020,33762,29793,28382,33020,NA,Sternberg Task,1,740,1,yes,1024
100,100,771.5,771.5,black,practice,legacy,legacy,legacy,0,uniform,1,undefined,1,right,1,0,0,1,1,0,0,1,1,1,1,1,0,1,0,Sun Oct 27 19:18:10 2019,The main experiment item,yes,SternnbergTask.osexp,/Users/kaylicolpitts/Desktop/adv quant/lab 3,no,mono,no,18,no,white,no,yes,768,legacy,1,1,/Users/kaylicolpitts/Desktop/adv quant/lab 3/KC-subject-3.csv,legacy,9 6 7 4 5,Kafkaesque Koffka,3.2.8,0,n,0,right,right,NA,right,NA,803,23525,NA,803,NA,2,legacy,5,1024,2,48000,-16,experiment,3,odd,3,37205,4846,NA,33833,34967,4822,NA,34979,NA,39217,40021,35991,28382,39217,NA,Sternberg Task,2,1543,2,yes,1024
66.66666667,66.66666667,732.6666667,732.6666667,black,practice,legacy,legacy,legacy,0,uniform,0,undefined,0,left,2,0,0,2,2,0,0,2,2,2,2,2,0,2,0,Sun Oct 27 19:18:10 2019,The main experiment item,yes,SternnbergTask.osexp,/Users/kaylicolpitts/Desktop/adv quant/lab 3,no,mono,no,18,no,white,no,yes,768,legacy,2,2,/Users/kaylicolpitts/Desktop/adv quant/lab 3/KC-subject-3.csv,legacy,1 7 9 8 5,Kafkaesque Koffka,3.2.8,4,y,0,right,right,NA,right,NA,655,23525,NA,655,NA,2,legacy,5,1024,2,48000,-16,experiment,3,odd,8,43392,4846,NA,40040,41156,4822,NA,41168,NA,45405,46062,42179,28382,45405,NA,Sternberg Task,2,2198,3,yes,1024
75,75,705.25,705.25,black,practice,legacy,legacy,legacy,0,uniform,1,undefined,1,right,3,0,0,3,3,0,0,3,3,3,3,3,0,3,0,Sun Oct 27 19:18:10 2019,The main experiment item,yes,SternnbergTask.osexp,/Users/kaylicolpitts/Desktop/adv quant/lab 3,no,mono,no,18,no,white,no,yes,768,legacy,3,3,/Users/kaylicolpitts/Desktop/adv quant/lab 3/KC-subject-3.csv,legacy,5 7 8 4 1 2,Kafkaesque Koffka,3.2.8,0,n,0,right,right,NA,right,NA,623,23525,NA,623,NA,2,legacy,6,1024,2,48000,-16,experiment,3,odd,6,49431,4846,NA,40040,47193,4822,NA,47205,46081,51443,52068,48217,28382,51443,NA,Sternberg Task,3,2821,4,yes,1024
80,80,664.2,664.2,black,practice,legacy,legacy,legacy,0,uniform,1,undefined,1,right,4,0,0,4,4,0,0,4,4,4,4,4,0,4,0,Sun Oct 27 19:18:10 2019,The main experiment item,yes,SternnbergTask.osexp,/Users/kaylicolpitts/Desktop/adv quant/lab 3,no,mono,no,18,no,white,no,yes,768,legacy,4,4,/Users/kaylicolpitts/Desktop/adv quant/lab 3/KC-subject-3.csv,legacy,2 1,Kafkaesque Koffka,3.2.8,0,n,0,right,right,NA,right,NA,500,23525,NA,500,NA,2,legacy,2,1024,2,48000,-16,experiment,3,odd,5,55438,4846,NA,52082,53200,4822,NA,53212,46081,57450,57951,54224,28382,57450,NA,Sternberg Task,4,3321,5,yes,1024
66.66666667,66.66666667,622.3333333,622.3333333,black,practice,legacy,legacy,legacy,0,uniform,0,undefined,0,left,5,0,0,5,5,0,0,5,5,5,5,5,0,5,0,Sun Oct 27 19:18:10 2019,The main experiment item,yes,SternnbergTask.osexp,/Users/kaylicolpitts/Desktop/adv quant/lab 3,no,mono,no,18,no,white,no,yes,768,legacy,5,5,/Users/kaylicolpitts/Desktop/adv quant/lab 3/KC-subject-3.csv,legacy,6,Kafkaesque Koffka,3.2.8,1,y,0,right,right,NA,right,NA,413,23525,NA,413,NA,2,legacy,1,1024,2,48000,-16,experiment,3,odd,6,61310,4846,NA,57965,59069,4822,NA,59081,46081,63327,63742,60093,28382,63327,NA,Sternberg Task,4,3734,6,yes,1024
71.42857143,71.42857143,609.8571429,609.8571429,black,practice,legacy,legacy,legacy,0,uniform,1,undefined,1,left,6,0,0,6,6,0,0,6,6,6,6,6,0,6,0,Sun Oct 27 19:18:10 2019,The main experiment item,yes,SternnbergTask.osexp,/Users/kaylicolpitts/Desktop/adv quant/lab 3,no,mono,no,18,no,white,no,yes,768,legacy,6,6,/Users/kaylicolpitts/Desktop/adv quant/lab 3/KC-subject-3.csv,legacy,4 3 1 7 9 8,Kafkaesque Koffka,3.2.8,1,y,0,left,right,NA,left,NA,535,23525,NA,535,NA,2,legacy,6,1024,2,48000,-16,experiment,3,odd,4,67102,4846,NA,57965,64864,4822,NA,64877,63755,69114,69650,65888,28382,69114,NA,Sternberg Task,5,4269,7,yes,1024
75,75,594.625,594.625,black,practice,legacy,legacy,legacy,0,uniform,1,undefined,1,right,7,0,0,7,7,0,0,7,7,7,7,7,0,7,0,Sun Oct 27 19:18:10 2019,The main experiment item,yes,SternnbergTask.osexp,/Users/kaylicolpitts/Desktop/adv quant/lab 3,no,mono,no,18,no,white,no,yes,768,legacy,7,7,/Users/kaylicolpitts/Desktop/adv quant/lab 3/KC-subject-3.csv,legacy,5,Kafkaesque Koffka,3.2.8,0,n,0,right,right,NA,right,NA,488,23525,NA,488,NA,2,legacy,1,1024,2,48000,-16,experiment,3,odd,3,73009,4846,NA,69665,70773,4822,NA,70784,63755,75022,75511,71797,28382,75022,NA,Sternberg Task,6,4757,8,yes,1024
66.66666667,66.66666667,593.5555556,593.5555556,black,practice,legacy,legacy,legacy,0,uniform,0,undefined,0,left,8,0,0,8,8,0,0,8,8,8,8,8,0,8,0,Sun Oct 27 19:18:10 2019,The main experiment item,yes,SternnbergTask.osexp,/Users/kaylicolpitts/Desktop/adv quant/lab 3,no,mono,no,18,no,white,no,yes,768,legacy,8,8,/Users/kaylicolpitts/Desktop/adv quant/lab 3/KC-subject-3.csv,legacy,2 9 4,Kafkaesque Koffka,3.2.8,3,y,0,right,right,NA,right,NA,585,23525,NA,585,NA,2,legacy,3,1024,2,48000,-16,experiment,3,odd,4,78870,4846,NA,75525,76632,4822,NA,76643,63755,80887,81473,77655,28382,80887,NA,Sternberg Task,6,5342,9,yes,1024
70,70,585.8,585.8,black,practice,legacy,legacy,legacy,0,uniform,1,undefined,1,right,9,0,0,9,9,0,0,9,9,9,9,9,0,9,0,Sun Oct 27 19:18:10 2019,The main experiment item,yes,SternnbergTask.osexp,/Users/kaylicolpitts/Desktop/adv quant/lab 3,no,mono,no,18,no,white,no,yes,768,legacy,9,9,/Users/kaylicolpitts/Desktop/adv quant/lab 3/KC-subject-3.csv,legacy,4 1 5,Kafkaesque Koffka,3.2.8,0,n,0,right,right,NA,right,NA,516,23525,NA,516,NA,2,legacy,3,1024,2,48000,-16,experiment,3,odd,2,84833,4846,NA,75525,82595,4822,NA,82607,81487,86845,87362,83619,28382,86844,NA,Sternberg Task,7,5858,10,yes,1024
72.72727273,72.72727273,582.3636364,582.3636364,black,practice,legacy,legacy,legacy,0,uniform,1,undefined,1,left,10,0,0,10,10,0,0,10,10,10,10,10,0,10,0,Sun Oct 27 19:18:10 2019,The main experiment item,yes,SternnbergTask.osexp,/Users/kaylicolpitts/Desktop/adv quant/lab 3,no,mono,no,18,no,white,no,yes,768,legacy,10,10,/Users/kaylicolpitts/Desktop/adv quant/lab 3/KC-subject-3.csv,legacy,4 8,Kafkaesque Koffka,3.2.8,1,y,0,left,right,NA,left,NA,548,23525,NA,548,NA,2,legacy,2,1024,2,48000,-16,experiment,3,odd,4,90785,4846,NA,87376,88539,4822,NA,88558,81487,92803,93352,89573,28382,92803,NA,Sternberg Task,8,6406,11,yes,1024
75,75,569.4166667,569.4166667,black,practice,legacy,legacy,legacy,0,uniform,1,undefined,1,left,11,0,0,11,11,0,0,11,11,11,11,11,0,11,0,Sun Oct 27 19:18:10 2019,The main experiment item,yes,SternnbergTask.osexp,/Users/kaylicolpitts/Desktop/adv quant/lab 3,no,mono,no,18,no,white,no,yes,768,legacy,11,11,/Users/kaylicolpitts/Desktop/adv quant/lab 3/KC-subject-3.csv,legacy,1 5 2 9,Kafkaesque Koffka,3.2.8,2,y,0,left,right,NA,left,NA,427,23525,NA,427,NA,2,legacy,4,1024,2,48000,-16,experiment,3,odd,5,96711,4846,NA,93366,94473,4822,NA,94485,81487,98723,99152,95497,28382,98723,NA,Sternberg Task,9,6833,12,yes,1024
76.92307692,76.92307692,562.8461538,562.8461538,black,experiment,legacy,legacy,legacy,0,uniform,1,undefined,1,right,12,0,0,12,12,0,0,12,12,12,12,12,0,12,0,Sun Oct 27 19:18:10 2019,The main experiment item,yes,SternnbergTask.osexp,/Users/kaylicolpitts/Desktop/adv quant/lab 3,no,mono,no,18,no,white,no,yes,768,legacy,0,11,/Users/kaylicolpitts/Desktop/adv quant/lab 3/KC-subject-3.csv,legacy,4 2 6 9,Kafkaesque Koffka,3.2.8,0,n,0,right,right,right,right,NA,484,23525,7073,484,NA,2,legacy,4,1024,2,48000,-16,experiment,3,odd,7,109646,4846,100202,99166,107405,4822,107276,107420,81487,111659,112144,108432,28382,111659,NA,Sternberg Task,10,7317,13,yes,1024
78.57142857,78.57142857,564.7857143,564.7857143,black,experiment,legacy,legacy,legacy,0,uniform,1,undefined,1,right,13,0,0,13,13,0,0,13,13,13,13,13,0,13,0,Sun Oct 27 19:18:10 2019,The main experiment item,yes,SternnbergTask.osexp,/Users/kaylicolpitts/Desktop/adv quant/lab 3,no,mono,no,18,no,white,no,yes,768,legacy,1,11,/Users/kaylicolpitts/Desktop/adv quant/lab 3/KC-subject-3.csv,legacy,1 6 4,Kafkaesque Koffka,3.2.8,0,n,0,right,right,right,right,NA,590,23525,7073,590,NA,2,legacy,3,1024,2,48000,-16,experiment,3,odd,7,115503,4846,100202,112160,113267,4822,107276,113279,81487,117515,118106,114291,28382,117515,NA,Sternberg Task,11,7907,14,yes,1024
80,80,569.7333333,569.7333333,black,experiment,legacy,legacy,legacy,0,uniform,1,undefined,1,right,14,0,0,14,14,0,0,14,14,14,14,14,0,14,0,Sun Oct 27 19:18:10 2019,The main experiment item,yes,SternnbergTask.osexp,/Users/kaylicolpitts/Desktop/adv quant/lab 3,no,mono,no,18,no,white,no,yes,768,legacy,2,11,/Users/kaylicolpitts/Desktop/adv quant/lab 3/KC-subject-3.csv,legacy,5 9 2 3,Kafkaesque Koffka,3.2.8,0,n,0,right,right,right,right,NA,639,23525,7073,639,NA,2,legacy,4,1024,2,48000,-16,experiment,3,odd,8,121465,4846,100202,118121,119230,4822,107276,119242,81487,123477,124117,120253,28382,123477,NA,Sternberg Task,12,8546,15,yes,1024
75,75,569.6875,569.6875,black,experiment,legacy,legacy,legacy,0,uniform,0,undefined,0,right,15,0,0,15,15,0,0,15,15,15,15,15,0,15,0,Sun Oct 27 19:18:10 2019,The main experiment item,yes,SternnbergTask.osexp,/Users/kaylicolpitts/Desktop/adv quant/lab 3,no,mono,no,18,no,white,no,yes,768,legacy,3,11,/Users/kaylicolpitts/Desktop/adv quant/lab 3/KC-subject-3.csv,legacy,3 4 2,Kafkaesque Koffka,3.2.8,0,n,0,left,right,right,left,NA,569,23525,7073,569,NA,2,legacy,3,1024,2,48000,-16,experiment,3,odd,5,127478,4846,100202,124131,125239,4822,107276,125251,81487,129491,130061,126264,28382,129491,NA,Sternberg Task,12,9115,16,yes,1024
70.58823529,70.58823529,575.1176471,575.1176471,black,experiment,legacy,legacy,legacy,0,uniform,0,undefined,0,right,16,0,0,16,16,0,0,16,16,16,16,16,0,16,0,Sun Oct 27 19:18:10 2019,The main experiment item,yes,SternnbergTask.osexp,/Users/kaylicolpitts/Desktop/adv quant/lab 3,no,mono,no,18,no,white,no,yes,768,legacy,4,11,/Users/kaylicolpitts/Desktop/adv quant/lab 3/KC-subject-3.csv,legacy,2 6 4 3 9,Kafkaesque Koffka,3.2.8,0,n,0,left,right,right,left,NA,662,23525,7073,662,NA,2,legacy,5,1024,2,48000,-16,experiment,3,odd,1,133419,4846,100202,124131,131182,4822,107276,131193,130075,135431,136094,132205,28382,135431,NA,Sternberg Task,12,9777,17,yes,1024
72.22222222,72.22222222,568.7777778,568.7777778,black,experiment,legacy,legacy,legacy,0,uniform,1,undefined,1,right,17,0,0,17,17,0,0,17,17,17,17,17,0,17,0,Sun Oct 27 19:18:10 2019,The main experiment item,yes,SternnbergTask.osexp,/Users/kaylicolpitts/Desktop/adv quant/lab 3,no,mono,no,18,no,white,no,yes,768,legacy,5,11,/Users/kaylicolpitts/Desktop/adv quant/lab 3/KC-subject-3.csv,legacy,1 4 9 3,Kafkaesque Koffka,3.2.8,0,n,0,right,right,right,right,NA,461,23525,7073,461,NA,2,legacy,4,1024,2,48000,-16,experiment,3,odd,5,139458,4846,100202,124131,137220,4822,107276,137232,136108,141471,141933,138244,28382,141471,NA,Sternberg Task,13,10238,18,yes,1024
73.68421053,73.68421053,570.2631579,570.2631579,black,experiment,legacy,legacy,legacy,0,uniform,1,undefined,1,left,18,0,0,18,18,0,0,18,18,18,18,18,0,18,0,Sun Oct 27 19:18:10 2019,The main experiment item,yes,SternnbergTask.osexp,/Users/kaylicolpitts/Desktop/adv quant/lab 3,no,mono,no,18,no,white,no,yes,768,legacy,6,11,/Users/kaylicolpitts/Desktop/adv quant/lab 3/KC-subject-3.csv,legacy,4 1 8 7 5,Kafkaesque Koffka,3.2.8,3,y,0,left,right,right,left,NA,597,23525,7073,597,NA,2,legacy,5,1024,2,48000,-16,experiment,3,odd,8,145290,4846,100202,141947,143052,4822,107276,143064,136108,147303,147902,144076,28382,147302,NA,Sternberg Task,14,10835,19,yes,1024
70,70,564.15,564.15,black,experiment,legacy,legacy,legacy,0,uniform,0,undefined,0,left,19,0,0,19,19,0,0,19,19,19,19,19,0,19,0,Sun Oct 27 19:18:10 2019,The main experiment item,yes,SternnbergTask.osexp,/Users/kaylicolpitts/Desktop/adv quant/lab 3,no,mono,no,18,no,white,no,yes,768,legacy,7,11,/Users/kaylicolpitts/Desktop/adv quant/lab 3/KC-subject-3.csv,legacy,6 1 2,Kafkaesque Koffka,3.2.8,3,y,0,right,right,right,right,NA,448,23525,7073,448,NA,2,legacy,3,1024,2,48000,-16,experiment,3,odd,2,151261,4846,100202,147919,149023,4822,107276,149035,136108,153273,153723,150047,28382,153273,NA,Sternberg Task,14,11283,20,yes,1024
66.66666667,66.66666667,563.4285714,563.4285714,black,experiment,legacy,legacy,legacy,0,uniform,0,undefined,0,left,20,0,0,20,20,0,0,20,20,20,20,20,0,20,0,Sun Oct 27 19:18:10 2019,The main experiment item,yes,SternnbergTask.osexp,/Users/kaylicolpitts/Desktop/adv quant/lab 3,no,mono,no,18,no,white,no,yes,768,legacy,8,11,/Users/kaylicolpitts/Desktop/adv quant/lab 3/KC-subject-3.csv,legacy,7 4 2 6 3 5,Kafkaesque Koffka,3.2.8,6,y,0,right,right,right,right,NA,549,23525,7073,549,NA,2,legacy,6,1024,2,48000,-16,experiment,3,odd,5,157085,4846,100202,147919,154844,4822,107276,154858,153738,159097,159648,155871,28382,159097,NA,Sternberg Task,14,11832,21,yes,1024
68.18181818,68.18181818,562,562,black,experiment,legacy,legacy,legacy,0,uniform,1,undefined,1,left,21,0,0,21,21,0,0,21,21,21,21,21,0,21,0,Sun Oct 27 19:18:10 2019,The main experiment item,yes,SternnbergTask.osexp,/Users/kaylicolpitts/Desktop/adv quant/lab 3,no,mono,no,18,no,white,no,yes,768,legacy,9,11,/Users/kaylicolpitts/Desktop/adv quant/lab 3/KC-subject-3.csv,legacy,9 4 2,Kafkaesque Koffka,3.2.8,1,y,0,left,right,right,left,NA,532,23525,7073,532,NA,2,legacy,3,1024,2,48000,-16,experiment,3,odd,9,163009,4846,100202,147919,160769,4822,107276,160782,159663,165022,165556,161794,28382,165022,NA,Sternberg Task,15,12364,22,yes,1024
65.2173913,65.2173913,571.6521739,571.6521739,black,experiment,legacy,legacy,legacy,0,uniform,0,undefined,0,right,22,0,0,22,22,0,0,22,22,22,22,22,0,22,0,Sun Oct 27 19:18:10 2019,The main experiment item,yes,SternnbergTask.osexp,/Users/kaylicolpitts/Desktop/adv quant/lab 3,no,mono,no,18,no,white,no,yes,768,legacy,10,11,/Users/kaylicolpitts/Desktop/adv quant/lab 3/KC-subject-3.csv,legacy,1 6 4 3 9 7,Kafkaesque Koffka,3.2.8,0,n,0,left,right,right,left,NA,784,23525,7073,784,NA,2,legacy,6,1024,2,48000,-16,experiment,3,odd,8,168921,4846,100202,165574,166681,4822,107276,166693,159663,170933,171719,167706,28382,170933,NA,Sternberg Task,15,13148,23,yes,1024
66.66666667,66.66666667,574.5833333,574.5833333,black,experiment,legacy,legacy,legacy,0,uniform,1,undefined,1,left,23,0,0,23,23,0,0,23,23,23,23,23,0,23,0,Sun Oct 27 19:18:10 2019,The main experiment item,yes,SternnbergTask.osexp,/Users/kaylicolpitts/Desktop/adv quant/lab 3,no,mono,no,18,no,white,no,yes,768,legacy,11,11,/Users/kaylicolpitts/Desktop/adv quant/lab 3/KC-subject-3.csv,legacy,7 6,Kafkaesque Koffka,3.2.8,2,y,0,left,right,right,left,NA,642,23525,7073,642,NA,2,legacy,2,1024,2,48000,-16,experiment,3,odd,6,175077,4846,100202,165574,172838,4822,107276,172851,171733,177090,177734,173863,28382,177090,NA,Sternberg Task,16,13790,24,yes,1024
68,68,571.04,571.04,black,experiment,legacy,legacy,legacy,0,uniform,1,undefined,1,right,24,0,0,24,24,0,0,24,24,24,24,24,0,24,0,Sun Oct 27 19:18:10 2019,The main experiment item,yes,SternnbergTask.osexp,/Users/kaylicolpitts/Desktop/adv quant/lab 3,no,mono,no,18,no,white,no,yes,768,legacy,12,11,/Users/kaylicolpitts/Desktop/adv quant/lab 3/KC-subject-3.csv,legacy,2 7 5,Kafkaesque Koffka,3.2.8,0,n,0,right,right,right,right,NA,486,23525,7073,486,NA,2,legacy,3,1024,2,48000,-16,experiment,3,odd,8,181095,4846,100202,177751,178856,4822,107276,178868,171733,183108,183596,179881,28382,183107,NA,Sternberg Task,17,14276,25,yes,1024
69.23076923,69.23076923,577.2692308,577.2692308,black,experiment,legacy,legacy,legacy,0,uniform,1,undefined,1,right,25,0,0,25,25,0,0,25,25,25,25,25,0,25,0,Sun Oct 27 19:18:10 2019,The main experiment item,yes,SternnbergTask.osexp,/Users/kaylicolpitts/Desktop/adv quant/lab 3,no,mono,no,18,no,white,no,yes,768,legacy,13,11,/Users/kaylicolpitts/Desktop/adv quant/lab 3/KC-subject-3.csv,legacy,7 1 5 6 3,Kafkaesque Koffka,3.2.8,0,n,0,right,right,right,right,NA,733,23525,7073,733,NA,2,legacy,5,1024,2,48000,-16,experiment,3,odd,8,186958,4846,100202,183612,184719,4822,107276,184731,171733,188971,189706,185743,28382,188971,NA,Sternberg Task,18,15009,26,yes,1024
70.37037037,70.37037037,583.7407407,583.7407407,black,experiment,legacy,legacy,legacy,0,uniform,1,undefined,1,left,26,0,0,26,26,0,0,26,26,26,26,26,0,26,0,Sun Oct 27 19:18:10 2019,The main experiment item,yes,SternnbergTask.osexp,/Users/kaylicolpitts/Desktop/adv quant/lab 3,no,mono,no,18,no,white,no,yes,768,legacy,14,11,/Users/kaylicolpitts/Desktop/adv quant/lab 3/KC-subject-3.csv,legacy,9 3 8 2 1 4,Kafkaesque Koffka,3.2.8,3,y,0,left,right,right,left,NA,752,23525,7073,752,NA,2,legacy,6,1024,2,48000,-16,experiment,3,odd,8,193066,4846,100202,189720,190827,4822,107276,190839,171733,195078,195833,191852,28382,195078,NA,Sternberg Task,19,15761,27,yes,1024
71.42857143,71.42857143,585.5714286,585.5714286,black,experiment,legacy,legacy,legacy,0,uniform,1,undefined,1,left,27,0,0,27,27,0,0,27,27,27,27,27,0,27,0,Sun Oct 27 19:18:10 2019,The main experiment item,yes,SternnbergTask.osexp,/Users/kaylicolpitts/Desktop/adv quant/lab 3,no,mono,no,18,no,white,no,yes,768,legacy,15,11,/Users/kaylicolpitts/Desktop/adv quant/lab 3/KC-subject-3.csv,legacy,4 6 5 8,Kafkaesque Koffka,3.2.8,1,y,0,left,right,right,left,NA,635,23525,7073,635,NA,2,legacy,4,1024,2,48000,-16,experiment,3,odd,4,199195,4846,100202,195850,196957,4822,107276,196969,171733,201207,201844,197981,28382,201207,NA,Sternberg Task,20,16396,28,yes,1024
68.96551724,68.96551724,584.8275862,584.8275862,black,experiment,legacy,legacy,legacy,0,uniform,0,undefined,0,right,28,0,0,28,28,0,0,28,28,28,28,28,0,28,0,Sun Oct 27 19:18:10 2019,The main experiment item,yes,SternnbergTask.osexp,/Users/kaylicolpitts/Desktop/adv quant/lab 3,no,mono,no,18,no,white,no,yes,768,legacy,16,11,/Users/kaylicolpitts/Desktop/adv quant/lab 3/KC-subject-3.csv,legacy,2 8 7 9 5 3,Kafkaesque Koffka,3.2.8,0,n,0,left,right,right,left,NA,564,23525,7073,564,NA,2,legacy,6,1024,2,48000,-16,experiment,3,odd,6,205203,4846,100202,201859,202966,4822,107276,202979,171733,207215,207782,203992,28382,207215,NA,Sternberg Task,20,16960,29,yes,1024
70,70,592.0666667,592.0666667,black,experiment,legacy,legacy,legacy,0,uniform,1,undefined,1,right,29,0,0,29,29,0,0,29,29,29,29,29,0,29,0,Sun Oct 27 19:18:10 2019,The main experiment item,yes,SternnbergTask.osexp,/Users/kaylicolpitts/Desktop/adv quant/lab 3,no,mono,no,18,no,white,no,yes,768,legacy,17,11,/Users/kaylicolpitts/Desktop/adv quant/lab 3/KC-subject-3.csv,legacy,1 4 9 2 5,Kafkaesque Koffka,3.2.8,0,n,0,right,right,right,right,NA,802,23525,7073,802,NA,2,legacy,5,1024,2,48000,-16,experiment,3,odd,7,211149,4846,100202,201859,208906,4822,107276,208918,207797,213161,213964,209933,28382,213161,NA,Sternberg Task,21,17762,30,yes,1024
70.96774194,70.96774194,589.7096774,589.7096774,black,experiment,legacy,legacy,legacy,0,uniform,1,undefined,1,right,30,0,0,30,30,0,0,30,30,30,30,30,0,30,0,Sun Oct 27 19:18:10 2019,The main experiment item,yes,SternnbergTask.osexp,/Users/kaylicolpitts/Desktop/adv quant/lab 3,no,mono,no,18,no,white,no,yes,768,legacy,18,11,/Users/kaylicolpitts/Desktop/adv quant/lab 3/KC-subject-3.csv,legacy,1 3 2 6 9,Kafkaesque Koffka,3.2.8,0,n,0,right,right,right,right,NA,519,23525,7073,519,NA,2,legacy,5,1024,2,48000,-16,experiment,3,odd,5,217322,4846,100202,213978,215084,4822,107276,215096,207797,219335,219855,216108,28382,219334,NA,Sternberg Task,22,18281,31,yes,1024
71.875,71.875,588.25,588.25,black,experiment,legacy,legacy,legacy,0,uniform,1,undefined,1,right,31,0,0,31,31,0,0,31,31,31,31,31,0,31,0,Sun Oct 27 19:18:10 2019,The main experiment item,yes,SternnbergTask.osexp,/Users/kaylicolpitts/Desktop/adv quant/lab 3,no,mono,no,18,no,white,no,yes,768,legacy,19,11,/Users/kaylicolpitts/Desktop/adv quant/lab 3/KC-subject-3.csv,legacy,7 8 6 1,Kafkaesque Koffka,3.2.8,0,n,0,right,right,right,right,NA,543,23525,7073,543,NA,2,legacy,4,1024,2,48000,-16,experiment,3,odd,3,223225,4846,100202,219870,220986,4822,107276,221000,207797,225239,225784,222011,28382,225239,NA,Sternberg Task,23,18824,32,yes,1024
72.72727273,72.72727273,586.0909091,586.0909091,black,experiment,legacy,legacy,legacy,0,uniform,1,undefined,1,left,32,0,0,32,32,0,0,32,32,32,32,32,0,32,0,Sun Oct 27 19:18:10 2019,The main experiment item,yes,SternnbergTask.osexp,/Users/kaylicolpitts/Desktop/adv quant/lab 3,no,mono,no,18,no,white,no,yes,768,legacy,20,11,/Users/kaylicolpitts/Desktop/adv quant/lab 3/KC-subject-3.csv,legacy,9 5 3 8 4,Kafkaesque Koffka,3.2.8,1,y,0,left,right,right,left,NA,517,23525,7073,517,NA,2,legacy,5,1024,2,48000,-16,experiment,3,odd,9,229143,4846,100202,225799,226906,4822,107276,226918,207797,231155,231673,227930,28382,231155,NA,Sternberg Task,24,19341,33,yes,1024
73.52941176,73.52941176,593.6470588,593.6470588,black,experiment,legacy,legacy,legacy,0,uniform,1,undefined,1,left,33,0,0,33,33,0,0,33,33,33,33,33,0,33,0,Sun Oct 27 19:18:10 2019,The main experiment item,yes,SternnbergTask.osexp,/Users/kaylicolpitts/Desktop/adv quant/lab 3,no,mono,no,18,no,white,no,yes,768,legacy,21,11,/Users/kaylicolpitts/Desktop/adv quant/lab 3/KC-subject-3.csv,legacy,3 4 9 6 2 9,Kafkaesque Koffka,3.2.8,5,y,0,left,right,right,left,NA,843,23525,7073,843,NA,2,legacy,6,1024,2,48000,-16,experiment,3,odd,2,235032,4846,100202,231687,232793,4822,107276,232806,207797,237044,237889,233818,28382,237044,NA,Sternberg Task,25,20184,34,yes,1024
74.28571429,74.28571429,602.1142857,602.1142857,black,experiment,legacy,legacy,legacy,0,uniform,1,undefined,1,right,34,0,0,34,34,0,0,34,34,34,34,34,0,34,0,Sun Oct 27 19:18:10 2019,The main experiment item,yes,SternnbergTask.osexp,/Users/kaylicolpitts/Desktop/adv quant/lab 3,no,mono,no,18,no,white,no,yes,768,legacy,22,11,/Users/kaylicolpitts/Desktop/adv quant/lab 3/KC-subject-3.csv,legacy,1 8 7,Kafkaesque Koffka,3.2.8,0,n,0,right,right,right,right,NA,890,23525,7073,890,NA,2,legacy,3,1024,2,48000,-16,experiment,3,odd,4,241247,4846,100202,237903,239008,4822,107276,239020,207797,243260,244151,240033,28382,243259,NA,Sternberg Task,26,21074,35,yes,1024
75,75,600.1666667,600.1666667,black,experiment,legacy,legacy,legacy,0,uniform,1,undefined,1,right,35,0,0,35,35,0,0,35,35,35,35,35,0,35,0,Sun Oct 27 19:18:10 2019,The main experiment item,yes,SternnbergTask.osexp,/Users/kaylicolpitts/Desktop/adv quant/lab 3,no,mono,no,18,no,white,no,yes,768,legacy,23,11,/Users/kaylicolpitts/Desktop/adv quant/lab 3/KC-subject-3.csv,legacy,2 5 1 4,Kafkaesque Koffka,3.2.8,0,n,0,right,right,right,right,NA,532,23525,7073,532,NA,2,legacy,4,1024,2,48000,-16,experiment,3,odd,6,247509,4846,100202,244165,245270,4822,107276,245283,207797,249522,250057,246295,28382,249521,NA,Sternberg Task,27,21606,36,yes,1024
75.67567568,75.67567568,599.4054054,599.4054054,black,experiment,legacy,legacy,legacy,0,uniform,1,undefined,1,left,36,0,0,36,36,0,0,36,36,36,36,36,0,36,0,Sun Oct 27 19:18:10 2019,The main experiment item,yes,SternnbergTask.osexp,/Users/kaylicolpitts/Desktop/adv quant/lab 3,no,mono,no,18,no,white,no,yes,768,legacy,24,11,/Users/kaylicolpitts/Desktop/adv quant/lab 3/KC-subject-3.csv,legacy,8 5 1 3 9,Kafkaesque Koffka,3.2.8,4,y,0,left,right,right,left,NA,572,23525,7073,572,NA,2,legacy,5,1024,2,48000,-16,experiment,3,odd,3,253419,4846,100202,250073,251180,4822,107276,251192,207797,255432,256006,252204,28382,255431,NA,Sternberg Task,28,22178,37,yes,1024
76.31578947,76.31578947,597.7631579,597.7631579,black,experiment,legacy,legacy,legacy,0,uniform,1,undefined,1,right,37,0,0,37,37,0,0,37,37,37,37,37,0,37,0,Sun Oct 27 19:18:10 2019,The main experiment item,yes,SternnbergTask.osexp,/Users/kaylicolpitts/Desktop/adv quant/lab 3,no,mono,no,18,no,white,no,yes,768,legacy,25,11,/Users/kaylicolpitts/Desktop/adv quant/lab 3/KC-subject-3.csv,legacy,3 9 1,Kafkaesque Koffka,3.2.8,0,n,0,right,right,right,right,NA,537,23525,7073,537,NA,2,legacy,3,1024,2,48000,-16,experiment,3,odd,7,259365,4846,100202,256021,257126,4822,107276,257138,207797,261377,261916,258150,28382,261377,NA,Sternberg Task,29,22715,38,yes,1024
76.92307692,76.92307692,598.2564103,598.2564103,black,experiment,legacy,legacy,legacy,0,uniform,1,undefined,1,left,38,0,0,38,38,0,0,38,38,38,38,38,0,38,0,Sun Oct 27 19:18:10 2019,The main experiment item,yes,SternnbergTask.osexp,/Users/kaylicolpitts/Desktop/adv quant/lab 3,no,mono,no,18,no,white,no,yes,768,legacy,26,11,/Users/kaylicolpitts/Desktop/adv quant/lab 3/KC-subject-3.csv,legacy,7 2 3,Kafkaesque Koffka,3.2.8,3,y,0,left,right,right,left,NA,617,23525,7073,617,NA,2,legacy,3,1024,2,48000,-16,experiment,3,odd,3,265273,4846,100202,261930,263035,4822,107276,263047,207797,267285,267904,264059,28382,267285,NA,Sternberg Task,30,23332,39,yes,1024
77.5,77.5,605.65,605.65,black,experiment,legacy,legacy,legacy,0,uniform,1,undefined,1,right,39,0,0,39,39,0,0,39,39,39,39,39,0,39,0,Sun Oct 27 19:18:10 2019,The main experiment item,yes,SternnbergTask.osexp,/Users/kaylicolpitts/Desktop/adv quant/lab 3,no,mono,no,18,no,white,no,yes,768,legacy,27,11,/Users/kaylicolpitts/Desktop/adv quant/lab 3/KC-subject-3.csv,legacy,9 7 4 5 8,Kafkaesque Koffka,3.2.8,0,n,0,right,right,right,right,NA,894,23525,7073,894,NA,2,legacy,5,1024,2,48000,-16,experiment,3,odd,6,271264,4846,100202,267921,269027,4822,107276,269039,207797,273277,274173,270051,28382,273277,NA,Sternberg Task,31,24226,40,yes,1024
75.6097561,75.6097561,604.4878049,604.4878049,black,experiment,legacy,legacy,legacy,0,uniform,0,undefined,0,left,40,0,0,40,40,0,0,40,40,40,40,40,0,40,0,Sun Oct 27 19:18:10 2019,The main experiment item,yes,SternnbergTask.osexp,/Users/kaylicolpitts/Desktop/adv quant/lab 3,no,mono,no,18,no,white,no,yes,768,legacy,28,11,/Users/kaylicolpitts/Desktop/adv quant/lab 3/KC-subject-3.csv,legacy,4 7 6 8 2 3,Kafkaesque Koffka,3.2.8,6,y,0,right,right,right,right,NA,558,23525,7073,558,NA,2,legacy,6,1024,2,48000,-16,experiment,3,odd,3,277533,4846,100202,274188,275295,4822,107276,275307,207797,279545,280105,276319,28382,279545,NA,Sternberg Task,31,24784,41,yes,1024
76.19047619,76.19047619,616.3095238,616.3095238,black,experiment,legacy,legacy,legacy,0,uniform,1,undefined,1,left,41,0,0,41,41,0,0,41,41,41,41,41,0,41,0,Sun Oct 27 19:18:10 2019,The main experiment item,yes,SternnbergTask.osexp,/Users/kaylicolpitts/Desktop/adv quant/lab 3,no,mono,no,18,no,white,no,yes,768,legacy,29,11,/Users/kaylicolpitts/Desktop/adv quant/lab 3/KC-subject-3.csv,legacy,3 2 1 4 7,Kafkaesque Koffka,3.2.8,2,y,0,left,right,right,left,NA,1101,23525,7073,1101,NA,2,legacy,5,1024,2,48000,-16,experiment,3,odd,2,283463,4846,100202,274188,281225,4822,107276,281237,280119,285475,286578,282249,28382,285475,NA,Sternberg Task,32,25885,42,yes,1024
76.74418605,76.74418605,613.9767442,613.9767442,black,experiment,legacy,legacy,legacy,0,uniform,1,undefined,1,right,42,0,0,42,42,0,0,42,42,42,42,42,0,42,0,Sun Oct 27 19:18:10 2019,The main experiment item,yes,SternnbergTask.osexp,/Users/kaylicolpitts/Desktop/adv quant/lab 3,no,mono,no,18,no,white,no,yes,768,legacy,30,11,/Users/kaylicolpitts/Desktop/adv quant/lab 3/KC-subject-3.csv,legacy,7 4 2 8 1 9,Kafkaesque Koffka,3.2.8,0,n,0,right,right,right,right,NA,516,23525,7073,516,NA,2,legacy,6,1024,2,48000,-16,experiment,3,odd,5,289938,4846,100202,286592,287699,4822,107276,287711,280119,291950,292468,288723,28382,291950,NA,Sternberg Task,33,26401,43,yes,1024
75,75,614.3409091,614.3409091,black,experiment,legacy,legacy,legacy,0,uniform,0,undefined,0,left,43,0,0,43,43,0,0,43,43,43,43,43,0,43,0,Sun Oct 27 19:18:10 2019,The main experiment item,yes,SternnbergTask.osexp,/Users/kaylicolpitts/Desktop/adv quant/lab 3,no,mono,no,18,no,white,no,yes,768,legacy,31,11,/Users/kaylicolpitts/Desktop/adv quant/lab 3/KC-subject-3.csv,legacy,8 1 6,Kafkaesque Koffka,3.2.8,3,y,0,right,right,right,right,NA,630,23525,7073,630,NA,2,legacy,3,1024,2,48000,-16,experiment,3,odd,6,295825,4846,100202,292482,293587,4822,107276,293599,280119,297837,298469,294611,28382,297837,NA,Sternberg Task,33,27031,44,yes,1024
75.55555556,75.55555556,614.9555556,614.9555556,black,experiment,legacy,legacy,legacy,0,uniform,1,undefined,1,left,44,0,0,44,44,0,0,44,44,44,44,44,0,44,0,Sun Oct 27 19:18:10 2019,The main experiment item,yes,SternnbergTask.osexp,/Users/kaylicolpitts/Desktop/adv quant/lab 3,no,mono,no,18,no,white,no,yes,768,legacy,32,11,/Users/kaylicolpitts/Desktop/adv quant/lab 3/KC-subject-3.csv,legacy,6 9 3 1,Kafkaesque Koffka,3.2.8,4,y,0,left,right,right,left,NA,642,23525,7073,642,NA,2,legacy,4,1024,2,48000,-16,experiment,3,odd,1,301827,4846,100202,292482,299589,4822,107276,299601,298484,303839,304483,300613,28382,303839,NA,Sternberg Task,34,27673,45,yes,1024
73.91304348,73.91304348,617.7391304,617.7391304,black,experiment,legacy,legacy,legacy,0,uniform,0,undefined,0,left,45,0,0,45,45,0,0,45,45,45,45,45,0,45,0,Sun Oct 27 19:18:10 2019,The main experiment item,yes,SternnbergTask.osexp,/Users/kaylicolpitts/Desktop/adv quant/lab 3,no,mono,no,18,no,white,no,yes,768,legacy,33,11,/Users/kaylicolpitts/Desktop/adv quant/lab 3/KC-subject-3.csv,legacy,8 9 5 7 1 6,Kafkaesque Koffka,3.2.8,4,y,0,right,right,right,right,NA,743,23525,7073,743,NA,2,legacy,6,1024,2,48000,-16,experiment,3,odd,7,307841,4846,100202,304497,305604,4822,107276,305616,298484,309854,310600,306628,28382,309854,NA,Sternberg Task,34,28416,46,yes,1024
74.46808511,74.46808511,617.7234043,617.7234043,black,experiment,legacy,legacy,legacy,0,uniform,1,undefined,1,right,46,0,0,46,46,0,0,46,46,46,46,46,0,46,0,Sun Oct 27 19:18:10 2019,The main experiment item,yes,SternnbergTask.osexp,/Users/kaylicolpitts/Desktop/adv quant/lab 3,no,mono,no,18,no,white,no,yes,768,legacy,34,11,/Users/kaylicolpitts/Desktop/adv quant/lab 3/KC-subject-3.csv,legacy,8 2 1 4 5 9,Kafkaesque Koffka,3.2.8,0,n,0,right,right,right,right,NA,617,23525,7073,617,NA,2,legacy,6,1024,2,48000,-16,experiment,3,odd,7,313959,4846,100202,304497,311720,4822,107276,311732,310614,315974,316594,312744,28382,315974,NA,Sternberg Task,35,29033,47,yes,1024
75,75,619,619,black,experiment,legacy,legacy,legacy,0,uniform,1,undefined,1,left,47,0,0,47,47,0,0,47,47,47,47,47,0,47,0,Sun Oct 27 19:18:10 2019,The main experiment item,yes,SternnbergTask.osexp,/Users/kaylicolpitts/Desktop/adv quant/lab 3,no,mono,no,18,no,white,no,yes,768,legacy,35,11,/Users/kaylicolpitts/Desktop/adv quant/lab 3/KC-subject-3.csv,legacy,9 5 8 1,Kafkaesque Koffka,3.2.8,2,y,0,left,right,right,left,NA,679,23525,7073,679,NA,2,legacy,4,1024,2,48000,-16,experiment,3,odd,5,319952,4846,100202,316609,317715,4822,107276,317727,310614,321968,322649,318739,28382,321968,NA,Sternberg Task,36,29712,48,yes,1024
75.51020408,75.51020408,617.6530612,617.6530612,black,experiment,legacy,legacy,legacy,0,uniform,1,undefined,1,right,48,0,0,48,48,0,0,48,48,48,48,48,0,48,0,Sun Oct 27 19:18:10 2019,The main experiment item,yes,SternnbergTask.osexp,/Users/kaylicolpitts/Desktop/adv quant/lab 3,no,mono,no,18,no,white,no,yes,768,legacy,36,11,/Users/kaylicolpitts/Desktop/adv quant/lab 3/KC-subject-3.csv,legacy,7 9,Kafkaesque Koffka,3.2.8,0,n,0,right,right,right,right,NA,553,23525,7073,553,NA,2,legacy,2,1024,2,48000,-16,experiment,3,odd,1,326018,4846,100202,322667,323780,4822,107276,323792,310614,328030,328584,324805,28382,328030,NA,Sternberg Task,37,30265,49,yes,1024
76,76,615.2,615.2,black,experiment,legacy,legacy,legacy,0,uniform,1,undefined,1,left,49,0,0,49,49,0,0,49,49,49,49,49,0,49,0,Sun Oct 27 19:18:10 2019,The main experiment item,yes,SternnbergTask.osexp,/Users/kaylicolpitts/Desktop/adv quant/lab 3,no,mono,no,18,no,white,no,yes,768,legacy,37,11,/Users/kaylicolpitts/Desktop/adv quant/lab 3/KC-subject-3.csv,legacy,4 3 2 5 8,Kafkaesque Koffka,3.2.8,2,y,0,left,right,right,left,NA,495,23525,7073,495,NA,2,legacy,5,1024,2,48000,-16,experiment,3,odd,3,331956,4846,100202,328603,329716,4822,107276,329729,310614,333968,334465,330742,28382,333968,NA,Sternberg Task,38,30760,50,yes,1024
76.47058824,76.47058824,613.254902,613.254902,black,experiment,legacy,legacy,legacy,0,uniform,1,undefined,1,right,50,0,0,50,50,0,0,50,50,50,50,50,0,50,0,Sun Oct 27 19:18:10 2019,The main experiment item,yes,SternnbergTask.osexp,/Users/kaylicolpitts/Desktop/adv quant/lab 3,no,mono,no,18,no,white,no,yes,768,legacy,38,11,/Users/kaylicolpitts/Desktop/adv quant/lab 3/KC-subject-3.csv,legacy,7 6 4 8 1 2,Kafkaesque Koffka,3.2.8,0,n,0,right,right,right,right,NA,516,23525,7073,516,NA,2,legacy,6,1024,2,48000,-16,experiment,3,odd,9,337827,4846,100202,334479,335588,4822,107276,335600,310614,339839,340357,336613,28382,339839,NA,Sternberg Task,39,31276,51,yes,1024
76.92307692,76.92307692,610.4615385,610.4615385,black,experiment,legacy,legacy,legacy,0,uniform,1,undefined,1,right,51,0,0,51,51,0,0,51,51,51,51,51,0,51,0,Sun Oct 27 19:18:10 2019,The main experiment item,yes,SternnbergTask.osexp,/Users/kaylicolpitts/Desktop/adv quant/lab 3,no,mono,no,18,no,white,no,yes,768,legacy,39,11,/Users/kaylicolpitts/Desktop/adv quant/lab 3/KC-subject-3.csv,legacy,1 7 5 2 9,Kafkaesque Koffka,3.2.8,0,n,0,right,right,right,right,NA,468,23525,7073,468,NA,2,legacy,5,1024,2,48000,-16,experiment,3,odd,3,343716,4846,100202,340371,341477,4822,107276,341489,310614,345728,346198,342501,28382,345728,NA,Sternberg Task,40,31744,52,yes,1024
77.35849057,77.35849057,608.6226415,608.6226415,black,experiment,legacy,legacy,legacy,0,uniform,1,undefined,1,right,52,0,0,52,52,0,0,52,52,52,52,52,0,52,0,Sun Oct 27 19:18:10 2019,The main experiment item,yes,SternnbergTask.osexp,/Users/kaylicolpitts/Desktop/adv quant/lab 3,no,mono,no,18,no,white,no,yes,768,legacy,40,11,/Users/kaylicolpitts/Desktop/adv quant/lab 3/KC-subject-3.csv,legacy,2 8 9,Kafkaesque Koffka,3.2.8,0,n,0,right,right,right,right,NA,513,23525,7073,513,NA,2,legacy,3,1024,2,48000,-16,experiment,3,odd,6,349558,4846,100202,346214,347320,4822,107276,347332,310614,351570,352085,348344,28382,351570,NA,Sternberg Task,41,32257,53,yes,1024
75.92592593,75.92592593,608.4814815,608.4814815,black,experiment,legacy,legacy,legacy,0,uniform,0,undefined,0,left,53,0,0,53,53,0,0,53,53,53,53,53,0,53,0,Sun Oct 27 19:18:10 2019,The main experiment item,yes,SternnbergTask.osexp,/Users/kaylicolpitts/Desktop/adv quant/lab 3,no,mono,no,18,no,white,no,yes,768,legacy,41,11,/Users/kaylicolpitts/Desktop/adv quant/lab 3/KC-subject-3.csv,legacy,5 7 3 6 2,Kafkaesque Koffka,3.2.8,5,y,0,right,right,right,right,NA,601,23525,7073,601,NA,2,legacy,5,1024,2,48000,-16,experiment,3,odd,2,355443,4846,100202,352099,353205,4822,107276,353217,310614,357455,358059,354229,28382,357455,NA,Sternberg Task,41,32858,54,yes,1024
76.36363636,76.36363636,618.0909091,618.0909091,black,experiment,legacy,legacy,legacy,0,uniform,1,undefined,1,right,54,0,0,54,54,0,0,54,54,54,54,54,0,54,0,Sun Oct 27 19:18:10 2019,The main experiment item,yes,SternnbergTask.osexp,/Users/kaylicolpitts/Desktop/adv quant/lab 3,no,mono,no,18,no,white,no,yes,768,legacy,42,11,/Users/kaylicolpitts/Desktop/adv quant/lab 3/KC-subject-3.csv,legacy,6 9 5,Kafkaesque Koffka,3.2.8,0,n,0,right,right,right,right,NA,1137,23525,7073,1137,NA,2,legacy,3,1024,2,48000,-16,experiment,3,odd,8,361419,4846,100202,352099,359179,4822,107276,359192,358075,363431,364570,360204,28382,363431,NA,Sternberg Task,42,33995,55,yes,1024
75,75,618.6964286,618.6964286,black,experiment,legacy,legacy,legacy,0,uniform,0,undefined,0,left,55,0,0,55,55,0,0,55,55,55,55,55,0,55,0,Sun Oct 27 19:18:10 2019,The main experiment item,yes,SternnbergTask.osexp,/Users/kaylicolpitts/Desktop/adv quant/lab 3,no,mono,no,18,no,white,no,yes,768,legacy,43,11,/Users/kaylicolpitts/Desktop/adv quant/lab 3/KC-subject-3.csv,legacy,6 7 8 5,Kafkaesque Koffka,3.2.8,3,y,0,right,right,right,right,NA,652,23525,7073,652,NA,2,legacy,4,1024,2,48000,-16,experiment,3,odd,8,367930,4846,100202,364584,365690,4822,107276,365702,358075,369943,370597,366714,28382,369943,NA,Sternberg Task,42,34647,56,yes,1024
73.68421053,73.68421053,618.8245614,618.8245614,black,experiment,legacy,legacy,legacy,0,uniform,0,undefined,0,right,56,0,0,56,56,0,0,56,56,56,56,56,0,56,0,Sun Oct 27 19:18:10 2019,The main experiment item,yes,SternnbergTask.osexp,/Users/kaylicolpitts/Desktop/adv quant/lab 3,no,mono,no,18,no,white,no,yes,768,legacy,44,11,/Users/kaylicolpitts/Desktop/adv quant/lab 3/KC-subject-3.csv,legacy,4 2 7 6 1 3,Kafkaesque Koffka,3.2.8,0,n,0,left,right,right,left,NA,626,23525,7073,626,NA,2,legacy,6,1024,2,48000,-16,experiment,3,odd,8,373959,4846,100202,364584,371717,4822,107276,371729,370611,375971,376598,372741,28382,375971,NA,Sternberg Task,42,35273,57,yes,1024
74.13793103,74.13793103,617.1896552,617.1896552,black,experiment,legacy,legacy,legacy,0,uniform,1,undefined,1,right,57,0,0,57,57,0,0,57,57,57,57,57,0,57,0,Sun Oct 27 19:18:10 2019,The main experiment item,yes,SternnbergTask.osexp,/Users/kaylicolpitts/Desktop/adv quant/lab 3,no,mono,no,18,no,white,no,yes,768,legacy,45,11,/Users/kaylicolpitts/Desktop/adv quant/lab 3/KC-subject-3.csv,legacy,1,Kafkaesque Koffka,3.2.8,0,n,0,right,right,right,right,NA,524,23525,7073,524,NA,2,legacy,1,1024,2,48000,-16,experiment,3,odd,7,379970,4846,100202,364584,377730,4822,107276,377742,376626,381982,382508,378754,28382,381982,NA,Sternberg Task,43,35797,58,yes,1024
74.57627119,74.57627119,617.4576271,617.4576271,black,experiment,legacy,legacy,legacy,0,uniform,1,undefined,1,right,58,0,0,58,58,0,0,58,58,58,58,58,0,58,0,Sun Oct 27 19:18:10 2019,The main experiment item,yes,SternnbergTask.osexp,/Users/kaylicolpitts/Desktop/adv quant/lab 3,no,mono,no,18,no,white,no,yes,768,legacy,46,11,/Users/kaylicolpitts/Desktop/adv quant/lab 3/KC-subject-3.csv,legacy,8 9,Kafkaesque Koffka,3.2.8,0,n,0,right,right,right,right,NA,633,23525,7073,633,NA,2,legacy,2,1024,2,48000,-16,experiment,3,odd,5,385866,4846,100202,382522,383627,4822,107276,383639,376626,387879,388514,384652,28382,387879,NA,Sternberg Task,44,36430,59,yes,1024
75,75,614.3833333,614.3833333,black,experiment,legacy,legacy,legacy,0,uniform,1,undefined,1,left,59,0,0,59,59,0,0,59,59,59,59,59,0,59,0,Sun Oct 27 19:18:10 2019,The main experiment item,yes,SternnbergTask.osexp,/Users/kaylicolpitts/Desktop/adv quant/lab 3,no,mono,no,18,no,white,no,yes,768,legacy,47,11,/Users/kaylicolpitts/Desktop/adv quant/lab 3/KC-subject-3.csv,legacy,4 1 5,Kafkaesque Koffka,3.2.8,2,y,0,left,right,right,left,NA,433,23525,7073,433,NA,2,legacy,3,1024,2,48000,-16,experiment,3,odd,1,391871,4846,100202,388528,389633,4822,107276,389645,376626,393884,394319,390658,28382,393883,NA,Sternberg Task,45,36863,60,yes,1024
75.40983607,75.40983607,613.9344262,613.9344262,black,experiment,legacy,legacy,legacy,0,uniform,1,undefined,1,left,60,0,0,60,60,0,0,60,60,60,60,60,0,60,0,Sun Oct 27 19:18:10 2019,The main experiment item,yes,SternnbergTask.osexp,/Users/kaylicolpitts/Desktop/adv quant/lab 3,no,mono,no,18,no,white,no,yes,768,legacy,48,11,/Users/kaylicolpitts/Desktop/adv quant/lab 3/KC-subject-3.csv,legacy,5 2 6,Kafkaesque Koffka,3.2.8,2,y,0,left,right,right,left,NA,587,23525,7073,587,NA,2,legacy,3,1024,2,48000,-16,experiment,3,odd,2,397677,4846,100202,394335,395441,4822,107276,395453,376626,399689,400279,396465,28382,399688,NA,Sternberg Task,46,37450,61,yes,1024
75.80645161,75.80645161,619.3870968,619.3870968,black,experiment,legacy,legacy,legacy,0,uniform,1,undefined,1,left,61,0,0,61,61,0,0,61,61,61,61,61,0,61,0,Sun Oct 27 19:18:10 2019,The main experiment item,yes,SternnbergTask.osexp,/Users/kaylicolpitts/Desktop/adv quant/lab 3,no,mono,no,18,no,white,no,yes,768,legacy,49,11,/Users/kaylicolpitts/Desktop/adv quant/lab 3/KC-subject-3.csv,legacy,8 9 6 1,Kafkaesque Koffka,3.2.8,2,y,0,left,right,right,left,NA,952,23525,7073,952,NA,2,legacy,4,1024,2,48000,-16,experiment,3,odd,9,403645,4846,100202,400299,401405,4822,107276,401418,376626,405658,406613,402430,28382,405658,NA,Sternberg Task,47,38402,62,yes,1024
76.19047619,76.19047619,621.3492063,621.3492063,black,experiment,legacy,legacy,legacy,0,uniform,1,undefined,1,left,62,0,0,62,62,0,0,62,62,62,62,62,0,62,0,Sun Oct 27 19:18:10 2019,The main experiment item,yes,SternnbergTask.osexp,/Users/kaylicolpitts/Desktop/adv quant/lab 3,no,mono,no,18,no,white,no,yes,768,legacy,50,11,/Users/kaylicolpitts/Desktop/adv quant/lab 3/KC-subject-3.csv,legacy,8 5 3 7 4 6,Kafkaesque Koffka,3.2.8,6,y,0,left,right,right,left,NA,743,23525,7073,743,NA,2,legacy,6,1024,2,48000,-16,experiment,3,odd,6,409977,4846,100202,406629,407736,4822,107276,407748,376626,411989,412734,408761,28382,411989,NA,Sternberg Task,48,39145,63,yes,1024
76.5625,76.5625,620.578125,620.578125,black,experiment,legacy,legacy,legacy,0,uniform,1,undefined,1,right,63,0,0,63,63,0,0,63,63,63,63,63,0,63,0,Sun Oct 27 19:18:10 2019,The main experiment item,yes,SternnbergTask.osexp,/Users/kaylicolpitts/Desktop/adv quant/lab 3,no,mono,no,18,no,white,no,yes,768,legacy,51,11,/Users/kaylicolpitts/Desktop/adv quant/lab 3/KC-subject-3.csv,legacy,9,Kafkaesque Koffka,3.2.8,0,n,0,right,right,right,right,NA,572,23525,7073,572,NA,2,legacy,1,1024,2,48000,-16,experiment,3,odd,6,416091,4846,100202,412748,413853,4822,107276,413865,376626,418103,418678,414878,28382,418103,NA,Sternberg Task,49,39717,64,yes,1024
76.92307692,76.92307692,619.6769231,619.6769231,black,experiment,legacy,legacy,legacy,0,uniform,1,undefined,1,left,64,0,0,64,64,0,0,64,64,64,64,64,0,64,0,Sun Oct 27 19:18:10 2019,The main experiment item,yes,SternnbergTask.osexp,/Users/kaylicolpitts/Desktop/adv quant/lab 3,no,mono,no,18,no,white,no,yes,768,legacy,52,11,/Users/kaylicolpitts/Desktop/adv quant/lab 3/KC-subject-3.csv,legacy,7 8 4 6 9 5,Kafkaesque Koffka,3.2.8,4,y,0,left,right,right,left,NA,562,23525,7073,562,NA,2,legacy,6,1024,2,48000,-16,experiment,3,odd,6,422036,4846,100202,418693,419799,4822,107276,419810,376626,424049,424613,420823,28382,424049,NA,Sternberg Task,50,40279,65,yes,1024
77.27272727,77.27272727,618.5151515,618.5151515,black,experiment,legacy,legacy,legacy,0,uniform,1,undefined,1,right,65,0,0,65,65,0,0,65,65,65,65,65,0,65,0,Sun Oct 27 19:18:10 2019,The main experiment item,yes,SternnbergTask.osexp,/Users/kaylicolpitts/Desktop/adv quant/lab 3,no,mono,no,18,no,white,no,yes,768,legacy,53,11,/Users/kaylicolpitts/Desktop/adv quant/lab 3/KC-subject-3.csv,legacy,4 8 1 2,Kafkaesque Koffka,3.2.8,0,n,0,right,right,right,right,NA,543,23525,7073,543,NA,2,legacy,4,1024,2,48000,-16,experiment,3,odd,7,427971,4846,100202,424627,425733,4822,107276,425745,376626,429983,430529,426757,28382,429983,NA,Sternberg Task,51,40822,66,yes,1024
77.6119403,77.6119403,617.880597,617.880597,black,experiment,legacy,legacy,legacy,0,uniform,1,undefined,1,right,66,0,0,66,66,0,0,66,66,66,66,66,0,66,0,Sun Oct 27 19:18:10 2019,The main experiment item,yes,SternnbergTask.osexp,/Users/kaylicolpitts/Desktop/adv quant/lab 3,no,mono,no,18,no,white,no,yes,768,legacy,54,11,/Users/kaylicolpitts/Desktop/adv quant/lab 3/KC-subject-3.csv,legacy,5 3 2 6 9 8,Kafkaesque Koffka,3.2.8,0,n,0,right,right,right,right,NA,576,23525,7073,576,NA,2,legacy,6,1024,2,48000,-16,experiment,3,odd,4,433893,4846,100202,430547,431654,4822,107276,431666,376626,435905,436483,432678,28382,435905,NA,Sternberg Task,52,41398,67,yes,1024
76.47058824,76.47058824,616.4558824,616.4558824,black,experiment,legacy,legacy,legacy,0,uniform,0,undefined,0,left,67,0,0,67,67,0,0,67,67,67,67,67,0,67,0,Sun Oct 27 19:18:10 2019,The main experiment item,yes,SternnbergTask.osexp,/Users/kaylicolpitts/Desktop/adv quant/lab 3,no,mono,no,18,no,white,no,yes,768,legacy,55,11,/Users/kaylicolpitts/Desktop/adv quant/lab 3/KC-subject-3.csv,legacy,8 3,Kafkaesque Koffka,3.2.8,2,y,0,right,right,right,right,NA,521,23525,7073,521,NA,2,legacy,2,1024,2,48000,-16,experiment,3,odd,3,439841,4846,100202,436498,437603,4822,107276,437615,376626,441854,442377,438627,28382,441854,NA,Sternberg Task,52,41919,68,yes,1024
76.8115942,76.8115942,615.5942029,615.5942029,black,experiment,legacy,legacy,legacy,0,uniform,1,undefined,1,left,68,0,0,68,68,0,0,68,68,68,68,68,0,68,0,Sun Oct 27 19:18:10 2019,The main experiment item,yes,SternnbergTask.osexp,/Users/kaylicolpitts/Desktop/adv quant/lab 3,no,mono,no,18,no,white,no,yes,768,legacy,56,11,/Users/kaylicolpitts/Desktop/adv quant/lab 3/KC-subject-3.csv,legacy,7 1 3,Kafkaesque Koffka,3.2.8,2,y,0,left,right,right,left,NA,557,23525,7073,557,NA,2,legacy,3,1024,2,48000,-16,experiment,3,odd,1,445735,4846,100202,436498,443497,4822,107276,443509,442391,447747,448307,444521,28382,447747,NA,Sternberg Task,53,42476,69,yes,1024
77.14285714,77.14285714,615.9142857,615.9142857,black,experiment,legacy,legacy,legacy,0,uniform,1,undefined,1,left,69,0,0,69,69,0,0,69,69,69,69,69,0,69,0,Sun Oct 27 19:18:10 2019,The main experiment item,yes,SternnbergTask.osexp,/Users/kaylicolpitts/Desktop/adv quant/lab 3,no,mono,no,18,no,white,no,yes,768,legacy,57,11,/Users/kaylicolpitts/Desktop/adv quant/lab 3/KC-subject-3.csv,legacy,2 8 5 1,Kafkaesque Koffka,3.2.8,4,y,0,left,right,right,left,NA,638,23525,7073,638,NA,2,legacy,4,1024,2,48000,-16,experiment,3,odd,1,451671,4846,100202,448325,449433,4822,107276,449445,442391,453683,454324,450458,28382,453683,NA,Sternberg Task,54,43114,70,yes,1024
77.46478873,77.46478873,615.7887324,615.7887324,black,experiment,legacy,legacy,legacy,0,uniform,1,undefined,1,right,70,0,0,70,70,0,0,70,70,70,70,70,0,70,0,Sun Oct 27 19:18:10 2019,The main experiment item,yes,SternnbergTask.osexp,/Users/kaylicolpitts/Desktop/adv quant/lab 3,no,mono,no,18,no,white,no,yes,768,legacy,58,11,/Users/kaylicolpitts/Desktop/adv quant/lab 3/KC-subject-3.csv,legacy,6 7 5 9,Kafkaesque Koffka,3.2.8,0,n,0,right,right,right,right,NA,607,23525,7073,607,NA,2,legacy,4,1024,2,48000,-16,experiment,3,odd,2,457684,4846,100202,454338,455446,4822,107276,455458,442391,459696,460306,456470,28382,459696,NA,Sternberg Task,55,43721,71,yes,1024
77.77777778,77.77777778,615.9722222,615.9722222,black,experiment,legacy,legacy,legacy,0,uniform,1,undefined,1,left,71,0,0,71,71,0,0,71,71,71,71,71,0,71,0,Sun Oct 27 19:18:10 2019,The main experiment item,yes,SternnbergTask.osexp,/Users/kaylicolpitts/Desktop/adv quant/lab 3,no,mono,no,18,no,white,no,yes,768,legacy,59,11,/Users/kaylicolpitts/Desktop/adv quant/lab 3/KC-subject-3.csv,legacy,4 6 2 5 1,Kafkaesque Koffka,3.2.8,5,y,0,left,right,right,left,NA,629,23525,7073,629,NA,2,legacy,5,1024,2,48000,-16,experiment,3,odd,1,463668,4846,100202,460322,461430,4822,107276,461442,442391,465682,466314,462454,28382,465682,NA,Sternberg Task,56,44350,72,yes,1024
78.08219178,78.08219178,615.0136986,615.0136986,black,experiment,legacy,legacy,legacy,0,uniform,1,undefined,1,left,72,0,0,72,72,0,0,72,72,72,72,72,0,72,0,Sun Oct 27 19:18:10 2019,The main experiment item,yes,SternnbergTask.osexp,/Users/kaylicolpitts/Desktop/adv quant/lab 3,no,mono,no,18,no,white,no,yes,768,legacy,60,11,/Users/kaylicolpitts/Desktop/adv quant/lab 3/KC-subject-3.csv,legacy,7,Kafkaesque Koffka,3.2.8,1,y,0,left,right,right,left,NA,546,23525,7073,546,NA,2,legacy,1,1024,2,48000,-16,experiment,3,odd,7,469674,4846,100202,466330,467436,4822,107276,467448,442391,471686,472234,468460,28382,471686,NA,Sternberg Task,57,44896,73,yes,1024
78.37837838,78.37837838,613.6891892,613.6891892,black,experiment,legacy,legacy,legacy,0,uniform,1,undefined,1,left,73,0,0,73,73,0,0,73,73,73,73,73,0,73,0,Sun Oct 27 19:18:10 2019,The main experiment item,yes,SternnbergTask.osexp,/Users/kaylicolpitts/Desktop/adv quant/lab 3,no,mono,no,18,no,white,no,yes,768,legacy,61,11,/Users/kaylicolpitts/Desktop/adv quant/lab 3/KC-subject-3.csv,legacy,6 9 7 4 5 1,Kafkaesque Koffka,3.2.8,2,y,0,left,right,right,left,NA,517,23525,7073,517,NA,2,legacy,6,1024,2,48000,-16,experiment,3,odd,9,475592,4846,100202,472249,473356,4822,107276,473367,442391,477605,478125,474380,28382,477605,NA,Sternberg Task,58,45413,74,yes,1024
78.66666667,78.66666667,613.4266667,613.4266667,black,experiment,legacy,legacy,legacy,0,uniform,1,undefined,1,right,74,0,0,74,74,0,0,74,74,74,74,74,0,74,0,Sun Oct 27 19:18:10 2019,The main experiment item,yes,SternnbergTask.osexp,/Users/kaylicolpitts/Desktop/adv quant/lab 3,no,mono,no,18,no,white,no,yes,768,legacy,62,11,/Users/kaylicolpitts/Desktop/adv quant/lab 3/KC-subject-3.csv,legacy,8 6 3 4 7,Kafkaesque Koffka,3.2.8,0,n,0,right,right,right,right,NA,594,23525,7073,594,NA,2,legacy,5,1024,2,48000,-16,experiment,3,odd,1,481485,4846,100202,478140,479247,4822,107276,479259,442391,483497,484093,480271,28382,483497,NA,Sternberg Task,59,46007,75,yes,1024
77.63157895,77.63157895,614.5263158,614.5263158,black,experiment,legacy,legacy,legacy,0,uniform,0,undefined,0,right,75,0,0,75,75,0,0,75,75,75,75,75,0,75,0,Sun Oct 27 19:18:10 2019,The main experiment item,yes,SternnbergTask.osexp,/Users/kaylicolpitts/Desktop/adv quant/lab 3,no,mono,no,18,no,white,no,yes,768,legacy,63,11,/Users/kaylicolpitts/Desktop/adv quant/lab 3/KC-subject-3.csv,legacy,2 3 8 5 6 7,Kafkaesque Koffka,3.2.8,0,n,0,left,right,right,left,NA,697,23525,7073,697,NA,2,legacy,6,1024,2,48000,-16,experiment,3,odd,1,487451,4846,100202,484107,485213,4822,107276,485225,442391,489463,490163,486237,28382,489463,NA,Sternberg Task,59,46704,76,yes,1024
77.92207792,77.92207792,614.0779221,614.0779221,black,experiment,legacy,legacy,legacy,0,uniform,1,undefined,1,left,76,0,0,76,76,0,0,76,76,76,76,76,0,76,0,Sun Oct 27 19:18:10 2019,The main experiment item,yes,SternnbergTask.osexp,/Users/kaylicolpitts/Desktop/adv quant/lab 3,no,mono,no,18,no,white,no,yes,768,legacy,64,11,/Users/kaylicolpitts/Desktop/adv quant/lab 3/KC-subject-3.csv,legacy,9 1 7 2,Kafkaesque Koffka,3.2.8,2,y,0,left,right,right,left,NA,580,23525,7073,580,NA,2,legacy,4,1024,2,48000,-16,experiment,3,odd,1,493521,4846,100202,484107,491283,4822,107276,491295,490177,495533,496117,492307,28382,495533,NA,Sternberg Task,60,47284,77,yes,1024
78.20512821,78.20512821,612.9358974,612.9358974,black,experiment,legacy,legacy,legacy,0,uniform,1,undefined,1,left,77,0,0,77,77,0,0,77,77,77,77,77,0,77,0,Sun Oct 27 19:18:10 2019,The main experiment item,yes,SternnbergTask.osexp,/Users/kaylicolpitts/Desktop/adv quant/lab 3,no,mono,no,18,no,white,no,yes,768,legacy,65,11,/Users/kaylicolpitts/Desktop/adv quant/lab 3/KC-subject-3.csv,legacy,5 7 8 2 3 8,Kafkaesque Koffka,3.2.8,5,y,0,left,right,right,left,NA,525,23525,7073,525,NA,2,legacy,6,1024,2,48000,-16,experiment,3,odd,3,499477,4846,100202,496131,497239,4822,107276,497251,490177,501490,502017,498263,28382,501490,NA,Sternberg Task,61,47809,78,yes,1024
78.48101266,78.48101266,611.1392405,611.1392405,black,experiment,legacy,legacy,legacy,0,uniform,1,undefined,1,left,78,0,0,78,78,0,0,78,78,78,78,78,0,78,0,Sun Oct 27 19:18:10 2019,The main experiment item,yes,SternnbergTask.osexp,/Users/kaylicolpitts/Desktop/adv quant/lab 3,no,mono,no,18,no,white,no,yes,768,legacy,66,11,/Users/kaylicolpitts/Desktop/adv quant/lab 3/KC-subject-3.csv,legacy,2 4 8 5 1 3,Kafkaesque Koffka,3.2.8,1,y,0,left,right,right,left,NA,471,23525,7073,471,NA,2,legacy,6,1024,2,48000,-16,experiment,3,odd,2,505375,4846,100202,502031,503137,4822,107276,503149,490177,507387,507860,504161,28382,507387,NA,Sternberg Task,62,48280,79,yes,1024
78.75,78.75,609.175,609.175,black,experiment,legacy,legacy,legacy,0,uniform,1,undefined,1,right,79,0,0,79,79,0,0,79,79,79,79,79,0,79,0,Sun Oct 27 19:18:10 2019,The main experiment item,yes,SternnbergTask.osexp,/Users/kaylicolpitts/Desktop/adv quant/lab 3,no,mono,no,18,no,white,no,yes,768,legacy,67,11,/Users/kaylicolpitts/Desktop/adv quant/lab 3/KC-subject-3.csv,legacy,4 1,Kafkaesque Koffka,3.2.8,0,n,0,right,right,right,right,NA,454,23525,7073,454,NA,2,legacy,2,1024,2,48000,-16,experiment,3,odd,6,511218,4846,100202,507876,508981,4822,107276,508993,490177,513230,513685,510004,28382,513230,NA,Sternberg Task,63,48734,80,yes,1024
79.01234568,79.01234568,612.4074074,612.4074074,black,experiment,legacy,legacy,legacy,0,uniform,1,undefined,1,right,80,0,0,80,80,0,0,80,80,80,80,80,0,80,0,Sun Oct 27 19:18:10 2019,The main experiment item,yes,SternnbergTask.osexp,/Users/kaylicolpitts/Desktop/adv quant/lab 3,no,mono,no,18,no,white,no,yes,768,legacy,68,11,/Users/kaylicolpitts/Desktop/adv quant/lab 3/KC-subject-3.csv,legacy,1 5 3 2 8,Kafkaesque Koffka,3.2.8,0,n,0,right,right,right,right,NA,871,23525,7073,871,NA,2,legacy,5,1024,2,48000,-16,experiment,3,odd,4,517048,4846,100202,513699,514807,4822,107276,514820,490177,519060,519933,515833,28382,519060,NA,Sternberg Task,64,49605,81,yes,1024
78.04878049,78.04878049,619.7926829,619.7926829,black,experiment,legacy,legacy,legacy,0,uniform,0,undefined,0,right,81,0,0,81,81,0,0,81,81,81,81,81,0,81,0,Sun Oct 27 19:18:10 2019,The main experiment item,yes,SternnbergTask.osexp,/Users/kaylicolpitts/Desktop/adv quant/lab 3,no,mono,no,18,no,white,no,yes,768,legacy,69,11,/Users/kaylicolpitts/Desktop/adv quant/lab 3/KC-subject-3.csv,legacy,7 9 1 6,Kafkaesque Koffka,3.2.8,0,n,0,left,right,right,left,NA,1218,23525,7073,1218,NA,2,legacy,4,1024,2,48000,-16,experiment,3,odd,4,523294,4846,100202,519948,521054,4822,107276,521067,490177,525307,526528,522080,28382,525307,NA,Sternberg Task,64,50823,82,yes,1024
77.10843373,77.10843373,620.1325301,620.1325301,black,experiment,legacy,legacy,legacy,0,uniform,0,undefined,0,left,82,0,0,82,82,0,0,82,82,82,82,82,0,82,0,Sun Oct 27 19:18:10 2019,The main experiment item,yes,SternnbergTask.osexp,/Users/kaylicolpitts/Desktop/adv quant/lab 3,no,mono,no,18,no,white,no,yes,768,legacy,70,11,/Users/kaylicolpitts/Desktop/adv quant/lab 3/KC-subject-3.csv,legacy,6 8 9 3 4 9,Kafkaesque Koffka,3.2.8,5,y,0,right,right,right,right,NA,648,23525,7073,648,NA,2,legacy,6,1024,2,48000,-16,experiment,3,odd,4,529889,4846,100202,519948,527650,4822,107276,527663,526543,531901,532551,528675,28382,531901,NA,Sternberg Task,64,51471,83,yes,1024
76.19047619,76.19047619,619.8571429,619.8571429,black,experiment,legacy,legacy,legacy,0,uniform,0,undefined,0,right,83,0,0,83,83,0,0,83,83,83,83,83,0,83,0,Sun Oct 27 19:18:10 2019,The main experiment item,yes,SternnbergTask.osexp,/Users/kaylicolpitts/Desktop/adv quant/lab 3,no,mono,no,18,no,white,no,yes,768,legacy,71,11,/Users/kaylicolpitts/Desktop/adv quant/lab 3/KC-subject-3.csv,legacy,6 8,Kafkaesque Koffka,3.2.8,0,n,0,left,right,right,left,NA,597,23525,7073,597,NA,2,legacy,2,1024,2,48000,-16,experiment,3,odd,9,535907,4846,100202,519948,533670,4822,107276,533682,532565,537919,538520,534694,28382,537919,NA,Sternberg Task,64,52068,84,yes,1024
76.47058824,76.47058824,618.1294118,618.1294118,black,experiment,legacy,legacy,legacy,0,uniform,1,undefined,1,right,84,0,0,84,84,0,0,84,84,84,84,84,0,84,0,Sun Oct 27 19:18:10 2019,The main experiment item,yes,SternnbergTask.osexp,/Users/kaylicolpitts/Desktop/adv quant/lab 3,no,mono,no,18,no,white,no,yes,768,legacy,72,11,/Users/kaylicolpitts/Desktop/adv quant/lab 3/KC-subject-3.csv,legacy,5,Kafkaesque Koffka,3.2.8,0,n,0,right,right,right,right,NA,473,23525,7073,473,NA,2,legacy,1,1024,2,48000,-16,experiment,3,odd,8,541877,4846,100202,519948,539639,4822,107276,539651,538534,543890,544365,540664,28382,543890,NA,Sternberg Task,65,52541,85,yes,1024
76.74418605,76.74418605,617.8255814,617.8255814,black,experiment,legacy,legacy,legacy,0,uniform,1,undefined,1,left,85,0,0,85,85,0,0,85,85,85,85,85,0,85,0,Sun Oct 27 19:18:10 2019,The main experiment item,yes,SternnbergTask.osexp,/Users/kaylicolpitts/Desktop/adv quant/lab 3,no,mono,no,18,no,white,no,yes,768,legacy,73,11,/Users/kaylicolpitts/Desktop/adv quant/lab 3/KC-subject-3.csv,legacy,9 3 1 2 5,Kafkaesque Koffka,3.2.8,4,y,0,left,right,right,left,NA,592,23525,7073,592,NA,2,legacy,5,1024,2,48000,-16,experiment,3,odd,2,547724,4846,100202,544379,545486,4822,107276,545498,538534,549736,550331,546510,28382,549736,NA,Sternberg Task,66,53133,86,yes,1024
75.86206897,75.86206897,617.0344828,617.0344828,black,experiment,legacy,legacy,legacy,0,uniform,0,undefined,0,right,86,0,0,86,86,0,0,86,86,86,86,86,0,86,0,Sun Oct 27 19:18:10 2019,The main experiment item,yes,SternnbergTask.osexp,/Users/kaylicolpitts/Desktop/adv quant/lab 3,no,mono,no,18,no,white,no,yes,768,legacy,74,11,/Users/kaylicolpitts/Desktop/adv quant/lab 3/KC-subject-3.csv,legacy,5 3 8 7 2 4,Kafkaesque Koffka,3.2.8,0,n,0,left,right,right,left,NA,549,23525,7073,549,NA,2,legacy,6,1024,2,48000,-16,experiment,3,odd,9,553692,4846,100202,550345,551454,4822,107276,551466,538534,555704,556255,552478,28382,555704,NA,Sternberg Task,66,53682,87,yes,1024
76.13636364,76.13636364,616.7840909,616.7840909,black,experiment,legacy,legacy,legacy,0,uniform,1,undefined,1,left,87,0,0,87,87,0,0,87,87,87,87,87,0,87,0,Sun Oct 27 19:18:10 2019,The main experiment item,yes,SternnbergTask.osexp,/Users/kaylicolpitts/Desktop/adv quant/lab 3,no,mono,no,18,no,white,no,yes,768,legacy,75,11,/Users/kaylicolpitts/Desktop/adv quant/lab 3/KC-subject-3.csv,legacy,4 9 7 8 5 3,Kafkaesque Koffka,3.2.8,4,y,0,left,right,right,left,NA,595,23525,7073,595,NA,2,legacy,6,1024,2,48000,-16,experiment,3,odd,8,559615,4846,100202,550345,557377,4822,107276,557389,556270,561627,562224,558401,28382,561627,NA,Sternberg Task,67,54277,88,yes,1024
76.40449438,76.40449438,618.0224719,618.0224719,black,experiment,legacy,legacy,legacy,0,uniform,1,undefined,1,right,88,0,0,88,88,0,0,88,88,88,88,88,0,88,0,Sun Oct 27 19:18:10 2019,The main experiment item,yes,SternnbergTask.osexp,/Users/kaylicolpitts/Desktop/adv quant/lab 3,no,mono,no,18,no,white,no,yes,768,legacy,76,11,/Users/kaylicolpitts/Desktop/adv quant/lab 3/KC-subject-3.csv,legacy,8 4 3 5,Kafkaesque Koffka,3.2.8,0,n,0,right,right,right,right,NA,727,23525,7073,727,NA,2,legacy,4,1024,2,48000,-16,experiment,3,odd,6,565582,4846,100202,562238,563343,4822,107276,563356,556270,567594,568324,564368,28382,567594,NA,Sternberg Task,68,55004,89,yes,1024
76.66666667,76.66666667,616.4333333,616.4333333,black,experiment,legacy,legacy,legacy,0,uniform,1,undefined,1,left,89,0,0,89,89,0,0,89,89,89,89,89,0,89,0,Sun Oct 27 19:18:10 2019,The main experiment item,yes,SternnbergTask.osexp,/Users/kaylicolpitts/Desktop/adv quant/lab 3,no,mono,no,18,no,white,no,yes,768,legacy,77,11,/Users/kaylicolpitts/Desktop/adv quant/lab 3/KC-subject-3.csv,legacy,4,Kafkaesque Koffka,3.2.8,1,y,0,left,right,right,left,NA,475,23525,7073,475,NA,2,legacy,1,1024,2,48000,-16,experiment,3,odd,4,571688,4846,100202,568340,569447,4822,107276,569459,556270,573700,574177,570471,28382,573700,NA,Sternberg Task,69,55479,90,yes,1024
76.92307692,76.92307692,615.8571429,615.8571429,black,experiment,legacy,legacy,legacy,0,uniform,1,undefined,1,right,90,0,0,90,90,0,0,90,90,90,90,90,0,90,0,Sun Oct 27 19:18:10 2019,The main experiment item,yes,SternnbergTask.osexp,/Users/kaylicolpitts/Desktop/adv quant/lab 3,no,mono,no,18,no,white,no,yes,768,legacy,78,11,/Users/kaylicolpitts/Desktop/adv quant/lab 3/KC-subject-3.csv,legacy,6 8 4,Kafkaesque Koffka,3.2.8,0,n,0,right,right,right,right,NA,564,23525,7073,564,NA,2,legacy,3,1024,2,48000,-16,experiment,3,odd,1,577535,4846,100202,574191,575297,4822,107276,575309,556270,579547,580114,576321,28382,579547,NA,Sternberg Task,70,56043,91,yes,1024
77.17391304,77.17391304,617.4021739,617.4021739,black,experiment,legacy,legacy,legacy,0,uniform,1,undefined,1,right,91,0,0,91,91,0,0,91,91,91,91,91,0,91,0,Sun Oct 27 19:18:10 2019,The main experiment item,yes,SternnbergTask.osexp,/Users/kaylicolpitts/Desktop/adv quant/lab 3,no,mono,no,18,no,white,no,yes,768,legacy,79,11,/Users/kaylicolpitts/Desktop/adv quant/lab 3/KC-subject-3.csv,legacy,6 9 4 5 3 2,Kafkaesque Koffka,3.2.8,0,n,0,right,right,right,right,NA,758,23525,7073,758,NA,2,legacy,6,1024,2,48000,-16,experiment,3,odd,8,583473,4846,100202,580129,581236,4822,107276,581248,556270,585485,586246,582260,28382,585485,NA,Sternberg Task,71,56801,92,yes,1024
76.34408602,76.34408602,617.5376344,617.5376344,black,experiment,legacy,legacy,legacy,0,uniform,0,undefined,0,right,92,0,0,92,92,0,0,92,92,92,92,92,0,92,0,Sun Oct 27 19:18:10 2019,The main experiment item,yes,SternnbergTask.osexp,/Users/kaylicolpitts/Desktop/adv quant/lab 3,no,mono,no,18,no,white,no,yes,768,legacy,80,11,/Users/kaylicolpitts/Desktop/adv quant/lab 3/KC-subject-3.csv,legacy,6 2 9 3 8 4,Kafkaesque Koffka,3.2.8,0,n,0,left,right,right,left,NA,630,23525,7073,630,NA,2,legacy,6,1024,2,48000,-16,experiment,3,odd,1,589606,4846,100202,586260,587368,4822,107276,587381,556270,591620,592252,588393,28382,591620,NA,Sternberg Task,71,57431,93,yes,1024
75.53191489,75.53191489,620.5744681,620.5744681,black,experiment,legacy,legacy,legacy,0,uniform,0,undefined,0,left,93,0,0,93,93,0,0,93,93,93,93,93,0,93,0,Sun Oct 27 19:18:10 2019,The main experiment item,yes,SternnbergTask.osexp,/Users/kaylicolpitts/Desktop/adv quant/lab 3,no,mono,no,18,no,white,no,yes,768,legacy,81,11,/Users/kaylicolpitts/Desktop/adv quant/lab 3/KC-subject-3.csv,legacy,2 4 6 9,Kafkaesque Koffka,3.2.8,3,y,0,right,right,right,right,NA,903,23525,7073,903,NA,2,legacy,4,1024,2,48000,-16,experiment,3,odd,6,595612,4846,100202,586260,593375,4822,107276,593387,592266,597625,598531,594399,28382,597625,NA,Sternberg Task,71,58334,94,yes,1024
75.78947368,75.78947368,624.3368421,624.3368421,black,experiment,legacy,legacy,legacy,0,uniform,1,undefined,1,right,94,0,0,94,94,0,0,94,94,94,94,94,0,94,0,Sun Oct 27 19:18:10 2019,The main experiment item,yes,SternnbergTask.osexp,/Users/kaylicolpitts/Desktop/adv quant/lab 3,no,mono,no,18,no,white,no,yes,768,legacy,82,11,/Users/kaylicolpitts/Desktop/adv quant/lab 3/KC-subject-3.csv,legacy,7 3 2 8,Kafkaesque Koffka,3.2.8,0,n,0,right,right,right,right,NA,978,23525,7073,978,NA,2,legacy,4,1024,2,48000,-16,experiment,3,odd,4,601894,4846,100202,586260,599655,4822,107276,599667,598547,603906,604888,600679,28382,603906,NA,Sternberg Task,72,59312,95,yes,1024
76.04166667,76.04166667,625.4791667,625.4791667,black,experiment,legacy,legacy,legacy,0,uniform,1,undefined,1,right,95,0,0,95,95,0,0,95,95,95,95,95,0,95,0,Sun Oct 27 19:18:10 2019,The main experiment item,yes,SternnbergTask.osexp,/Users/kaylicolpitts/Desktop/adv quant/lab 3,no,mono,no,18,no,white,no,yes,768,legacy,83,11,/Users/kaylicolpitts/Desktop/adv quant/lab 3/KC-subject-3.csv,legacy,5 2,Kafkaesque Koffka,3.2.8,0,n,0,right,right,right,right,NA,734,23525,7073,734,NA,2,legacy,2,1024,2,48000,-16,experiment,3,odd,7,608249,4846,100202,604905,606010,4822,107276,606022,598547,610261,610998,607035,28382,610261,NA,Sternberg Task,73,60046,96,yes,1024
76.28865979,76.28865979,625.9484536,625.9484536,black,experiment,legacy,legacy,legacy,0,uniform,1,undefined,1,right,96,0,0,96,96,0,0,96,96,96,96,96,0,96,0,Sun Oct 27 19:18:10 2019,The main experiment item,yes,SternnbergTask.osexp,/Users/kaylicolpitts/Desktop/adv quant/lab 3,no,mono,no,18,no,white,no,yes,768,legacy,84,11,/Users/kaylicolpitts/Desktop/adv quant/lab 3/KC-subject-3.csv,legacy,6 3 1 7 9 8,Kafkaesque Koffka,3.2.8,0,n,0,right,right,right,right,NA,671,23525,7073,671,NA,2,legacy,6,1024,2,48000,-16,experiment,3,odd,4,614357,4846,100202,611013,612119,4822,107276,612131,598547,616369,617042,613143,28382,616369,NA,Sternberg Task,74,60717,97,yes,1024
75.51020408,75.51020408,626.3367347,626.3367347,black,experiment,legacy,legacy,legacy,0,uniform,0,undefined,0,left,97,0,0,97,97,0,0,97,97,97,97,97,0,97,0,Sun Oct 27 19:18:10 2019,The main experiment item,yes,SternnbergTask.osexp,/Users/kaylicolpitts/Desktop/adv quant/lab 3,no,mono,no,18,no,white,no,yes,768,legacy,85,11,/Users/kaylicolpitts/Desktop/adv quant/lab 3/KC-subject-3.csv,legacy,7 8 6 3 1,Kafkaesque Koffka,3.2.8,5,y,0,right,right,right,right,NA,664,23525,7073,664,NA,2,legacy,5,1024,2,48000,-16,experiment,3,odd,1,620401,4846,100202,617056,618162,4822,107276,618174,598547,622413,623079,619186,28382,622413,NA,Sternberg Task,74,61381,98,yes,1024
75.75757576,75.75757576,627.2222222,627.2222222,black,experiment,legacy,legacy,legacy,0,uniform,1,undefined,1,right,98,0,0,98,98,0,0,98,98,98,98,98,0,98,0,Sun Oct 27 19:18:10 2019,The main experiment item,yes,SternnbergTask.osexp,/Users/kaylicolpitts/Desktop/adv quant/lab 3,no,mono,no,18,no,white,no,yes,768,legacy,86,11,/Users/kaylicolpitts/Desktop/adv quant/lab 3/KC-subject-3.csv,legacy,8 4 3 9,Kafkaesque Koffka,3.2.8,0,n,0,right,right,right,right,NA,714,23525,7073,714,NA,2,legacy,4,1024,2,48000,-16,experiment,3,odd,5,626435,4846,100202,617056,624198,4822,107276,624210,623093,628448,629165,625222,28382,628448,NA,Sternberg Task,75,62095,99,yes,1024
76,76,627.61,627.61,black,experiment,legacy,legacy,legacy,0,uniform,1,undefined,1,right,99,0,0,99,99,0,0,99,99,99,99,99,0,99,0,Sun Oct 27 19:18:10 2019,The main experiment item,yes,SternnbergTask.osexp,/Users/kaylicolpitts/Desktop/adv quant/lab 3,no,mono,no,18,no,white,no,yes,768,legacy,87,11,/Users/kaylicolpitts/Desktop/adv quant/lab 3/KC-subject-3.csv,legacy,7 1 8 4 9 3,Kafkaesque Koffka,3.2.8,0,n,0,right,right,right,right,NA,666,23525,7073,666,NA,2,legacy,6,1024,2,48000,-16,experiment,3,odd,6,632527,4846,100202,629181,630288,4822,107276,630300,623093,634540,635208,631313,28382,634539,NA,Sternberg Task,76,62761,100,yes,1024
75.24752475,75.24752475,627.4356436,627.4356436,black,experiment,legacy,legacy,legacy,0,uniform,0,undefined,0,left,100,0,0,100,100,0,0,100,100,100,100,100,0,100,0,Sun Oct 27 19:18:10 2019,The main experiment item,yes,SternnbergTask.osexp,/Users/kaylicolpitts/Desktop/adv quant/lab 3,no,mono,no,18,no,white,no,yes,768,legacy,88,11,/Users/kaylicolpitts/Desktop/adv quant/lab 3/KC-subject-3.csv,legacy,8 9 5 6 7,Kafkaesque Koffka,3.2.8,1,y,0,right,right,right,right,NA,610,23525,7073,610,NA,2,legacy,5,1024,2,48000,-16,experiment,3,odd,8,638566,4846,100202,635222,636328,4822,107276,636340,623093,640578,641192,637352,28382,640578,NA,Sternberg Task,76,63371,101,yes,1024
74.50980392,74.50980392,629.1764706,629.1764706,black,experiment,legacy,legacy,legacy,0,uniform,0,undefined,0,left,101,0,0,101,101,0,0,101,101,101,101,101,0,101,0,Sun Oct 27 19:18:10 2019,The main experiment item,yes,SternnbergTask.osexp,/Users/kaylicolpitts/Desktop/adv quant/lab 3,no,mono,no,18,no,white,no,yes,768,legacy,89,11,/Users/kaylicolpitts/Desktop/adv quant/lab 3/KC-subject-3.csv,legacy,8 5 4 7 3 1,Kafkaesque Koffka,3.2.8,2,y,0,right,right,right,right,NA,805,23525,7073,805,NA,2,legacy,6,1024,2,48000,-16,experiment,3,odd,5,644554,4846,100202,635222,642316,4822,107276,642327,641209,646566,647373,643340,28382,646566,NA,Sternberg Task,76,64176,102,yes,1024
74.75728155,74.75728155,627.8252427,627.8252427,black,experiment,legacy,legacy,legacy,0,uniform,1,undefined,1,left,102,0,0,102,102,0,0,102,102,102,102,102,0,102,0,Sun Oct 27 19:18:10 2019,The main experiment item,yes,SternnbergTask.osexp,/Users/kaylicolpitts/Desktop/adv quant/lab 3,no,mono,no,18,no,white,no,yes,768,legacy,90,11,/Users/kaylicolpitts/Desktop/adv quant/lab 3/KC-subject-3.csv,legacy,3 4,Kafkaesque Koffka,3.2.8,1,y,0,left,right,right,left,NA,490,23525,7073,490,NA,2,legacy,2,1024,2,48000,-16,experiment,3,odd,3,650731,4846,100202,635222,648491,4822,107276,648503,647387,652743,653235,649517,28382,652743,NA,Sternberg Task,77,64666,103,yes,1024
74.03846154,74.03846154,636.9615385,636.9615385,black,experiment,legacy,legacy,legacy,0,uniform,0,undefined,0,right,103,0,0,103,103,0,0,103,103,103,103,103,0,103,0,Sun Oct 27 19:18:10 2019,The main experiment item,yes,SternnbergTask.osexp,/Users/kaylicolpitts/Desktop/adv quant/lab 3,no,mono,no,18,no,white,no,yes,768,legacy,91,11,/Users/kaylicolpitts/Desktop/adv quant/lab 3/KC-subject-3.csv,legacy,3 4 9 6 7 8,Kafkaesque Koffka,3.2.8,0,n,0,left,right,right,left,NA,1578,23525,7073,1578,NA,2,legacy,6,1024,2,48000,-16,experiment,3,odd,2,656595,4846,100202,653249,654356,4822,107276,654369,647387,658607,660189,655381,28382,658607,NA,Sternberg Task,77,66244,104,yes,1024
74.28571429,74.28571429,636.2952381,636.2952381,black,experiment,legacy,legacy,legacy,0,uniform,1,undefined,1,left,104,0,0,104,104,0,0,104,104,104,104,104,0,104,0,Sun Oct 27 19:18:10 2019,The main experiment item,yes,SternnbergTask.osexp,/Users/kaylicolpitts/Desktop/adv quant/lab 3,no,mono,no,18,no,white,no,yes,768,legacy,92,11,/Users/kaylicolpitts/Desktop/adv quant/lab 3/KC-subject-3.csv,legacy,6 2,Kafkaesque Koffka,3.2.8,1,y,0,left,right,right,left,NA,567,23525,7073,567,NA,2,legacy,2,1024,2,48000,-16,experiment,3,odd,6,663551,4846,100202,653249,661313,4822,107276,661325,660206,665563,666132,662337,28382,665563,NA,Sternberg Task,78,66811,105,yes,1024
74.52830189,74.52830189,636.6792453,636.6792453,black,experiment,legacy,legacy,legacy,0,uniform,1,undefined,1,right,105,0,0,105,105,0,0,105,105,105,105,105,0,105,0,Sun Oct 27 19:18:10 2019,The main experiment item,yes,SternnbergTask.osexp,/Users/kaylicolpitts/Desktop/adv quant/lab 3,no,mono,no,18,no,white,no,yes,768,legacy,93,11,/Users/kaylicolpitts/Desktop/adv quant/lab 3/KC-subject-3.csv,legacy,2 8 9 4 1,Kafkaesque Koffka,3.2.8,0,n,0,right,right,right,right,NA,677,23525,7073,677,NA,2,legacy,5,1024,2,48000,-16,experiment,3,odd,5,669492,4846,100202,666147,667254,4822,107276,667266,660206,671505,672186,668278,28382,671505,NA,Sternberg Task,79,67488,106,yes,1024
73.8317757,73.8317757,649.4205607,649.4205607,black,experiment,legacy,legacy,legacy,0,uniform,0,undefined,0,left,106,0,0,106,106,0,0,106,106,106,106,106,0,106,0,Sun Oct 27 19:18:10 2019,The main experiment item,yes,SternnbergTask.osexp,/Users/kaylicolpitts/Desktop/adv quant/lab 3,no,mono,no,18,no,white,no,yes,768,legacy,94,11,/Users/kaylicolpitts/Desktop/adv quant/lab 3/KC-subject-3.csv,legacy,1 4 9 3 2 5,Kafkaesque Koffka,3.2.8,3,y,0,None,right,right,None,NA,2000,23525,7073,2000,NA,2,legacy,6,1024,2,48000,-16,experiment,3,odd,9,675547,4846,100202,672201,673308,4822,107276,673321,660206,677559,679560,674333,28382,677559,NA,Sternberg Task,79,69488,107,yes,1024
74.07407407,74.07407407,647.3703704,647.3703704,black,experiment,legacy,legacy,legacy,0,uniform,1,undefined,1,left,107,0,0,107,107,0,0,107,107,107,107,107,0,107,0,Sun Oct 27 19:18:10 2019,The main experiment item,yes,SternnbergTask.osexp,/Users/kaylicolpitts/Desktop/adv quant/lab 3,no,mono,no,18,no,white,no,yes,768,legacy,95,11,/Users/kaylicolpitts/Desktop/adv quant/lab 3/KC-subject-3.csv,legacy,8,Kafkaesque Koffka,3.2.8,1,y,0,left,right,right,left,NA,428,23525,7073,428,NA,2,legacy,1,1024,2,48000,-16,experiment,3,odd,8,682919,4846,100202,672201,680679,4822,107276,680691,679574,684932,685363,681704,28382,684932,NA,Sternberg Task,80,69916,108,yes,1024
74.31192661,74.31192661,646.6972477,646.6972477,black,experiment,legacy,legacy,legacy,0,uniform,1,undefined,1,right,108,0,0,108,108,0,0,108,108,108,108,108,0,108,0,Sun Oct 27 19:18:10 2019,The main experiment item,yes,SternnbergTask.osexp,/Users/kaylicolpitts/Desktop/adv quant/lab 3,no,mono,no,18,no,white,no,yes,768,legacy,96,11,/Users/kaylicolpitts/Desktop/adv quant/lab 3/KC-subject-3.csv,legacy,2 8 6 3 1,Kafkaesque Koffka,3.2.8,0,n,0,right,right,right,right,NA,574,23525,7073,574,NA,2,legacy,5,1024,2,48000,-16,experiment,3,odd,7,688724,4846,100202,685377,686485,4822,107276,686497,679574,690736,691314,687509,28382,690736,NA,Sternberg Task,81,70490,109,yes,1024
74.54545455,74.54545455,650.9090909,650.9090909,black,experiment,legacy,legacy,legacy,0,uniform,1,undefined,1,left,109,0,0,109,109,0,0,109,109,109,109,109,0,109,0,Sun Oct 27 19:18:10 2019,The main experiment item,yes,SternnbergTask.osexp,/Users/kaylicolpitts/Desktop/adv quant/lab 3,no,mono,no,18,no,white,no,yes,768,legacy,97,11,/Users/kaylicolpitts/Desktop/adv quant/lab 3/KC-subject-3.csv,legacy,3 5 4 7,Kafkaesque Koffka,3.2.8,1,y,0,left,right,right,left,NA,1110,23525,7073,1110,NA,2,legacy,4,1024,2,48000,-16,experiment,3,odd,3,694677,4846,100202,691331,692438,4822,107276,692450,679574,696689,697803,693462,28382,696689,NA,Sternberg Task,82,71600,110,yes,1024
73.87387387,73.87387387,651.1351351,651.1351351,black,experiment,legacy,legacy,legacy,0,uniform,0,undefined,0,left,110,0,0,110,110,0,0,110,110,110,110,110,0,110,0,Sun Oct 27 19:18:10 2019,The main experiment item,yes,SternnbergTask.osexp,/Users/kaylicolpitts/Desktop/adv quant/lab 3,no,mono,no,18,no,white,no,yes,768,legacy,98,11,/Users/kaylicolpitts/Desktop/adv quant/lab 3/KC-subject-3.csv,legacy,3 9 7 6 4,Kafkaesque Koffka,3.2.8,3,y,0,right,right,right,right,NA,676,23525,7073,676,NA,2,legacy,5,1024,2,48000,-16,experiment,3,odd,7,701166,4846,100202,697819,698927,4822,107276,698939,679574,703178,703858,699952,28382,703178,NA,Sternberg Task,82,72276,111,yes,1024
74.10714286,74.10714286,650.3125,650.3125,black,experiment,legacy,legacy,legacy,0,uniform,1,undefined,1,right,111,0,0,111,111,0,0,111,111,111,111,111,0,111,0,Sun Oct 27 19:18:10 2019,The main experiment item,yes,SternnbergTask.osexp,/Users/kaylicolpitts/Desktop/adv quant/lab 3,no,mono,no,18,no,white,no,yes,768,legacy,99,11,/Users/kaylicolpitts/Desktop/adv quant/lab 3/KC-subject-3.csv,legacy,9 8 2 7 4,Kafkaesque Koffka,3.2.8,0,n,0,right,right,right,right,NA,559,23525,7073,559,NA,2,legacy,5,1024,2,48000,-16,experiment,3,odd,5,707217,4846,100202,697819,704980,4822,107276,704992,703873,709229,709791,706003,28382,709229,NA,Sternberg Task,83,72835,112,yes,1024
74.33628319,74.33628319,648.3097345,648.3097345,black,experiment,legacy,legacy,legacy,0,uniform,1,undefined,1,left,112,0,0,112,112,0,0,112,112,112,112,112,0,112,0,Sun Oct 27 19:18:10 2019,The main experiment item,yes,SternnbergTask.osexp,/Users/kaylicolpitts/Desktop/adv quant/lab 3,no,mono,no,18,no,white,no,yes,768,legacy,100,11,/Users/kaylicolpitts/Desktop/adv quant/lab 3/KC-subject-3.csv,legacy,3 5 9 6 2 4,Kafkaesque Koffka,3.2.8,1,y,0,left,right,right,left,NA,424,23525,7073,424,NA,2,legacy,6,1024,2,48000,-16,experiment,3,odd,3,713154,4846,100202,709805,710915,4822,107276,710927,703873,715166,715593,711940,28382,715166,NA,Sternberg Task,84,73259,113,yes,1024
73.68421053,73.68421053,648.5877193,648.5877193,black,experiment,legacy,legacy,legacy,0,uniform,0,undefined,0,right,113,0,0,113,113,0,0,113,113,113,113,113,0,113,0,Sun Oct 27 19:18:10 2019,The main experiment item,yes,SternnbergTask.osexp,/Users/kaylicolpitts/Desktop/adv quant/lab 3,no,mono,no,18,no,white,no,yes,768,legacy,101,11,/Users/kaylicolpitts/Desktop/adv quant/lab 3/KC-subject-3.csv,legacy,6 9 7 3 8 2,Kafkaesque Koffka,3.2.8,0,n,0,left,right,right,left,NA,680,23525,7073,680,NA,2,legacy,6,1024,2,48000,-16,experiment,3,odd,5,718957,4846,100202,715608,716717,4822,107276,716730,703873,720969,721653,717742,28382,720969,NA,Sternberg Task,84,73939,114,yes,1024
73.91304348,73.91304348,648.2695652,648.2695652,black,experiment,legacy,legacy,legacy,0,uniform,1,undefined,1,left,114,0,0,114,114,0,0,114,114,114,114,114,0,114,0,Sun Oct 27 19:18:10 2019,The main experiment item,yes,SternnbergTask.osexp,/Users/kaylicolpitts/Desktop/adv quant/lab 3,no,mono,no,18,no,white,no,yes,768,legacy,102,11,/Users/kaylicolpitts/Desktop/adv quant/lab 3/KC-subject-3.csv,legacy,3 5 7 1,Kafkaesque Koffka,3.2.8,3,y,0,left,right,right,left,NA,612,23525,7073,612,NA,2,legacy,4,1024,2,48000,-16,experiment,3,odd,7,725014,4846,100202,715608,722775,4822,107276,722787,721669,727026,727640,723800,28382,727026,NA,Sternberg Task,85,74551,115,yes,1024
74.13793103,74.13793103,646.9396552,646.9396552,black,experiment,legacy,legacy,legacy,0,uniform,1,undefined,1,left,115,0,0,115,115,0,0,115,115,115,115,115,0,115,0,Sun Oct 27 19:18:10 2019,The main experiment item,yes,SternnbergTask.osexp,/Users/kaylicolpitts/Desktop/adv quant/lab 3,no,mono,no,18,no,white,no,yes,768,legacy,103,11,/Users/kaylicolpitts/Desktop/adv quant/lab 3/KC-subject-3.csv,legacy,2 6 1 7 4,Kafkaesque Koffka,3.2.8,2,y,0,left,right,right,left,NA,494,23525,7073,494,NA,2,legacy,5,1024,2,48000,-16,experiment,3,odd,6,731000,4846,100202,727654,728760,4822,107276,728772,721669,733011,733508,729785,28382,733011,NA,Sternberg Task,86,75045,116,yes,1024
74.35897436,74.35897436,647.8974359,647.8974359,black,experiment,legacy,legacy,legacy,0,uniform,1,undefined,1,left,116,0,0,116,116,0,0,116,116,116,116,116,0,116,0,Sun Oct 27 19:18:10 2019,The main experiment item,yes,SternnbergTask.osexp,/Users/kaylicolpitts/Desktop/adv quant/lab 3,no,mono,no,18,no,white,no,yes,768,legacy,104,11,/Users/kaylicolpitts/Desktop/adv quant/lab 3/KC-subject-3.csv,legacy,6 7 9 3 1 2,Kafkaesque Koffka,3.2.8,1,y,0,left,right,right,left,NA,759,23525,7073,759,NA,2,legacy,6,1024,2,48000,-16,experiment,3,odd,6,736865,4846,100202,733522,734628,4822,107276,734640,721669,738878,739640,735652,28382,738878,NA,Sternberg Task,87,75804,117,yes,1024
74.57627119,74.57627119,647.7372881,647.7372881,black,experiment,legacy,legacy,legacy,0,uniform,1,undefined,1,right,117,0,0,117,117,0,0,117,117,117,117,117,0,117,0,Sun Oct 27 19:18:10 2019,The main experiment item,yes,SternnbergTask.osexp,/Users/kaylicolpitts/Desktop/adv quant/lab 3,no,mono,no,18,no,white,no,yes,768,legacy,105,11,/Users/kaylicolpitts/Desktop/adv quant/lab 3/KC-subject-3.csv,legacy,6 9 4 5 2,Kafkaesque Koffka,3.2.8,0,n,0,right,right,right,right,NA,629,23525,7073,629,NA,2,legacy,5,1024,2,48000,-16,experiment,3,odd,1,743003,4846,100202,739657,740763,4822,107276,740775,721669,745016,745647,741788,28382,745016,NA,Sternberg Task,88,76433,118,yes,1024
74.78991597,74.78991597,647.2689076,647.2689076,black,experiment,legacy,legacy,legacy,0,uniform,1,undefined,1,right,118,0,0,118,118,0,0,118,118,118,118,118,0,118,0,Sun Oct 27 19:18:10 2019,The main experiment item,yes,SternnbergTask.osexp,/Users/kaylicolpitts/Desktop/adv quant/lab 3,no,mono,no,18,no,white,no,yes,768,legacy,106,11,/Users/kaylicolpitts/Desktop/adv quant/lab 3/KC-subject-3.csv,legacy,7 1,Kafkaesque Koffka,3.2.8,0,n,0,right,right,right,right,NA,592,23525,7073,592,NA,2,legacy,2,1024,2,48000,-16,experiment,3,odd,8,749007,4846,100202,745661,746768,4822,107276,746780,721669,751020,751615,747792,28382,751019,NA,Sternberg Task,89,77025,119,yes,1024
74.16666667,74.16666667,647.2666667,647.2666667,black,experiment,legacy,legacy,legacy,0,uniform,0,undefined,0,right,119,0,0,119,119,0,0,119,119,119,119,119,0,119,0,Sun Oct 27 19:18:10 2019,The main experiment item,yes,SternnbergTask.osexp,/Users/kaylicolpitts/Desktop/adv quant/lab 3,no,mono,no,18,no,white,no,yes,768,legacy,107,11,/Users/kaylicolpitts/Desktop/adv quant/lab 3/KC-subject-3.csv,legacy,3 9 8 1 6 4,Kafkaesque Koffka,3.2.8,0,n,0,left,right,right,left,NA,647,23525,7073,647,NA,2,legacy,6,1024,2,48000,-16,experiment,3,odd,7,754979,4846,100202,751630,752740,4822,107276,752752,721669,756991,757640,753765,28382,756991,NA,Sternberg Task,89,77672,120,yes,1024
74.38016529,74.38016529,645.8595041,645.8595041,black,experiment,legacy,legacy,legacy,0,uniform,1,undefined,1,left,120,0,0,120,120,0,0,120,120,120,120,120,0,120,0,Sun Oct 27 19:18:10 2019,The main experiment item,yes,SternnbergTask.osexp,/Users/kaylicolpitts/Desktop/adv quant/lab 3,no,mono,no,18,no,white,no,yes,768,legacy,108,11,/Users/kaylicolpitts/Desktop/adv quant/lab 3/KC-subject-3.csv,legacy,9 8 4,Kafkaesque Koffka,3.2.8,1,y,0,left,right,right,left,NA,477,23525,7073,477,NA,2,legacy,3,1024,2,48000,-16,experiment,3,odd,9,760999,4846,100202,751630,758760,4822,107276,758772,757654,763011,763490,759785,28382,763011,NA,Sternberg Task,90,78149,121,yes,1024
74.59016393,74.59016393,644.3934426,644.3934426,black,experiment,legacy,legacy,legacy,0,uniform,1,undefined,1,left,121,0,0,121,121,0,0,121,121,121,121,121,0,121,0,Sun Oct 27 19:18:10 2019,The main experiment item,yes,SternnbergTask.osexp,/Users/kaylicolpitts/Desktop/adv quant/lab 3,no,mono,no,18,no,white,no,yes,768,legacy,109,11,/Users/kaylicolpitts/Desktop/adv quant/lab 3/KC-subject-3.csv,legacy,2 3,Kafkaesque Koffka,3.2.8,1,y,0,left,right,right,left,NA,467,23525,7073,467,NA,2,legacy,2,1024,2,48000,-16,experiment,3,odd,2,766849,4846,100202,763505,764610,4822,107276,764622,757654,768861,769332,765634,28382,768861,NA,Sternberg Task,91,78616,122,yes,1024
74.79674797,74.79674797,644,644,black,experiment,legacy,legacy,legacy,0,uniform,1,undefined,1,right,122,0,0,122,122,0,0,122,122,122,122,122,0,122,0,Sun Oct 27 19:18:10 2019,The main experiment item,yes,SternnbergTask.osexp,/Users/kaylicolpitts/Desktop/adv quant/lab 3,no,mono,no,18,no,white,no,yes,768,legacy,110,11,/Users/kaylicolpitts/Desktop/adv quant/lab 3/KC-subject-3.csv,legacy,8 5 4 2 9 6,Kafkaesque Koffka,3.2.8,0,n,0,right,right,right,right,NA,596,23525,7073,596,NA,2,legacy,6,1024,2,48000,-16,experiment,3,odd,3,772694,4846,100202,769349,770457,4822,107276,770469,757654,774706,775305,771482,28382,774706,NA,Sternberg Task,92,79212,123,yes,1024
75,75,643.3145161,643.3145161,black,experiment,legacy,legacy,legacy,0,uniform,1,undefined,1,left,123,0,0,123,123,0,0,123,123,123,123,123,0,123,0,Sun Oct 27 19:18:10 2019,The main experiment item,yes,SternnbergTask.osexp,/Users/kaylicolpitts/Desktop/adv quant/lab 3,no,mono,no,18,no,white,no,yes,768,legacy,111,11,/Users/kaylicolpitts/Desktop/adv quant/lab 3/KC-subject-3.csv,legacy,3 9 6 2,Kafkaesque Koffka,3.2.8,4,y,0,left,right,right,left,NA,559,23525,7073,559,NA,2,legacy,4,1024,2,48000,-16,experiment,3,odd,2,778666,4846,100202,775320,776428,4822,107276,776439,757654,780679,781242,777452,28382,780679,NA,Sternberg Task,93,79771,124,yes,1024
75.2,75.2,643.352,643.352,black,experiment,legacy,legacy,legacy,0,uniform,1,undefined,1,right,124,0,0,124,124,0,0,124,124,124,124,124,0,124,0,Sun Oct 27 19:18:10 2019,The main experiment item,yes,SternnbergTask.osexp,/Users/kaylicolpitts/Desktop/adv quant/lab 3,no,mono,no,18,no,white,no,yes,768,legacy,112,11,/Users/kaylicolpitts/Desktop/adv quant/lab 3/KC-subject-3.csv,legacy,1 4 3 6 5,Kafkaesque Koffka,3.2.8,0,n,0,right,right,right,right,NA,648,23525,7073,648,NA,2,legacy,5,1024,2,48000,-16,experiment,3,odd,8,784603,4846,100202,781259,782365,4822,107276,782377,757654,786618,787268,783389,28382,786618,NA,Sternberg Task,94,80419,125,yes,1024
75.3968254,75.3968254,642.2222222,642.2222222,black,experiment,legacy,legacy,legacy,0,uniform,1,undefined,1,right,125,0,0,125,125,0,0,125,125,125,125,125,0,125,0,Sun Oct 27 19:18:10 2019,The main experiment item,yes,SternnbergTask.osexp,/Users/kaylicolpitts/Desktop/adv quant/lab 3,no,mono,no,18,no,white,no,yes,768,legacy,113,11,/Users/kaylicolpitts/Desktop/adv quant/lab 3/KC-subject-3.csv,legacy,5 7 3,Kafkaesque Koffka,3.2.8,0,n,0,right,right,right,right,NA,501,23525,7073,501,NA,2,legacy,3,1024,2,48000,-16,experiment,3,odd,9,790642,4846,100202,787283,788401,4822,107276,788414,757654,792655,793160,789426,28382,792655,NA,Sternberg Task,95,80920,126,yes,1024
74.80314961,74.80314961,642.2519685,642.2519685,black,experiment,legacy,legacy,legacy,0,uniform,0,undefined,0,left,126,0,0,126,126,0,0,126,126,126,126,126,0,126,0,Sun Oct 27 19:18:10 2019,The main experiment item,yes,SternnbergTask.osexp,/Users/kaylicolpitts/Desktop/adv quant/lab 3,no,mono,no,18,no,white,no,yes,768,legacy,114,11,/Users/kaylicolpitts/Desktop/adv quant/lab 3/KC-subject-3.csv,legacy,7 1 8 5 6 2,Kafkaesque Koffka,3.2.8,2,y,0,right,right,right,right,NA,646,23525,7073,646,NA,2,legacy,6,1024,2,48000,-16,experiment,3,odd,1,796545,4846,100202,793191,794305,4822,107276,794318,757654,798557,799205,795330,28382,798557,NA,Sternberg Task,95,81566,127,yes,1024
75,75,641.8984375,641.8984375,black,experiment,legacy,legacy,legacy,0,uniform,1,undefined,1,right,127,0,0,127,127,0,0,127,127,127,127,127,0,127,0,Sun Oct 27 19:18:10 2019,The main experiment item,yes,SternnbergTask.osexp,/Users/kaylicolpitts/Desktop/adv quant/lab 3,no,mono,no,18,no,white,no,yes,768,legacy,115,11,/Users/kaylicolpitts/Desktop/adv quant/lab 3/KC-subject-3.csv,legacy,9 5 3 2 8 6,Kafkaesque Koffka,3.2.8,0,n,0,right,right,right,right,NA,597,23525,7073,597,NA,2,legacy,6,1024,2,48000,-16,experiment,3,odd,7,802568,4846,100202,793191,800328,4822,107276,800341,799219,804580,805180,801354,28382,804580,NA,Sternberg Task,96,82163,128,yes,1024
75.19379845,75.19379845,649.8372093,649.8372093,black,experiment,legacy,legacy,legacy,0,uniform,1,undefined,1,left,128,0,0,128,128,0,0,128,128,128,128,128,0,128,0,Sun Oct 27 19:18:10 2019,The main experiment item,yes,SternnbergTask.osexp,/Users/kaylicolpitts/Desktop/adv quant/lab 3,no,mono,no,18,no,white,no,yes,768,legacy,116,11,/Users/kaylicolpitts/Desktop/adv quant/lab 3/KC-subject-3.csv,legacy,2 3 7 4,Kafkaesque Koffka,3.2.8,1,y,0,left,right,right,left,NA,1666,23525,7073,1666,NA,2,legacy,4,1024,2,48000,-16,experiment,3,odd,2,808537,4846,100202,805194,806299,4822,107276,806311,799219,810549,812219,807323,28382,810549,NA,Sternberg Task,97,83829,129,yes,1024
74.61538462,74.61538462,651.3384615,651.3384615,black,experiment,legacy,legacy,legacy,0,uniform,0,undefined,0,right,129,0,0,129,129,0,0,129,129,129,129,129,0,129,0,Sun Oct 27 19:18:10 2019,The main experiment item,yes,SternnbergTask.osexp,/Users/kaylicolpitts/Desktop/adv quant/lab 3,no,mono,no,18,no,white,no,yes,768,legacy,117,11,/Users/kaylicolpitts/Desktop/adv quant/lab 3/KC-subject-3.csv,legacy,8 5 7 3 6,Kafkaesque Koffka,3.2.8,0,n,0,left,right,right,left,NA,845,23525,7073,845,NA,2,legacy,5,1024,2,48000,-16,experiment,3,odd,9,815580,4846,100202,812234,813342,4822,107276,813354,799219,817592,818440,814366,28382,817592,NA,Sternberg Task,97,84674,130,yes,1024
74.80916031,74.80916031,649.9618321,649.9618321,black,experiment,legacy,legacy,legacy,0,uniform,1,undefined,1,left,130,0,0,130,130,0,0,130,130,130,130,130,0,130,0,Sun Oct 27 19:18:10 2019,The main experiment item,yes,SternnbergTask.osexp,/Users/kaylicolpitts/Desktop/adv quant/lab 3,no,mono,no,18,no,white,no,yes,768,legacy,118,11,/Users/kaylicolpitts/Desktop/adv quant/lab 3/KC-subject-3.csv,legacy,2 5 4 8 7,Kafkaesque Koffka,3.2.8,3,y,0,left,right,right,left,NA,471,23525,7073,471,NA,2,legacy,5,1024,2,48000,-16,experiment,3,odd,4,821799,4846,100202,812234,819561,4822,107276,819573,818454,823811,824284,820585,28382,823811,NA,Sternberg Task,98,85145,131,yes,1024
74.24242424,74.24242424,649.5378788,649.5378788,black,experiment,legacy,legacy,legacy,0,uniform,0,undefined,0,right,131,0,0,131,131,0,0,131,131,131,131,131,0,131,0,Sun Oct 27 19:18:10 2019,The main experiment item,yes,SternnbergTask.osexp,/Users/kaylicolpitts/Desktop/adv quant/lab 3,no,mono,no,18,no,white,no,yes,768,legacy,119,11,/Users/kaylicolpitts/Desktop/adv quant/lab 3/KC-subject-3.csv,legacy,1 7 8 3 9,Kafkaesque Koffka,3.2.8,0,n,0,left,right,right,left,NA,594,23525,7073,594,NA,2,legacy,5,1024,2,48000,-16,experiment,3,odd,2,827646,4846,100202,824298,825408,4822,107276,825420,818454,829658,830254,826432,28382,829658,NA,Sternberg Task,98,85739,132,yes,1024
74.43609023,74.43609023,648.9398496,648.9398496,black,experiment,legacy,legacy,legacy,0,uniform,1,undefined,1,left,132,0,0,132,132,0,0,132,132,132,132,132,0,132,0,Sun Oct 27 19:18:10 2019,The main experiment item,yes,SternnbergTask.osexp,/Users/kaylicolpitts/Desktop/adv quant/lab 3,no,mono,no,18,no,white,no,yes,768,legacy,120,11,/Users/kaylicolpitts/Desktop/adv quant/lab 3/KC-subject-3.csv,legacy,9 6 2 4 1,Kafkaesque Koffka,3.2.8,4,y,0,left,right,right,left,NA,570,23525,7073,570,NA,2,legacy,5,1024,2,48000,-16,experiment,3,odd,4,833615,4846,100202,824298,831376,4822,107276,831388,830269,835627,836200,832401,28382,835627,NA,Sternberg Task,99,86309,133,yes,1024
73.88059701,73.88059701,652.5522388,652.5522388,black,experiment,legacy,legacy,legacy,0,uniform,0,undefined,0,left,133,0,0,133,133,0,0,133,133,133,133,133,0,133,0,Sun Oct 27 19:18:10 2019,The main experiment item,yes,SternnbergTask.osexp,/Users/kaylicolpitts/Desktop/adv quant/lab 3,no,mono,no,18,no,white,no,yes,768,legacy,121,11,/Users/kaylicolpitts/Desktop/adv quant/lab 3/KC-subject-3.csv,legacy,8 7 3,Kafkaesque Koffka,3.2.8,1,y,0,right,right,right,right,NA,1133,23525,7073,1133,NA,2,legacy,3,1024,2,48000,-16,experiment,3,odd,8,839558,4846,100202,836214,837319,4822,107276,837332,830269,841570,842707,838344,28382,841570,NA,Sternberg Task,99,87442,134,yes,1024
74.07407407,74.07407407,651.2962963,651.2962963,black,experiment,legacy,legacy,legacy,0,uniform,1,undefined,1,left,134,0,0,134,134,0,0,134,134,134,134,134,0,134,0,Sun Oct 27 19:18:10 2019,The main experiment item,yes,SternnbergTask.osexp,/Users/kaylicolpitts/Desktop/adv quant/lab 3,no,mono,no,18,no,white,no,yes,768,legacy,122,11,/Users/kaylicolpitts/Desktop/adv quant/lab 3/KC-subject-3.csv,legacy,5 2 9 6 1 7,Kafkaesque Koffka,3.2.8,3,y,0,left,right,right,left,NA,483,23525,7073,483,NA,2,legacy,6,1024,2,48000,-16,experiment,3,odd,9,846070,4846,100202,836214,843831,4822,107276,843843,842724,848082,848570,844856,28382,848082,NA,Sternberg Task,100,87925,135,yes,1024
74.26470588,74.26470588,650.5441176,650.5441176,black,experiment,legacy,legacy,legacy,0,uniform,1,undefined,1,left,135,0,0,135,135,0,0,135,135,135,135,135,0,135,0,Sun Oct 27 19:18:10 2019,The main experiment item,yes,SternnbergTask.osexp,/Users/kaylicolpitts/Desktop/adv quant/lab 3,no,mono,no,18,no,white,no,yes,768,legacy,123,11,/Users/kaylicolpitts/Desktop/adv quant/lab 3/KC-subject-3.csv,legacy,9 1 6 7 8,Kafkaesque Koffka,3.2.8,1,y,0,left,right,right,left,NA,549,23525,7073,549,NA,2,legacy,5,1024,2,48000,-16,experiment,3,odd,9,851929,4846,100202,848585,849691,4822,107276,849703,842724,853941,854492,850715,28382,853941,NA,Sternberg Task,101,88474,136,yes,1024
74.45255474,74.45255474,651.2773723,651.2773723,black,experiment,legacy,legacy,legacy,0,uniform,1,undefined,1,right,136,0,0,136,136,0,0,136,136,136,136,136,0,136,0,Sun Oct 27 19:18:10 2019,The main experiment item,yes,SternnbergTask.osexp,/Users/kaylicolpitts/Desktop/adv quant/lab 3,no,mono,no,18,no,white,no,yes,768,legacy,124,11,/Users/kaylicolpitts/Desktop/adv quant/lab 3/KC-subject-3.csv,legacy,1 7 5 2,Kafkaesque Koffka,3.2.8,0,n,0,right,right,right,right,NA,751,23525,7073,751,NA,2,legacy,4,1024,2,48000,-16,experiment,3,odd,3,857851,4846,100202,854507,855614,4822,107276,855626,842724,859864,860618,856638,28382,859864,NA,Sternberg Task,102,89225,137,yes,1024
73.91304348,73.91304348,650.5,650.5,black,experiment,legacy,legacy,legacy,0,uniform,0,undefined,0,left,137,0,0,137,137,0,0,137,137,137,137,137,0,137,0,Sun Oct 27 19:18:10 2019,The main experiment item,yes,SternnbergTask.osexp,/Users/kaylicolpitts/Desktop/adv quant/lab 3,no,mono,no,18,no,white,no,yes,768,legacy,125,11,/Users/kaylicolpitts/Desktop/adv quant/lab 3/KC-subject-3.csv,legacy,6 5,Kafkaesque Koffka,3.2.8,2,y,0,right,right,right,right,NA,544,23525,7073,544,NA,2,legacy,2,1024,2,48000,-16,experiment,3,odd,5,863978,4846,100202,860633,861738,4822,107276,861750,842724,865990,866538,862762,28382,865990,NA,Sternberg Task,102,89769,138,yes,1024