acc,accuracy,average_response_time,avg_rt,background,block,canvas_backend,clock_backend,color_backend,compensation,coordinates,correct,correct_instruction1,correct_keyboard_response,correct_response,count_ISI,count_correctFeedback,count_expSequence,count_experiment,count_experimentLoop,count_fixation,count_incorrectFeedback,count_instruction1,count_instructions2,count_keyboard_response,count_logger,count_memorySet,count_practiceLoop,count_probe,count_thankYou,datetime,description,disable_garbage_collection,experiment_file,experiment_path,font_bold,font_family,font_italic,font_size,font_underline,foreground,form_clicks,fullscreen,height,keyboard_backend,live_row,live_row_practiceLoop,logfile,mouse_backend,numberSet,opensesame_codename,opensesame_version,posInSet,present,repeat_cycle,response,response_instruction1,response_instructions2,response_keyboard_response,response_thankYou,response_time,response_time_instruction1,response_time_instructions2,response_time_keyboard_response,response_time_thankYou,round_decimals,sampler_backend,setSize,sound_buf_size,sound_channels,sound_freq,sound_sample_size,start,subject_nr,subject_parity,target,time_ISI,time_correctFeedback,time_expSequence,time_experiment,time_experimentLoop,time_fixation,time_incorrectFeedback,time_instruction1,time_instructions2,time_keyboard_response,time_logger,time_memorySet,time_practiceLoop,time_probe,time_thankYou,title,total_correct,total_response_time,total_responses,uniform_coordinates,width
100,100,1335,1335,black,practice,legacy,legacy,legacy,0,uniform,1,undefined,1,left,0,0,0,0,0,0,0,0,0,0,0,0,0,0,0,Fri Oct 25 12:27:57 2019,The main experiment item,yes,SternbergTask.osexp,/Users/Zenny/Desktop,no,mono,no,18,no,white,no,no,768,legacy,0,0,/Users/Zenny/Desktop/quickrun.csv,legacy,4 8,Kafkaesque Koffka,3.2.8,1,y,0,left,right,NA,left,NA,1335,89542,NA,1335,NA,2,legacy,2,1024,2,48000,-16,experiment,999,odd,4,94580,NA,92286,2469,NA,92317,NA,2591,NA,96614,97950,93349,92143,96614,NA,SternbergTask,1,1335,1,yes,1024
100,100,1175.5,1175.5,black,practice,legacy,legacy,legacy,0,uniform,1,undefined,1,right,1,1,1,0,0,1,1,0,0,1,1,1,0,1,0,Fri Oct 25 12:27:57 2019,The main experiment item,yes,SternbergTask.osexp,/Users/Zenny/Desktop,no,mono,no,18,no,white,no,no,768,legacy,1,1,/Users/Zenny/Desktop/quickrun.csv,legacy,9 6 7 4 5,Kafkaesque Koffka,3.2.8,0,n,0,right,right,NA,right,NA,1016,89542,NA,1016,NA,2,legacy,5,1024,2,48000,-16,experiment,999,odd,3,101543,98123,99241,2469,NA,99279,NA,2591,NA,103574,104591,100310,92143,103573,NA,SternbergTask,2,2351,2,yes,1024
100,100,1176,1176,black,practice,legacy,legacy,legacy,0,uniform,1,undefined,1,left,2,2,2,0,0,2,2,0,0,2,2,2,0,2,0,Fri Oct 25 12:27:57 2019,The main experiment item,yes,SternbergTask.osexp,/Users/Zenny/Desktop,no,mono,no,18,no,white,no,no,768,legacy,2,2,/Users/Zenny/Desktop/quickrun.csv,legacy,1 7 9 8 5,Kafkaesque Koffka,3.2.8,4,y,0,left,right,NA,left,NA,1177,89542,NA,1177,NA,2,legacy,5,1024,2,48000,-16,experiment,999,odd,8,108069,104627,105772,2469,NA,105804,NA,2591,NA,110100,111283,106836,92143,110100,NA,SternbergTask,3,3528,3,yes,1024
100,100,1123.25,1123.25,black,practice,legacy,legacy,legacy,0,uniform,1,undefined,1,right,3,3,3,0,0,3,3,0,0,3,3,3,0,3,0,Fri Oct 25 12:27:57 2019,The main experiment item,yes,SternbergTask.osexp,/Users/Zenny/Desktop,no,mono,no,18,no,white,no,no,768,legacy,3,3,/Users/Zenny/Desktop/quickrun.csv,legacy,3 1 9 4,Kafkaesque Koffka,3.2.8,0,n,0,right,right,NA,right,NA,965,89542,NA,965,NA,2,legacy,4,1024,2,48000,-16,experiment,999,odd,6,114770,111326,112478,2469,NA,112509,NA,2591,NA,116806,117772,113539,92143,116806,NA,SternbergTask,4,4493,4,yes,1024
100,100,1076.4,1076.4,black,practice,legacy,legacy,legacy,0,uniform,1,undefined,1,left,4,4,4,0,0,4,4,0,0,4,4,4,0,4,0,Fri Oct 25 12:27:57 2019,The main experiment item,yes,SternbergTask.osexp,/Users/Zenny/Desktop,no,mono,no,18,no,white,no,no,768,legacy,4,4,/Users/Zenny/Desktop/quickrun.csv,legacy,4 3 1 7 9 8,Kafkaesque Koffka,3.2.8,1,y,0,left,right,NA,left,NA,889,89542,NA,889,NA,2,legacy,6,1024,2,48000,-16,experiment,999,odd,4,121279,117808,118962,2469,NA,118993,NA,2591,NA,123311,124201,120025,92143,123311,NA,SternbergTask,5,5382,5,yes,1024
100,100,1052,1052,black,practice,legacy,legacy,legacy,0,uniform,1,undefined,1,right,5,5,5,0,0,5,5,0,0,5,5,5,0,5,0,Fri Oct 25 12:27:57 2019,The main experiment item,yes,SternbergTask.osexp,/Users/Zenny/Desktop,no,mono,no,18,no,white,no,no,768,legacy,5,5,/Users/Zenny/Desktop/quickrun.csv,legacy,5 7 8 4 1 2,Kafkaesque Koffka,3.2.8,0,n,0,right,right,NA,right,NA,930,89542,NA,930,NA,2,legacy,6,1024,2,48000,-16,experiment,999,odd,6,127704,124271,125409,2469,NA,125440,NA,2591,NA,129737,130668,126473,92143,129737,NA,SternbergTask,6,6312,6,yes,1024
100,100,1082,1082,black,practice,legacy,legacy,legacy,0,uniform,1,undefined,1,right,6,6,6,0,0,6,6,0,0,6,6,6,0,6,0,Fri Oct 25 12:27:57 2019,The main experiment item,yes,SternbergTask.osexp,/Users/Zenny/Desktop,no,mono,no,18,no,white,no,no,768,legacy,6,6,/Users/Zenny/Desktop/quickrun.csv,legacy,2 1,Kafkaesque Koffka,3.2.8,0,n,0,right,right,NA,right,NA,1262,89542,NA,1262,NA,2,legacy,2,1024,2,48000,-16,experiment,999,odd,5,134123,130702,131827,2469,NA,131859,NA,2591,NA,136156,137419,132892,92143,136156,NA,SternbergTask,7,7574,7,yes,1024
100,100,1103.375,1103.375,black,practice,legacy,legacy,legacy,0,uniform,1,undefined,1,right,7,7,7,0,0,7,7,0,0,7,7,7,0,7,0,Fri Oct 25 12:27:57 2019,The main experiment item,yes,SternbergTask.osexp,/Users/Zenny/Desktop,no,mono,no,18,no,white,no,no,768,legacy,7,7,/Users/Zenny/Desktop/quickrun.csv,legacy,4 1 5,Kafkaesque Koffka,3.2.8,0,n,0,right,right,NA,right,NA,1253,89542,NA,1253,NA,2,legacy,3,1024,2,48000,-16,experiment,999,odd,2,140858,137454,138562,2469,NA,138593,NA,2591,NA,142889,144144,139624,92143,142889,NA,SternbergTask,8,8827,8,yes,1024
100,100,1103.333333,1103.333333,black,practice,legacy,legacy,legacy,0,uniform,1,undefined,1,right,8,8,8,0,0,8,8,0,0,8,8,8,0,8,0,Fri Oct 25 12:27:57 2019,The main experiment item,yes,SternbergTask.osexp,/Users/Zenny/Desktop,no,mono,no,18,no,white,no,no,768,legacy,8,8,/Users/Zenny/Desktop/quickrun.csv,legacy,5,Kafkaesque Koffka,3.2.8,0,n,0,right,right,NA,right,NA,1103,89542,NA,1103,NA,2,legacy,1,1024,2,48000,-16,experiment,999,odd,3,147639,144185,145343,2469,NA,145374,NA,2591,NA,149671,150776,146406,92143,149671,NA,SternbergTask,9,9930,9,yes,1024
100,100,1120.3,1120.3,black,practice,legacy,legacy,legacy,0,uniform,1,undefined,1,left,9,9,9,0,0,9,9,0,0,9,9,9,0,9,0,Fri Oct 25 12:27:57 2019,The main experiment item,yes,SternbergTask.osexp,/Users/Zenny/Desktop,no,mono,no,18,no,white,no,no,768,legacy,9,9,/Users/Zenny/Desktop/quickrun.csv,legacy,1 5 2 9,Kafkaesque Koffka,3.2.8,2,y,0,left,right,NA,left,NA,1273,89542,NA,1273,NA,2,legacy,4,1024,2,48000,-16,experiment,999,odd,5,154282,150815,151961,2469,NA,151996,NA,2591,NA,156314,157591,153029,92143,156314,NA,SternbergTask,10,11203,10,yes,1024
100,100,1097.454545,1097.454545,black,practice,legacy,legacy,legacy,0,uniform,1,undefined,1,left,10,10,10,0,0,10,10,0,0,10,10,10,0,10,0,Fri Oct 25 12:27:57 2019,The main experiment item,yes,SternbergTask.osexp,/Users/Zenny/Desktop,no,mono,no,18,no,white,no,no,768,legacy,10,10,/Users/Zenny/Desktop/quickrun.csv,legacy,6,Kafkaesque Koffka,3.2.8,1,y,0,left,right,NA,left,NA,869,89542,NA,869,NA,2,legacy,1,1024,2,48000,-16,experiment,999,odd,6,161080,157636,158786,2469,NA,158817,NA,2591,NA,163118,163988,159848,92143,163118,NA,SternbergTask,11,12072,11,yes,1024
100,100,1077.333333,1077.333333,black,practice,legacy,legacy,legacy,0,uniform,1,undefined,1,left,11,11,11,0,0,11,11,0,0,11,11,11,0,11,0,Fri Oct 25 12:27:57 2019,The main experiment item,yes,SternbergTask.osexp,/Users/Zenny/Desktop,no,mono,no,18,no,white,no,no,768,legacy,11,11,/Users/Zenny/Desktop/quickrun.csv,legacy,2 9 4,Kafkaesque Koffka,3.2.8,3,y,0,left,right,NA,left,NA,856,89542,NA,856,NA,2,legacy,3,1024,2,48000,-16,experiment,999,odd,4,167438,164024,165135,2469,NA,165173,NA,2591,NA,169470,170328,166205,92143,169470,NA,SternbergTask,12,12928,12,yes,1024
100,100,1084.384615,1084.384615,black,experiment,legacy,legacy,legacy,0,uniform,1,undefined,1,left,12,12,12,0,0,12,12,0,0,12,12,12,0,12,0,Fri Oct 25 12:27:57 2019,The main experiment item,yes,SternbergTask.osexp,/Users/Zenny/Desktop,no,mono,no,18,no,white,no,no,768,legacy,0,11,/Users/Zenny/Desktop/quickrun.csv,legacy,3 4 9 6 2 9,Kafkaesque Koffka,3.2.8,5,y,0,left,right,right,left,NA,1169,89542,9745,1169,NA,2,legacy,6,1024,2,48000,-16,experiment,999,odd,2,183661,170372,181365,2469,181183,181396,NA,2591,171437,185692,186862,182428,92143,185692,NA,SternbergTask,13,14097,13,yes,1024
100,100,1071.571429,1071.571429,black,experiment,legacy,legacy,legacy,0,uniform,1,undefined,1,left,13,13,13,0,0,13,13,0,0,13,13,13,0,13,0,Fri Oct 25 12:27:57 2019,The main experiment item,yes,SternbergTask.osexp,/Users/Zenny/Desktop,no,mono,no,18,no,white,no,no,768,legacy,1,11,/Users/Zenny/Desktop/quickrun.csv,legacy,6 2,Kafkaesque Koffka,3.2.8,1,y,0,left,right,right,left,NA,905,89542,9745,905,NA,2,legacy,2,1024,2,48000,-16,experiment,999,odd,6,190345,186900,188041,2469,181183,188073,NA,2591,171437,192377,193283,189113,92143,192377,NA,SternbergTask,14,15002,14,yes,1024
100,100,1060.866667,1060.866667,black,experiment,legacy,legacy,legacy,0,uniform,1,undefined,1,left,14,14,14,0,0,14,14,0,0,14,14,14,0,14,0,Fri Oct 25 12:27:57 2019,The main experiment item,yes,SternbergTask.osexp,/Users/Zenny/Desktop,no,mono,no,18,no,white,no,no,768,legacy,2,11,/Users/Zenny/Desktop/quickrun.csv,legacy,8 7 3,Kafkaesque Koffka,3.2.8,1,y,0,left,right,right,left,NA,911,89542,9745,911,NA,2,legacy,3,1024,2,48000,-16,experiment,999,odd,8,196757,193323,194460,2469,181183,194492,NA,2591,171437,198788,199700,195524,92143,198788,NA,SternbergTask,15,15913,15,yes,1024
100,100,1089.25,1089.25,black,experiment,legacy,legacy,legacy,0,uniform,1,undefined,1,right,15,15,15,0,0,15,15,0,0,15,15,15,0,15,0,Fri Oct 25 12:27:57 2019,The main experiment item,yes,SternbergTask.osexp,/Users/Zenny/Desktop,no,mono,no,18,no,white,no,no,768,legacy,3,11,/Users/Zenny/Desktop/quickrun.csv,legacy,6 9 7 3 8 2,Kafkaesque Koffka,3.2.8,0,n,0,right,right,right,right,NA,1515,89542,9745,1515,NA,2,legacy,6,1024,2,48000,-16,experiment,999,odd,5,203138,199736,200845,2469,181183,200877,NA,2591,171437,205169,206686,201908,92143,205169,NA,SternbergTask,16,17428,16,yes,1024
100,100,1105.764706,1105.764706,black,experiment,legacy,legacy,legacy,0,uniform,1,undefined,1,left,16,16,16,0,0,16,16,0,0,16,16,16,0,16,0,Fri Oct 25 12:27:57 2019,The main experiment item,yes,SternbergTask.osexp,/Users/Zenny/Desktop,no,mono,no,18,no,white,no,no,768,legacy,4,11,/Users/Zenny/Desktop/quickrun.csv,legacy,1 4 9 3 2 5,Kafkaesque Koffka,3.2.8,3,y,0,left,right,right,left,NA,1370,89542,9745,1370,NA,2,legacy,6,1024,2,48000,-16,experiment,999,odd,9,210165,206723,207869,2469,181183,207900,NA,2591,171437,212196,213567,208933,92143,212196,NA,SternbergTask,17,18798,17,yes,1024
100,100,1093.444444,1093.444444,black,experiment,legacy,legacy,legacy,0,uniform,1,undefined,1,left,17,17,17,0,0,17,17,0,0,17,17,17,0,17,0,Fri Oct 25 12:27:57 2019,The main experiment item,yes,SternbergTask.osexp,/Users/Zenny/Desktop,no,mono,no,18,no,white,no,no,768,legacy,5,11,/Users/Zenny/Desktop/quickrun.csv,legacy,6 1 2,Kafkaesque Koffka,3.2.8,3,y,0,left,right,right,left,NA,884,89542,9745,884,NA,2,legacy,3,1024,2,48000,-16,experiment,999,odd,2,217046,213602,214750,2469,181183,214781,NA,2591,171437,219077,219962,215813,92143,219077,NA,SternbergTask,18,19682,18,yes,1024
100,100,1079.368421,1079.368421,black,experiment,legacy,legacy,legacy,0,uniform,1,undefined,1,left,18,18,18,0,0,18,18,0,0,18,18,18,0,18,0,Fri Oct 25 12:27:57 2019,The main experiment item,yes,SternbergTask.osexp,/Users/Zenny/Desktop,no,mono,no,18,no,white,no,no,768,legacy,6,11,/Users/Zenny/Desktop/quickrun.csv,legacy,8 1 6,Kafkaesque Koffka,3.2.8,3,y,0,left,right,right,left,NA,826,89542,9745,826,NA,2,legacy,3,1024,2,48000,-16,experiment,999,odd,6,223412,219995,221107,2469,181183,221146,NA,2591,171437,225444,226272,222178,92143,225443,NA,SternbergTask,19,20508,19,yes,1024
100,100,1070.1,1070.1,black,experiment,legacy,legacy,legacy,0,uniform,1,undefined,1,left,19,19,19,0,0,19,19,0,0,19,19,19,0,19,0,Fri Oct 25 12:27:57 2019,The main experiment item,yes,SternbergTask.osexp,/Users/Zenny/Desktop,no,mono,no,18,no,white,no,no,768,legacy,7,11,/Users/Zenny/Desktop/quickrun.csv,legacy,8 5 1 3 9,Kafkaesque Koffka,3.2.8,4,y,0,left,right,right,left,NA,894,89542,9745,894,NA,2,legacy,5,1024,2,48000,-16,experiment,999,odd,3,229763,226310,227464,2469,181183,227495,NA,2591,171437,231795,232691,228530,92143,231795,NA,SternbergTask,20,21402,20,yes,1024
100,100,1050.142857,1050.142857,black,experiment,legacy,legacy,legacy,0,uniform,1,undefined,1,left,20,20,20,0,0,20,20,0,0,20,20,20,0,20,0,Fri Oct 25 12:27:57 2019,The main experiment item,yes,SternbergTask.osexp,/Users/Zenny/Desktop,no,mono,no,18,no,white,no,no,768,legacy,8,11,/Users/Zenny/Desktop/quickrun.csv,legacy,7 2 3,Kafkaesque Koffka,3.2.8,3,y,0,left,right,right,left,NA,651,89542,9745,651,NA,2,legacy,3,1024,2,48000,-16,experiment,999,odd,3,236160,232724,233864,2469,181183,233895,NA,2591,171437,238194,238847,234927,92143,238194,NA,SternbergTask,21,22053,21,yes,1024
100,100,1035,1035,black,experiment,legacy,legacy,legacy,0,uniform,1,undefined,1,left,21,21,21,0,0,21,21,0,0,21,21,21,0,21,0,Fri Oct 25 12:27:57 2019,The main experiment item,yes,SternbergTask.osexp,/Users/Zenny/Desktop,no,mono,no,18,no,white,no,no,768,legacy,9,11,/Users/Zenny/Desktop/quickrun.csv,legacy,4 7 6 8 2 3,Kafkaesque Koffka,3.2.8,6,y,0,left,right,right,left,NA,717,89542,9745,717,NA,2,legacy,6,1024,2,48000,-16,experiment,999,odd,3,242289,238882,239992,2469,181183,240023,NA,2591,171437,244320,245038,241055,92143,244320,NA,SternbergTask,22,22770,22,yes,1024
100,100,1012.434783,1012.434783,black,experiment,legacy,legacy,legacy,0,uniform,1,undefined,1,right,22,22,22,0,0,22,22,0,0,22,22,22,0,22,0,Fri Oct 25 12:27:57 2019,The main experiment item,yes,SternbergTask.osexp,/Users/Zenny/Desktop,no,mono,no,18,no,white,no,no,768,legacy,10,11,/Users/Zenny/Desktop/quickrun.csv,legacy,3 9 1,Kafkaesque Koffka,3.2.8,0,n,0,right,right,right,right,NA,516,89542,9745,516,NA,2,legacy,3,1024,2,48000,-16,experiment,999,odd,7,248535,245074,246218,2469,181183,246271,NA,2591,171437,250567,251085,247301,92143,250567,NA,SternbergTask,23,23286,23,yes,1024
100,100,999.7083333,999.7083333,black,experiment,legacy,legacy,legacy,0,uniform,1,undefined,1,left,23,23,23,0,0,23,23,0,0,23,23,23,0,23,0,Fri Oct 25 12:27:57 2019,The main experiment item,yes,SternbergTask.osexp,/Users/Zenny/Desktop,no,mono,no,18,no,white,no,no,768,legacy,11,11,/Users/Zenny/Desktop/quickrun.csv,legacy,8 5 4 7 3 1,Kafkaesque Koffka,3.2.8,2,y,0,left,right,right,left,NA,707,89542,9745,707,NA,2,legacy,6,1024,2,48000,-16,experiment,999,odd,5,254526,251118,252230,2469,181183,252261,NA,2591,171437,256559,257268,253292,92143,256559,NA,SternbergTask,24,23993,24,yes,1024
100,100,988.04,988.04,black,experiment,legacy,legacy,legacy,0,uniform,1,undefined,1,right,24,24,24,0,0,24,24,0,0,24,24,24,0,24,0,Fri Oct 25 12:27:57 2019,The main experiment item,yes,SternbergTask.osexp,/Users/Zenny/Desktop,no,mono,no,18,no,white,no,no,768,legacy,12,11,/Users/Zenny/Desktop/quickrun.csv,legacy,6 3 1 7 9 8,Kafkaesque Koffka,3.2.8,0,n,0,right,right,right,right,NA,708,89542,9745,708,NA,2,legacy,6,1024,2,48000,-16,experiment,999,odd,4,260756,257309,258458,2469,181183,258492,NA,2591,171437,262787,263497,259523,92143,262787,NA,SternbergTask,25,24701,25,yes,1024
100,100,989.9615385,989.9615385,black,experiment,legacy,legacy,legacy,0,uniform,1,undefined,1,right,25,25,25,0,0,25,25,0,0,25,25,25,0,25,0,Fri Oct 25 12:27:57 2019,The main experiment item,yes,SternbergTask.osexp,/Users/Zenny/Desktop,no,mono,no,18,no,white,no,no,768,legacy,13,11,/Users/Zenny/Desktop/quickrun.csv,legacy,5 2,Kafkaesque Koffka,3.2.8,0,n,0,right,right,right,right,NA,1038,89542,9745,1038,NA,2,legacy,2,1024,2,48000,-16,experiment,999,odd,7,266933,263531,264638,2469,181183,264669,NA,2591,171437,268964,270004,265700,92143,268964,NA,SternbergTask,26,25739,26,yes,1024
100,100,984.4814815,984.4814815,black,experiment,legacy,legacy,legacy,0,uniform,1,undefined,1,left,26,26,26,0,0,26,26,0,0,26,26,26,0,26,0,Fri Oct 25 12:27:57 2019,The main experiment item,yes,SternbergTask.osexp,/Users/Zenny/Desktop,no,mono,no,18,no,white,no,no,768,legacy,14,11,/Users/Zenny/Desktop/quickrun.csv,legacy,6 9 3 1,Kafkaesque Koffka,3.2.8,4,y,0,left,right,right,left,NA,842,89542,9745,842,NA,2,legacy,4,1024,2,48000,-16,experiment,999,odd,1,273535,270045,271186,2469,181183,271270,NA,2591,171437,275566,276409,272302,92143,275565,NA,SternbergTask,27,26581,27,yes,1024
100,100,974.5,974.5,black,experiment,legacy,legacy,legacy,0,uniform,1,undefined,1,left,27,27,27,0,0,27,27,0,0,27,27,27,0,27,0,Fri Oct 25 12:27:57 2019,The main experiment item,yes,SternbergTask.osexp,/Users/Zenny/Desktop,no,mono,no,18,no,white,no,no,768,legacy,15,11,/Users/Zenny/Desktop/quickrun.csv,legacy,3 4,Kafkaesque Koffka,3.2.8,1,y,0,left,right,right,left,NA,705,89542,9745,705,NA,2,legacy,2,1024,2,48000,-16,experiment,999,odd,3,279854,276442,277556,2469,181183,277591,NA,2591,171437,281886,282592,278623,92143,281886,NA,SternbergTask,28,27286,28,yes,1024
100,100,971.6551724,971.6551724,black,experiment,legacy,legacy,legacy,0,uniform,1,undefined,1,right,28,28,28,0,0,28,28,0,0,28,28,28,0,28,0,Fri Oct 25 12:27:57 2019,The main experiment item,yes,SternbergTask.osexp,/Users/Zenny/Desktop,no,mono,no,18,no,white,no,no,768,legacy,16,11,/Users/Zenny/Desktop/quickrun.csv,legacy,4 2 6 9,Kafkaesque Koffka,3.2.8,0,n,0,right,right,right,right,NA,892,89542,9745,892,NA,2,legacy,4,1024,2,48000,-16,experiment,999,odd,7,286068,282631,283772,2469,181183,283803,NA,2591,171437,288099,288992,284837,92143,288099,NA,SternbergTask,29,28178,29,yes,1024
100,100,965.5333333,965.5333333,black,experiment,legacy,legacy,legacy,0,uniform,1,undefined,1,left,29,29,29,0,0,29,29,0,0,29,29,29,0,29,0,Fri Oct 25 12:27:57 2019,The main experiment item,yes,SternbergTask.osexp,/Users/Zenny/Desktop,no,mono,no,18,no,white,no,no,768,legacy,17,11,/Users/Zenny/Desktop/quickrun.csv,legacy,3 9 6 2,Kafkaesque Koffka,3.2.8,4,y,0,left,right,right,left,NA,788,89542,9745,788,NA,2,legacy,4,1024,2,48000,-16,experiment,999,odd,2,292504,289025,290163,2469,181183,290195,NA,2591,171437,294536,295325,291271,92143,294536,NA,SternbergTask,30,28966,30,yes,1024
100,100,960.0967742,960.0967742,black,experiment,legacy,legacy,legacy,0,uniform,1,undefined,1,right,30,30,30,0,0,30,30,0,0,30,30,30,0,30,0,Fri Oct 25 12:27:57 2019,The main experiment item,yes,SternbergTask.osexp,/Users/Zenny/Desktop,no,mono,no,18,no,white,no,no,768,legacy,18,11,/Users/Zenny/Desktop/quickrun.csv,legacy,7 3 2 8,Kafkaesque Koffka,3.2.8,0,n,0,right,right,right,right,NA,797,89542,9745,797,NA,2,legacy,4,1024,2,48000,-16,experiment,999,odd,4,298765,295360,296470,2469,181183,296501,NA,2591,171437,300796,301594,297532,92143,300796,NA,SternbergTask,31,29763,31,yes,1024
100,100,958.34375,958.34375,black,experiment,legacy,legacy,legacy,0,uniform,1,undefined,1,right,31,31,31,0,0,31,31,0,0,31,31,31,0,31,0,Fri Oct 25 12:27:57 2019,The main experiment item,yes,SternbergTask.osexp,/Users/Zenny/Desktop,no,mono,no,18,no,white,no,no,768,legacy,19,11,/Users/Zenny/Desktop/quickrun.csv,legacy,2 6 4 3 9,Kafkaesque Koffka,3.2.8,0,n,0,right,right,right,right,NA,904,89542,9745,904,NA,2,legacy,5,1024,2,48000,-16,experiment,999,odd,1,305072,301631,302777,2469,181183,302809,NA,2591,171437,307103,308008,303840,92143,307103,NA,SternbergTask,32,30667,32,yes,1024
100,100,955.0606061,955.0606061,black,experiment,legacy,legacy,legacy,0,uniform,1,undefined,1,left,32,32,32,0,0,32,32,0,0,32,32,32,0,32,0,Fri Oct 25 12:27:57 2019,The main experiment item,yes,SternbergTask.osexp,/Users/Zenny/Desktop,no,mono,no,18,no,white,no,no,768,legacy,20,11,/Users/Zenny/Desktop/quickrun.csv,legacy,9 3 1 2 5,Kafkaesque Koffka,3.2.8,4,y,0,left,right,right,left,NA,850,89542,9745,850,NA,2,legacy,5,1024,2,48000,-16,experiment,999,odd,2,311514,308041,309173,2469,181183,309206,NA,2591,171437,313546,314397,310282,92143,313545,NA,SternbergTask,33,31517,33,yes,1024
100,100,959.7647059,959.7647059,black,experiment,legacy,legacy,legacy,0,uniform,1,undefined,1,right,33,33,33,0,0,33,33,0,0,33,33,33,0,33,0,Fri Oct 25 12:27:57 2019,The main experiment item,yes,SternbergTask.osexp,/Users/Zenny/Desktop,no,mono,no,18,no,white,no,no,768,legacy,21,11,/Users/Zenny/Desktop/quickrun.csv,legacy,8 4 3 5,Kafkaesque Koffka,3.2.8,0,n,0,right,right,right,right,NA,1115,89542,9745,1115,NA,2,legacy,4,1024,2,48000,-16,experiment,999,odd,6,317838,314435,315544,2469,181183,315575,NA,2591,171437,319870,320987,316606,92143,319870,NA,SternbergTask,34,32632,34,yes,1024
100,100,954.5428571,954.5428571,black,experiment,legacy,legacy,legacy,0,uniform,1,undefined,1,right,34,34,34,0,0,34,34,0,0,34,34,34,0,34,0,Fri Oct 25 12:27:57 2019,The main experiment item,yes,SternbergTask.osexp,/Users/Zenny/Desktop,no,mono,no,18,no,white,no,no,768,legacy,22,11,/Users/Zenny/Desktop/quickrun.csv,legacy,1 5 3 2 8,Kafkaesque Koffka,3.2.8,0,n,0,right,right,right,right,NA,777,89542,9745,777,NA,2,legacy,5,1024,2,48000,-16,experiment,999,odd,4,324517,321027,322178,2469,181183,322210,NA,2591,171437,326548,327327,323283,92143,326548,NA,SternbergTask,35,33409,35,yes,1024
100,100,947.0833333,947.0833333,black,experiment,legacy,legacy,legacy,0,uniform,1,undefined,1,left,35,35,35,0,0,35,35,0,0,35,35,35,0,35,0,Fri Oct 25 12:27:57 2019,The main experiment item,yes,SternbergTask.osexp,/Users/Zenny/Desktop,no,mono,no,18,no,white,no,no,768,legacy,23,11,/Users/Zenny/Desktop/quickrun.csv,legacy,6 7 8 5,Kafkaesque Koffka,3.2.8,3,y,0,left,right,right,left,NA,686,89542,9745,686,NA,2,legacy,4,1024,2,48000,-16,experiment,999,odd,8,330761,327360,328469,2469,181183,328500,NA,2591,171437,332794,333481,329531,92143,332794,NA,SternbergTask,36,34095,36,yes,1024
100,100,943,943,black,experiment,legacy,legacy,legacy,0,uniform,1,undefined,1,right,36,36,36,0,0,36,36,0,0,36,36,36,0,36,0,Fri Oct 25 12:27:57 2019,The main experiment item,yes,SternbergTask.osexp,/Users/Zenny/Desktop,no,mono,no,18,no,white,no,no,768,legacy,24,11,/Users/Zenny/Desktop/quickrun.csv,legacy,1 6 4,Kafkaesque Koffka,3.2.8,0,n,0,right,right,right,right,NA,796,89542,9745,796,NA,2,legacy,3,1024,2,48000,-16,experiment,999,odd,7,336961,333519,334667,2469,181183,334699,NA,2591,171437,338992,339789,335730,92143,338992,NA,SternbergTask,37,34891,37,yes,1024
100,100,935,935,black,experiment,legacy,legacy,legacy,0,uniform,1,undefined,1,left,37,37,37,0,0,37,37,0,0,37,37,37,0,37,0,Fri Oct 25 12:27:57 2019,The main experiment item,yes,SternbergTask.osexp,/Users/Zenny/Desktop,no,mono,no,18,no,white,no,no,768,legacy,25,11,/Users/Zenny/Desktop/quickrun.csv,legacy,7 1 8 5 6 2,Kafkaesque Koffka,3.2.8,2,y,0,left,right,right,left,NA,639,89542,9745,639,NA,2,legacy,6,1024,2,48000,-16,experiment,999,odd,1,343293,339824,340934,2469,181183,340964,NA,2591,171437,345326,345967,341997,92143,345326,NA,SternbergTask,38,35530,38,yes,1024
100,100,934.974359,934.974359,black,experiment,legacy,legacy,legacy,0,uniform,1,undefined,1,right,38,38,38,0,0,38,38,0,0,38,38,38,0,38,0,Fri Oct 25 12:27:57 2019,The main experiment item,yes,SternbergTask.osexp,/Users/Zenny/Desktop,no,mono,no,18,no,white,no,no,768,legacy,26,11,/Users/Zenny/Desktop/quickrun.csv,legacy,6 8,Kafkaesque Koffka,3.2.8,0,n,0,right,right,right,right,NA,934,89542,9745,934,NA,2,legacy,2,1024,2,48000,-16,experiment,999,odd,9,349463,346012,347162,2469,181183,347196,NA,2591,171437,351494,352430,348229,92143,351494,NA,SternbergTask,39,36464,39,yes,1024
100,100,931.4,931.4,black,experiment,legacy,legacy,legacy,0,uniform,1,undefined,1,left,39,39,39,0,0,39,39,0,0,39,39,39,0,39,0,Fri Oct 25 12:27:57 2019,The main experiment item,yes,SternbergTask.osexp,/Users/Zenny/Desktop,no,mono,no,18,no,white,no,no,768,legacy,27,11,/Users/Zenny/Desktop/quickrun.csv,legacy,2 5 4 8 7,Kafkaesque Koffka,3.2.8,3,y,0,left,right,right,left,NA,792,89542,9745,792,NA,2,legacy,5,1024,2,48000,-16,experiment,999,odd,4,355913,352466,353615,2469,181183,353647,NA,2591,171437,357945,358739,354681,92143,357945,NA,SternbergTask,40,37256,40,yes,1024
100,100,924.7560976,924.7560976,black,experiment,legacy,legacy,legacy,0,uniform,1,undefined,1,right,40,40,40,0,0,40,40,0,0,40,40,40,0,40,0,Fri Oct 25 12:27:57 2019,The main experiment item,yes,SternbergTask.osexp,/Users/Zenny/Desktop,no,mono,no,18,no,white,no,no,768,legacy,28,11,/Users/Zenny/Desktop/quickrun.csv,legacy,8 9,Kafkaesque Koffka,3.2.8,0,n,0,right,right,right,right,NA,659,89542,9745,659,NA,2,legacy,2,1024,2,48000,-16,experiment,999,odd,5,362175,358773,359882,2469,181183,359913,NA,2591,171437,364206,364867,360944,92143,364206,NA,SternbergTask,41,37915,41,yes,1024
100,100,922.4761905,922.4761905,black,experiment,legacy,legacy,legacy,0,uniform,1,undefined,1,right,41,41,41,0,0,41,41,0,0,41,41,41,0,41,0,Fri Oct 25 12:27:57 2019,The main experiment item,yes,SternbergTask.osexp,/Users/Zenny/Desktop,no,mono,no,18,no,white,no,no,768,legacy,29,11,/Users/Zenny/Desktop/quickrun.csv,legacy,4 2 7 6 1 3,Kafkaesque Koffka,3.2.8,0,n,0,right,right,right,right,NA,829,89542,9745,829,NA,2,legacy,6,1024,2,48000,-16,experiment,999,odd,8,368341,364905,366046,2469,181183,366078,NA,2591,171437,370375,371206,367108,92143,370375,NA,SternbergTask,42,38744,42,yes,1024
100,100,918.4418605,918.4418605,black,experiment,legacy,legacy,legacy,0,uniform,1,undefined,1,left,42,42,42,0,0,42,42,0,0,42,42,42,0,42,0,Fri Oct 25 12:27:57 2019,The main experiment item,yes,SternbergTask.osexp,/Users/Zenny/Desktop,no,mono,no,18,no,white,no,no,768,legacy,30,11,/Users/Zenny/Desktop/quickrun.csv,legacy,2 4 8 5 1 3,Kafkaesque Koffka,3.2.8,1,y,0,left,right,right,left,NA,749,89542,9745,749,NA,2,legacy,6,1024,2,48000,-16,experiment,999,odd,2,374682,371272,372382,2469,181183,372418,NA,2591,171437,376717,377468,373449,92143,376717,NA,SternbergTask,43,39493,43,yes,1024
100,100,912.9090909,912.9090909,black,experiment,legacy,legacy,legacy,0,uniform,1,undefined,1,left,43,43,43,0,0,43,43,0,0,43,43,43,0,43,0,Fri Oct 25 12:27:57 2019,The main experiment item,yes,SternbergTask.osexp,/Users/Zenny/Desktop,no,mono,no,18,no,white,no,no,768,legacy,31,11,/Users/Zenny/Desktop/quickrun.csv,legacy,7 6,Kafkaesque Koffka,3.2.8,2,y,0,left,right,right,left,NA,675,89542,9745,675,NA,2,legacy,2,1024,2,48000,-16,experiment,999,odd,6,380951,377506,378656,2469,181183,378688,NA,2591,171437,382982,383658,379720,92143,382982,NA,SternbergTask,44,40168,44,yes,1024
100,100,927.9111111,927.9111111,black,experiment,legacy,legacy,legacy,0,uniform,1,undefined,1,right,44,44,44,0,0,44,44,0,0,44,44,44,0,44,0,Fri Oct 25 12:27:57 2019,The main experiment item,yes,SternbergTask.osexp,/Users/Zenny/Desktop,no,mono,no,18,no,white,no,no,768,legacy,32,11,/Users/Zenny/Desktop/quickrun.csv,legacy,8 4 3 9,Kafkaesque Koffka,3.2.8,0,n,0,right,right,right,right,NA,1588,89542,9745,1588,NA,2,legacy,4,1024,2,48000,-16,experiment,999,odd,5,387098,383692,384802,2469,181183,384833,NA,2591,171437,389129,390719,385865,92143,389129,NA,SternbergTask,45,41756,45,yes,1024
100,100,922.8043478,922.8043478,black,experiment,legacy,legacy,legacy,0,uniform,1,undefined,1,left,45,45,45,0,0,45,45,0,0,45,45,45,0,45,0,Fri Oct 25 12:27:57 2019,The main experiment item,yes,SternbergTask.osexp,/Users/Zenny/Desktop,no,mono,no,18,no,white,no,no,768,legacy,33,11,/Users/Zenny/Desktop/quickrun.csv,legacy,6 5,Kafkaesque Koffka,3.2.8,2,y,0,left,right,right,left,NA,693,89542,9745,693,NA,2,legacy,2,1024,2,48000,-16,experiment,999,odd,5,394206,390760,391910,2469,181183,391942,NA,2591,171437,396271,396966,392973,92143,396271,NA,SternbergTask,46,42449,46,yes,1024
100,100,926.7234043,926.7234043,black,experiment,legacy,legacy,legacy,0,uniform,1,undefined,1,right,46,46,46,0,0,46,46,0,0,46,46,46,0,46,0,Fri Oct 25 12:27:57 2019,The main experiment item,yes,SternbergTask.osexp,/Users/Zenny/Desktop,no,mono,no,18,no,white,no,no,768,legacy,34,11,/Users/Zenny/Desktop/quickrun.csv,legacy,8 5 7 3 6,Kafkaesque Koffka,3.2.8,0,n,0,right,right,right,right,NA,1107,89542,9745,1107,NA,2,legacy,5,1024,2,48000,-16,experiment,999,odd,9,400411,397000,398108,2469,181183,398138,NA,2591,171437,402442,403551,399169,92143,402442,NA,SternbergTask,47,43556,47,yes,1024
100,100,924.125,924.125,black,experiment,legacy,legacy,legacy,0,uniform,1,undefined,1,left,47,47,47,0,0,47,47,0,0,47,47,47,0,47,0,Fri Oct 25 12:27:57 2019,The main experiment item,yes,SternbergTask.osexp,/Users/Zenny/Desktop,no,mono,no,18,no,white,no,no,768,legacy,35,11,/Users/Zenny/Desktop/quickrun.csv,legacy,2 3,Kafkaesque Koffka,3.2.8,1,y,0,left,right,right,left,NA,802,89542,9745,802,NA,2,legacy,2,1024,2,48000,-16,experiment,999,odd,2,407035,403590,404740,2469,181183,404772,NA,2591,171437,409066,409870,405803,92143,409066,NA,SternbergTask,48,44358,48,yes,1024
100,100,920.2244898,920.2244898,black,experiment,legacy,legacy,legacy,0,uniform,1,undefined,1,right,48,48,48,0,0,48,48,0,0,48,48,48,0,48,0,Fri Oct 25 12:27:57 2019,The main experiment item,yes,SternbergTask.osexp,/Users/Zenny/Desktop,no,mono,no,18,no,white,no,no,768,legacy,36,11,/Users/Zenny/Desktop/quickrun.csv,legacy,6 9 5,Kafkaesque Koffka,3.2.8,0,n,0,right,right,right,right,NA,733,89542,9745,733,NA,2,legacy,3,1024,2,48000,-16,experiment,999,odd,8,413309,409904,411011,2469,181183,411042,NA,2591,171437,415341,416076,412074,92143,415341,NA,SternbergTask,49,45091,49,yes,1024
100,100,919,919,black,experiment,legacy,legacy,legacy,0,uniform,1,undefined,1,right,49,49,49,0,0,49,49,0,0,49,49,49,0,49,0,Fri Oct 25 12:27:57 2019,The main experiment item,yes,SternbergTask.osexp,/Users/Zenny/Desktop,no,mono,no,18,no,white,no,no,768,legacy,37,11,/Users/Zenny/Desktop/quickrun.csv,legacy,2 7 5,Kafkaesque Koffka,3.2.8,0,n,0,right,right,right,right,NA,859,89542,9745,859,NA,2,legacy,3,1024,2,48000,-16,experiment,999,odd,8,419548,416113,417244,2469,181183,417282,NA,2591,171437,421583,422444,418314,92143,421583,NA,SternbergTask,50,45950,50,yes,1024
100,100,917.9411765,917.9411765,black,experiment,legacy,legacy,legacy,0,uniform,1,undefined,1,right,50,50,50,0,0,50,50,0,0,50,50,50,0,50,0,Fri Oct 25 12:27:57 2019,The main experiment item,yes,SternbergTask.osexp,/Users/Zenny/Desktop,no,mono,no,18,no,white,no,no,768,legacy,38,11,/Users/Zenny/Desktop/quickrun.csv,legacy,1 4 9 3,Kafkaesque Koffka,3.2.8,0,n,0,right,right,right,right,NA,865,89542,9745,865,NA,2,legacy,4,1024,2,48000,-16,experiment,999,odd,5,425894,422479,423593,2469,181183,423631,NA,2591,171437,427925,428792,424662,92143,427925,NA,SternbergTask,51,46815,51,yes,1024
100,100,913.3653846,913.3653846,black,experiment,legacy,legacy,legacy,0,uniform,1,undefined,1,left,51,51,51,0,0,51,51,0,0,51,51,51,0,51,0,Fri Oct 25 12:27:57 2019,The main experiment item,yes,SternbergTask.osexp,/Users/Zenny/Desktop,no,mono,no,18,no,white,no,no,768,legacy,39,11,/Users/Zenny/Desktop/quickrun.csv,legacy,4 1 8 7 5,Kafkaesque Koffka,3.2.8,3,y,0,left,right,right,left,NA,680,89542,9745,680,NA,2,legacy,5,1024,2,48000,-16,experiment,999,odd,8,432273,428826,429973,2469,181183,430003,NA,2591,171437,434305,434987,431033,92143,434304,NA,SternbergTask,52,47495,52,yes,1024
100,100,912.9811321,912.9811321,black,experiment,legacy,legacy,legacy,0,uniform,1,undefined,1,left,52,52,52,0,0,52,52,0,0,52,52,52,0,52,0,Fri Oct 25 12:27:57 2019,The main experiment item,yes,SternbergTask.osexp,/Users/Zenny/Desktop,no,mono,no,18,no,white,no,no,768,legacy,40,11,/Users/Zenny/Desktop/quickrun.csv,legacy,2 4 6 9,Kafkaesque Koffka,3.2.8,3,y,0,left,right,right,left,NA,893,89542,9745,893,NA,2,legacy,4,1024,2,48000,-16,experiment,999,odd,6,438426,435020,436130,2469,181183,436161,NA,2591,171437,440457,441352,437192,92143,440457,NA,SternbergTask,53,48388,53,yes,1024
100,100,912.537037,912.537037,black,experiment,legacy,legacy,legacy,0,uniform,1,undefined,1,right,53,53,53,0,0,53,53,0,0,53,53,53,0,53,0,Fri Oct 25 12:27:57 2019,The main experiment item,yes,SternbergTask.osexp,/Users/Zenny/Desktop,no,mono,no,18,no,white,no,no,768,legacy,41,11,/Users/Zenny/Desktop/quickrun.csv,legacy,2 3 8 5 6 7,Kafkaesque Koffka,3.2.8,0,n,0,right,right,right,right,NA,889,89542,9745,889,NA,2,legacy,6,1024,2,48000,-16,experiment,999,odd,1,444825,441386,442531,2469,181183,442562,NA,2591,171437,446856,447747,443594,92143,446856,NA,SternbergTask,54,49277,54,yes,1024
100,100,907.5636364,907.5636364,black,experiment,legacy,legacy,legacy,0,uniform,1,undefined,1,left,54,54,54,0,0,54,54,0,0,54,54,54,0,54,0,Fri Oct 25 12:27:57 2019,The main experiment item,yes,SternbergTask.osexp,/Users/Zenny/Desktop,no,mono,no,18,no,white,no,no,768,legacy,42,11,/Users/Zenny/Desktop/quickrun.csv,legacy,2 6 1 7 4,Kafkaesque Koffka,3.2.8,2,y,0,left,right,right,left,NA,639,89542,9745,639,NA,2,legacy,5,1024,2,48000,-16,experiment,999,odd,6,451268,447780,448914,2469,181183,448947,NA,2591,171437,453299,453940,449987,92143,453299,NA,SternbergTask,55,49916,55,yes,1024
100,100,905.2678571,905.2678571,black,experiment,legacy,legacy,legacy,0,uniform,1,undefined,1,right,55,55,55,0,0,55,55,0,0,55,55,55,0,55,0,Fri Oct 25 12:27:57 2019,The main experiment item,yes,SternbergTask.osexp,/Users/Zenny/Desktop,no,mono,no,18,no,white,no,no,768,legacy,43,11,/Users/Zenny/Desktop/quickrun.csv,legacy,7 6 4 8 1 2,Kafkaesque Koffka,3.2.8,0,n,0,right,right,right,right,NA,779,89542,9745,779,NA,2,legacy,6,1024,2,48000,-16,experiment,999,odd,9,457382,453975,455085,2469,181183,455116,NA,2591,171437,459413,460194,456148,92143,459413,NA,SternbergTask,56,50695,56,yes,1024
100,100,902.754386,902.754386,black,experiment,legacy,legacy,legacy,0,uniform,1,undefined,1,right,56,56,56,0,0,56,56,0,0,56,56,56,0,56,0,Fri Oct 25 12:27:57 2019,The main experiment item,yes,SternbergTask.osexp,/Users/Zenny/Desktop,no,mono,no,18,no,white,no,no,768,legacy,44,11,/Users/Zenny/Desktop/quickrun.csv,legacy,5 7 3,Kafkaesque Koffka,3.2.8,0,n,0,right,right,right,right,NA,762,89542,9745,762,NA,2,legacy,3,1024,2,48000,-16,experiment,999,odd,9,463721,460280,461425,2469,181183,461457,NA,2591,171437,465752,466516,462487,92143,465752,NA,SternbergTask,57,51457,57,yes,1024
100,100,899.1034483,899.1034483,black,experiment,legacy,legacy,legacy,0,uniform,1,undefined,1,right,57,57,57,0,0,57,57,0,0,57,57,57,0,57,0,Fri Oct 25 12:27:57 2019,The main experiment item,yes,SternbergTask.osexp,/Users/Zenny/Desktop,no,mono,no,18,no,white,no,no,768,legacy,45,11,/Users/Zenny/Desktop/quickrun.csv,legacy,5,Kafkaesque Koffka,3.2.8,0,n,0,right,right,right,right,NA,691,89542,9745,691,NA,2,legacy,1,1024,2,48000,-16,experiment,999,odd,8,469953,466548,467656,2469,181183,467688,NA,2591,171437,471984,472677,468719,92143,471984,NA,SternbergTask,58,52148,58,yes,1024
100,100,899.1355932,899.1355932,black,experiment,legacy,legacy,legacy,0,uniform,1,undefined,1,left,58,58,58,0,0,58,58,0,0,58,58,58,0,58,0,Fri Oct 25 12:27:57 2019,The main experiment item,yes,SternbergTask.osexp,/Users/Zenny/Desktop,no,mono,no,18,no,white,no,no,768,legacy,46,11,/Users/Zenny/Desktop/quickrun.csv,legacy,3 9 7 6 4,Kafkaesque Koffka,3.2.8,3,y,0,left,right,right,left,NA,901,89542,9745,901,NA,2,legacy,5,1024,2,48000,-16,experiment,999,odd,7,476151,472713,473857,2469,181183,473889,NA,2591,171437,478182,479085,474920,92143,478182,NA,SternbergTask,59,53049,59,yes,1024
100,100,898.8666667,898.8666667,black,experiment,legacy,legacy,legacy,0,uniform,1,undefined,1,left,59,59,59,0,0,59,59,0,0,59,59,59,0,59,0,Fri Oct 25 12:27:57 2019,The main experiment item,yes,SternbergTask.osexp,/Users/Zenny/Desktop,no,mono,no,18,no,white,no,no,768,legacy,47,11,/Users/Zenny/Desktop/quickrun.csv,legacy,8 9 5 7 1 6,Kafkaesque Koffka,3.2.8,4,y,0,left,right,right,left,NA,883,89542,9745,883,NA,2,legacy,6,1024,2,48000,-16,experiment,999,odd,7,482548,479119,480239,2469,181183,480283,NA,2591,171437,484583,485468,481315,92143,484583,NA,SternbergTask,60,53932,60,yes,1024
100,100,896.3606557,896.3606557,black,experiment,legacy,legacy,legacy,0,uniform,1,undefined,1,left,60,60,60,0,0,60,60,0,0,60,60,60,0,60,0,Fri Oct 25 12:27:57 2019,The main experiment item,yes,SternbergTask.osexp,/Users/Zenny/Desktop,no,mono,no,18,no,white,no,no,768,legacy,48,11,/Users/Zenny/Desktop/quickrun.csv,legacy,9 1 7 2,Kafkaesque Koffka,3.2.8,2,y,0,left,right,right,left,NA,746,89542,9745,746,NA,2,legacy,4,1024,2,48000,-16,experiment,999,odd,1,488908,485503,486613,2469,181183,486643,NA,2591,171437,490941,491689,487675,92143,490941,NA,SternbergTask,61,54678,61,yes,1024
100,100,893.9677419,893.9677419,black,experiment,legacy,legacy,legacy,0,uniform,1,undefined,1,left,61,61,61,0,0,61,61,0,0,61,61,61,0,61,0,Fri Oct 25 12:27:57 2019,The main experiment item,yes,SternbergTask.osexp,/Users/Zenny/Desktop,no,mono,no,18,no,white,no,no,768,legacy,49,11,/Users/Zenny/Desktop/quickrun.csv,legacy,4,Kafkaesque Koffka,3.2.8,1,y,0,left,right,right,left,NA,748,89542,9745,748,NA,2,legacy,1,1024,2,48000,-16,experiment,999,odd,4,495163,491724,492868,2469,181183,492900,NA,2591,171437,497195,497945,493931,92143,497195,NA,SternbergTask,62,55426,62,yes,1024
100,100,893.1746032,893.1746032,black,experiment,legacy,legacy,legacy,0,uniform,1,undefined,1,right,62,62,62,0,0,62,62,0,0,62,62,62,0,62,0,Fri Oct 25 12:27:57 2019,The main experiment item,yes,SternbergTask.osexp,/Users/Zenny/Desktop,no,mono,no,18,no,white,no,no,768,legacy,50,11,/Users/Zenny/Desktop/quickrun.csv,legacy,7 9,Kafkaesque Koffka,3.2.8,0,n,0,right,right,right,right,NA,844,89542,9745,844,NA,2,legacy,2,1024,2,48000,-16,experiment,999,odd,1,501391,497990,499097,2469,181183,499128,NA,2591,171437,503422,504273,500159,92143,503422,NA,SternbergTask,63,56270,63,yes,1024
100,100,889.5625,889.5625,black,experiment,legacy,legacy,legacy,0,uniform,1,undefined,1,left,63,63,63,0,0,63,63,0,0,63,63,63,0,63,0,Fri Oct 25 12:27:57 2019,The main experiment item,yes,SternbergTask.osexp,/Users/Zenny/Desktop,no,mono,no,18,no,white,no,no,768,legacy,51,11,/Users/Zenny/Desktop/quickrun.csv,legacy,8,Kafkaesque Koffka,3.2.8,1,y,0,left,right,right,left,NA,662,89542,9745,662,NA,2,legacy,1,1024,2,48000,-16,experiment,999,odd,8,507771,504310,505466,2469,181183,505507,NA,2591,171437,509803,510467,506540,92143,509803,NA,SternbergTask,64,56932,64,yes,1024
100,100,887.6923077,887.6923077,black,experiment,legacy,legacy,legacy,0,uniform,1,undefined,1,left,64,64,64,0,0,64,64,0,0,64,64,64,0,64,0,Fri Oct 25 12:27:57 2019,The main experiment item,yes,SternbergTask.osexp,/Users/Zenny/Desktop,no,mono,no,18,no,white,no,no,768,legacy,52,11,/Users/Zenny/Desktop/quickrun.csv,legacy,9 3 8 2 1 4,Kafkaesque Koffka,3.2.8,3,y,0,left,right,right,left,NA,768,89542,9745,768,NA,2,legacy,6,1024,2,48000,-16,experiment,999,odd,8,513908,510502,511611,2469,181183,511642,NA,2591,171437,515940,516711,512674,92143,515940,NA,SternbergTask,65,57700,65,yes,1024
100,100,886.3636364,886.3636364,black,experiment,legacy,legacy,legacy,0,uniform,1,undefined,1,left,65,65,65,0,0,65,65,0,0,65,65,65,0,65,0,Fri Oct 25 12:27:57 2019,The main experiment item,yes,SternbergTask.osexp,/Users/Zenny/Desktop,no,mono,no,18,no,white,no,no,768,legacy,53,11,/Users/Zenny/Desktop/quickrun.csv,legacy,7 8 6 3 1,Kafkaesque Koffka,3.2.8,5,y,0,left,right,right,left,NA,800,89542,9745,800,NA,2,legacy,5,1024,2,48000,-16,experiment,999,odd,1,520186,516746,517889,2469,181183,517920,NA,2591,171437,522218,523020,518954,92143,522218,NA,SternbergTask,66,58500,66,yes,1024
100,100,887.4925373,887.4925373,black,experiment,legacy,legacy,legacy,0,uniform,1,undefined,1,right,66,66,66,0,0,66,66,0,0,66,66,66,0,66,0,Fri Oct 25 12:27:57 2019,The main experiment item,yes,SternbergTask.osexp,/Users/Zenny/Desktop,no,mono,no,18,no,white,no,no,768,legacy,54,11,/Users/Zenny/Desktop/quickrun.csv,legacy,5 3 8 7 2 4,Kafkaesque Koffka,3.2.8,0,n,0,right,right,right,right,NA,962,89542,9745,962,NA,2,legacy,6,1024,2,48000,-16,experiment,999,odd,9,526508,523053,524163,2469,181183,524195,NA,2591,171437,528541,529505,525276,92143,528541,NA,SternbergTask,67,59462,67,yes,1024
100,100,889.5588235,889.5588235,black,experiment,legacy,legacy,legacy,0,uniform,1,undefined,1,right,67,67,67,0,0,67,67,0,0,67,67,67,0,67,0,Fri Oct 25 12:27:57 2019,The main experiment item,yes,SternbergTask.osexp,/Users/Zenny/Desktop,no,mono,no,18,no,white,no,no,768,legacy,55,11,/Users/Zenny/Desktop/quickrun.csv,legacy,6 9 4 5 2,Kafkaesque Koffka,3.2.8,0,n,0,right,right,right,right,NA,1028,89542,9745,1028,NA,2,legacy,5,1024,2,48000,-16,experiment,999,odd,1,532986,529545,530690,2469,181183,530721,NA,2591,171437,535016,536047,531753,92143,535016,NA,SternbergTask,68,60490,68,yes,1024
100,100,889.5942029,889.5942029,black,experiment,legacy,legacy,legacy,0,uniform,1,undefined,1,right,68,68,68,0,0,68,68,0,0,68,68,68,0,68,0,Fri Oct 25 12:27:57 2019,The main experiment item,yes,SternbergTask.osexp,/Users/Zenny/Desktop,no,mono,no,18,no,white,no,no,768,legacy,56,11,/Users/Zenny/Desktop/quickrun.csv,legacy,5 3 2 6 9 8,Kafkaesque Koffka,3.2.8,0,n,0,right,right,right,right,NA,892,89542,9745,892,NA,2,legacy,6,1024,2,48000,-16,experiment,999,odd,4,539545,536081,537233,2469,181183,537279,NA,2591,171437,541576,542470,538311,92143,541575,NA,SternbergTask,69,61382,69,yes,1024
100,100,887.7142857,887.7142857,black,experiment,legacy,legacy,legacy,0,uniform,1,undefined,1,right,69,69,69,0,0,69,69,0,0,69,69,69,0,69,0,Fri Oct 25 12:27:57 2019,The main experiment item,yes,SternbergTask.osexp,/Users/Zenny/Desktop,no,mono,no,18,no,white,no,no,768,legacy,57,11,/Users/Zenny/Desktop/quickrun.csv,legacy,8 2 1 4 5 9,Kafkaesque Koffka,3.2.8,0,n,0,right,right,right,right,NA,758,89542,9745,758,NA,2,legacy,6,1024,2,48000,-16,experiment,999,odd,7,545931,542503,543634,2469,181183,543666,NA,2591,171437,547962,548723,544698,92143,547962,NA,SternbergTask,70,62140,70,yes,1024
100,100,884.943662,884.943662,black,experiment,legacy,legacy,legacy,0,uniform,1,undefined,1,left,70,70,70,0,0,70,70,0,0,70,70,70,0,70,0,Fri Oct 25 12:27:57 2019,The main experiment item,yes,SternbergTask.osexp,/Users/Zenny/Desktop,no,mono,no,18,no,white,no,no,768,legacy,58,11,/Users/Zenny/Desktop/quickrun.csv,legacy,4 6 5 8,Kafkaesque Koffka,3.2.8,1,y,0,left,right,right,left,NA,691,89542,9745,691,NA,2,legacy,4,1024,2,48000,-16,experiment,999,odd,4,552162,548758,549868,2469,181183,549898,NA,2591,171437,554193,554886,550929,92143,554193,NA,SternbergTask,71,62831,71,yes,1024
100,100,882.8472222,882.8472222,black,experiment,legacy,legacy,legacy,0,uniform,1,undefined,1,right,71,71,71,0,0,71,71,0,0,71,71,71,0,71,0,Fri Oct 25 12:27:57 2019,The main experiment item,yes,SternbergTask.osexp,/Users/Zenny/Desktop,no,mono,no,18,no,white,no,no,768,legacy,59,11,/Users/Zenny/Desktop/quickrun.csv,legacy,1 7 5 2 9,Kafkaesque Koffka,3.2.8,0,n,0,right,right,right,right,NA,734,89542,9745,734,NA,2,legacy,5,1024,2,48000,-16,experiment,999,odd,3,558361,554920,556065,2469,181183,556097,NA,2591,171437,560395,561131,557127,92143,560395,NA,SternbergTask,72,63565,72,yes,1024
100,100,885.0273973,885.0273973,black,experiment,legacy,legacy,legacy,0,uniform,1,undefined,1,left,72,72,72,0,0,72,72,0,0,72,72,72,0,72,0,Fri Oct 25 12:27:57 2019,The main experiment item,yes,SternbergTask.osexp,/Users/Zenny/Desktop,no,mono,no,18,no,white,no,no,768,legacy,60,11,/Users/Zenny/Desktop/quickrun.csv,legacy,7 8 4 6 9 5,Kafkaesque Koffka,3.2.8,4,y,0,left,right,right,left,NA,1042,89542,9745,1042,NA,2,legacy,6,1024,2,48000,-16,experiment,999,odd,6,564580,561166,562279,2469,181183,562309,NA,2591,171437,566611,567656,563342,92143,566611,NA,SternbergTask,73,64607,73,yes,1024
100,100,882.2567568,882.2567568,black,experiment,legacy,legacy,legacy,0,uniform,1,undefined,1,right,73,73,73,0,0,73,73,0,0,73,73,73,0,73,0,Fri Oct 25 12:27:57 2019,The main experiment item,yes,SternbergTask.osexp,/Users/Zenny/Desktop,no,mono,no,18,no,white,no,no,768,legacy,61,11,/Users/Zenny/Desktop/quickrun.csv,legacy,3 4 9 6 7 8,Kafkaesque Koffka,3.2.8,0,n,0,right,right,right,right,NA,680,89542,9745,680,NA,2,legacy,6,1024,2,48000,-16,experiment,999,odd,2,571140,567691,568840,2469,181183,568876,NA,2591,171437,573171,573853,569907,92143,573171,NA,SternbergTask,74,65287,74,yes,1024
100,100,878.9733333,878.9733333,black,experiment,legacy,legacy,legacy,0,uniform,1,undefined,1,left,74,74,74,0,0,74,74,0,0,74,74,74,0,74,0,Fri Oct 25 12:27:57 2019,The main experiment item,yes,SternbergTask.osexp,/Users/Zenny/Desktop,no,mono,no,18,no,white,no,no,768,legacy,62,11,/Users/Zenny/Desktop/quickrun.csv,legacy,8 9 5 6 7,Kafkaesque Koffka,3.2.8,1,y,0,left,right,right,left,NA,636,89542,9745,636,NA,2,legacy,5,1024,2,48000,-16,experiment,999,odd,8,577292,573887,574996,2469,181183,575026,NA,2591,171437,579323,579961,576058,92143,579322,NA,SternbergTask,75,65923,75,yes,1024
100,100,879.1710526,879.1710526,black,experiment,legacy,legacy,legacy,0,uniform,1,undefined,1,right,75,75,75,0,0,75,75,0,0,75,75,75,0,75,0,Fri Oct 25 12:27:57 2019,The main experiment item,yes,SternbergTask.osexp,/Users/Zenny/Desktop,no,mono,no,18,no,white,no,no,768,legacy,63,11,/Users/Zenny/Desktop/quickrun.csv,legacy,1 6 4 3 9 7,Kafkaesque Koffka,3.2.8,0,n,0,right,right,right,right,NA,894,89542,9745,894,NA,2,legacy,6,1024,2,48000,-16,experiment,999,odd,8,583502,579999,581148,2469,181183,581182,NA,2591,171437,585533,586430,582269,92143,585533,NA,SternbergTask,76,66817,76,yes,1024
100,100,878.5454545,878.5454545,black,experiment,legacy,legacy,legacy,0,uniform,1,undefined,1,right,76,76,76,0,0,76,76,0,0,76,76,76,0,76,0,Fri Oct 25 12:27:57 2019,The main experiment item,yes,SternbergTask.osexp,/Users/Zenny/Desktop,no,mono,no,18,no,white,no,no,768,legacy,64,11,/Users/Zenny/Desktop/quickrun.csv,legacy,4 8 1 2,Kafkaesque Koffka,3.2.8,0,n,0,right,right,right,right,NA,831,89542,9745,831,NA,2,legacy,4,1024,2,48000,-16,experiment,999,odd,7,589909,586464,587613,2469,181183,587645,NA,2591,171437,591944,592777,588676,92143,591944,NA,SternbergTask,77,67648,77,yes,1024
100,100,874.8974359,874.8974359,black,experiment,legacy,legacy,legacy,0,uniform,1,undefined,1,right,77,77,77,0,0,77,77,0,0,77,77,77,0,77,0,Fri Oct 25 12:27:57 2019,The main experiment item,yes,SternbergTask.osexp,/Users/Zenny/Desktop,no,mono,no,18,no,white,no,no,768,legacy,65,11,/Users/Zenny/Desktop/quickrun.csv,legacy,1,Kafkaesque Koffka,3.2.8,0,n,0,right,right,right,right,NA,594,89542,9745,594,NA,2,legacy,1,1024,2,48000,-16,experiment,999,odd,7,596215,592811,593919,2469,181183,593950,NA,2591,171437,598279,598876,594982,92143,598279,NA,SternbergTask,78,68242,78,yes,1024
100,100,872.2911392,872.2911392,black,experiment,legacy,legacy,legacy,0,uniform,1,undefined,1,left,78,78,78,0,0,78,78,0,0,78,78,78,0,78,0,Fri Oct 25 12:27:57 2019,The main experiment item,yes,SternbergTask.osexp,/Users/Zenny/Desktop,no,mono,no,18,no,white,no,no,768,legacy,66,11,/Users/Zenny/Desktop/quickrun.csv,legacy,3 5 9 6 2 4,Kafkaesque Koffka,3.2.8,1,y,0,left,right,right,left,NA,669,89542,9745,669,NA,2,legacy,6,1024,2,48000,-16,experiment,999,odd,3,602361,598911,600061,2469,181183,600095,NA,2591,171437,604392,605063,601126,92143,604392,NA,SternbergTask,79,68911,79,yes,1024
98.75,98.75,872.1375,872.1375,black,experiment,legacy,legacy,legacy,0,uniform,0,undefined,0,left,79,79,79,0,0,79,79,0,0,79,79,79,0,79,0,Fri Oct 25 12:27:57 2019,The main experiment item,yes,SternbergTask.osexp,/Users/Zenny/Desktop,no,mono,no,18,no,white,no,no,768,legacy,67,11,/Users/Zenny/Desktop/quickrun.csv,legacy,6 7 9 3 1 2,Kafkaesque Koffka,3.2.8,1,y,0,right,right,right,right,NA,860,89542,9745,860,NA,2,legacy,6,1024,2,48000,-16,experiment,999,odd,6,608507,605096,606208,2469,181183,606240,NA,2591,171437,610538,611401,607274,92143,610538,NA,SternbergTask,79,69771,80,yes,1024
98.7654321,98.7654321,876.2098765,876.2098765,black,experiment,legacy,legacy,legacy,0,uniform,1,undefined,1,right,80,80,80,0,0,80,80,0,0,80,80,80,0,80,0,Fri Oct 25 12:27:57 2019,The main experiment item,yes,SternbergTask.osexp,/Users/Zenny/Desktop,no,mono,no,18,no,white,no,no,768,legacy,68,11,/Users/Zenny/Desktop/quickrun.csv,legacy,7 1,Kafkaesque Koffka,3.2.8,0,n,0,right,right,right,right,NA,1202,89542,9745,1202,NA,2,legacy,2,1024,2,48000,-16,experiment,999,odd,8,614883,605096,612587,2469,181183,612619,611437,2591,171437,616920,618125,613650,92143,616920,NA,SternbergTask,80,70973,81,yes,1024
98.7804878,98.7804878,874.7439024,874.7439024,black,experiment,legacy,legacy,legacy,0,uniform,1,undefined,1,right,81,81,81,0,0,81,81,0,0,81,81,81,0,81,0,Fri Oct 25 12:27:57 2019,The main experiment item,yes,SternbergTask.osexp,/Users/Zenny/Desktop,no,mono,no,18,no,white,no,no,768,legacy,69,11,/Users/Zenny/Desktop/quickrun.csv,legacy,1 8 7,Kafkaesque Koffka,3.2.8,0,n,0,right,right,right,right,NA,756,89542,9745,756,NA,2,legacy,3,1024,2,48000,-16,experiment,999,odd,4,621618,618162,619318,2469,181183,619350,611437,2591,171437,623649,624407,620385,92143,623649,NA,SternbergTask,81,71729,82,yes,1024
98.79518072,98.79518072,874.1325301,874.1325301,black,experiment,legacy,legacy,legacy,0,uniform,1,undefined,1,left,82,82,82,0,0,82,82,0,0,82,82,82,0,82,0,Fri Oct 25 12:27:57 2019,The main experiment item,yes,SternbergTask.osexp,/Users/Zenny/Desktop,no,mono,no,18,no,white,no,no,768,legacy,70,11,/Users/Zenny/Desktop/quickrun.csv,legacy,7 4 2 6 3 5,Kafkaesque Koffka,3.2.8,6,y,0,left,right,right,left,NA,824,89542,9745,824,NA,2,legacy,6,1024,2,48000,-16,experiment,999,odd,5,627854,624440,625552,2469,181183,625583,611437,2591,171437,629885,630712,626615,92143,629884,NA,SternbergTask,82,72553,83,yes,1024
98.80952381,98.80952381,872.9761905,872.9761905,black,experiment,legacy,legacy,legacy,0,uniform,1,undefined,1,right,83,83,83,0,0,83,83,0,0,83,83,83,0,83,0,Fri Oct 25 12:27:57 2019,The main experiment item,yes,SternbergTask.osexp,/Users/Zenny/Desktop,no,mono,no,18,no,white,no,no,768,legacy,71,11,/Users/Zenny/Desktop/quickrun.csv,legacy,6 8 4,Kafkaesque Koffka,3.2.8,0,n,0,right,right,right,right,NA,777,89542,9745,777,NA,2,legacy,3,1024,2,48000,-16,experiment,999,odd,1,634195,630750,631898,2469,181183,631931,611437,2591,171437,636270,637049,632963,92143,636269,NA,SternbergTask,83,73330,84,yes,1024
98.82352941,98.82352941,870.2470588,870.2470588,black,experiment,legacy,legacy,legacy,0,uniform,1,undefined,1,left,84,84,84,0,0,84,84,0,0,84,84,84,0,84,0,Fri Oct 25 12:27:57 2019,The main experiment item,yes,SternbergTask.osexp,/Users/Zenny/Desktop,no,mono,no,18,no,white,no,no,768,legacy,72,11,/Users/Zenny/Desktop/quickrun.csv,legacy,2 3 7 4,Kafkaesque Koffka,3.2.8,1,y,0,left,right,right,left,NA,641,89542,9745,641,NA,2,legacy,4,1024,2,48000,-16,experiment,999,odd,2,640530,637082,638192,2469,181183,638270,611437,2591,171437,642563,643206,639300,92143,642563,NA,SternbergTask,84,73971,85,yes,1024
98.8372093,98.8372093,871.5697674,871.5697674,black,experiment,legacy,legacy,legacy,0,uniform,1,undefined,1,left,85,85,85,0,0,85,85,0,0,85,85,85,0,85,0,Fri Oct 25 12:27:57 2019,The main experiment item,yes,SternbergTask.osexp,/Users/Zenny/Desktop,no,mono,no,18,no,white,no,no,768,legacy,73,11,/Users/Zenny/Desktop/quickrun.csv,legacy,6 8 9 3 4 9,Kafkaesque Koffka,3.2.8,5,y,0,left,right,right,left,NA,984,89542,9745,984,NA,2,legacy,6,1024,2,48000,-16,experiment,999,odd,4,646718,643276,644424,2469,181183,644455,611437,2591,171437,648750,649737,645486,92143,648750,NA,SternbergTask,85,74955,86,yes,1024
98.85057471,98.85057471,870.1954023,870.1954023,black,experiment,legacy,legacy,legacy,0,uniform,1,undefined,1,left,86,86,86,0,0,86,86,0,0,86,86,86,0,86,0,Fri Oct 25 12:27:57 2019,The main experiment item,yes,SternbergTask.osexp,/Users/Zenny/Desktop,no,mono,no,18,no,white,no,no,768,legacy,74,11,/Users/Zenny/Desktop/quickrun.csv,legacy,9 1 6 7 8,Kafkaesque Koffka,3.2.8,1,y,0,left,right,right,left,NA,752,89542,9745,752,NA,2,legacy,5,1024,2,48000,-16,experiment,999,odd,9,653197,649773,650901,2469,181183,650934,611437,2591,171437,655280,656034,651965,92143,655280,NA,SternbergTask,86,75707,87,yes,1024
98.86363636,98.86363636,869.8409091,869.8409091,black,experiment,legacy,legacy,legacy,0,uniform,1,undefined,1,left,87,87,87,0,0,87,87,0,0,87,87,87,0,87,0,Fri Oct 25 12:27:57 2019,The main experiment item,yes,SternbergTask.osexp,/Users/Zenny/Desktop,no,mono,no,18,no,white,no,no,768,legacy,75,11,/Users/Zenny/Desktop/quickrun.csv,legacy,5 7 8 2 3 8,Kafkaesque Koffka,3.2.8,5,y,0,left,right,right,left,NA,839,89542,9745,839,NA,2,legacy,6,1024,2,48000,-16,experiment,999,odd,3,659506,656070,657179,2469,181183,657211,611437,2591,171437,661537,662379,658271,92143,661537,NA,SternbergTask,87,76546,88,yes,1024
98.87640449,98.87640449,868.6853933,868.6853933,black,experiment,legacy,legacy,legacy,0,uniform,1,undefined,1,right,88,88,88,0,0,88,88,0,0,88,88,88,0,88,0,Fri Oct 25 12:27:57 2019,The main experiment item,yes,SternbergTask.osexp,/Users/Zenny/Desktop,no,mono,no,18,no,white,no,no,768,legacy,76,11,/Users/Zenny/Desktop/quickrun.csv,legacy,6 2 9 3 8 4,Kafkaesque Koffka,3.2.8,0,n,0,right,right,right,right,NA,767,89542,9745,767,NA,2,legacy,6,1024,2,48000,-16,experiment,999,odd,1,665861,662415,663564,2469,181183,663598,611437,2591,171437,667893,668662,664628,92143,667893,NA,SternbergTask,88,77313,89,yes,1024
98.88888889,98.88888889,866.8888889,866.8888889,black,experiment,legacy,legacy,legacy,0,uniform,1,undefined,1,left,89,89,89,0,0,89,89,0,0,89,89,89,0,89,0,Fri Oct 25 12:27:57 2019,The main experiment item,yes,SternbergTask.osexp,/Users/Zenny/Desktop,no,mono,no,18,no,white,no,no,768,legacy,77,11,/Users/Zenny/Desktop/quickrun.csv,legacy,8 3,Kafkaesque Koffka,3.2.8,2,y,0,left,right,right,left,NA,707,89542,9745,707,NA,2,legacy,2,1024,2,48000,-16,experiment,999,odd,3,672097,668695,669804,2469,181183,669835,611437,2591,171437,674128,674837,670866,92143,674128,NA,SternbergTask,89,78020,90,yes,1024
98.9010989,98.9010989,865.4395604,865.4395604,black,experiment,legacy,legacy,legacy,0,uniform,1,undefined,1,right,90,90,90,0,0,90,90,0,0,90,90,90,0,90,0,Fri Oct 25 12:27:57 2019,The main experiment item,yes,SternbergTask.osexp,/Users/Zenny/Desktop,no,mono,no,18,no,white,no,no,768,legacy,78,11,/Users/Zenny/Desktop/quickrun.csv,legacy,5 9 2 3,Kafkaesque Koffka,3.2.8,0,n,0,right,right,right,right,NA,735,89542,9745,735,NA,2,legacy,4,1024,2,48000,-16,experiment,999,odd,8,678324,674877,676030,2469,181183,676061,611437,2591,171437,680355,681092,677092,92143,680355,NA,SternbergTask,90,78755,91,yes,1024
98.91304348,98.91304348,863.673913,863.673913,black,experiment,legacy,legacy,legacy,0,uniform,1,undefined,1,right,91,91,91,0,0,91,91,0,0,91,91,91,0,91,0,Fri Oct 25 12:27:57 2019,The main experiment item,yes,SternbergTask.osexp,/Users/Zenny/Desktop,no,mono,no,18,no,white,no,no,768,legacy,79,11,/Users/Zenny/Desktop/quickrun.csv,legacy,4 1,Kafkaesque Koffka,3.2.8,0,n,0,right,right,right,right,NA,703,89542,9745,703,NA,2,legacy,2,1024,2,48000,-16,experiment,999,odd,6,684536,681126,682236,2469,181183,682269,611437,2591,171437,686567,687273,683302,92143,686567,NA,SternbergTask,91,79458,92,yes,1024
98.92473118,98.92473118,863.1612903,863.1612903,black,experiment,legacy,legacy,legacy,0,uniform,1,undefined,1,left,92,92,92,0,0,92,92,0,0,92,92,92,0,92,0,Fri Oct 25 12:27:57 2019,The main experiment item,yes,SternbergTask.osexp,/Users/Zenny/Desktop,no,mono,no,18,no,white,no,no,768,legacy,80,11,/Users/Zenny/Desktop/quickrun.csv,legacy,9 6 2 4 1,Kafkaesque Koffka,3.2.8,4,y,0,left,right,right,left,NA,816,89542,9745,816,NA,2,legacy,5,1024,2,48000,-16,experiment,999,odd,4,690759,687309,688462,2469,181183,688497,611437,2591,171437,692792,693611,689528,92143,692792,NA,SternbergTask,92,80274,93,yes,1024
98.93617021,98.93617021,867.106383,867.106383,black,experiment,legacy,legacy,legacy,0,uniform,1,undefined,1,right,93,93,93,0,0,93,93,0,0,93,93,93,0,93,0,Fri Oct 25 12:27:57 2019,The main experiment item,yes,SternbergTask.osexp,/Users/Zenny/Desktop,no,mono,no,18,no,white,no,no,768,legacy,81,11,/Users/Zenny/Desktop/quickrun.csv,legacy,9 7 4 5 8,Kafkaesque Koffka,3.2.8,0,n,0,right,right,right,right,NA,1234,89542,9745,1234,NA,2,legacy,5,1024,2,48000,-16,experiment,999,odd,6,697051,693645,694756,2469,181183,694787,611437,2591,171437,699082,700319,695818,92143,699082,NA,SternbergTask,93,81508,94,yes,1024
98.94736842,98.94736842,873.2631579,873.2631579,black,experiment,legacy,legacy,legacy,0,uniform,1,undefined,1,right,94,94,94,0,0,94,94,0,0,94,94,94,0,94,0,Fri Oct 25 12:27:57 2019,The main experiment item,yes,SternbergTask.osexp,/Users/Zenny/Desktop,no,mono,no,18,no,white,no,no,768,legacy,82,11,/Users/Zenny/Desktop/quickrun.csv,legacy,8 5 4 2 9 6,Kafkaesque Koffka,3.2.8,0,n,0,right,right,right,right,NA,1452,89542,9745,1452,NA,2,legacy,6,1024,2,48000,-16,experiment,999,odd,3,703798,700357,701502,2469,181183,701534,611437,2591,171437,705829,707289,702565,92143,705829,NA,SternbergTask,94,82960,95,yes,1024
98.95833333,98.95833333,871.7708333,871.7708333,black,experiment,legacy,legacy,legacy,0,uniform,1,undefined,1,right,95,95,95,0,0,95,95,0,0,95,95,95,0,95,0,Fri Oct 25 12:27:57 2019,The main experiment item,yes,SternbergTask.osexp,/Users/Zenny/Desktop,no,mono,no,18,no,white,no,no,768,legacy,83,11,/Users/Zenny/Desktop/quickrun.csv,legacy,8 6 3 4 7,Kafkaesque Koffka,3.2.8,0,n,0,right,right,right,right,NA,730,89542,9745,730,NA,2,legacy,5,1024,2,48000,-16,experiment,999,odd,1,710763,707329,708466,2469,181183,708497,611437,2591,171437,712794,713526,709530,92143,712794,NA,SternbergTask,95,83690,96,yes,1024
98.96907216,98.96907216,869.9175258,869.9175258,black,experiment,legacy,legacy,legacy,0,uniform,1,undefined,1,right,96,96,96,0,0,96,96,0,0,96,96,96,0,96,0,Fri Oct 25 12:27:57 2019,The main experiment item,yes,SternbergTask.osexp,/Users/Zenny/Desktop,no,mono,no,18,no,white,no,no,768,legacy,84,11,/Users/Zenny/Desktop/quickrun.csv,legacy,9,Kafkaesque Koffka,3.2.8,0,n,0,right,right,right,right,NA,692,89542,9745,692,NA,2,legacy,1,1024,2,48000,-16,experiment,999,odd,6,716972,713569,714676,2469,181183,714707,611437,2591,171437,719003,719698,715738,92143,719003,NA,SternbergTask,96,84382,97,yes,1024
98.97959184,98.97959184,869.3979592,869.3979592,black,experiment,legacy,legacy,legacy,0,uniform,1,undefined,1,left,97,97,97,0,0,97,97,0,0,97,97,97,0,97,0,Fri Oct 25 12:27:57 2019,The main experiment item,yes,SternbergTask.osexp,/Users/Zenny/Desktop,no,mono,no,18,no,white,no,no,768,legacy,85,11,/Users/Zenny/Desktop/quickrun.csv,legacy,4 3 2 5 8,Kafkaesque Koffka,3.2.8,2,y,0,left,right,right,left,NA,819,89542,9745,819,NA,2,legacy,5,1024,2,48000,-16,experiment,999,odd,3,723177,719736,720882,2469,181183,720913,611437,2591,171437,725210,726032,721944,92143,725209,NA,SternbergTask,97,85201,98,yes,1024
98.98989899,98.98989899,868.969697,868.969697,black,experiment,legacy,legacy,legacy,0,uniform,1,undefined,1,right,98,98,98,0,0,98,98,0,0,98,98,98,0,98,0,Fri Oct 25 12:27:57 2019,The main experiment item,yes,SternbergTask.osexp,/Users/Zenny/Desktop,no,mono,no,18,no,white,no,no,768,legacy,86,11,/Users/Zenny/Desktop/quickrun.csv,legacy,6 9 4 5 3 2,Kafkaesque Koffka,3.2.8,0,n,0,right,right,right,right,NA,827,89542,9745,827,NA,2,legacy,6,1024,2,48000,-16,experiment,999,odd,8,729505,726065,727175,2469,181183,727206,611437,2591,171437,731536,732367,728274,92143,731536,NA,SternbergTask,98,86028,99,yes,1024
99,99,876.42,876.42,black,experiment,legacy,legacy,legacy,0,uniform,1,undefined,1,right,99,99,99,0,0,99,99,0,0,99,99,99,0,99,0,Fri Oct 25 12:27:57 2019,The main experiment item,yes,SternbergTask.osexp,/Users/Zenny/Desktop,no,mono,no,18,no,white,no,no,768,legacy,87,11,/Users/Zenny/Desktop/quickrun.csv,legacy,2 8 9 4 1,Kafkaesque Koffka,3.2.8,0,n,0,right,right,right,right,NA,1614,89542,9745,1614,NA,2,legacy,5,1024,2,48000,-16,experiment,999,odd,5,735846,732403,733547,2469,181183,733579,611437,2591,171437,737878,739495,734612,92143,737878,NA,SternbergTask,99,87642,100,yes,1024
99.00990099,99.00990099,876.8712871,876.8712871,black,experiment,legacy,legacy,legacy,0,uniform,1,undefined,1,left,100,100,100,0,0,100,100,0,0,100,100,100,0,100,0,Fri Oct 25 12:27:57 2019,The main experiment item,yes,SternbergTask.osexp,/Users/Zenny/Desktop,no,mono,no,18,no,white,no,no,768,legacy,88,11,/Users/Zenny/Desktop/quickrun.csv,legacy,4 9 7 8 5 3,Kafkaesque Koffka,3.2.8,4,y,0,left,right,right,left,NA,922,89542,9745,922,NA,2,legacy,6,1024,2,48000,-16,experiment,999,odd,8,742961,739530,740666,2469,181183,740697,611437,2591,171437,744992,745917,741728,92143,744992,NA,SternbergTask,100,88564,101,yes,1024
99.01960784,99.01960784,874.6470588,874.6470588,black,experiment,legacy,legacy,legacy,0,uniform,1,undefined,1,left,101,101,101,0,0,101,101,0,0,101,101,101,0,101,0,Fri Oct 25 12:27:57 2019,The main experiment item,yes,SternbergTask.osexp,/Users/Zenny/Desktop,no,mono,no,18,no,white,no,no,768,legacy,89,11,/Users/Zenny/Desktop/quickrun.csv,legacy,2 8 5 1,Kafkaesque Koffka,3.2.8,4,y,0,left,right,right,left,NA,650,89542,9745,650,NA,2,legacy,4,1024,2,48000,-16,experiment,999,odd,1,749382,745952,747081,2469,181183,747113,611437,2591,171437,751414,752067,748150,92143,751413,NA,SternbergTask,101,89214,102,yes,1024
99.02912621,99.02912621,873.038835,873.038835,black,experiment,legacy,legacy,legacy,0,uniform,1,undefined,1,left,102,102,102,0,0,102,102,0,0,102,102,102,0,102,0,Fri Oct 25 12:27:57 2019,The main experiment item,yes,SternbergTask.osexp,/Users/Zenny/Desktop,no,mono,no,18,no,white,no,no,768,legacy,90,11,/Users/Zenny/Desktop/quickrun.csv,legacy,3 2 1 4 7,Kafkaesque Koffka,3.2.8,2,y,0,left,right,right,left,NA,709,89542,9745,709,NA,2,legacy,5,1024,2,48000,-16,experiment,999,odd,2,755537,752109,753219,2469,181183,753273,611437,2591,171437,757568,758280,754304,92143,757568,NA,SternbergTask,102,89923,103,yes,1024
99.03846154,99.03846154,872.7596154,872.7596154,black,experiment,legacy,legacy,legacy,0,uniform,1,undefined,1,right,103,103,103,0,0,103,103,0,0,103,103,103,0,103,0,Fri Oct 25 12:27:57 2019,The main experiment item,yes,SternbergTask.osexp,/Users/Zenny/Desktop,no,mono,no,18,no,white,no,no,768,legacy,91,11,/Users/Zenny/Desktop/quickrun.csv,legacy,1 4 3 6 5,Kafkaesque Koffka,3.2.8,0,n,0,right,right,right,right,NA,844,89542,9745,844,NA,2,legacy,5,1024,2,48000,-16,experiment,999,odd,8,761763,758317,759468,2469,181183,759500,611437,2591,171437,763794,764640,760531,92143,763794,NA,SternbergTask,103,90767,104,yes,1024
99.04761905,99.04761905,874.247619,874.247619,black,experiment,legacy,legacy,legacy,0,uniform,1,undefined,1,right,104,104,104,0,0,104,104,0,0,104,104,104,0,104,0,Fri Oct 25 12:27:57 2019,The main experiment item,yes,SternbergTask.osexp,/Users/Zenny/Desktop,no,mono,no,18,no,white,no,no,768,legacy,92,11,/Users/Zenny/Desktop/quickrun.csv,legacy,1 7 8 3 9,Kafkaesque Koffka,3.2.8,0,n,0,right,right,right,right,NA,1029,89542,9745,1029,NA,2,legacy,5,1024,2,48000,-16,experiment,999,odd,2,768081,764678,765787,2469,181183,765819,611437,2591,171437,770113,771146,766850,92143,770113,NA,SternbergTask,104,91796,105,yes,1024
99.05660377,99.05660377,873.990566,873.990566,black,experiment,legacy,legacy,legacy,0,uniform,1,undefined,1,right,105,105,105,0,0,105,105,0,0,105,105,105,0,105,0,Fri Oct 25 12:27:57 2019,The main experiment item,yes,SternbergTask.osexp,/Users/Zenny/Desktop,no,mono,no,18,no,white,no,no,768,legacy,93,11,/Users/Zenny/Desktop/quickrun.csv,legacy,1 4 9 2 5,Kafkaesque Koffka,3.2.8,0,n,0,right,right,right,right,NA,847,89542,9745,847,NA,2,legacy,5,1024,2,48000,-16,experiment,999,odd,7,774641,771189,772343,2469,181183,772376,611437,2591,171437,776672,777522,773407,92143,776671,NA,SternbergTask,105,92643,106,yes,1024
99.06542056,99.06542056,872.5981308,872.5981308,black,experiment,legacy,legacy,legacy,0,uniform,1,undefined,1,left,106,106,106,0,0,106,106,0,0,106,106,106,0,106,0,Fri Oct 25 12:27:57 2019,The main experiment item,yes,SternbergTask.osexp,/Users/Zenny/Desktop,no,mono,no,18,no,white,no,no,768,legacy,94,11,/Users/Zenny/Desktop/quickrun.csv,legacy,4 6 2 5 1,Kafkaesque Koffka,3.2.8,5,y,0,left,right,right,left,NA,725,89542,9745,725,NA,2,legacy,5,1024,2,48000,-16,experiment,999,odd,1,780957,777555,778664,2469,181183,778695,611437,2591,171437,782988,783716,779727,92143,782988,NA,SternbergTask,106,93368,107,yes,1024
99.07407407,99.07407407,870.212963,870.212963,black,experiment,legacy,legacy,legacy,0,uniform,1,undefined,1,right,107,107,107,0,0,107,107,0,0,107,107,107,0,107,0,Fri Oct 25 12:27:57 2019,The main experiment item,yes,SternbergTask.osexp,/Users/Zenny/Desktop,no,mono,no,18,no,white,no,no,768,legacy,95,11,/Users/Zenny/Desktop/quickrun.csv,legacy,2 5 1 4,Kafkaesque Koffka,3.2.8,0,n,0,right,right,right,right,NA,615,89542,9745,615,NA,2,legacy,4,1024,2,48000,-16,experiment,999,odd,6,787201,783757,784907,2469,181183,784938,611437,2591,171437,789277,789894,785969,92143,789277,NA,SternbergTask,107,93983,108,yes,1024
99.08256881,99.08256881,869.0091743,869.0091743,black,experiment,legacy,legacy,legacy,0,uniform,1,undefined,1,right,108,108,108,0,0,108,108,0,0,108,108,108,0,108,0,Fri Oct 25 12:27:57 2019,The main experiment item,yes,SternbergTask.osexp,/Users/Zenny/Desktop,no,mono,no,18,no,white,no,no,768,legacy,96,11,/Users/Zenny/Desktop/quickrun.csv,legacy,7 1 5 6 3,Kafkaesque Koffka,3.2.8,0,n,0,right,right,right,right,NA,739,89542,9745,739,NA,2,legacy,5,1024,2,48000,-16,experiment,999,odd,8,793331,789927,791035,2469,181183,791066,611437,2591,171437,795362,796104,792097,92143,795362,NA,SternbergTask,108,94722,109,yes,1024
99.09090909,99.09090909,867.7545455,867.7545455,black,experiment,legacy,legacy,legacy,0,uniform,1,undefined,1,right,109,109,109,0,0,109,109,0,0,109,109,109,0,109,0,Fri Oct 25 12:27:57 2019,The main experiment item,yes,SternbergTask.osexp,/Users/Zenny/Desktop,no,mono,no,18,no,white,no,no,768,legacy,97,11,/Users/Zenny/Desktop/quickrun.csv,legacy,7 1 8 4 9 3,Kafkaesque Koffka,3.2.8,0,n,0,right,right,right,right,NA,731,89542,9745,731,NA,2,legacy,6,1024,2,48000,-16,experiment,999,odd,6,799585,796139,797288,2469,181183,797320,611437,2591,171437,801617,802352,798352,92143,801617,NA,SternbergTask,109,95453,110,yes,1024
99.0990991,99.0990991,866.8198198,866.8198198,black,experiment,legacy,legacy,legacy,0,uniform,1,undefined,1,right,110,110,110,0,0,110,110,0,0,110,110,110,0,110,0,Fri Oct 25 12:27:57 2019,The main experiment item,yes,SternbergTask.osexp,/Users/Zenny/Desktop,no,mono,no,18,no,white,no,no,768,legacy,98,11,/Users/Zenny/Desktop/quickrun.csv,legacy,2 8 9,Kafkaesque Koffka,3.2.8,0,n,0,right,right,right,right,NA,764,89542,9745,764,NA,2,legacy,3,1024,2,48000,-16,experiment,999,odd,6,805795,802388,803496,2469,181183,803528,611437,2591,171437,807827,808594,804559,92143,807826,NA,SternbergTask,110,96217,111,yes,1024
99.10714286,99.10714286,865.6696429,865.6696429,black,experiment,legacy,legacy,legacy,0,uniform,1,undefined,1,right,111,111,111,0,0,111,111,0,0,111,111,111,0,111,0,Fri Oct 25 12:27:57 2019,The main experiment item,yes,SternbergTask.osexp,/Users/Zenny/Desktop,no,mono,no,18,no,white,no,no,768,legacy,99,11,/Users/Zenny/Desktop/quickrun.csv,legacy,9 8 2 7 4,Kafkaesque Koffka,3.2.8,0,n,0,right,right,right,right,NA,738,89542,9745,738,NA,2,legacy,5,1024,2,48000,-16,experiment,999,odd,5,812076,808631,809781,2469,181183,809813,611437,2591,171437,814107,814847,810844,92143,814107,NA,SternbergTask,111,96955,112,yes,1024
99.11504425,99.11504425,863.7876106,863.7876106,black,experiment,legacy,legacy,legacy,0,uniform,1,undefined,1,right,112,112,112,0,0,112,112,0,0,112,112,112,0,112,0,Fri Oct 25 12:27:57 2019,The main experiment item,yes,SternbergTask.osexp,/Users/Zenny/Desktop,no,mono,no,18,no,white,no,no,768,legacy,100,11,/Users/Zenny/Desktop/quickrun.csv,legacy,9 5 3 2 8 6,Kafkaesque Koffka,3.2.8,0,n,0,right,right,right,right,NA,653,89542,9745,653,NA,2,legacy,6,1024,2,48000,-16,experiment,999,odd,7,818288,814880,815990,2469,181183,816019,611437,2591,171437,820319,820974,817051,92143,820319,NA,SternbergTask,112,97608,113,yes,1024
99.12280702,99.12280702,862.2631579,862.2631579,black,experiment,legacy,legacy,legacy,0,uniform,1,undefined,1,right,113,113,113,0,0,113,113,0,0,113,113,113,0,113,0,Fri Oct 25 12:27:57 2019,The main experiment item,yes,SternbergTask.osexp,/Users/Zenny/Desktop,no,mono,no,18,no,white,no,no,768,legacy,101,11,/Users/Zenny/Desktop/quickrun.csv,legacy,7 8 6 1,Kafkaesque Koffka,3.2.8,0,n,0,right,right,right,right,NA,690,89542,9745,690,NA,2,legacy,4,1024,2,48000,-16,experiment,999,odd,3,824449,821008,822152,2469,181183,822184,611437,2591,171437,826480,827172,823217,92143,826480,NA,SternbergTask,113,98298,114,yes,1024
99.13043478,99.13043478,862.826087,862.826087,black,experiment,legacy,legacy,legacy,0,uniform,1,undefined,1,left,114,114,114,0,0,114,114,0,0,114,114,114,0,114,0,Fri Oct 25 12:27:57 2019,The main experiment item,yes,SternbergTask.osexp,/Users/Zenny/Desktop,no,mono,no,18,no,white,no,no,768,legacy,102,11,/Users/Zenny/Desktop/quickrun.csv,legacy,8 9 6 1,Kafkaesque Koffka,3.2.8,2,y,0,left,right,right,left,NA,927,89542,9745,927,NA,2,legacy,4,1024,2,48000,-16,experiment,999,odd,9,830615,827206,828319,2469,181183,828350,611437,2591,171437,832646,833576,829382,92143,832646,NA,SternbergTask,114,99225,115,yes,1024
99.13793103,99.13793103,861.9568966,861.9568966,black,experiment,legacy,legacy,legacy,0,uniform,1,undefined,1,right,115,115,115,0,0,115,115,0,0,115,115,115,0,115,0,Fri Oct 25 12:27:57 2019,The main experiment item,yes,SternbergTask.osexp,/Users/Zenny/Desktop,no,mono,no,18,no,white,no,no,768,legacy,103,11,/Users/Zenny/Desktop/quickrun.csv,legacy,1 3 2 6 9,Kafkaesque Koffka,3.2.8,0,n,0,right,right,right,right,NA,762,89542,9745,762,NA,2,legacy,5,1024,2,48000,-16,experiment,999,odd,5,837056,833614,834762,2469,181183,834793,611437,2591,171437,839087,839852,835824,92143,839087,NA,SternbergTask,115,99987,116,yes,1024
99.14529915,99.14529915,859.7179487,859.7179487,black,experiment,legacy,legacy,legacy,0,uniform,1,undefined,1,left,116,116,116,0,0,116,116,0,0,116,116,116,0,116,0,Fri Oct 25 12:27:57 2019,The main experiment item,yes,SternbergTask.osexp,/Users/Zenny/Desktop,no,mono,no,18,no,white,no,no,768,legacy,104,11,/Users/Zenny/Desktop/quickrun.csv,legacy,5 2 9 6 1 7,Kafkaesque Koffka,3.2.8,3,y,0,left,right,right,left,NA,600,89542,9745,600,NA,2,legacy,6,1024,2,48000,-16,experiment,999,odd,9,843292,839886,840995,2469,181183,841025,611437,2591,171437,845323,845925,842057,92143,845323,NA,SternbergTask,116,100587,117,yes,1024
99.15254237,99.15254237,860.4576271,860.4576271,black,experiment,legacy,legacy,legacy,0,uniform,1,undefined,1,right,117,117,117,0,0,117,117,0,0,117,117,117,0,117,0,Fri Oct 25 12:27:57 2019,The main experiment item,yes,SternbergTask.osexp,/Users/Zenny/Desktop,no,mono,no,18,no,white,no,no,768,legacy,105,11,/Users/Zenny/Desktop/quickrun.csv,legacy,6 7 5 9,Kafkaesque Koffka,3.2.8,0,n,0,right,right,right,right,NA,947,89542,9745,947,NA,2,legacy,4,1024,2,48000,-16,experiment,999,odd,2,849405,845960,847107,2469,181183,847139,611437,2591,171437,851436,852387,848171,92143,851436,NA,SternbergTask,117,101534,118,yes,1024
99.15966387,99.15966387,858.6470588,858.6470588,black,experiment,legacy,legacy,legacy,0,uniform,1,undefined,1,left,118,118,118,0,0,118,118,0,0,118,118,118,0,118,0,Fri Oct 25 12:27:57 2019,The main experiment item,yes,SternbergTask.osexp,/Users/Zenny/Desktop,no,mono,no,18,no,white,no,no,768,legacy,106,11,/Users/Zenny/Desktop/quickrun.csv,legacy,4 1 5,Kafkaesque Koffka,3.2.8,2,y,0,left,right,right,left,NA,645,89542,9745,645,NA,2,legacy,3,1024,2,48000,-16,experiment,999,odd,1,855876,852425,853581,2469,181183,853612,611437,2591,171437,857907,858555,854643,92143,857907,NA,SternbergTask,118,102179,119,yes,1024
99.16666667,99.16666667,856.9916667,856.9916667,black,experiment,legacy,legacy,legacy,0,uniform,1,undefined,1,left,119,119,119,0,0,119,119,0,0,119,119,119,0,119,0,Fri Oct 25 12:27:57 2019,The main experiment item,yes,SternbergTask.osexp,/Users/Zenny/Desktop,no,mono,no,18,no,white,no,no,768,legacy,107,11,/Users/Zenny/Desktop/quickrun.csv,legacy,9 5 3 8 4,Kafkaesque Koffka,3.2.8,1,y,0,left,right,right,left,NA,660,89542,9745,660,NA,2,legacy,5,1024,2,48000,-16,experiment,999,odd,9,861993,858589,859697,2469,181183,859728,611437,2591,171437,864023,864685,860760,92143,864023,NA,SternbergTask,119,102839,120,yes,1024
99.17355372,99.17355372,854.4297521,854.4297521,black,experiment,legacy,legacy,legacy,0,uniform,1,undefined,1,left,120,120,120,0,0,120,120,0,0,120,120,120,0,120,0,Fri Oct 25 12:27:57 2019,The main experiment item,yes,SternbergTask.osexp,/Users/Zenny/Desktop,no,mono,no,18,no,white,no,no,768,legacy,108,11,/Users/Zenny/Desktop/quickrun.csv,legacy,7,Kafkaesque Koffka,3.2.8,1,y,0,left,right,right,left,NA,547,89542,9745,547,NA,2,legacy,1,1024,2,48000,-16,experiment,999,odd,7,868153,864721,865860,2469,181183,865891,611437,2591,171437,870184,870734,866922,92143,870184,NA,SternbergTask,120,103386,121,yes,1024
99.18032787,99.18032787,852.4672131,852.4672131,black,experiment,legacy,legacy,legacy,0,uniform,1,undefined,1,left,121,121,121,0,0,121,121,0,0,121,121,121,0,121,0,Fri Oct 25 12:27:57 2019,The main experiment item,yes,SternbergTask.osexp,/Users/Zenny/Desktop,no,mono,no,18,no,white,no,no,768,legacy,109,11,/Users/Zenny/Desktop/quickrun.csv,legacy,3 5 7 1,Kafkaesque Koffka,3.2.8,3,y,0,left,right,right,left,NA,615,89542,9745,615,NA,2,legacy,4,1024,2,48000,-16,experiment,999,odd,7,874174,870770,871880,2469,181183,871911,611437,2591,171437,876205,876823,872942,92143,876205,NA,SternbergTask,121,104001,122,yes,1024
99.18699187,99.18699187,853.4552846,853.4552846,black,experiment,legacy,legacy,legacy,0,uniform,1,undefined,1,right,122,122,122,0,0,122,122,0,0,122,122,122,0,122,0,Fri Oct 25 12:27:57 2019,The main experiment item,yes,SternbergTask.osexp,/Users/Zenny/Desktop,no,mono,no,18,no,white,no,no,768,legacy,110,11,/Users/Zenny/Desktop/quickrun.csv,legacy,3 9 8 1 6 4,Kafkaesque Koffka,3.2.8,0,n,0,right,right,right,right,NA,974,89542,9745,974,NA,2,legacy,6,1024,2,48000,-16,experiment,999,odd,7,880307,876862,878012,2469,181183,878044,611437,2591,171437,882339,883317,879075,92143,882339,NA,SternbergTask,122,104975,123,yes,1024
99.19354839,99.19354839,853.2177419,853.2177419,black,experiment,legacy,legacy,legacy,0,uniform,1,undefined,1,right,123,123,123,0,0,123,123,0,0,123,123,123,0,123,0,Fri Oct 25 12:27:57 2019,The main experiment item,yes,SternbergTask.osexp,/Users/Zenny/Desktop,no,mono,no,18,no,white,no,no,768,legacy,111,11,/Users/Zenny/Desktop/quickrun.csv,legacy,1 7 5 2,Kafkaesque Koffka,3.2.8,0,n,0,right,right,right,right,NA,824,89542,9745,824,NA,2,legacy,4,1024,2,48000,-16,experiment,999,odd,3,886775,883351,884479,2469,181183,884511,611437,2591,171437,888806,889633,885542,92143,888806,NA,SternbergTask,123,105799,124,yes,1024
99.2,99.2,851.768,851.768,black,experiment,legacy,legacy,legacy,0,uniform,1,undefined,1,left,124,124,124,0,0,124,124,0,0,124,124,124,0,124,0,Fri Oct 25 12:27:57 2019,The main experiment item,yes,SternbergTask.osexp,/Users/Zenny/Desktop,no,mono,no,18,no,white,no,no,768,legacy,112,11,/Users/Zenny/Desktop/quickrun.csv,legacy,5 2 6,Kafkaesque Koffka,3.2.8,2,y,0,left,right,right,left,NA,672,89542,9745,672,NA,2,legacy,3,1024,2,48000,-16,experiment,999,odd,2,893069,889669,890777,2469,181183,890808,611437,2591,171437,895102,895777,891839,92143,895102,NA,SternbergTask,124,106471,125,yes,1024
99.20634921,99.20634921,852.8809524,852.8809524,black,experiment,legacy,legacy,legacy,0,uniform,1,undefined,1,right,125,125,125,0,0,125,125,0,0,125,125,125,0,125,0,Fri Oct 25 12:27:57 2019,The main experiment item,yes,SternbergTask.osexp,/Users/Zenny/Desktop,no,mono,no,18,no,white,no,no,768,legacy,113,11,/Users/Zenny/Desktop/quickrun.csv,legacy,2 8 6 3 1,Kafkaesque Koffka,3.2.8,0,n,0,right,right,right,right,NA,992,89542,9745,992,NA,2,legacy,5,1024,2,48000,-16,experiment,999,odd,7,899273,895815,896969,2469,181183,897000,611437,2591,171437,901304,902299,898029,92143,901304,NA,SternbergTask,125,107463,126,yes,1024
99.21259843,99.21259843,852.1259843,852.1259843,black,experiment,legacy,legacy,legacy,0,uniform,1,undefined,1,left,126,126,126,0,0,126,126,0,0,126,126,126,0,126,0,Fri Oct 25 12:27:57 2019,The main experiment item,yes,SternbergTask.osexp,/Users/Zenny/Desktop,no,mono,no,18,no,white,no,no,768,legacy,114,11,/Users/Zenny/Desktop/quickrun.csv,legacy,9 5 8 1,Kafkaesque Koffka,3.2.8,2,y,0,left,right,right,left,NA,757,89542,9745,757,NA,2,legacy,4,1024,2,48000,-16,experiment,999,odd,5,905791,902341,903493,2469,181183,903525,611437,2591,171437,907828,908588,904558,92143,907828,NA,SternbergTask,126,108220,127,yes,1024
99.21875,99.21875,850.765625,850.765625,black,experiment,legacy,legacy,legacy,0,uniform,1,undefined,1,right,127,127,127,0,0,127,127,0,0,127,127,127,0,127,0,Fri Oct 25 12:27:57 2019,The main experiment item,yes,SternbergTask.osexp,/Users/Zenny/Desktop,no,mono,no,18,no,white,no,no,768,legacy,115,11,/Users/Zenny/Desktop/quickrun.csv,legacy,7 9 1 6,Kafkaesque Koffka,3.2.8,0,n,0,right,right,right,right,NA,678,89542,9745,678,NA,2,legacy,4,1024,2,48000,-16,experiment,999,odd,4,912029,908622,909732,2469,181183,909763,611437,2591,171437,914061,914742,910794,92143,914061,NA,SternbergTask,127,108898,128,yes,1024
99.2248062,99.2248062,848.6124031,848.6124031,black,experiment,legacy,legacy,legacy,0,uniform,1,undefined,1,left,128,128,128,0,0,128,128,0,0,128,128,128,0,128,0,Fri Oct 25 12:27:57 2019,The main experiment item,yes,SternbergTask.osexp,/Users/Zenny/Desktop,no,mono,no,18,no,white,no,no,768,legacy,116,11,/Users/Zenny/Desktop/quickrun.csv,legacy,9 8 4,Kafkaesque Koffka,3.2.8,1,y,0,left,right,right,left,NA,573,89542,9745,573,NA,2,legacy,3,1024,2,48000,-16,experiment,999,odd,9,918269,914777,915924,2469,181183,915955,611437,2591,171437,920300,920875,916987,92143,920300,NA,SternbergTask,128,109471,129,yes,1024
99.23076923,99.23076923,848.8,848.8,black,experiment,legacy,legacy,legacy,0,uniform,1,undefined,1,left,129,129,129,0,0,129,129,0,0,129,129,129,0,129,0,Fri Oct 25 12:27:57 2019,The main experiment item,yes,SternbergTask.osexp,/Users/Zenny/Desktop,no,mono,no,18,no,white,no,no,768,legacy,117,11,/Users/Zenny/Desktop/quickrun.csv,legacy,5 7 3 6 2,Kafkaesque Koffka,3.2.8,5,y,0,left,right,right,left,NA,873,89542,9745,873,NA,2,legacy,5,1024,2,48000,-16,experiment,999,odd,2,924316,920909,922019,2469,181183,922051,611437,2591,171437,926348,927226,923082,92143,926348,NA,SternbergTask,129,110344,130,yes,1024
99.23664122,99.23664122,848.8320611,848.8320611,black,experiment,legacy,legacy,legacy,0,uniform,1,undefined,1,right,130,130,130,0,0,130,130,0,0,130,130,130,0,130,0,Fri Oct 25 12:27:57 2019,The main experiment item,yes,SternbergTask.osexp,/Users/Zenny/Desktop,no,mono,no,18,no,white,no,no,768,legacy,118,11,/Users/Zenny/Desktop/quickrun.csv,legacy,2 8 7 9 5 3,Kafkaesque Koffka,3.2.8,0,n,0,right,right,right,right,NA,853,89542,9745,853,NA,2,legacy,6,1024,2,48000,-16,experiment,999,odd,6,930709,927263,928413,2469,181183,928445,611437,2591,171437,932740,933596,929477,92143,932740,NA,SternbergTask,130,111197,131,yes,1024
99.24242424,99.24242424,847.1969697,847.1969697,black,experiment,legacy,legacy,legacy,0,uniform,1,undefined,1,left,131,131,131,0,0,131,131,0,0,131,131,131,0,131,0,Fri Oct 25 12:27:57 2019,The main experiment item,yes,SternbergTask.osexp,/Users/Zenny/Desktop,no,mono,no,18,no,white,no,no,768,legacy,119,11,/Users/Zenny/Desktop/quickrun.csv,legacy,3 5 4 7,Kafkaesque Koffka,3.2.8,1,y,0,left,right,right,left,NA,633,89542,9745,633,NA,2,legacy,4,1024,2,48000,-16,experiment,999,odd,3,937032,933630,934739,2469,181183,934770,611437,2591,171437,939070,939706,935802,92143,939070,NA,SternbergTask,131,111830,132,yes,1024
99.2481203,99.2481203,848.3909774,848.3909774,black,experiment,legacy,legacy,legacy,0,uniform,1,undefined,1,left,132,132,132,0,0,132,132,0,0,132,132,132,0,132,0,Fri Oct 25 12:27:57 2019,The main experiment item,yes,SternbergTask.osexp,/Users/Zenny/Desktop,no,mono,no,18,no,white,no,no,768,legacy,120,11,/Users/Zenny/Desktop/quickrun.csv,legacy,8 5 3 7 4 6,Kafkaesque Koffka,3.2.8,6,y,0,left,right,right,left,NA,1006,89542,9745,1006,NA,2,legacy,6,1024,2,48000,-16,experiment,999,odd,6,943184,939741,940888,2469,181183,940920,611437,2591,171437,945271,946285,941951,92143,945271,NA,SternbergTask,132,112836,133,yes,1024
99.25373134,99.25373134,847.1119403,847.1119403,black,experiment,legacy,legacy,legacy,0,uniform,1,undefined,1,left,133,133,133,0,0,133,133,0,0,133,133,133,0,133,0,Fri Oct 25 12:27:57 2019,The main experiment item,yes,SternbergTask.osexp,/Users/Zenny/Desktop,no,mono,no,18,no,white,no,no,768,legacy,121,11,/Users/Zenny/Desktop/quickrun.csv,legacy,6 9 7 4 5 1,Kafkaesque Koffka,3.2.8,2,y,0,left,right,right,left,NA,677,89542,9745,677,NA,2,legacy,6,1024,2,48000,-16,experiment,999,odd,9,949767,946320,947469,2469,181183,947504,611437,2591,171437,951799,952490,948535,92143,951799,NA,SternbergTask,133,113513,134,yes,1024
99.25925926,99.25925926,848.8,848.8,black,experiment,legacy,legacy,legacy,0,uniform,1,undefined,1,right,134,134,134,0,0,134,134,0,0,134,134,134,0,134,0,Fri Oct 25 12:27:57 2019,The main experiment item,yes,SternbergTask.osexp,/Users/Zenny/Desktop,no,mono,no,18,no,white,no,no,768,legacy,122,11,/Users/Zenny/Desktop/quickrun.csv,legacy,7 4 2 8 1 9,Kafkaesque Koffka,3.2.8,0,n,0,right,right,right,right,NA,1075,89542,9745,1075,NA,2,legacy,6,1024,2,48000,-16,experiment,999,odd,5,955930,952525,953635,2469,181183,953666,611437,2591,171437,957961,959039,954697,92143,957961,NA,SternbergTask,134,114588,135,yes,1024
99.26470588,99.26470588,847,847,black,experiment,legacy,legacy,legacy,0,uniform,1,undefined,1,left,135,135,135,0,0,135,135,0,0,135,135,135,0,135,0,Fri Oct 25 12:27:57 2019,The main experiment item,yes,SternbergTask.osexp,/Users/Zenny/Desktop,no,mono,no,18,no,white,no,no,768,legacy,123,11,/Users/Zenny/Desktop/quickrun.csv,legacy,9 4 2,Kafkaesque Koffka,3.2.8,1,y,0,left,right,right,left,NA,604,89542,9745,604,NA,2,legacy,3,1024,2,48000,-16,experiment,999,odd,9,962551,959074,960223,2469,181183,960283,611437,2591,171437,964582,965189,961316,92143,964582,NA,SternbergTask,135,115192,136,yes,1024
99.27007299,99.27007299,844.8759124,844.8759124,black,experiment,legacy,legacy,legacy,0,uniform,1,undefined,1,left,136,136,136,0,0,136,136,0,0,136,136,136,0,136,0,Fri Oct 25 12:27:57 2019,The main experiment item,yes,SternbergTask.osexp,/Users/Zenny/Desktop,no,mono,no,18,no,white,no,no,768,legacy,124,11,/Users/Zenny/Desktop/quickrun.csv,legacy,7 1 3,Kafkaesque Koffka,3.2.8,2,y,0,left,right,right,left,NA,556,89542,9745,556,NA,2,legacy,3,1024,2,48000,-16,experiment,999,odd,1,968682,965277,966387,2469,181183,966418,611437,2591,171437,970713,971274,967449,92143,970713,NA,SternbergTask,136,115748,137,yes,1024
99.27536232,99.27536232,843.4492754,843.4492754,black,experiment,legacy,legacy,legacy,0,uniform,1,undefined,1,right,137,137,137,0,0,137,137,0,0,137,137,137,0,137,0,Fri Oct 25 12:27:57 2019,The main experiment item,yes,SternbergTask.osexp,/Users/Zenny/Desktop,no,mono,no,18,no,white,no,no,768,legacy,125,11,/Users/Zenny/Desktop/quickrun.csv,legacy,3 4 2,Kafkaesque Koffka,3.2.8,0,n,0,right,right,right,right,NA,648,89542,9745,648,NA,2,legacy,3,1024,2,48000,-16,experiment,999,odd,5,974763,971313,972464,2469,181183,972497,611437,2591,171437,976794,977445,973528,92143,976794,NA,SternbergTask,137,116396,138,yes,1024