acc,accuracy,average_response_time,avg_rt,background,block,canvas_backend,clock_backend,color_backend,compensation,coordinates,correct,correct_Instruction1,correct_keyboard_response,correct_response,count_ISI,count_Instruction1,count_Instructions2,count_correctFeedback,count_expSequence,count_experiment,count_experimentLoop,count_fixation,count_incorrectFeedback,count_keyboard_response,count_logger,count_memorySet,count_practiceloop,count_probe,count_thankYou,datetime,description,disable_garbage_collection,experiment_file,experiment_path,font_bold,font_family,font_italic,font_size,font_underline,foreground,form_clicks,fullscreen,height,keyboard_backend,live_row,live_row_practiceloop,logfile,mouse_backend,numberSet,opensesame_codename,opensesame_version,posInSet,present,repeat_cycle,response,response_Instruction1,response_Instructions2,response_keyboard_response,response_thankYou,response_time,response_time_Instruction1,response_time_Instructions2,response_time_keyboard_response,response_time_thankYou,round_decimals,sampler_backend,setSize,sound_buf_size,sound_channels,sound_freq,sound_sample_size,start,subject_nr,subject_parity,target,time_ISI,time_Instruction1,time_Instructions2,time_correctFeedback,time_expSequence,time_experiment,time_experimentLoop,time_fixation,time_incorrectFeedback,time_keyboard_response,time_logger,time_memorySet,time_practiceloop,time_probe,time_thankYou,title,total_correct,total_response_time,total_responses,uniform_coordinates,width
100,100,740,740,black,practice,legacy,legacy,legacy,0,uniform,1,undefined,1,right,0,0,0,0,0,0,0,0,0,0,0,0,0,0,0,Sun Oct 27 20:57:33 2019,The main experiment item,yes,SternnbergTask.osexp,/Users/kaylicolpitts/Desktop/adv quant/lab 3,no,mono,no,18,no,white,no,yes,768,legacy,0,0,/Users/kaylicolpitts/Desktop/adv quant/lab 3/KC-subject-4.csv,legacy,2 1,Kafkaesque Koffka,3.2.8,0,n,0,right,left,NA,right,NA,740,40462,NA,740,NA,2,legacy,2,1024,2,48000,-16,experiment,4,even,5,46622,3512,NA,NA,44383,3486,NA,44396,NA,48634,49375,45408,43988,48634,NA,Sternberg Task,1,740,1,yes,1024
100,100,803,803,black,practice,legacy,legacy,legacy,0,uniform,1,undefined,1,right,1,0,0,1,1,0,0,1,1,1,1,1,0,1,0,Sun Oct 27 20:57:33 2019,The main experiment item,yes,SternnbergTask.osexp,/Users/kaylicolpitts/Desktop/adv quant/lab 3,no,mono,no,18,no,white,no,yes,768,legacy,1,1,/Users/kaylicolpitts/Desktop/adv quant/lab 3/KC-subject-4.csv,legacy,4 1 5,Kafkaesque Koffka,3.2.8,0,n,0,right,left,NA,right,NA,866,40462,NA,866,NA,2,legacy,3,1024,2,48000,-16,experiment,4,even,2,52813,3512,NA,49446,50574,3486,NA,50586,NA,54825,55692,51599,43988,54825,NA,Sternberg Task,2,1606,2,yes,1024
100,100,693,693,black,practice,legacy,legacy,legacy,0,uniform,1,undefined,1,right,2,0,0,2,2,0,0,2,2,2,2,2,0,2,0,Sun Oct 27 20:57:33 2019,The main experiment item,yes,SternnbergTask.osexp,/Users/kaylicolpitts/Desktop/adv quant/lab 3,no,mono,no,18,no,white,no,yes,768,legacy,2,2,/Users/kaylicolpitts/Desktop/adv quant/lab 3/KC-subject-4.csv,legacy,5,Kafkaesque Koffka,3.2.8,0,n,0,right,left,NA,right,NA,473,40462,NA,473,NA,2,legacy,1,1024,2,48000,-16,experiment,4,even,3,59053,3512,NA,55707,56814,3486,NA,56827,NA,61065,61540,57840,43988,61065,NA,Sternberg Task,3,2079,3,yes,1024
100,100,676.75,676.75,black,practice,legacy,legacy,legacy,0,uniform,1,undefined,1,left,3,0,0,3,3,0,0,3,3,3,3,3,0,3,0,Sun Oct 27 20:57:33 2019,The main experiment item,yes,SternnbergTask.osexp,/Users/kaylicolpitts/Desktop/adv quant/lab 3,no,mono,no,18,no,white,no,yes,768,legacy,3,3,/Users/kaylicolpitts/Desktop/adv quant/lab 3/KC-subject-4.csv,legacy,6,Kafkaesque Koffka,3.2.8,1,y,0,left,left,NA,left,NA,628,40462,NA,628,NA,2,legacy,1,1024,2,48000,-16,experiment,4,even,6,64911,3512,NA,61567,62672,3486,NA,62684,NA,66923,67553,63697,43988,66923,NA,Sternberg Task,4,2707,4,yes,1024
80,80,728.8,728.8,black,practice,legacy,legacy,legacy,0,uniform,0,undefined,0,left,4,0,0,4,4,0,0,4,4,4,4,4,0,4,0,Sun Oct 27 20:57:33 2019,The main experiment item,yes,SternnbergTask.osexp,/Users/kaylicolpitts/Desktop/adv quant/lab 3,no,mono,no,18,no,white,no,yes,768,legacy,4,4,/Users/kaylicolpitts/Desktop/adv quant/lab 3/KC-subject-4.csv,legacy,2 9 4,Kafkaesque Koffka,3.2.8,3,y,0,right,left,NA,right,NA,937,40462,NA,937,NA,2,legacy,3,1024,2,48000,-16,experiment,4,even,4,70913,3512,NA,67567,68674,3486,NA,68686,NA,72925,73863,69699,43988,72925,NA,Sternberg Task,4,3644,5,yes,1024
83.33333333,83.33333333,818.1666667,818.1666667,black,practice,legacy,legacy,legacy,0,uniform,1,undefined,1,right,5,0,0,5,5,0,0,5,5,5,5,5,0,5,0,Sun Oct 27 20:57:33 2019,The main experiment item,yes,SternnbergTask.osexp,/Users/kaylicolpitts/Desktop/adv quant/lab 3,no,mono,no,18,no,white,no,yes,768,legacy,5,5,/Users/kaylicolpitts/Desktop/adv quant/lab 3/KC-subject-4.csv,legacy,9 6 7 4 5,Kafkaesque Koffka,3.2.8,0,n,0,right,left,NA,right,NA,1265,40462,NA,1265,NA,2,legacy,5,1024,2,48000,-16,experiment,4,even,3,77222,3512,NA,67567,74984,3486,NA,74997,73877,79235,80501,76008,43988,79235,NA,Sternberg Task,5,4909,6,yes,1024
85.71428571,85.71428571,813.1428571,813.1428571,black,practice,legacy,legacy,legacy,0,uniform,1,undefined,1,right,6,0,0,6,6,0,0,6,6,6,6,6,0,6,0,Sun Oct 27 20:57:33 2019,The main experiment item,yes,SternnbergTask.osexp,/Users/kaylicolpitts/Desktop/adv quant/lab 3,no,mono,no,18,no,white,no,yes,768,legacy,6,6,/Users/kaylicolpitts/Desktop/adv quant/lab 3/KC-subject-4.csv,legacy,5 7 8 4 1 2,Kafkaesque Koffka,3.2.8,0,n,0,right,left,NA,right,NA,783,40462,NA,783,NA,2,legacy,6,1024,2,48000,-16,experiment,4,even,6,83863,3512,NA,80515,81624,3486,NA,81636,73877,85875,86659,82649,43988,85875,NA,Sternberg Task,6,5692,7,yes,1024
87.5,87.5,797.875,797.875,black,practice,legacy,legacy,legacy,0,uniform,1,undefined,1,left,7,0,0,7,7,0,0,7,7,7,7,7,0,7,0,Sun Oct 27 20:57:33 2019,The main experiment item,yes,SternnbergTask.osexp,/Users/kaylicolpitts/Desktop/adv quant/lab 3,no,mono,no,18,no,white,no,yes,768,legacy,7,7,/Users/kaylicolpitts/Desktop/adv quant/lab 3/KC-subject-4.csv,legacy,4 3 1 7 9 8,Kafkaesque Koffka,3.2.8,1,y,0,left,left,NA,left,NA,691,40462,NA,691,NA,2,legacy,6,1024,2,48000,-16,experiment,4,even,4,90020,3512,NA,86674,87782,3486,NA,87794,73877,92033,92725,88806,43988,92033,NA,Sternberg Task,7,6383,8,yes,1024
88.88888889,88.88888889,804.1111111,804.1111111,black,practice,legacy,legacy,legacy,0,uniform,1,undefined,1,left,8,0,0,8,8,0,0,8,8,8,8,8,0,8,0,Sun Oct 27 20:57:33 2019,The main experiment item,yes,SternnbergTask.osexp,/Users/kaylicolpitts/Desktop/adv quant/lab 3,no,mono,no,18,no,white,no,yes,768,legacy,8,8,/Users/kaylicolpitts/Desktop/adv quant/lab 3/KC-subject-4.csv,legacy,1 5 2 9,Kafkaesque Koffka,3.2.8,2,y,0,left,left,NA,left,NA,854,40462,NA,854,NA,2,legacy,4,1024,2,48000,-16,experiment,4,even,5,96087,3512,NA,92740,93849,3486,NA,93861,73877,98099,98955,94873,43988,98099,NA,Sternberg Task,8,7237,9,yes,1024
90,90,803.3,803.3,black,practice,legacy,legacy,legacy,0,uniform,1,undefined,1,left,9,0,0,9,9,0,0,9,9,9,9,9,0,9,0,Sun Oct 27 20:57:33 2019,The main experiment item,yes,SternnbergTask.osexp,/Users/kaylicolpitts/Desktop/adv quant/lab 3,no,mono,no,18,no,white,no,yes,768,legacy,9,9,/Users/kaylicolpitts/Desktop/adv quant/lab 3/KC-subject-4.csv,legacy,4 8,Kafkaesque Koffka,3.2.8,1,y,0,left,left,NA,left,NA,796,40462,NA,796,NA,2,legacy,2,1024,2,48000,-16,experiment,4,even,4,102313,3512,NA,98969,100074,3486,NA,100086,73877,104326,105123,101098,43988,104325,NA,Sternberg Task,9,8033,10,yes,1024
90.90909091,90.90909091,792.7272727,792.7272727,black,practice,legacy,legacy,legacy,0,uniform,1,undefined,1,right,10,0,0,10,10,0,0,10,10,10,10,10,0,10,0,Sun Oct 27 20:57:33 2019,The main experiment item,yes,SternnbergTask.osexp,/Users/kaylicolpitts/Desktop/adv quant/lab 3,no,mono,no,18,no,white,no,yes,768,legacy,10,10,/Users/kaylicolpitts/Desktop/adv quant/lab 3/KC-subject-4.csv,legacy,3 1 9 4,Kafkaesque Koffka,3.2.8,0,n,0,right,left,NA,right,NA,687,40462,NA,687,NA,2,legacy,4,1024,2,48000,-16,experiment,4,even,6,108484,3512,NA,105138,106244,3486,NA,106257,73877,110496,111184,107270,43988,110496,NA,Sternberg Task,10,8720,11,yes,1024
91.66666667,91.66666667,792.8333333,792.8333333,black,practice,legacy,legacy,legacy,0,uniform,1,undefined,1,left,11,0,0,11,11,0,0,11,11,11,11,11,0,11,0,Sun Oct 27 20:57:33 2019,The main experiment item,yes,SternnbergTask.osexp,/Users/kaylicolpitts/Desktop/adv quant/lab 3,no,mono,no,18,no,white,no,yes,768,legacy,11,11,/Users/kaylicolpitts/Desktop/adv quant/lab 3/KC-subject-4.csv,legacy,1 7 9 8 5,Kafkaesque Koffka,3.2.8,4,y,0,left,left,NA,left,NA,794,40462,NA,794,NA,2,legacy,5,1024,2,48000,-16,experiment,4,even,8,114545,3512,NA,111198,112307,3486,NA,112318,73877,116557,117353,113331,43988,116557,NA,Sternberg Task,11,9514,12,yes,1024
84.61538462,84.61538462,807.7692308,807.7692308,black,experiment,legacy,legacy,legacy,0,uniform,0,undefined,0,left,12,0,0,12,12,0,0,12,12,12,12,12,0,12,0,Sun Oct 27 20:57:33 2019,The main experiment item,yes,SternnbergTask.osexp,/Users/kaylicolpitts/Desktop/adv quant/lab 3,no,mono,no,18,no,white,no,yes,768,legacy,0,11,/Users/kaylicolpitts/Desktop/adv quant/lab 3/KC-subject-4.csv,legacy,7 8 4 6 9 5,Kafkaesque Koffka,3.2.8,4,y,0,right,left,right,right,NA,987,40462,4185,987,NA,2,legacy,6,1024,2,48000,-16,experiment,4,even,6,124954,3512,118402,117366,122715,3486,122589,122727,73877,126966,127954,123739,43988,126966,NA,Sternberg Task,11,10501,13,yes,1024
85.71428571,85.71428571,805.0714286,805.0714286,black,experiment,legacy,legacy,legacy,0,uniform,1,undefined,1,left,13,0,0,13,13,0,0,13,13,13,13,13,0,13,0,Sun Oct 27 20:57:33 2019,The main experiment item,yes,SternnbergTask.osexp,/Users/kaylicolpitts/Desktop/adv quant/lab 3,no,mono,no,18,no,white,no,yes,768,legacy,1,11,/Users/kaylicolpitts/Desktop/adv quant/lab 3/KC-subject-4.csv,legacy,7 2 3,Kafkaesque Koffka,3.2.8,3,y,0,left,left,right,left,NA,770,40462,4185,770,NA,2,legacy,3,1024,2,48000,-16,experiment,4,even,3,131313,3512,118402,117366,129074,3486,122589,129086,127968,133325,134096,130098,43988,133325,NA,Sternberg Task,12,11271,14,yes,1024
80,80,815.7333333,815.7333333,black,experiment,legacy,legacy,legacy,0,uniform,0,undefined,0,left,14,0,0,14,14,0,0,14,14,14,14,14,0,14,0,Sun Oct 27 20:57:33 2019,The main experiment item,yes,SternnbergTask.osexp,/Users/kaylicolpitts/Desktop/adv quant/lab 3,no,mono,no,18,no,white,no,yes,768,legacy,2,11,/Users/kaylicolpitts/Desktop/adv quant/lab 3/KC-subject-4.csv,legacy,6 1 2,Kafkaesque Koffka,3.2.8,3,y,0,right,left,right,right,NA,965,40462,4185,965,NA,2,legacy,3,1024,2,48000,-16,experiment,4,even,2,137459,3512,118402,134111,135220,3486,122589,135232,127968,139472,140438,136244,43988,139471,NA,Sternberg Task,12,12236,15,yes,1024
81.25,81.25,817.9375,817.9375,black,experiment,legacy,legacy,legacy,0,uniform,1,undefined,1,right,15,0,0,15,15,0,0,15,15,15,15,15,0,15,0,Sun Oct 27 20:57:33 2019,The main experiment item,yes,SternnbergTask.osexp,/Users/kaylicolpitts/Desktop/adv quant/lab 3,no,mono,no,18,no,white,no,yes,768,legacy,3,11,/Users/kaylicolpitts/Desktop/adv quant/lab 3/KC-subject-4.csv,legacy,7 8 6 1,Kafkaesque Koffka,3.2.8,0,n,0,right,left,right,right,NA,851,40462,4185,851,NA,2,legacy,4,1024,2,48000,-16,experiment,4,even,3,143797,3512,118402,134111,141559,3486,122589,141571,140452,145810,146663,142583,43988,145810,NA,Sternberg Task,13,13087,16,yes,1024
82.35294118,82.35294118,833.4117647,833.4117647,black,experiment,legacy,legacy,legacy,0,uniform,1,undefined,1,left,16,0,0,16,16,0,0,16,16,16,16,16,0,16,0,Sun Oct 27 20:57:33 2019,The main experiment item,yes,SternnbergTask.osexp,/Users/kaylicolpitts/Desktop/adv quant/lab 3,no,mono,no,18,no,white,no,yes,768,legacy,4,11,/Users/kaylicolpitts/Desktop/adv quant/lab 3/KC-subject-4.csv,legacy,8 9 6 1,Kafkaesque Koffka,3.2.8,2,y,0,left,left,right,left,NA,1081,40462,4185,1081,NA,2,legacy,4,1024,2,48000,-16,experiment,4,even,9,150024,3512,118402,146678,147785,3486,122589,147798,140452,152036,153119,148810,43988,152036,NA,Sternberg Task,14,14168,17,yes,1024
83.33333333,83.33333333,833.3333333,833.3333333,black,experiment,legacy,legacy,legacy,0,uniform,1,undefined,1,right,17,0,0,17,17,0,0,17,17,17,17,17,0,17,0,Sun Oct 27 20:57:33 2019,The main experiment item,yes,SternnbergTask.osexp,/Users/kaylicolpitts/Desktop/adv quant/lab 3,no,mono,no,18,no,white,no,yes,768,legacy,5,11,/Users/kaylicolpitts/Desktop/adv quant/lab 3/KC-subject-4.csv,legacy,1 4 3 6 5,Kafkaesque Koffka,3.2.8,0,n,0,right,left,right,right,NA,832,40462,4185,832,NA,2,legacy,5,1024,2,48000,-16,experiment,4,even,8,156481,3512,118402,153133,154241,3486,122589,154253,140452,158494,159328,155266,43988,158494,NA,Sternberg Task,15,15000,18,yes,1024
78.94736842,78.94736842,894.7368421,894.7368421,black,experiment,legacy,legacy,legacy,0,uniform,0,undefined,0,right,18,0,0,18,18,0,0,18,18,18,18,18,0,18,0,Sun Oct 27 20:57:33 2019,The main experiment item,yes,SternnbergTask.osexp,/Users/kaylicolpitts/Desktop/adv quant/lab 3,no,mono,no,18,no,white,no,yes,768,legacy,6,11,/Users/kaylicolpitts/Desktop/adv quant/lab 3/KC-subject-4.csv,legacy,6 8 4,Kafkaesque Koffka,3.2.8,0,n,0,None,left,right,None,NA,2000,40462,4185,2000,NA,2,legacy,3,1024,2,48000,-16,experiment,4,even,1,162689,3512,118402,159343,160450,3486,122589,160462,140452,164701,166701,161475,43988,164701,NA,Sternberg Task,15,17000,19,yes,1024
80,80,893.05,893.05,black,experiment,legacy,legacy,legacy,0,uniform,1,undefined,1,left,19,0,0,19,19,0,0,19,19,19,19,19,0,19,0,Sun Oct 27 20:57:33 2019,The main experiment item,yes,SternnbergTask.osexp,/Users/kaylicolpitts/Desktop/adv quant/lab 3,no,mono,no,18,no,white,no,yes,768,legacy,7,11,/Users/kaylicolpitts/Desktop/adv quant/lab 3/KC-subject-4.csv,legacy,8 5 4 7 3 1,Kafkaesque Koffka,3.2.8,2,y,0,left,left,right,left,NA,861,40462,4185,861,NA,2,legacy,6,1024,2,48000,-16,experiment,4,even,5,170065,3512,118402,159343,167825,3486,122589,167838,166717,172077,172939,168851,43988,172077,NA,Sternberg Task,16,17861,20,yes,1024
80.95238095,80.95238095,893.0952381,893.0952381,black,experiment,legacy,legacy,legacy,0,uniform,1,undefined,1,left,20,0,0,20,20,0,0,20,20,20,20,20,0,20,0,Sun Oct 27 20:57:33 2019,The main experiment item,yes,SternnbergTask.osexp,/Users/kaylicolpitts/Desktop/adv quant/lab 3,no,mono,no,18,no,white,no,yes,768,legacy,8,11,/Users/kaylicolpitts/Desktop/adv quant/lab 3/KC-subject-4.csv,legacy,8 1 6,Kafkaesque Koffka,3.2.8,3,y,0,left,left,right,left,NA,894,40462,4185,894,NA,2,legacy,3,1024,2,48000,-16,experiment,4,even,6,176302,3512,118402,172954,174061,3486,122589,174073,166717,178315,179211,175087,43988,178314,NA,Sternberg Task,17,18755,21,yes,1024
81.81818182,81.81818182,884,884,black,experiment,legacy,legacy,legacy,0,uniform,1,undefined,1,left,21,0,0,21,21,0,0,21,21,21,21,21,0,21,0,Sun Oct 27 20:57:33 2019,The main experiment item,yes,SternnbergTask.osexp,/Users/kaylicolpitts/Desktop/adv quant/lab 3,no,mono,no,18,no,white,no,yes,768,legacy,9,11,/Users/kaylicolpitts/Desktop/adv quant/lab 3/KC-subject-4.csv,legacy,2 4 8 5 1 3,Kafkaesque Koffka,3.2.8,1,y,0,left,left,right,left,NA,693,40462,4185,693,NA,2,legacy,6,1024,2,48000,-16,experiment,4,even,2,182577,3512,118402,179227,180337,3486,122589,180350,166717,184589,185284,181363,43988,184589,NA,Sternberg Task,18,19448,22,yes,1024
82.60869565,82.60869565,873.173913,873.173913,black,experiment,legacy,legacy,legacy,0,uniform,1,undefined,1,right,22,0,0,22,22,0,0,22,22,22,22,22,0,22,0,Sun Oct 27 20:57:33 2019,The main experiment item,yes,SternnbergTask.osexp,/Users/kaylicolpitts/Desktop/adv quant/lab 3,no,mono,no,18,no,white,no,yes,768,legacy,10,11,/Users/kaylicolpitts/Desktop/adv quant/lab 3/KC-subject-4.csv,legacy,2 8 9,Kafkaesque Koffka,3.2.8,0,n,0,right,left,right,right,NA,635,40462,4185,635,NA,2,legacy,3,1024,2,48000,-16,experiment,4,even,6,188651,3512,118402,185300,186411,3486,122589,186424,166717,190663,191300,187437,43988,190663,NA,Sternberg Task,19,20083,23,yes,1024
83.33333333,83.33333333,885.7916667,885.7916667,black,experiment,legacy,legacy,legacy,0,uniform,1,undefined,1,left,23,0,0,23,23,0,0,23,23,23,23,23,0,23,0,Sun Oct 27 20:57:33 2019,The main experiment item,yes,SternnbergTask.osexp,/Users/kaylicolpitts/Desktop/adv quant/lab 3,no,mono,no,18,no,white,no,yes,768,legacy,11,11,/Users/kaylicolpitts/Desktop/adv quant/lab 3/KC-subject-4.csv,legacy,8 3,Kafkaesque Koffka,3.2.8,2,y,0,left,left,right,left,NA,1176,40462,4185,1176,NA,2,legacy,2,1024,2,48000,-16,experiment,4,even,3,194662,3512,118402,191317,192423,3486,122589,192436,166717,196674,197852,193449,43988,196674,NA,Sternberg Task,20,21259,24,yes,1024
84,84,891.16,891.16,black,experiment,legacy,legacy,legacy,0,uniform,1,undefined,1,right,24,0,0,24,24,0,0,24,24,24,24,24,0,24,0,Sun Oct 27 20:57:33 2019,The main experiment item,yes,SternnbergTask.osexp,/Users/kaylicolpitts/Desktop/adv quant/lab 3,no,mono,no,18,no,white,no,yes,768,legacy,12,11,/Users/kaylicolpitts/Desktop/adv quant/lab 3/KC-subject-4.csv,legacy,3 9 8 1 6 4,Kafkaesque Koffka,3.2.8,0,n,0,right,left,right,right,NA,1020,40462,4185,1020,NA,2,legacy,6,1024,2,48000,-16,experiment,4,even,7,201212,3512,118402,197866,198975,3486,122589,198987,166717,203224,204246,199999,43988,203224,NA,Sternberg Task,21,22279,25,yes,1024
84.61538462,84.61538462,886.3846154,886.3846154,black,experiment,legacy,legacy,legacy,0,uniform,1,undefined,1,left,25,0,0,25,25,0,0,25,25,25,25,25,0,25,0,Sun Oct 27 20:57:33 2019,The main experiment item,yes,SternnbergTask.osexp,/Users/kaylicolpitts/Desktop/adv quant/lab 3,no,mono,no,18,no,white,no,yes,768,legacy,13,11,/Users/kaylicolpitts/Desktop/adv quant/lab 3/KC-subject-4.csv,legacy,9 1 6 7 8,Kafkaesque Koffka,3.2.8,1,y,0,left,left,right,left,NA,767,40462,4185,767,NA,2,legacy,5,1024,2,48000,-16,experiment,4,even,9,207606,3512,118402,204261,205368,3486,122589,205380,166717,209619,210388,206392,43988,209618,NA,Sternberg Task,22,23046,26,yes,1024
85.18518519,85.18518519,895.5555556,895.5555556,black,experiment,legacy,legacy,legacy,0,uniform,1,undefined,1,left,26,0,0,26,26,0,0,26,26,26,26,26,0,26,0,Sun Oct 27 20:57:33 2019,The main experiment item,yes,SternnbergTask.osexp,/Users/kaylicolpitts/Desktop/adv quant/lab 3,no,mono,no,18,no,white,no,yes,768,legacy,14,11,/Users/kaylicolpitts/Desktop/adv quant/lab 3/KC-subject-4.csv,legacy,4 6 2 5 1,Kafkaesque Koffka,3.2.8,5,y,0,left,left,right,left,NA,1134,40462,4185,1134,NA,2,legacy,5,1024,2,48000,-16,experiment,4,even,1,213750,3512,118402,210404,211512,3486,122589,211524,166717,215763,216899,212536,43988,215762,NA,Sternberg Task,23,24180,27,yes,1024
85.71428571,85.71428571,894.5357143,894.5357143,black,experiment,legacy,legacy,legacy,0,uniform,1,undefined,1,right,27,0,0,27,27,0,0,27,27,27,27,27,0,27,0,Sun Oct 27 20:57:33 2019,The main experiment item,yes,SternnbergTask.osexp,/Users/kaylicolpitts/Desktop/adv quant/lab 3,no,mono,no,18,no,white,no,yes,768,legacy,15,11,/Users/kaylicolpitts/Desktop/adv quant/lab 3/KC-subject-4.csv,legacy,1 6 4,Kafkaesque Koffka,3.2.8,0,n,0,right,left,right,right,NA,867,40462,4185,867,NA,2,legacy,3,1024,2,48000,-16,experiment,4,even,7,220258,3512,118402,216913,218018,3486,122589,218030,166717,222272,223141,219043,43988,222271,NA,Sternberg Task,24,25047,28,yes,1024
86.20689655,86.20689655,892.862069,892.862069,black,experiment,legacy,legacy,legacy,0,uniform,1,undefined,1,left,28,0,0,28,28,0,0,28,28,28,28,28,0,28,0,Sun Oct 27 20:57:33 2019,The main experiment item,yes,SternnbergTask.osexp,/Users/kaylicolpitts/Desktop/adv quant/lab 3,no,mono,no,18,no,white,no,yes,768,legacy,16,11,/Users/kaylicolpitts/Desktop/adv quant/lab 3/KC-subject-4.csv,legacy,3 9 7 6 4,Kafkaesque Koffka,3.2.8,3,y,0,left,left,right,left,NA,846,40462,4185,846,NA,2,legacy,5,1024,2,48000,-16,experiment,4,even,7,226502,3512,118402,223155,224264,3486,122589,224276,166717,228514,229362,225288,43988,228514,NA,Sternberg Task,25,25893,29,yes,1024
86.66666667,86.66666667,896.0333333,896.0333333,black,experiment,legacy,legacy,legacy,0,uniform,1,undefined,1,left,29,0,0,29,29,0,0,29,29,29,29,29,0,29,0,Sun Oct 27 20:57:33 2019,The main experiment item,yes,SternnbergTask.osexp,/Users/kaylicolpitts/Desktop/adv quant/lab 3,no,mono,no,18,no,white,no,yes,768,legacy,17,11,/Users/kaylicolpitts/Desktop/adv quant/lab 3/KC-subject-4.csv,legacy,6 2,Kafkaesque Koffka,3.2.8,1,y,0,left,left,right,left,NA,988,40462,4185,988,NA,2,legacy,2,1024,2,48000,-16,experiment,4,even,6,232720,3512,118402,229376,230483,3486,122589,230495,166717,234733,235722,231507,43988,234733,NA,Sternberg Task,26,26881,30,yes,1024
87.09677419,87.09677419,891.0322581,891.0322581,black,experiment,legacy,legacy,legacy,0,uniform,1,undefined,1,right,30,0,0,30,30,0,0,30,30,30,30,30,0,30,0,Sun Oct 27 20:57:33 2019,The main experiment item,yes,SternnbergTask.osexp,/Users/kaylicolpitts/Desktop/adv quant/lab 3,no,mono,no,18,no,white,no,yes,768,legacy,18,11,/Users/kaylicolpitts/Desktop/adv quant/lab 3/KC-subject-4.csv,legacy,1 4 9 2 5,Kafkaesque Koffka,3.2.8,0,n,0,right,left,right,right,NA,741,40462,4185,741,NA,2,legacy,5,1024,2,48000,-16,experiment,4,even,7,239083,3512,118402,235737,236846,3486,122589,236858,166717,241095,241838,237870,43988,241095,NA,Sternberg Task,27,27622,31,yes,1024
87.5,87.5,881,881,black,experiment,legacy,legacy,legacy,0,uniform,1,undefined,1,right,31,0,0,31,31,0,0,31,31,31,31,31,0,31,0,Sun Oct 27 20:57:33 2019,The main experiment item,yes,SternnbergTask.osexp,/Users/kaylicolpitts/Desktop/adv quant/lab 3,no,mono,no,18,no,white,no,yes,768,legacy,19,11,/Users/kaylicolpitts/Desktop/adv quant/lab 3/KC-subject-4.csv,legacy,4 8 1 2,Kafkaesque Koffka,3.2.8,0,n,0,right,left,right,right,NA,570,40462,4185,570,NA,2,legacy,4,1024,2,48000,-16,experiment,4,even,7,245200,3512,118402,241855,242961,3486,122589,242973,166717,247212,247785,243986,43988,247212,NA,Sternberg Task,28,28192,32,yes,1024
87.87878788,87.87878788,880.7575758,880.7575758,black,experiment,legacy,legacy,legacy,0,uniform,1,undefined,1,left,32,0,0,32,32,0,0,32,32,32,32,32,0,32,0,Sun Oct 27 20:57:33 2019,The main experiment item,yes,SternnbergTask.osexp,/Users/kaylicolpitts/Desktop/adv quant/lab 3,no,mono,no,18,no,white,no,yes,768,legacy,20,11,/Users/kaylicolpitts/Desktop/adv quant/lab 3/KC-subject-4.csv,legacy,6 7 9 3 1 2,Kafkaesque Koffka,3.2.8,1,y,0,left,left,right,left,NA,873,40462,4185,873,NA,2,legacy,6,1024,2,48000,-16,experiment,4,even,6,251148,3512,118402,247800,248908,3486,122589,248920,166717,253160,254035,249933,43988,253160,NA,Sternberg Task,29,29065,33,yes,1024
88.23529412,88.23529412,886,886,black,experiment,legacy,legacy,legacy,0,uniform,1,undefined,1,right,33,0,0,33,33,0,0,33,33,33,33,33,0,33,0,Sun Oct 27 20:57:33 2019,The main experiment item,yes,SternnbergTask.osexp,/Users/kaylicolpitts/Desktop/adv quant/lab 3,no,mono,no,18,no,white,no,yes,768,legacy,21,11,/Users/kaylicolpitts/Desktop/adv quant/lab 3/KC-subject-4.csv,legacy,7 4 2 8 1 9,Kafkaesque Koffka,3.2.8,0,n,0,right,left,right,right,NA,1059,40462,4185,1059,NA,2,legacy,6,1024,2,48000,-16,experiment,4,even,5,257395,3512,118402,254050,255157,3486,122589,255169,166717,259408,260469,256181,43988,259407,NA,Sternberg Task,30,30124,34,yes,1024
88.57142857,88.57142857,888.1428571,888.1428571,black,experiment,legacy,legacy,legacy,0,uniform,1,undefined,1,left,34,0,0,34,34,0,0,34,34,34,34,34,0,34,0,Sun Oct 27 20:57:33 2019,The main experiment item,yes,SternnbergTask.osexp,/Users/kaylicolpitts/Desktop/adv quant/lab 3,no,mono,no,18,no,white,no,yes,768,legacy,22,11,/Users/kaylicolpitts/Desktop/adv quant/lab 3/KC-subject-4.csv,legacy,6 8 9 3 4 9,Kafkaesque Koffka,3.2.8,5,y,0,left,left,right,left,NA,961,40462,4185,961,NA,2,legacy,6,1024,2,48000,-16,experiment,4,even,4,263829,3512,118402,260483,261591,3486,122589,261603,166717,265842,266805,262616,43988,265842,NA,Sternberg Task,31,31085,35,yes,1024
88.88888889,88.88888889,888.75,888.75,black,experiment,legacy,legacy,legacy,0,uniform,1,undefined,1,right,35,0,0,35,35,0,0,35,35,35,35,35,0,35,0,Sun Oct 27 20:57:33 2019,The main experiment item,yes,SternnbergTask.osexp,/Users/kaylicolpitts/Desktop/adv quant/lab 3,no,mono,no,18,no,white,no,yes,768,legacy,23,11,/Users/kaylicolpitts/Desktop/adv quant/lab 3/KC-subject-4.csv,legacy,5 3 8 7 2 4,Kafkaesque Koffka,3.2.8,0,n,0,right,left,right,right,NA,910,40462,4185,910,NA,2,legacy,6,1024,2,48000,-16,experiment,4,even,9,270167,3512,118402,266821,267929,3486,122589,267941,166717,272179,273090,268953,43988,272179,NA,Sternberg Task,32,31995,36,yes,1024
89.18918919,89.18918919,880.5135135,880.5135135,black,experiment,legacy,legacy,legacy,0,uniform,1,undefined,1,left,36,0,0,36,36,0,0,36,36,36,36,36,0,36,0,Sun Oct 27 20:57:33 2019,The main experiment item,yes,SternnbergTask.osexp,/Users/kaylicolpitts/Desktop/adv quant/lab 3,no,mono,no,18,no,white,no,yes,768,legacy,24,11,/Users/kaylicolpitts/Desktop/adv quant/lab 3/KC-subject-4.csv,legacy,4 6 5 8,Kafkaesque Koffka,3.2.8,1,y,0,left,left,right,left,NA,584,40462,4185,584,NA,2,legacy,4,1024,2,48000,-16,experiment,4,even,4,276453,3512,118402,273106,274213,3486,122589,274225,166717,278465,279051,275238,43988,278465,NA,Sternberg Task,33,32579,37,yes,1024
89.47368421,89.47368421,884.0526316,884.0526316,black,experiment,legacy,legacy,legacy,0,uniform,1,undefined,1,left,37,0,0,37,37,0,0,37,37,37,37,37,0,37,0,Sun Oct 27 20:57:33 2019,The main experiment item,yes,SternnbergTask.osexp,/Users/kaylicolpitts/Desktop/adv quant/lab 3,no,mono,no,18,no,white,no,yes,768,legacy,25,11,/Users/kaylicolpitts/Desktop/adv quant/lab 3/KC-subject-4.csv,legacy,3 9 6 2,Kafkaesque Koffka,3.2.8,4,y,0,left,left,right,left,NA,1015,40462,4185,1015,NA,2,legacy,4,1024,2,48000,-16,experiment,4,even,2,282410,3512,118402,279065,280172,3486,122589,280184,166717,284422,285439,281196,43988,284422,NA,Sternberg Task,34,33594,38,yes,1024
89.74358974,89.74358974,880.4102564,880.4102564,black,experiment,legacy,legacy,legacy,0,uniform,1,undefined,1,right,38,0,0,38,38,0,0,38,38,38,38,38,0,38,0,Sun Oct 27 20:57:33 2019,The main experiment item,yes,SternnbergTask.osexp,/Users/kaylicolpitts/Desktop/adv quant/lab 3,no,mono,no,18,no,white,no,yes,768,legacy,26,11,/Users/kaylicolpitts/Desktop/adv quant/lab 3/KC-subject-4.csv,legacy,1 7 5 2,Kafkaesque Koffka,3.2.8,0,n,0,right,left,right,right,NA,742,40462,4185,742,NA,2,legacy,4,1024,2,48000,-16,experiment,4,even,3,288800,3512,118402,285453,286561,3486,122589,286572,166717,290813,291556,287586,43988,290813,NA,Sternberg Task,35,34336,39,yes,1024
87.5,87.5,876.425,876.425,black,experiment,legacy,legacy,legacy,0,uniform,0,undefined,0,right,39,0,0,39,39,0,0,39,39,39,39,39,0,39,0,Sun Oct 27 20:57:33 2019,The main experiment item,yes,SternnbergTask.osexp,/Users/kaylicolpitts/Desktop/adv quant/lab 3,no,mono,no,18,no,white,no,yes,768,legacy,27,11,/Users/kaylicolpitts/Desktop/adv quant/lab 3/KC-subject-4.csv,legacy,7 9,Kafkaesque Koffka,3.2.8,0,n,0,left,left,right,left,NA,721,40462,4185,721,NA,2,legacy,2,1024,2,48000,-16,experiment,4,even,1,294915,3512,118402,291571,292677,3486,122589,292689,166717,296927,297651,293701,43988,296927,NA,Sternberg Task,35,35057,40,yes,1024
87.80487805,87.80487805,882.1463415,882.1463415,black,experiment,legacy,legacy,legacy,0,uniform,1,undefined,1,right,40,0,0,40,40,0,0,40,40,40,40,40,0,40,0,Sun Oct 27 20:57:33 2019,The main experiment item,yes,SternnbergTask.osexp,/Users/kaylicolpitts/Desktop/adv quant/lab 3,no,mono,no,18,no,white,no,yes,768,legacy,28,11,/Users/kaylicolpitts/Desktop/adv quant/lab 3/KC-subject-4.csv,legacy,8 5 4 2 9 6,Kafkaesque Koffka,3.2.8,0,n,0,right,left,right,right,NA,1111,40462,4185,1111,NA,2,legacy,6,1024,2,48000,-16,experiment,4,even,3,301011,3512,118402,291571,298774,3486,122589,298786,297665,303024,304137,299798,43988,303023,NA,Sternberg Task,36,36168,41,yes,1024
85.71428571,85.71428571,891.7380952,891.7380952,black,experiment,legacy,legacy,legacy,0,uniform,0,undefined,0,right,41,0,0,41,41,0,0,41,41,41,41,41,0,41,0,Sun Oct 27 20:57:33 2019,The main experiment item,yes,SternnbergTask.osexp,/Users/kaylicolpitts/Desktop/adv quant/lab 3,no,mono,no,18,no,white,no,yes,768,legacy,29,11,/Users/kaylicolpitts/Desktop/adv quant/lab 3/KC-subject-4.csv,legacy,6 3 1 7 9 8,Kafkaesque Koffka,3.2.8,0,n,0,left,left,right,left,NA,1285,40462,4185,1285,NA,2,legacy,6,1024,2,48000,-16,experiment,4,even,4,307499,3512,118402,304152,305260,3486,122589,305272,297665,309512,310799,306285,43988,309511,NA,Sternberg Task,36,37453,42,yes,1024
86.04651163,86.04651163,891.5813953,891.5813953,black,experiment,legacy,legacy,legacy,0,uniform,1,undefined,1,right,42,0,0,42,42,0,0,42,42,42,42,42,0,42,0,Sun Oct 27 20:57:33 2019,The main experiment item,yes,SternnbergTask.osexp,/Users/kaylicolpitts/Desktop/adv quant/lab 3,no,mono,no,18,no,white,no,yes,768,legacy,30,11,/Users/kaylicolpitts/Desktop/adv quant/lab 3/KC-subject-4.csv,legacy,4 2 7 6 1 3,Kafkaesque Koffka,3.2.8,0,n,0,right,left,right,right,NA,885,40462,4185,885,NA,2,legacy,6,1024,2,48000,-16,experiment,4,even,8,314161,3512,118402,304152,311923,3486,122589,311935,310814,316174,317061,312947,43988,316173,NA,Sternberg Task,37,38338,43,yes,1024
86.36363636,86.36363636,885.3409091,885.3409091,black,experiment,legacy,legacy,legacy,0,uniform,1,undefined,1,left,43,0,0,43,43,0,0,43,43,43,43,43,0,43,0,Sun Oct 27 20:57:33 2019,The main experiment item,yes,SternnbergTask.osexp,/Users/kaylicolpitts/Desktop/adv quant/lab 3,no,mono,no,18,no,white,no,yes,768,legacy,31,11,/Users/kaylicolpitts/Desktop/adv quant/lab 3/KC-subject-4.csv,legacy,3 4,Kafkaesque Koffka,3.2.8,1,y,0,left,left,right,left,NA,617,40462,4185,617,NA,2,legacy,2,1024,2,48000,-16,experiment,4,even,3,320421,3512,118402,317076,318182,3486,122589,318194,310814,322434,323053,319207,43988,322433,NA,Sternberg Task,38,38955,44,yes,1024
86.66666667,86.66666667,883.4444444,883.4444444,black,experiment,legacy,legacy,legacy,0,uniform,1,undefined,1,right,44,0,0,44,44,0,0,44,44,44,44,44,0,44,0,Sun Oct 27 20:57:33 2019,The main experiment item,yes,SternnbergTask.osexp,/Users/kaylicolpitts/Desktop/adv quant/lab 3,no,mono,no,18,no,white,no,yes,768,legacy,32,11,/Users/kaylicolpitts/Desktop/adv quant/lab 3/KC-subject-4.csv,legacy,1 7 8 3 9,Kafkaesque Koffka,3.2.8,0,n,0,right,left,right,right,NA,800,40462,4185,800,NA,2,legacy,5,1024,2,48000,-16,experiment,4,even,2,326414,3512,118402,323067,324176,3486,122589,324188,310814,328427,329229,325200,43988,328427,NA,Sternberg Task,39,39755,45,yes,1024
86.95652174,86.95652174,884.9782609,884.9782609,black,experiment,legacy,legacy,legacy,0,uniform,1,undefined,1,right,45,0,0,45,45,0,0,45,45,45,45,45,0,45,0,Sun Oct 27 20:57:33 2019,The main experiment item,yes,SternnbergTask.osexp,/Users/kaylicolpitts/Desktop/adv quant/lab 3,no,mono,no,18,no,white,no,yes,768,legacy,33,11,/Users/kaylicolpitts/Desktop/adv quant/lab 3/KC-subject-4.csv,legacy,6 2 9 3 8 4,Kafkaesque Koffka,3.2.8,0,n,0,right,left,right,right,NA,954,40462,4185,954,NA,2,legacy,6,1024,2,48000,-16,experiment,4,even,1,332592,3512,118402,329243,330352,3486,122589,330365,310814,334605,335561,331377,43988,334605,NA,Sternberg Task,40,40709,46,yes,1024
87.23404255,87.23404255,891.0212766,891.0212766,black,experiment,legacy,legacy,legacy,0,uniform,1,undefined,1,left,46,0,0,46,46,0,0,46,46,46,46,46,0,46,0,Sun Oct 27 20:57:33 2019,The main experiment item,yes,SternnbergTask.osexp,/Users/kaylicolpitts/Desktop/adv quant/lab 3,no,mono,no,18,no,white,no,yes,768,legacy,34,11,/Users/kaylicolpitts/Desktop/adv quant/lab 3/KC-subject-4.csv,legacy,5 2 6,Kafkaesque Koffka,3.2.8,2,y,0,left,left,right,left,NA,1169,40462,4185,1169,NA,2,legacy,3,1024,2,48000,-16,experiment,4,even,2,338920,3512,118402,335576,336682,3486,122589,336694,310814,340932,342103,337707,43988,340932,NA,Sternberg Task,41,41878,47,yes,1024
87.5,87.5,885.2291667,885.2291667,black,experiment,legacy,legacy,legacy,0,uniform,1,undefined,1,right,47,0,0,47,47,0,0,47,47,47,47,47,0,47,0,Sun Oct 27 20:57:33 2019,The main experiment item,yes,SternnbergTask.osexp,/Users/kaylicolpitts/Desktop/adv quant/lab 3,no,mono,no,18,no,white,no,yes,768,legacy,35,11,/Users/kaylicolpitts/Desktop/adv quant/lab 3/KC-subject-4.csv,legacy,5 2,Kafkaesque Koffka,3.2.8,0,n,0,right,left,right,right,NA,613,40462,4185,613,NA,2,legacy,2,1024,2,48000,-16,experiment,4,even,7,345463,3512,118402,342119,343225,3486,122589,343237,310814,347475,348089,344249,43988,347475,NA,Sternberg Task,42,42491,48,yes,1024
87.75510204,87.75510204,885.5102041,885.5102041,black,experiment,legacy,legacy,legacy,0,uniform,1,undefined,1,right,48,0,0,48,48,0,0,48,48,48,48,48,0,48,0,Sun Oct 27 20:57:33 2019,The main experiment item,yes,SternnbergTask.osexp,/Users/kaylicolpitts/Desktop/adv quant/lab 3,no,mono,no,18,no,white,no,yes,768,legacy,36,11,/Users/kaylicolpitts/Desktop/adv quant/lab 3/KC-subject-4.csv,legacy,9,Kafkaesque Koffka,3.2.8,0,n,0,right,left,right,right,NA,899,40462,4185,899,NA,2,legacy,1,1024,2,48000,-16,experiment,4,even,6,351473,3512,118402,348104,349232,3486,122589,349246,310814,353486,354387,350259,43988,353486,NA,Sternberg Task,43,43390,49,yes,1024
88,88,882.36,882.36,black,experiment,legacy,legacy,legacy,0,uniform,1,undefined,1,right,49,0,0,49,49,0,0,49,49,49,49,49,0,49,0,Sun Oct 27 20:57:33 2019,The main experiment item,yes,SternnbergTask.osexp,/Users/kaylicolpitts/Desktop/adv quant/lab 3,no,mono,no,18,no,white,no,yes,768,legacy,37,11,/Users/kaylicolpitts/Desktop/adv quant/lab 3/KC-subject-4.csv,legacy,8 9,Kafkaesque Koffka,3.2.8,0,n,0,right,left,right,right,NA,728,40462,4185,728,NA,2,legacy,2,1024,2,48000,-16,experiment,4,even,5,357746,3512,118402,354402,355508,3486,122589,355520,310814,359758,360488,356532,43988,359758,NA,Sternberg Task,44,44118,50,yes,1024
88.23529412,88.23529412,878.3333333,878.3333333,black,experiment,legacy,legacy,legacy,0,uniform,1,undefined,1,right,50,0,0,50,50,0,0,50,50,50,50,50,0,50,0,Sun Oct 27 20:57:33 2019,The main experiment item,yes,SternnbergTask.osexp,/Users/kaylicolpitts/Desktop/adv quant/lab 3,no,mono,no,18,no,white,no,yes,768,legacy,38,11,/Users/kaylicolpitts/Desktop/adv quant/lab 3/KC-subject-4.csv,legacy,1 8 7,Kafkaesque Koffka,3.2.8,0,n,0,right,left,right,right,NA,677,40462,4185,677,NA,2,legacy,3,1024,2,48000,-16,experiment,4,even,4,363853,3512,118402,360504,361615,3486,122589,361629,310814,365866,366545,362641,43988,365865,NA,Sternberg Task,45,44795,51,yes,1024
88.46153846,88.46153846,878.5384615,878.5384615,black,experiment,legacy,legacy,legacy,0,uniform,1,undefined,1,left,51,0,0,51,51,0,0,51,51,51,51,51,0,51,0,Sun Oct 27 20:57:33 2019,The main experiment item,yes,SternnbergTask.osexp,/Users/kaylicolpitts/Desktop/adv quant/lab 3,no,mono,no,18,no,white,no,yes,768,legacy,39,11,/Users/kaylicolpitts/Desktop/adv quant/lab 3/KC-subject-4.csv,legacy,5 7 8 2 3 8,Kafkaesque Koffka,3.2.8,5,y,0,left,left,right,left,NA,889,40462,4185,889,NA,2,legacy,6,1024,2,48000,-16,experiment,4,even,3,369906,3512,118402,366560,367668,3486,122589,367680,310814,371918,372809,368692,43988,371918,NA,Sternberg Task,46,45684,52,yes,1024
88.67924528,88.67924528,876.3584906,876.3584906,black,experiment,legacy,legacy,legacy,0,uniform,1,undefined,1,right,52,0,0,52,52,0,0,52,52,52,52,52,0,52,0,Sun Oct 27 20:57:33 2019,The main experiment item,yes,SternnbergTask.osexp,/Users/kaylicolpitts/Desktop/adv quant/lab 3,no,mono,no,18,no,white,no,yes,768,legacy,40,11,/Users/kaylicolpitts/Desktop/adv quant/lab 3/KC-subject-4.csv,legacy,7 1,Kafkaesque Koffka,3.2.8,0,n,0,right,left,right,right,NA,763,40462,4185,763,NA,2,legacy,2,1024,2,48000,-16,experiment,4,even,8,376170,3512,118402,372824,373932,3486,122589,373944,310814,378183,378948,374956,43988,378183,NA,Sternberg Task,47,46447,53,yes,1024
88.88888889,88.88888889,878.1851852,878.1851852,black,experiment,legacy,legacy,legacy,0,uniform,1,undefined,1,left,53,0,0,53,53,0,0,53,53,53,53,53,0,53,0,Sun Oct 27 20:57:33 2019,The main experiment item,yes,SternnbergTask.osexp,/Users/kaylicolpitts/Desktop/adv quant/lab 3,no,mono,no,18,no,white,no,yes,768,legacy,41,11,/Users/kaylicolpitts/Desktop/adv quant/lab 3/KC-subject-4.csv,legacy,4 7 6 8 2 3,Kafkaesque Koffka,3.2.8,6,y,0,left,left,right,left,NA,975,40462,4185,975,NA,2,legacy,6,1024,2,48000,-16,experiment,4,even,3,382307,3512,118402,378963,380069,3486,122589,380081,310814,384319,385297,381093,43988,384319,NA,Sternberg Task,48,47422,54,yes,1024
89.09090909,89.09090909,873.6727273,873.6727273,black,experiment,legacy,legacy,legacy,0,uniform,1,undefined,1,left,54,0,0,54,54,0,0,54,54,54,54,54,0,54,0,Sun Oct 27 20:57:33 2019,The main experiment item,yes,SternnbergTask.osexp,/Users/kaylicolpitts/Desktop/adv quant/lab 3,no,mono,no,18,no,white,no,yes,768,legacy,42,11,/Users/kaylicolpitts/Desktop/adv quant/lab 3/KC-subject-4.csv,legacy,9 8 4,Kafkaesque Koffka,3.2.8,1,y,0,left,left,right,left,NA,630,40462,4185,630,NA,2,legacy,3,1024,2,48000,-16,experiment,4,even,9,388657,3512,118402,385312,386419,3486,122589,386431,310814,390669,391301,387443,43988,390669,NA,Sternberg Task,49,48052,55,yes,1024
89.28571429,89.28571429,873.9285714,873.9285714,black,experiment,legacy,legacy,legacy,0,uniform,1,undefined,1,left,55,0,0,55,55,0,0,55,55,55,55,55,0,55,0,Sun Oct 27 20:57:33 2019,The main experiment item,yes,SternnbergTask.osexp,/Users/kaylicolpitts/Desktop/adv quant/lab 3,no,mono,no,18,no,white,no,yes,768,legacy,43,11,/Users/kaylicolpitts/Desktop/adv quant/lab 3/KC-subject-4.csv,legacy,9 6 2 4 1,Kafkaesque Koffka,3.2.8,4,y,0,left,left,right,left,NA,888,40462,4185,888,NA,2,legacy,5,1024,2,48000,-16,experiment,4,even,4,394663,3512,118402,391317,392425,3486,122589,392436,310814,396677,397566,393449,43988,396677,NA,Sternberg Task,50,48940,56,yes,1024
89.47368421,89.47368421,870.8070175,870.8070175,black,experiment,legacy,legacy,legacy,0,uniform,1,undefined,1,right,56,0,0,56,56,0,0,56,56,56,56,56,0,56,0,Sun Oct 27 20:57:33 2019,The main experiment item,yes,SternnbergTask.osexp,/Users/kaylicolpitts/Desktop/adv quant/lab 3,no,mono,no,18,no,white,no,yes,768,legacy,44,11,/Users/kaylicolpitts/Desktop/adv quant/lab 3/KC-subject-4.csv,legacy,6 9 5,Kafkaesque Koffka,3.2.8,0,n,0,right,left,right,right,NA,696,40462,4185,696,NA,2,legacy,3,1024,2,48000,-16,experiment,4,even,8,400925,3512,118402,397581,398687,3486,122589,398699,310814,402937,403634,399711,43988,402937,NA,Sternberg Task,51,49636,57,yes,1024
89.65517241,89.65517241,868.6724138,868.6724138,black,experiment,legacy,legacy,legacy,0,uniform,1,undefined,1,left,57,0,0,57,57,0,0,57,57,57,57,57,0,57,0,Sun Oct 27 20:57:33 2019,The main experiment item,yes,SternnbergTask.osexp,/Users/kaylicolpitts/Desktop/adv quant/lab 3,no,mono,no,18,no,white,no,yes,768,legacy,45,11,/Users/kaylicolpitts/Desktop/adv quant/lab 3/KC-subject-4.csv,legacy,7,Kafkaesque Koffka,3.2.8,1,y,0,left,left,right,left,NA,747,40462,4185,747,NA,2,legacy,1,1024,2,48000,-16,experiment,4,even,7,406994,3512,118402,403650,404755,3486,122589,404767,310814,409006,409755,405779,43988,409006,NA,Sternberg Task,52,50383,58,yes,1024
89.83050847,89.83050847,876.2372881,876.2372881,black,experiment,legacy,legacy,legacy,0,uniform,1,undefined,1,left,58,0,0,58,58,0,0,58,58,58,58,58,0,58,0,Sun Oct 27 20:57:33 2019,The main experiment item,yes,SternnbergTask.osexp,/Users/kaylicolpitts/Desktop/adv quant/lab 3,no,mono,no,18,no,white,no,yes,768,legacy,46,11,/Users/kaylicolpitts/Desktop/adv quant/lab 3/KC-subject-4.csv,legacy,4 9 7 8 5 3,Kafkaesque Koffka,3.2.8,4,y,0,left,left,right,left,NA,1315,40462,4185,1315,NA,2,legacy,6,1024,2,48000,-16,experiment,4,even,8,413117,3512,118402,409770,410878,3486,122589,410890,310814,415129,416446,411902,43988,415129,NA,Sternberg Task,53,51698,59,yes,1024
90,90,874.35,874.35,black,experiment,legacy,legacy,legacy,0,uniform,1,undefined,1,right,59,0,0,59,59,0,0,59,59,59,59,59,0,59,0,Sun Oct 27 20:57:33 2019,The main experiment item,yes,SternnbergTask.osexp,/Users/kaylicolpitts/Desktop/adv quant/lab 3,no,mono,no,18,no,white,no,yes,768,legacy,47,11,/Users/kaylicolpitts/Desktop/adv quant/lab 3/KC-subject-4.csv,legacy,3 9 1,Kafkaesque Koffka,3.2.8,0,n,0,right,left,right,right,NA,763,40462,4185,763,NA,2,legacy,3,1024,2,48000,-16,experiment,4,even,7,419805,3512,118402,416461,417567,3486,122589,417579,310814,421819,422585,418591,43988,421819,NA,Sternberg Task,54,52461,60,yes,1024
90.16393443,90.16393443,872.4098361,872.4098361,black,experiment,legacy,legacy,legacy,0,uniform,1,undefined,1,right,60,0,0,60,60,0,0,60,60,60,60,60,0,60,0,Sun Oct 27 20:57:33 2019,The main experiment item,yes,SternnbergTask.osexp,/Users/kaylicolpitts/Desktop/adv quant/lab 3,no,mono,no,18,no,white,no,yes,768,legacy,48,11,/Users/kaylicolpitts/Desktop/adv quant/lab 3/KC-subject-4.csv,legacy,7 1 8 4 9 3,Kafkaesque Koffka,3.2.8,0,n,0,right,left,right,right,NA,756,40462,4185,756,NA,2,legacy,6,1024,2,48000,-16,experiment,4,even,6,425946,3512,118402,422599,423706,3486,122589,423718,310814,427958,428716,424730,43988,427958,NA,Sternberg Task,55,53217,61,yes,1024
90.32258065,90.32258065,872.0483871,872.0483871,black,experiment,legacy,legacy,legacy,0,uniform,1,undefined,1,right,61,0,0,61,61,0,0,61,61,61,61,61,0,61,0,Sun Oct 27 20:57:33 2019,The main experiment item,yes,SternnbergTask.osexp,/Users/kaylicolpitts/Desktop/adv quant/lab 3,no,mono,no,18,no,white,no,yes,768,legacy,49,11,/Users/kaylicolpitts/Desktop/adv quant/lab 3/KC-subject-4.csv,legacy,4 2 6 9,Kafkaesque Koffka,3.2.8,0,n,0,right,left,right,right,NA,850,40462,4185,850,NA,2,legacy,4,1024,2,48000,-16,experiment,4,even,7,432078,3512,118402,428732,429839,3486,122589,429851,310814,434091,434943,430864,43988,434091,NA,Sternberg Task,56,54067,62,yes,1024
90.47619048,90.47619048,866.4603175,866.4603175,black,experiment,legacy,legacy,legacy,0,uniform,1,undefined,1,right,62,0,0,62,62,0,0,62,62,62,62,62,0,62,0,Sun Oct 27 20:57:33 2019,The main experiment item,yes,SternnbergTask.osexp,/Users/kaylicolpitts/Desktop/adv quant/lab 3,no,mono,no,18,no,white,no,yes,768,legacy,50,11,/Users/kaylicolpitts/Desktop/adv quant/lab 3/KC-subject-4.csv,legacy,4 1,Kafkaesque Koffka,3.2.8,0,n,0,right,left,right,right,NA,520,40462,4185,520,NA,2,legacy,2,1024,2,48000,-16,experiment,4,even,6,438301,3512,118402,434957,436062,3486,122589,436074,310814,440313,440835,437086,43988,440313,NA,Sternberg Task,57,54587,63,yes,1024
90.625,90.625,863.90625,863.90625,black,experiment,legacy,legacy,legacy,0,uniform,1,undefined,1,right,63,0,0,63,63,0,0,63,63,63,63,63,0,63,0,Sun Oct 27 20:57:33 2019,The main experiment item,yes,SternnbergTask.osexp,/Users/kaylicolpitts/Desktop/adv quant/lab 3,no,mono,no,18,no,white,no,yes,768,legacy,51,11,/Users/kaylicolpitts/Desktop/adv quant/lab 3/KC-subject-4.csv,legacy,9 8 2 7 4,Kafkaesque Koffka,3.2.8,0,n,0,right,left,right,right,NA,703,40462,4185,703,NA,2,legacy,5,1024,2,48000,-16,experiment,4,even,5,444194,3512,118402,440849,441956,3486,122589,441968,310814,446207,446913,442980,43988,446206,NA,Sternberg Task,58,55290,64,yes,1024
90.76923077,90.76923077,862.1538462,862.1538462,black,experiment,legacy,legacy,legacy,0,uniform,1,undefined,1,right,64,0,0,64,64,0,0,64,64,64,64,64,0,64,0,Sun Oct 27 20:57:33 2019,The main experiment item,yes,SternnbergTask.osexp,/Users/kaylicolpitts/Desktop/adv quant/lab 3,no,mono,no,18,no,white,no,yes,768,legacy,52,11,/Users/kaylicolpitts/Desktop/adv quant/lab 3/KC-subject-4.csv,legacy,8 4 3 5,Kafkaesque Koffka,3.2.8,0,n,0,right,left,right,right,NA,750,40462,4185,750,NA,2,legacy,4,1024,2,48000,-16,experiment,4,even,6,450272,3512,118402,446927,448032,3486,122589,448045,310814,452284,453036,449057,43988,452284,NA,Sternberg Task,59,56040,65,yes,1024
90.90909091,90.90909091,862.7727273,862.7727273,black,experiment,legacy,legacy,legacy,0,uniform,1,undefined,1,left,65,0,0,65,65,0,0,65,65,65,65,65,0,65,0,Sun Oct 27 20:57:33 2019,The main experiment item,yes,SternnbergTask.osexp,/Users/kaylicolpitts/Desktop/adv quant/lab 3,no,mono,no,18,no,white,no,yes,768,legacy,53,11,/Users/kaylicolpitts/Desktop/adv quant/lab 3/KC-subject-4.csv,legacy,3 5 4 7,Kafkaesque Koffka,3.2.8,1,y,0,left,left,right,left,NA,903,40462,4185,903,NA,2,legacy,4,1024,2,48000,-16,experiment,4,even,3,456397,3512,118402,453050,454157,3486,122589,454169,310814,458410,459316,455182,43988,458410,NA,Sternberg Task,60,56943,66,yes,1024
91.04477612,91.04477612,859.3134328,859.3134328,black,experiment,legacy,legacy,legacy,0,uniform,1,undefined,1,left,66,0,0,66,66,0,0,66,66,66,66,66,0,66,0,Sun Oct 27 20:57:33 2019,The main experiment item,yes,SternnbergTask.osexp,/Users/kaylicolpitts/Desktop/adv quant/lab 3,no,mono,no,18,no,white,no,yes,768,legacy,54,11,/Users/kaylicolpitts/Desktop/adv quant/lab 3/KC-subject-4.csv,legacy,2 3,Kafkaesque Koffka,3.2.8,1,y,0,left,left,right,left,NA,631,40462,4185,631,NA,2,legacy,2,1024,2,48000,-16,experiment,4,even,2,462675,3512,118402,459331,460437,3486,122589,460449,310814,464688,465322,461461,43988,464688,NA,Sternberg Task,61,57574,67,yes,1024
91.17647059,91.17647059,857.1176471,857.1176471,black,experiment,legacy,legacy,legacy,0,uniform,1,undefined,1,right,67,0,0,67,67,0,0,67,67,67,67,67,0,67,0,Sun Oct 27 20:57:33 2019,The main experiment item,yes,SternnbergTask.osexp,/Users/kaylicolpitts/Desktop/adv quant/lab 3,no,mono,no,18,no,white,no,yes,768,legacy,55,11,/Users/kaylicolpitts/Desktop/adv quant/lab 3/KC-subject-4.csv,legacy,1 3 2 6 9,Kafkaesque Koffka,3.2.8,0,n,0,right,left,right,right,NA,710,40462,4185,710,NA,2,legacy,5,1024,2,48000,-16,experiment,4,even,5,468685,3512,118402,465337,466446,3486,122589,466458,310814,470697,471410,467470,43988,470697,NA,Sternberg Task,62,58284,68,yes,1024
91.30434783,91.30434783,857.942029,857.942029,black,experiment,legacy,legacy,legacy,0,uniform,1,undefined,1,left,68,0,0,68,68,0,0,68,68,68,68,68,0,68,0,Sun Oct 27 20:57:33 2019,The main experiment item,yes,SternnbergTask.osexp,/Users/kaylicolpitts/Desktop/adv quant/lab 3,no,mono,no,18,no,white,no,yes,768,legacy,56,11,/Users/kaylicolpitts/Desktop/adv quant/lab 3/KC-subject-4.csv,legacy,9 3 8 2 1 4,Kafkaesque Koffka,3.2.8,3,y,0,left,left,right,left,NA,914,40462,4185,914,NA,2,legacy,6,1024,2,48000,-16,experiment,4,even,8,474772,3512,118402,471425,472532,3486,122589,472544,310814,476784,477700,473557,43988,476784,NA,Sternberg Task,63,59198,69,yes,1024
91.42857143,91.42857143,859.9,859.9,black,experiment,legacy,legacy,legacy,0,uniform,1,undefined,1,left,69,0,0,69,69,0,0,69,69,69,69,69,0,69,0,Sun Oct 27 20:57:33 2019,The main experiment item,yes,SternnbergTask.osexp,/Users/kaylicolpitts/Desktop/adv quant/lab 3,no,mono,no,18,no,white,no,yes,768,legacy,57,11,/Users/kaylicolpitts/Desktop/adv quant/lab 3/KC-subject-4.csv,legacy,7 6,Kafkaesque Koffka,3.2.8,2,y,0,left,left,right,left,NA,995,40462,4185,995,NA,2,legacy,2,1024,2,48000,-16,experiment,4,even,6,481059,3512,118402,477715,478821,3486,122589,478832,310814,483072,484069,479845,43988,483072,NA,Sternberg Task,64,60193,70,yes,1024
91.54929577,91.54929577,859.0422535,859.0422535,black,experiment,legacy,legacy,legacy,0,uniform,1,undefined,1,left,70,0,0,70,70,0,0,70,70,70,70,70,0,70,0,Sun Oct 27 20:57:33 2019,The main experiment item,yes,SternnbergTask.osexp,/Users/kaylicolpitts/Desktop/adv quant/lab 3,no,mono,no,18,no,white,no,yes,768,legacy,58,11,/Users/kaylicolpitts/Desktop/adv quant/lab 3/KC-subject-4.csv,legacy,9 1 7 2,Kafkaesque Koffka,3.2.8,2,y,0,left,left,right,left,NA,799,40462,4185,799,NA,2,legacy,4,1024,2,48000,-16,experiment,4,even,1,487430,3512,118402,484084,485191,3486,122589,485203,310814,489442,490243,486216,43988,489442,NA,Sternberg Task,65,60992,71,yes,1024
91.66666667,91.66666667,855.6527778,855.6527778,black,experiment,legacy,legacy,legacy,0,uniform,1,undefined,1,left,71,0,0,71,71,0,0,71,71,71,71,71,0,71,0,Sun Oct 27 20:57:33 2019,The main experiment item,yes,SternnbergTask.osexp,/Users/kaylicolpitts/Desktop/adv quant/lab 3,no,mono,no,18,no,white,no,yes,768,legacy,59,11,/Users/kaylicolpitts/Desktop/adv quant/lab 3/KC-subject-4.csv,legacy,9 4 2,Kafkaesque Koffka,3.2.8,1,y,0,left,left,right,left,NA,615,40462,4185,615,NA,2,legacy,3,1024,2,48000,-16,experiment,4,even,9,493608,3512,118402,490260,491370,3486,122589,491382,310814,495622,496238,492394,43988,495622,NA,Sternberg Task,66,61607,72,yes,1024
91.78082192,91.78082192,859.369863,859.369863,black,experiment,legacy,legacy,legacy,0,uniform,1,undefined,1,right,72,0,0,72,72,0,0,72,72,72,72,72,0,72,0,Sun Oct 27 20:57:33 2019,The main experiment item,yes,SternnbergTask.osexp,/Users/kaylicolpitts/Desktop/adv quant/lab 3,no,mono,no,18,no,white,no,yes,768,legacy,60,11,/Users/kaylicolpitts/Desktop/adv quant/lab 3/KC-subject-4.csv,legacy,8 2 1 4 5 9,Kafkaesque Koffka,3.2.8,0,n,0,right,left,right,right,NA,1127,40462,4185,1127,NA,2,legacy,6,1024,2,48000,-16,experiment,4,even,7,499600,3512,118402,496253,497362,3486,122589,497374,310814,501612,502741,498386,43988,501612,NA,Sternberg Task,67,62734,73,yes,1024
90.54054054,90.54054054,868.5135135,868.5135135,black,experiment,legacy,legacy,legacy,0,uniform,0,undefined,0,right,73,0,0,73,73,0,0,73,73,73,73,73,0,73,0,Sun Oct 27 20:57:33 2019,The main experiment item,yes,SternnbergTask.osexp,/Users/kaylicolpitts/Desktop/adv quant/lab 3,no,mono,no,18,no,white,no,yes,768,legacy,61,11,/Users/kaylicolpitts/Desktop/adv quant/lab 3/KC-subject-4.csv,legacy,2 8 9 4 1,Kafkaesque Koffka,3.2.8,0,n,0,left,left,right,left,NA,1536,40462,4185,1536,NA,2,legacy,5,1024,2,48000,-16,experiment,4,even,5,506101,3512,118402,502755,503862,3486,122589,503875,310814,508114,509653,504888,43988,508113,NA,Sternberg Task,67,64270,74,yes,1024
90.66666667,90.66666667,866.6266667,866.6266667,black,experiment,legacy,legacy,legacy,0,uniform,1,undefined,1,right,74,0,0,74,74,0,0,74,74,74,74,74,0,74,0,Sun Oct 27 20:57:33 2019,The main experiment item,yes,SternnbergTask.osexp,/Users/kaylicolpitts/Desktop/adv quant/lab 3,no,mono,no,18,no,white,no,yes,768,legacy,62,11,/Users/kaylicolpitts/Desktop/adv quant/lab 3/KC-subject-4.csv,legacy,2 7 5,Kafkaesque Koffka,3.2.8,0,n,0,right,left,right,right,NA,727,40462,4185,727,NA,2,legacy,3,1024,2,48000,-16,experiment,4,even,8,513015,3512,118402,502755,510776,3486,122589,510788,509670,515027,515757,511802,43988,515027,NA,Sternberg Task,68,64997,75,yes,1024
90.78947368,90.78947368,873.5657895,873.5657895,black,experiment,legacy,legacy,legacy,0,uniform,1,undefined,1,right,75,0,0,75,75,0,0,75,75,75,75,75,0,75,0,Sun Oct 27 20:57:33 2019,The main experiment item,yes,SternnbergTask.osexp,/Users/kaylicolpitts/Desktop/adv quant/lab 3,no,mono,no,18,no,white,no,yes,768,legacy,63,11,/Users/kaylicolpitts/Desktop/adv quant/lab 3/KC-subject-4.csv,legacy,8 5 7 3 6,Kafkaesque Koffka,3.2.8,0,n,0,right,left,right,right,NA,1394,40462,4185,1394,NA,2,legacy,5,1024,2,48000,-16,experiment,4,even,9,519121,3512,118402,515772,516883,3486,122589,516895,509670,521134,522530,517908,43988,521133,NA,Sternberg Task,69,66391,76,yes,1024
90.90909091,90.90909091,873.5064935,873.5064935,black,experiment,legacy,legacy,legacy,0,uniform,1,undefined,1,right,76,0,0,76,76,0,0,76,76,76,76,76,0,76,0,Sun Oct 27 20:57:33 2019,The main experiment item,yes,SternnbergTask.osexp,/Users/kaylicolpitts/Desktop/adv quant/lab 3,no,mono,no,18,no,white,no,yes,768,legacy,64,11,/Users/kaylicolpitts/Desktop/adv quant/lab 3/KC-subject-4.csv,legacy,3 4 9 6 7 8,Kafkaesque Koffka,3.2.8,0,n,0,right,left,right,right,NA,869,40462,4185,869,NA,2,legacy,6,1024,2,48000,-16,experiment,4,even,2,525890,3512,118402,522545,523652,3486,122589,523664,509670,527902,528774,524676,43988,527902,NA,Sternberg Task,70,67260,77,yes,1024
91.02564103,91.02564103,878.7948718,878.7948718,black,experiment,legacy,legacy,legacy,0,uniform,1,undefined,1,right,77,0,0,77,77,0,0,77,77,77,77,77,0,77,0,Sun Oct 27 20:57:33 2019,The main experiment item,yes,SternnbergTask.osexp,/Users/kaylicolpitts/Desktop/adv quant/lab 3,no,mono,no,18,no,white,no,yes,768,legacy,65,11,/Users/kaylicolpitts/Desktop/adv quant/lab 3/KC-subject-4.csv,legacy,5 3 2 6 9 8,Kafkaesque Koffka,3.2.8,0,n,0,right,left,right,right,NA,1286,40462,4185,1286,NA,2,legacy,6,1024,2,48000,-16,experiment,4,even,4,532136,3512,118402,528788,529898,3486,122589,529911,509670,534150,535438,530923,43988,534150,NA,Sternberg Task,71,68546,78,yes,1024
91.13924051,91.13924051,877.9873418,877.9873418,black,experiment,legacy,legacy,legacy,0,uniform,1,undefined,1,right,78,0,0,78,78,0,0,78,78,78,78,78,0,78,0,Sun Oct 27 20:57:33 2019,The main experiment item,yes,SternnbergTask.osexp,/Users/kaylicolpitts/Desktop/adv quant/lab 3,no,mono,no,18,no,white,no,yes,768,legacy,66,11,/Users/kaylicolpitts/Desktop/adv quant/lab 3/KC-subject-4.csv,legacy,1 6 4 3 9 7,Kafkaesque Koffka,3.2.8,0,n,0,right,left,right,right,NA,815,40462,4185,815,NA,2,legacy,6,1024,2,48000,-16,experiment,4,even,8,538801,3512,118402,535453,536560,3486,122589,536573,509670,540814,541632,537586,43988,540813,NA,Sternberg Task,72,69361,79,yes,1024
91.25,91.25,878.9875,878.9875,black,experiment,legacy,legacy,legacy,0,uniform,1,undefined,1,left,79,0,0,79,79,0,0,79,79,79,79,79,0,79,0,Sun Oct 27 20:57:33 2019,The main experiment item,yes,SternnbergTask.osexp,/Users/kaylicolpitts/Desktop/adv quant/lab 3,no,mono,no,18,no,white,no,yes,768,legacy,67,11,/Users/kaylicolpitts/Desktop/adv quant/lab 3/KC-subject-4.csv,legacy,7 8 6 3 1,Kafkaesque Koffka,3.2.8,5,y,0,left,left,right,left,NA,958,40462,4185,958,NA,2,legacy,5,1024,2,48000,-16,experiment,4,even,1,544993,3512,118402,541645,542754,3486,122589,542766,509670,547004,547964,543778,43988,547004,NA,Sternberg Task,73,70319,80,yes,1024
91.35802469,91.35802469,877.0246914,877.0246914,black,experiment,legacy,legacy,legacy,0,uniform,1,undefined,1,right,80,0,0,80,80,0,0,80,80,80,80,80,0,80,0,Sun Oct 27 20:57:33 2019,The main experiment item,yes,SternnbergTask.osexp,/Users/kaylicolpitts/Desktop/adv quant/lab 3,no,mono,no,18,no,white,no,yes,768,legacy,68,11,/Users/kaylicolpitts/Desktop/adv quant/lab 3/KC-subject-4.csv,legacy,2 3 8 5 6 7,Kafkaesque Koffka,3.2.8,0,n,0,right,left,right,right,NA,720,40462,4185,720,NA,2,legacy,6,1024,2,48000,-16,experiment,4,even,1,551330,3512,118402,547981,549089,3486,122589,549102,509670,553343,554065,550115,43988,553343,NA,Sternberg Task,74,71039,81,yes,1024
91.46341463,91.46341463,877.4268293,877.4268293,black,experiment,legacy,legacy,legacy,0,uniform,1,undefined,1,right,81,0,0,81,81,0,0,81,81,81,81,81,0,81,0,Sun Oct 27 20:57:33 2019,The main experiment item,yes,SternnbergTask.osexp,/Users/kaylicolpitts/Desktop/adv quant/lab 3,no,mono,no,18,no,white,no,yes,768,legacy,69,11,/Users/kaylicolpitts/Desktop/adv quant/lab 3/KC-subject-4.csv,legacy,6 7 5 9,Kafkaesque Koffka,3.2.8,0,n,0,right,left,right,right,NA,910,40462,4185,910,NA,2,legacy,4,1024,2,48000,-16,experiment,4,even,2,557426,3512,118402,554079,555188,3486,122589,555201,509670,559440,560352,556214,43988,559440,NA,Sternberg Task,75,71949,82,yes,1024
91.56626506,91.56626506,878.2650602,878.2650602,black,experiment,legacy,legacy,legacy,0,uniform,1,undefined,1,right,82,0,0,82,82,0,0,82,82,82,82,82,0,82,0,Sun Oct 27 20:57:33 2019,The main experiment item,yes,SternnbergTask.osexp,/Users/kaylicolpitts/Desktop/adv quant/lab 3,no,mono,no,18,no,white,no,yes,768,legacy,70,11,/Users/kaylicolpitts/Desktop/adv quant/lab 3/KC-subject-4.csv,legacy,6 8,Kafkaesque Koffka,3.2.8,0,n,0,right,left,right,right,NA,947,40462,4185,947,NA,2,legacy,2,1024,2,48000,-16,experiment,4,even,9,563712,3512,118402,560366,561473,3486,122589,561486,509670,565725,566675,562498,43988,565725,NA,Sternberg Task,76,72896,83,yes,1024
91.66666667,91.66666667,876.6904762,876.6904762,black,experiment,legacy,legacy,legacy,0,uniform,1,undefined,1,right,83,0,0,83,83,0,0,83,83,83,83,83,0,83,0,Sun Oct 27 20:57:33 2019,The main experiment item,yes,SternnbergTask.osexp,/Users/kaylicolpitts/Desktop/adv quant/lab 3,no,mono,no,18,no,white,no,yes,768,legacy,71,11,/Users/kaylicolpitts/Desktop/adv quant/lab 3/KC-subject-4.csv,legacy,1 7 5 2 9,Kafkaesque Koffka,3.2.8,0,n,0,right,left,right,right,NA,746,40462,4185,746,NA,2,legacy,5,1024,2,48000,-16,experiment,4,even,3,570036,3512,118402,566689,567797,3486,122589,567809,509670,572050,572799,568822,43988,572050,NA,Sternberg Task,77,73642,84,yes,1024
91.76470588,91.76470588,876.7647059,876.7647059,black,experiment,legacy,legacy,legacy,0,uniform,1,undefined,1,right,84,0,0,84,84,0,0,84,84,84,84,84,0,84,0,Sun Oct 27 20:57:33 2019,The main experiment item,yes,SternnbergTask.osexp,/Users/kaylicolpitts/Desktop/adv quant/lab 3,no,mono,no,18,no,white,no,yes,768,legacy,72,11,/Users/kaylicolpitts/Desktop/adv quant/lab 3/KC-subject-4.csv,legacy,7 3 2 8,Kafkaesque Koffka,3.2.8,0,n,0,right,left,right,right,NA,883,40462,4185,883,NA,2,legacy,4,1024,2,48000,-16,experiment,4,even,4,576162,3512,118402,572815,573924,3486,122589,573936,509670,578174,579060,574948,43988,578174,NA,Sternberg Task,78,74525,85,yes,1024
91.86046512,91.86046512,874.2209302,874.2209302,black,experiment,legacy,legacy,legacy,0,uniform,1,undefined,1,right,85,0,0,85,85,0,0,85,85,85,85,85,0,85,0,Sun Oct 27 20:57:33 2019,The main experiment item,yes,SternnbergTask.osexp,/Users/kaylicolpitts/Desktop/adv quant/lab 3,no,mono,no,18,no,white,no,yes,768,legacy,73,11,/Users/kaylicolpitts/Desktop/adv quant/lab 3/KC-subject-4.csv,legacy,7 9 1 6,Kafkaesque Koffka,3.2.8,0,n,0,right,left,right,right,NA,658,40462,4185,658,NA,2,legacy,4,1024,2,48000,-16,experiment,4,even,4,582423,3512,118402,579074,580181,3486,122589,580194,509670,584436,585096,581207,43988,584436,NA,Sternberg Task,79,75183,86,yes,1024
91.95402299,91.95402299,871.4252874,871.4252874,black,experiment,legacy,legacy,legacy,0,uniform,1,undefined,1,right,86,0,0,86,86,0,0,86,86,86,86,86,0,86,0,Sun Oct 27 20:57:33 2019,The main experiment item,yes,SternnbergTask.osexp,/Users/kaylicolpitts/Desktop/adv quant/lab 3,no,mono,no,18,no,white,no,yes,768,legacy,74,11,/Users/kaylicolpitts/Desktop/adv quant/lab 3/KC-subject-4.csv,legacy,5,Kafkaesque Koffka,3.2.8,0,n,0,right,left,right,right,NA,631,40462,4185,631,NA,2,legacy,1,1024,2,48000,-16,experiment,4,even,8,588457,3512,118402,585110,586217,3486,122589,586229,509670,590469,591102,587242,43988,590469,NA,Sternberg Task,80,75814,87,yes,1024
92.04545455,92.04545455,871.6931818,871.6931818,black,experiment,legacy,legacy,legacy,0,uniform,1,undefined,1,left,87,0,0,87,87,0,0,87,87,87,87,87,0,87,0,Sun Oct 27 20:57:33 2019,The main experiment item,yes,SternnbergTask.osexp,/Users/kaylicolpitts/Desktop/adv quant/lab 3,no,mono,no,18,no,white,no,yes,768,legacy,75,11,/Users/kaylicolpitts/Desktop/adv quant/lab 3/KC-subject-4.csv,legacy,7 4 2 6 3 5,Kafkaesque Koffka,3.2.8,6,y,0,left,left,right,left,NA,895,40462,4185,895,NA,2,legacy,6,1024,2,48000,-16,experiment,4,even,5,594467,3512,118402,591117,592226,3486,122589,592238,509670,596479,597377,593250,43988,596479,NA,Sternberg Task,81,76709,88,yes,1024
92.13483146,92.13483146,871.6853933,871.6853933,black,experiment,legacy,legacy,legacy,0,uniform,1,undefined,1,left,88,0,0,88,88,0,0,88,88,88,88,88,0,88,0,Sun Oct 27 20:57:33 2019,The main experiment item,yes,SternnbergTask.osexp,/Users/kaylicolpitts/Desktop/adv quant/lab 3,no,mono,no,18,no,white,no,yes,768,legacy,76,11,/Users/kaylicolpitts/Desktop/adv quant/lab 3/KC-subject-4.csv,legacy,8,Kafkaesque Koffka,3.2.8,1,y,0,left,left,right,left,NA,871,40462,4185,871,NA,2,legacy,1,1024,2,48000,-16,experiment,4,even,8,600738,3512,118402,597391,598499,3486,122589,598512,509670,602751,603624,599524,43988,602751,NA,Sternberg Task,82,77580,89,yes,1024
92.22222222,92.22222222,870.1111111,870.1111111,black,experiment,legacy,legacy,legacy,0,uniform,1,undefined,1,right,89,0,0,89,89,0,0,89,89,89,89,89,0,89,0,Sun Oct 27 20:57:33 2019,The main experiment item,yes,SternnbergTask.osexp,/Users/kaylicolpitts/Desktop/adv quant/lab 3,no,mono,no,18,no,white,no,yes,768,legacy,77,11,/Users/kaylicolpitts/Desktop/adv quant/lab 3/KC-subject-4.csv,legacy,6 9 7 3 8 2,Kafkaesque Koffka,3.2.8,0,n,0,right,left,right,right,NA,730,40462,4185,730,NA,2,legacy,6,1024,2,48000,-16,experiment,4,even,5,606988,3512,118402,603639,604748,3486,122589,604761,509670,609000,609733,605773,43988,609000,NA,Sternberg Task,83,78310,90,yes,1024
92.30769231,92.30769231,870.7142857,870.7142857,black,experiment,legacy,legacy,legacy,0,uniform,1,undefined,1,right,90,0,0,90,90,0,0,90,90,90,90,90,0,90,0,Sun Oct 27 20:57:33 2019,The main experiment item,yes,SternnbergTask.osexp,/Users/kaylicolpitts/Desktop/adv quant/lab 3,no,mono,no,18,no,white,no,yes,768,legacy,78,11,/Users/kaylicolpitts/Desktop/adv quant/lab 3/KC-subject-4.csv,legacy,1 5 3 2 8,Kafkaesque Koffka,3.2.8,0,n,0,right,left,right,right,NA,925,40462,4185,925,NA,2,legacy,5,1024,2,48000,-16,experiment,4,even,4,613098,3512,118402,609748,610858,3486,122589,610871,509670,615110,616038,611884,43988,615110,NA,Sternberg Task,84,79235,91,yes,1024
92.39130435,92.39130435,870.3478261,870.3478261,black,experiment,legacy,legacy,legacy,0,uniform,1,undefined,1,left,91,0,0,91,91,0,0,91,91,91,91,91,0,91,0,Sun Oct 27 20:57:33 2019,The main experiment item,yes,SternnbergTask.osexp,/Users/kaylicolpitts/Desktop/adv quant/lab 3,no,mono,no,18,no,white,no,yes,768,legacy,79,11,/Users/kaylicolpitts/Desktop/adv quant/lab 3/KC-subject-4.csv,legacy,4 1 5,Kafkaesque Koffka,3.2.8,2,y,0,left,left,right,left,NA,837,40462,4185,837,NA,2,legacy,3,1024,2,48000,-16,experiment,4,even,1,619399,3512,118402,616052,617161,3486,122589,617174,509670,621412,622252,618186,43988,621411,NA,Sternberg Task,85,80072,92,yes,1024
92.47311828,92.47311828,869.0430108,869.0430108,black,experiment,legacy,legacy,legacy,0,uniform,1,undefined,1,left,92,0,0,92,92,0,0,92,92,92,92,92,0,92,0,Sun Oct 27 20:57:33 2019,The main experiment item,yes,SternnbergTask.osexp,/Users/kaylicolpitts/Desktop/adv quant/lab 3,no,mono,no,18,no,white,no,yes,768,legacy,80,11,/Users/kaylicolpitts/Desktop/adv quant/lab 3/KC-subject-4.csv,legacy,7 1 8 5 6 2,Kafkaesque Koffka,3.2.8,2,y,0,left,left,right,left,NA,749,40462,4185,749,NA,2,legacy,6,1024,2,48000,-16,experiment,4,even,1,625619,3512,118402,622267,623378,3486,122589,623391,509670,627632,628384,624404,43988,627631,NA,Sternberg Task,86,80821,93,yes,1024
92.55319149,92.55319149,867.1489362,867.1489362,black,experiment,legacy,legacy,legacy,0,uniform,1,undefined,1,left,93,0,0,93,93,0,0,93,93,93,93,93,0,93,0,Sun Oct 27 20:57:33 2019,The main experiment item,yes,SternnbergTask.osexp,/Users/kaylicolpitts/Desktop/adv quant/lab 3,no,mono,no,18,no,white,no,yes,768,legacy,81,11,/Users/kaylicolpitts/Desktop/adv quant/lab 3/KC-subject-4.csv,legacy,9 5 3 8 4,Kafkaesque Koffka,3.2.8,1,y,0,left,left,right,left,NA,691,40462,4185,691,NA,2,legacy,5,1024,2,48000,-16,experiment,4,even,9,631753,3512,118402,628399,629513,3486,122589,629526,509670,633766,634461,630538,43988,633766,NA,Sternberg Task,87,81512,94,yes,1024
92.63157895,92.63157895,866.4105263,866.4105263,black,experiment,legacy,legacy,legacy,0,uniform,1,undefined,1,right,94,0,0,94,94,0,0,94,94,94,94,94,0,94,0,Sun Oct 27 20:57:33 2019,The main experiment item,yes,SternnbergTask.osexp,/Users/kaylicolpitts/Desktop/adv quant/lab 3,no,mono,no,18,no,white,no,yes,768,legacy,82,11,/Users/kaylicolpitts/Desktop/adv quant/lab 3/KC-subject-4.csv,legacy,6 9 4 5 3 2,Kafkaesque Koffka,3.2.8,0,n,0,right,left,right,right,NA,797,40462,4185,797,NA,2,legacy,6,1024,2,48000,-16,experiment,4,even,8,637825,3512,118402,634475,635584,3486,122589,635597,509670,639838,640637,636611,43988,639838,NA,Sternberg Task,88,82309,95,yes,1024
92.70833333,92.70833333,867.3645833,867.3645833,black,experiment,legacy,legacy,legacy,0,uniform,1,undefined,1,left,95,0,0,95,95,0,0,95,95,95,95,95,0,95,0,Sun Oct 27 20:57:33 2019,The main experiment item,yes,SternnbergTask.osexp,/Users/kaylicolpitts/Desktop/adv quant/lab 3,no,mono,no,18,no,white,no,yes,768,legacy,83,11,/Users/kaylicolpitts/Desktop/adv quant/lab 3/KC-subject-4.csv,legacy,9 3 1 2 5,Kafkaesque Koffka,3.2.8,4,y,0,left,left,right,left,NA,958,40462,4185,958,NA,2,legacy,5,1024,2,48000,-16,experiment,4,even,2,644001,3512,118402,640654,641763,3486,122589,641776,509670,646015,646976,642789,43988,646014,NA,Sternberg Task,89,83267,96,yes,1024
92.78350515,92.78350515,865.8453608,865.8453608,black,experiment,legacy,legacy,legacy,0,uniform,1,undefined,1,left,96,0,0,96,96,0,0,96,96,96,96,96,0,96,0,Sun Oct 27 20:57:33 2019,The main experiment item,yes,SternnbergTask.osexp,/Users/kaylicolpitts/Desktop/adv quant/lab 3,no,mono,no,18,no,white,no,yes,768,legacy,84,11,/Users/kaylicolpitts/Desktop/adv quant/lab 3/KC-subject-4.csv,legacy,4,Kafkaesque Koffka,3.2.8,1,y,0,left,left,right,left,NA,720,40462,4185,720,NA,2,legacy,1,1024,2,48000,-16,experiment,4,even,4,650337,3512,118402,646991,648098,3486,122589,648111,509670,652349,653072,649123,43988,652349,NA,Sternberg Task,90,83987,97,yes,1024
92.85714286,92.85714286,866.5714286,866.5714286,black,experiment,legacy,legacy,legacy,0,uniform,1,undefined,1,left,97,0,0,97,97,0,0,97,97,97,97,97,0,97,0,Sun Oct 27 20:57:33 2019,The main experiment item,yes,SternnbergTask.osexp,/Users/kaylicolpitts/Desktop/adv quant/lab 3,no,mono,no,18,no,white,no,yes,768,legacy,85,11,/Users/kaylicolpitts/Desktop/adv quant/lab 3/KC-subject-4.csv,legacy,8 9 5 7 1 6,Kafkaesque Koffka,3.2.8,4,y,0,left,left,right,left,NA,937,40462,4185,937,NA,2,legacy,6,1024,2,48000,-16,experiment,4,even,7,656435,3512,118402,653087,654196,3486,122589,654209,509670,658449,659390,655221,43988,658448,NA,Sternberg Task,91,84924,98,yes,1024
92.92929293,92.92929293,864.7878788,864.7878788,black,experiment,legacy,legacy,legacy,0,uniform,1,undefined,1,left,98,0,0,98,98,0,0,98,98,98,98,98,0,98,0,Sun Oct 27 20:57:33 2019,The main experiment item,yes,SternnbergTask.osexp,/Users/kaylicolpitts/Desktop/adv quant/lab 3,no,mono,no,18,no,white,no,yes,768,legacy,86,11,/Users/kaylicolpitts/Desktop/adv quant/lab 3/KC-subject-4.csv,legacy,4 3 2 5 8,Kafkaesque Koffka,3.2.8,2,y,0,left,left,right,left,NA,690,40462,4185,690,NA,2,legacy,5,1024,2,48000,-16,experiment,4,even,3,662756,3512,118402,659407,660516,3486,122589,660529,509670,664769,665461,661542,43988,664769,NA,Sternberg Task,92,85614,99,yes,1024
93,93,862.8,862.8,black,experiment,legacy,legacy,legacy,0,uniform,1,undefined,1,left,99,0,0,99,99,0,0,99,99,99,99,99,0,99,0,Sun Oct 27 20:57:33 2019,The main experiment item,yes,SternnbergTask.osexp,/Users/kaylicolpitts/Desktop/adv quant/lab 3,no,mono,no,18,no,white,no,yes,768,legacy,87,11,/Users/kaylicolpitts/Desktop/adv quant/lab 3/KC-subject-4.csv,legacy,9 5 8 1,Kafkaesque Koffka,3.2.8,2,y,0,left,left,right,left,NA,666,40462,4185,666,NA,2,legacy,4,1024,2,48000,-16,experiment,4,even,5,668822,3512,118402,665476,666584,3486,122589,666596,509670,670835,671505,667609,43988,670835,NA,Sternberg Task,93,86280,100,yes,1024
93.06930693,93.06930693,861.8910891,861.8910891,black,experiment,legacy,legacy,legacy,0,uniform,1,undefined,1,right,100,0,0,100,100,0,0,100,100,100,100,100,0,100,0,Sun Oct 27 20:57:33 2019,The main experiment item,yes,SternnbergTask.osexp,/Users/kaylicolpitts/Desktop/adv quant/lab 3,no,mono,no,18,no,white,no,yes,768,legacy,88,11,/Users/kaylicolpitts/Desktop/adv quant/lab 3/KC-subject-4.csv,legacy,2 8 7 9 5 3,Kafkaesque Koffka,3.2.8,0,n,0,right,left,right,right,NA,771,40462,4185,771,NA,2,legacy,6,1024,2,48000,-16,experiment,4,even,6,674870,3512,118402,671520,672630,3486,122589,672642,509670,676882,677657,673655,43988,676882,NA,Sternberg Task,94,87051,101,yes,1024
93.1372549,93.1372549,860.872549,860.872549,black,experiment,legacy,legacy,legacy,0,uniform,1,undefined,1,left,101,0,0,101,101,0,0,101,101,101,101,101,0,101,0,Sun Oct 27 20:57:33 2019,The main experiment item,yes,SternnbergTask.osexp,/Users/kaylicolpitts/Desktop/adv quant/lab 3,no,mono,no,18,no,white,no,yes,768,legacy,89,11,/Users/kaylicolpitts/Desktop/adv quant/lab 3/KC-subject-4.csv,legacy,3 5 9 6 2 4,Kafkaesque Koffka,3.2.8,1,y,0,left,left,right,left,NA,758,40462,4185,758,NA,2,legacy,6,1024,2,48000,-16,experiment,4,even,3,681019,3512,118402,677671,678782,3486,122589,678794,509670,683032,683792,679806,43988,683032,NA,Sternberg Task,95,87809,102,yes,1024
93.2038835,93.2038835,859.1067961,859.1067961,black,experiment,legacy,legacy,legacy,0,uniform,1,undefined,1,left,102,0,0,102,102,0,0,102,102,102,102,102,0,102,0,Sun Oct 27 20:57:33 2019,The main experiment item,yes,SternnbergTask.osexp,/Users/kaylicolpitts/Desktop/adv quant/lab 3,no,mono,no,18,no,white,no,yes,768,legacy,90,11,/Users/kaylicolpitts/Desktop/adv quant/lab 3/KC-subject-4.csv,legacy,8 5 1 3 9,Kafkaesque Koffka,3.2.8,4,y,0,left,left,right,left,NA,679,40462,4185,679,NA,2,legacy,5,1024,2,48000,-16,experiment,4,even,3,687155,3512,118402,683807,684917,3486,122589,684930,509670,689168,689850,685942,43988,689168,NA,Sternberg Task,96,88488,103,yes,1024
93.26923077,93.26923077,857.3942308,857.3942308,black,experiment,legacy,legacy,legacy,0,uniform,1,undefined,1,right,103,0,0,103,103,0,0,103,103,103,103,103,0,103,0,Sun Oct 27 20:57:33 2019,The main experiment item,yes,SternnbergTask.osexp,/Users/kaylicolpitts/Desktop/adv quant/lab 3,no,mono,no,18,no,white,no,yes,768,legacy,91,11,/Users/kaylicolpitts/Desktop/adv quant/lab 3/KC-subject-4.csv,legacy,1 4 9 3,Kafkaesque Koffka,3.2.8,0,n,0,right,left,right,right,NA,681,40462,4185,681,NA,2,legacy,4,1024,2,48000,-16,experiment,4,even,5,693214,3512,118402,689866,690976,3486,122589,690988,509670,695227,695911,692000,43988,695227,NA,Sternberg Task,97,89169,104,yes,1024
93.33333333,93.33333333,855.7333333,855.7333333,black,experiment,legacy,legacy,legacy,0,uniform,1,undefined,1,right,104,0,0,104,104,0,0,104,104,104,104,104,0,104,0,Sun Oct 27 20:57:33 2019,The main experiment item,yes,SternnbergTask.osexp,/Users/kaylicolpitts/Desktop/adv quant/lab 3,no,mono,no,18,no,white,no,yes,768,legacy,92,11,/Users/kaylicolpitts/Desktop/adv quant/lab 3/KC-subject-4.csv,legacy,8 4 3 9,Kafkaesque Koffka,3.2.8,0,n,0,right,left,right,right,NA,683,40462,4185,683,NA,2,legacy,4,1024,2,48000,-16,experiment,4,even,5,699275,3512,118402,695926,697035,3486,122589,697047,509670,701287,701973,698061,43988,701287,NA,Sternberg Task,98,89852,105,yes,1024
92.45283019,92.45283019,856.7641509,856.7641509,black,experiment,legacy,legacy,legacy,0,uniform,0,undefined,0,left,105,0,0,105,105,0,0,105,105,105,105,105,0,105,0,Sun Oct 27 20:57:33 2019,The main experiment item,yes,SternnbergTask.osexp,/Users/kaylicolpitts/Desktop/adv quant/lab 3,no,mono,no,18,no,white,no,yes,768,legacy,93,11,/Users/kaylicolpitts/Desktop/adv quant/lab 3/KC-subject-4.csv,legacy,6 9 3 1,Kafkaesque Koffka,3.2.8,4,y,0,right,left,right,right,NA,965,40462,4185,965,NA,2,legacy,4,1024,2,48000,-16,experiment,4,even,1,705332,3512,118402,701987,703092,3486,122589,703105,509670,707345,708314,704117,43988,707344,NA,Sternberg Task,98,90817,106,yes,1024
92.52336449,92.52336449,855.0560748,855.0560748,black,experiment,legacy,legacy,legacy,0,uniform,1,undefined,1,left,106,0,0,106,106,0,0,106,106,106,106,106,0,106,0,Sun Oct 27 20:57:33 2019,The main experiment item,yes,SternnbergTask.osexp,/Users/kaylicolpitts/Desktop/adv quant/lab 3,no,mono,no,18,no,white,no,yes,768,legacy,94,11,/Users/kaylicolpitts/Desktop/adv quant/lab 3/KC-subject-4.csv,legacy,6 7 8 5,Kafkaesque Koffka,3.2.8,3,y,0,left,left,right,left,NA,674,40462,4185,674,NA,2,legacy,4,1024,2,48000,-16,experiment,4,even,8,711676,3512,118402,701987,709436,3486,122589,709448,708328,713688,714365,710461,43988,713688,NA,Sternberg Task,99,91491,107,yes,1024
92.59259259,92.59259259,853.0925926,853.0925926,black,experiment,legacy,legacy,legacy,0,uniform,1,undefined,1,right,107,0,0,107,107,0,0,107,107,107,107,107,0,107,0,Sun Oct 27 20:57:33 2019,The main experiment item,yes,SternnbergTask.osexp,/Users/kaylicolpitts/Desktop/adv quant/lab 3,no,mono,no,18,no,white,no,yes,768,legacy,95,11,/Users/kaylicolpitts/Desktop/adv quant/lab 3/KC-subject-4.csv,legacy,9 7 4 5 8,Kafkaesque Koffka,3.2.8,0,n,0,right,left,right,right,NA,643,40462,4185,643,NA,2,legacy,5,1024,2,48000,-16,experiment,4,even,6,717727,3512,118402,714380,715488,3486,122589,715500,708328,719739,720385,716512,43988,719739,NA,Sternberg Task,100,92134,108,yes,1024
92.66055046,92.66055046,854.3577982,854.3577982,black,experiment,legacy,legacy,legacy,0,uniform,1,undefined,1,right,108,0,0,108,108,0,0,108,108,108,108,108,0,108,0,Sun Oct 27 20:57:33 2019,The main experiment item,yes,SternnbergTask.osexp,/Users/kaylicolpitts/Desktop/adv quant/lab 3,no,mono,no,18,no,white,no,yes,768,legacy,96,11,/Users/kaylicolpitts/Desktop/adv quant/lab 3/KC-subject-4.csv,legacy,8 6 3 4 7,Kafkaesque Koffka,3.2.8,0,n,0,right,left,right,right,NA,991,40462,4185,991,NA,2,legacy,5,1024,2,48000,-16,experiment,4,even,1,723751,3512,118402,720401,721511,3486,122589,721524,708328,725763,726757,722536,43988,725763,NA,Sternberg Task,101,93125,109,yes,1024
92.72727273,92.72727273,854.9909091,854.9909091,black,experiment,legacy,legacy,legacy,0,uniform,1,undefined,1,left,109,0,0,109,109,0,0,109,109,109,109,109,0,109,0,Sun Oct 27 20:57:33 2019,The main experiment item,yes,SternnbergTask.osexp,/Users/kaylicolpitts/Desktop/adv quant/lab 3,no,mono,no,18,no,white,no,yes,768,legacy,97,11,/Users/kaylicolpitts/Desktop/adv quant/lab 3/KC-subject-4.csv,legacy,6 9 7 4 5 1,Kafkaesque Koffka,3.2.8,2,y,0,left,left,right,left,NA,924,40462,4185,924,NA,2,legacy,6,1024,2,48000,-16,experiment,4,even,9,730117,3512,118402,726771,727878,3486,122589,727891,708328,732129,733057,728903,43988,732129,NA,Sternberg Task,102,94049,110,yes,1024
92.79279279,92.79279279,855.1261261,855.1261261,black,experiment,legacy,legacy,legacy,0,uniform,1,undefined,1,left,110,0,0,110,110,0,0,110,110,110,110,110,0,110,0,Sun Oct 27 20:57:33 2019,The main experiment item,yes,SternnbergTask.osexp,/Users/kaylicolpitts/Desktop/adv quant/lab 3,no,mono,no,18,no,white,no,yes,768,legacy,98,11,/Users/kaylicolpitts/Desktop/adv quant/lab 3/KC-subject-4.csv,legacy,2 6 1 7 4,Kafkaesque Koffka,3.2.8,2,y,0,left,left,right,left,NA,870,40462,4185,870,NA,2,legacy,5,1024,2,48000,-16,experiment,4,even,6,736417,3512,118402,733071,734178,3486,122589,734190,708328,738430,739304,735203,43988,738430,NA,Sternberg Task,103,94919,111,yes,1024
92.85714286,92.85714286,854.3928571,854.3928571,black,experiment,legacy,legacy,legacy,0,uniform,1,undefined,1,left,111,0,0,111,111,0,0,111,111,111,111,111,0,111,0,Sun Oct 27 20:57:33 2019,The main experiment item,yes,SternnbergTask.osexp,/Users/kaylicolpitts/Desktop/adv quant/lab 3,no,mono,no,18,no,white,no,yes,768,legacy,99,11,/Users/kaylicolpitts/Desktop/adv quant/lab 3/KC-subject-4.csv,legacy,6 5,Kafkaesque Koffka,3.2.8,2,y,0,left,left,right,left,NA,773,40462,4185,773,NA,2,legacy,2,1024,2,48000,-16,experiment,4,even,5,742665,3512,118402,739319,740426,3486,122589,740438,708328,744678,745454,741451,43988,744677,NA,Sternberg Task,104,95692,112,yes,1024
92.92035398,92.92035398,853.2654867,853.2654867,black,experiment,legacy,legacy,legacy,0,uniform,1,undefined,1,left,112,0,0,112,112,0,0,112,112,112,112,112,0,112,0,Sun Oct 27 20:57:33 2019,The main experiment item,yes,SternnbergTask.osexp,/Users/kaylicolpitts/Desktop/adv quant/lab 3,no,mono,no,18,no,white,no,yes,768,legacy,100,11,/Users/kaylicolpitts/Desktop/adv quant/lab 3/KC-subject-4.csv,legacy,4 1 8 7 5,Kafkaesque Koffka,3.2.8,3,y,0,left,left,right,left,NA,727,40462,4185,727,NA,2,legacy,5,1024,2,48000,-16,experiment,4,even,8,748816,3512,118402,745471,746578,3486,122589,746590,708328,750828,751559,747602,43988,750828,NA,Sternberg Task,105,96419,113,yes,1024
92.98245614,92.98245614,853.0789474,853.0789474,black,experiment,legacy,legacy,legacy,0,uniform,1,undefined,1,right,113,0,0,113,113,0,0,113,113,113,113,113,0,113,0,Sun Oct 27 20:57:33 2019,The main experiment item,yes,SternnbergTask.osexp,/Users/kaylicolpitts/Desktop/adv quant/lab 3,no,mono,no,18,no,white,no,yes,768,legacy,101,11,/Users/kaylicolpitts/Desktop/adv quant/lab 3/KC-subject-4.csv,legacy,5 9 2 3,Kafkaesque Koffka,3.2.8,0,n,0,right,left,right,right,NA,832,40462,4185,832,NA,2,legacy,4,1024,2,48000,-16,experiment,4,even,8,754919,3512,118402,751574,752681,3486,122589,752693,708328,756932,757767,753705,43988,756932,NA,Sternberg Task,106,97251,114,yes,1024
93.04347826,93.04347826,852.1652174,852.1652174,black,experiment,legacy,legacy,legacy,0,uniform,1,undefined,1,left,114,0,0,114,114,0,0,114,114,114,114,114,0,114,0,Sun Oct 27 20:57:33 2019,The main experiment item,yes,SternnbergTask.osexp,/Users/kaylicolpitts/Desktop/adv quant/lab 3,no,mono,no,18,no,white,no,yes,768,legacy,102,11,/Users/kaylicolpitts/Desktop/adv quant/lab 3/KC-subject-4.csv,legacy,7 1 3,Kafkaesque Koffka,3.2.8,2,y,0,left,left,right,left,NA,748,40462,4185,748,NA,2,legacy,3,1024,2,48000,-16,experiment,4,even,1,761129,3512,118402,757783,758891,3486,122589,758903,708328,763141,763892,759916,43988,763141,NA,Sternberg Task,107,97999,115,yes,1024
93.10344828,93.10344828,855.5258621,855.5258621,black,experiment,legacy,legacy,legacy,0,uniform,1,undefined,1,left,115,0,0,115,115,0,0,115,115,115,115,115,0,115,0,Sun Oct 27 20:57:33 2019,The main experiment item,yes,SternnbergTask.osexp,/Users/kaylicolpitts/Desktop/adv quant/lab 3,no,mono,no,18,no,white,no,yes,768,legacy,103,11,/Users/kaylicolpitts/Desktop/adv quant/lab 3/KC-subject-4.csv,legacy,3 2 1 4 7,Kafkaesque Koffka,3.2.8,2,y,0,left,left,right,left,NA,1242,40462,4185,1242,NA,2,legacy,5,1024,2,48000,-16,experiment,4,even,2,767251,3512,118402,763906,765012,3486,122589,765024,708328,769265,770510,766036,43988,769264,NA,Sternberg Task,108,99241,116,yes,1024
93.16239316,93.16239316,856,856,black,experiment,legacy,legacy,legacy,0,uniform,1,undefined,1,right,116,0,0,116,116,0,0,116,116,116,116,116,0,116,0,Sun Oct 27 20:57:33 2019,The main experiment item,yes,SternnbergTask.osexp,/Users/kaylicolpitts/Desktop/adv quant/lab 3,no,mono,no,18,no,white,no,yes,768,legacy,104,11,/Users/kaylicolpitts/Desktop/adv quant/lab 3/KC-subject-4.csv,legacy,2 8 6 3 1,Kafkaesque Koffka,3.2.8,0,n,0,right,left,right,right,NA,911,40462,4185,911,NA,2,legacy,5,1024,2,48000,-16,experiment,4,even,7,773872,3512,118402,770525,771632,3486,122589,771644,708328,775884,776798,772657,43988,775884,NA,Sternberg Task,109,100152,117,yes,1024
93.22033898,93.22033898,857.2457627,857.2457627,black,experiment,legacy,legacy,legacy,0,uniform,1,undefined,1,left,117,0,0,117,117,0,0,117,117,117,117,117,0,117,0,Sun Oct 27 20:57:33 2019,The main experiment item,yes,SternnbergTask.osexp,/Users/kaylicolpitts/Desktop/adv quant/lab 3,no,mono,no,18,no,white,no,yes,768,legacy,105,11,/Users/kaylicolpitts/Desktop/adv quant/lab 3/KC-subject-4.csv,legacy,5 7 3 6 2,Kafkaesque Koffka,3.2.8,5,y,0,left,left,right,left,NA,1003,40462,4185,1003,NA,2,legacy,5,1024,2,48000,-16,experiment,4,even,2,780162,3512,118402,776813,777922,3486,122589,777934,708328,782174,783180,778947,43988,782174,NA,Sternberg Task,110,101155,118,yes,1024
93.27731092,93.27731092,856.4369748,856.4369748,black,experiment,legacy,legacy,legacy,0,uniform,1,undefined,1,right,118,0,0,118,118,0,0,118,118,118,118,118,0,118,0,Sun Oct 27 20:57:33 2019,The main experiment item,yes,SternnbergTask.osexp,/Users/kaylicolpitts/Desktop/adv quant/lab 3,no,mono,no,18,no,white,no,yes,768,legacy,106,11,/Users/kaylicolpitts/Desktop/adv quant/lab 3/KC-subject-4.csv,legacy,3 4 2,Kafkaesque Koffka,3.2.8,0,n,0,right,left,right,right,NA,761,40462,4185,761,NA,2,legacy,3,1024,2,48000,-16,experiment,4,even,5,786541,3512,118402,783195,784303,3486,122589,784315,708328,788554,789318,785327,43988,788554,NA,Sternberg Task,111,101916,119,yes,1024
93.33333333,93.33333333,855.5,855.5,black,experiment,legacy,legacy,legacy,0,uniform,1,undefined,1,right,119,0,0,119,119,0,0,119,119,119,119,119,0,119,0,Sun Oct 27 20:57:33 2019,The main experiment item,yes,SternnbergTask.osexp,/Users/kaylicolpitts/Desktop/adv quant/lab 3,no,mono,no,18,no,white,no,yes,768,legacy,107,11,/Users/kaylicolpitts/Desktop/adv quant/lab 3/KC-subject-4.csv,legacy,9 5 3 2 8 6,Kafkaesque Koffka,3.2.8,0,n,0,right,left,right,right,NA,744,40462,4185,744,NA,2,legacy,6,1024,2,48000,-16,experiment,4,even,7,792681,3512,118402,789332,790442,3486,122589,790454,708328,794694,795440,791467,43988,794694,NA,Sternberg Task,112,102660,120,yes,1024
93.38842975,93.38842975,858.6694215,858.6694215,black,experiment,legacy,legacy,legacy,0,uniform,1,undefined,1,left,120,0,0,120,120,0,0,120,120,120,120,120,0,120,0,Sun Oct 27 20:57:33 2019,The main experiment item,yes,SternnbergTask.osexp,/Users/kaylicolpitts/Desktop/adv quant/lab 3,no,mono,no,18,no,white,no,yes,768,legacy,108,11,/Users/kaylicolpitts/Desktop/adv quant/lab 3/KC-subject-4.csv,legacy,8 5 3 7 4 6,Kafkaesque Koffka,3.2.8,6,y,0,left,left,right,left,NA,1239,40462,4185,1239,NA,2,legacy,6,1024,2,48000,-16,experiment,4,even,6,798800,3512,118402,795454,796561,3486,122589,796573,708328,800812,802054,797586,43988,800812,NA,Sternberg Task,113,103899,121,yes,1024
93.44262295,93.44262295,861,861,black,experiment,legacy,legacy,legacy,0,uniform,1,undefined,1,left,121,0,0,121,121,0,0,121,121,121,121,121,0,121,0,Sun Oct 27 20:57:33 2019,The main experiment item,yes,SternnbergTask.osexp,/Users/kaylicolpitts/Desktop/adv quant/lab 3,no,mono,no,18,no,white,no,yes,768,legacy,109,11,/Users/kaylicolpitts/Desktop/adv quant/lab 3/KC-subject-4.csv,legacy,3 5 7 1,Kafkaesque Koffka,3.2.8,3,y,0,left,left,right,left,NA,1143,40462,4185,1143,NA,2,legacy,4,1024,2,48000,-16,experiment,4,even,7,805417,3512,118402,802069,803177,3486,122589,803189,708328,807430,808575,804205,43988,807429,NA,Sternberg Task,114,105042,122,yes,1024
93.49593496,93.49593496,862.1626016,862.1626016,black,experiment,legacy,legacy,legacy,0,uniform,1,undefined,1,left,122,0,0,122,122,0,0,122,122,122,122,122,0,122,0,Sun Oct 27 20:57:33 2019,The main experiment item,yes,SternnbergTask.osexp,/Users/kaylicolpitts/Desktop/adv quant/lab 3,no,mono,no,18,no,white,no,yes,768,legacy,110,11,/Users/kaylicolpitts/Desktop/adv quant/lab 3/KC-subject-4.csv,legacy,2 4 6 9,Kafkaesque Koffka,3.2.8,3,y,0,left,left,right,left,NA,1004,40462,4185,1004,NA,2,legacy,4,1024,2,48000,-16,experiment,4,even,6,811936,3512,118402,808590,809698,3486,122589,809710,708328,813948,814955,810722,43988,813948,NA,Sternberg Task,115,106046,123,yes,1024
93.5483871,93.5483871,859.6693548,859.6693548,black,experiment,legacy,legacy,legacy,0,uniform,1,undefined,1,left,123,0,0,123,123,0,0,123,123,123,123,123,0,123,0,Sun Oct 27 20:57:33 2019,The main experiment item,yes,SternnbergTask.osexp,/Users/kaylicolpitts/Desktop/adv quant/lab 3,no,mono,no,18,no,white,no,yes,768,legacy,111,11,/Users/kaylicolpitts/Desktop/adv quant/lab 3/KC-subject-4.csv,legacy,8 7 3,Kafkaesque Koffka,3.2.8,1,y,0,left,left,right,left,NA,553,40462,4185,553,NA,2,legacy,3,1024,2,48000,-16,experiment,4,even,8,818314,3512,118402,814969,816075,3486,122589,816087,708328,820326,820881,817099,43988,820326,NA,Sternberg Task,116,106599,124,yes,1024
93.6,93.6,859.536,859.536,black,experiment,legacy,legacy,legacy,0,uniform,1,undefined,1,left,124,0,0,124,124,0,0,124,124,124,124,124,0,124,0,Sun Oct 27 20:57:33 2019,The main experiment item,yes,SternnbergTask.osexp,/Users/kaylicolpitts/Desktop/adv quant/lab 3,no,mono,no,18,no,white,no,yes,768,legacy,112,11,/Users/kaylicolpitts/Desktop/adv quant/lab 3/KC-subject-4.csv,legacy,3 4 9 6 2 9,Kafkaesque Koffka,3.2.8,5,y,0,left,left,right,left,NA,843,40462,4185,843,NA,2,legacy,6,1024,2,48000,-16,experiment,4,even,2,824241,3512,118402,820896,822003,3486,122589,822015,708328,826253,827099,823027,43988,826253,NA,Sternberg Task,117,107442,125,yes,1024
93.65079365,93.65079365,858.7539683,858.7539683,black,experiment,legacy,legacy,legacy,0,uniform,1,undefined,1,left,125,0,0,125,125,0,0,125,125,125,125,125,0,125,0,Sun Oct 27 20:57:33 2019,The main experiment item,yes,SternnbergTask.osexp,/Users/kaylicolpitts/Desktop/adv quant/lab 3,no,mono,no,18,no,white,no,yes,768,legacy,113,11,/Users/kaylicolpitts/Desktop/adv quant/lab 3/KC-subject-4.csv,legacy,2 5 4 8 7,Kafkaesque Koffka,3.2.8,3,y,0,left,left,right,left,NA,761,40462,4185,761,NA,2,legacy,5,1024,2,48000,-16,experiment,4,even,4,830457,3512,118402,827112,828219,3486,122589,828231,708328,832470,833234,829243,43988,832470,NA,Sternberg Task,118,108203,126,yes,1024
93.7007874,93.7007874,860.5590551,860.5590551,black,experiment,legacy,legacy,legacy,0,uniform,1,undefined,1,right,126,0,0,126,126,0,0,126,126,126,126,126,0,126,0,Sun Oct 27 20:57:33 2019,The main experiment item,yes,SternnbergTask.osexp,/Users/kaylicolpitts/Desktop/adv quant/lab 3,no,mono,no,18,no,white,no,yes,768,legacy,114,11,/Users/kaylicolpitts/Desktop/adv quant/lab 3/KC-subject-4.csv,legacy,7 1 5 6 3,Kafkaesque Koffka,3.2.8,0,n,0,right,left,right,right,NA,1088,40462,4185,1088,NA,2,legacy,5,1024,2,48000,-16,experiment,4,even,8,836595,3512,118402,833248,834356,3486,122589,834367,708328,838607,839698,835381,43988,838607,NA,Sternberg Task,119,109291,127,yes,1024
93.75,93.75,860.6796875,860.6796875,black,experiment,legacy,legacy,legacy,0,uniform,1,undefined,1,left,127,0,0,127,127,0,0,127,127,127,127,127,0,127,0,Sun Oct 27 20:57:33 2019,The main experiment item,yes,SternnbergTask.osexp,/Users/kaylicolpitts/Desktop/adv quant/lab 3,no,mono,no,18,no,white,no,yes,768,legacy,115,11,/Users/kaylicolpitts/Desktop/adv quant/lab 3/KC-subject-4.csv,legacy,1 4 9 3 2 5,Kafkaesque Koffka,3.2.8,3,y,0,left,left,right,left,NA,876,40462,4185,876,NA,2,legacy,6,1024,2,48000,-16,experiment,4,even,9,843061,3512,118402,839714,840822,3486,122589,840834,708328,845074,845953,841847,43988,845074,NA,Sternberg Task,120,110167,128,yes,1024
93.79844961,93.79844961,859.6744186,859.6744186,black,experiment,legacy,legacy,legacy,0,uniform,1,undefined,1,left,128,0,0,128,128,0,0,128,128,128,128,128,0,128,0,Sun Oct 27 20:57:33 2019,The main experiment item,yes,SternnbergTask.osexp,/Users/kaylicolpitts/Desktop/adv quant/lab 3,no,mono,no,18,no,white,no,yes,768,legacy,116,11,/Users/kaylicolpitts/Desktop/adv quant/lab 3/KC-subject-4.csv,legacy,5 2 9 6 1 7,Kafkaesque Koffka,3.2.8,3,y,0,left,left,right,left,NA,731,40462,4185,731,NA,2,legacy,6,1024,2,48000,-16,experiment,4,even,9,849314,3512,118402,845967,847075,3486,122589,847087,708328,851326,852060,848099,43988,851326,NA,Sternberg Task,121,110898,129,yes,1024
93.84615385,93.84615385,858.0769231,858.0769231,black,experiment,legacy,legacy,legacy,0,uniform,1,undefined,1,left,129,0,0,129,129,0,0,129,129,129,129,129,0,129,0,Sun Oct 27 20:57:33 2019,The main experiment item,yes,SternnbergTask.osexp,/Users/kaylicolpitts/Desktop/adv quant/lab 3,no,mono,no,18,no,white,no,yes,768,legacy,117,11,/Users/kaylicolpitts/Desktop/adv quant/lab 3/KC-subject-4.csv,legacy,2 8 5 1,Kafkaesque Koffka,3.2.8,4,y,0,left,left,right,left,NA,652,40462,4185,652,NA,2,legacy,4,1024,2,48000,-16,experiment,4,even,1,855421,3512,118402,852075,853181,3486,122589,853193,708328,857434,858089,854206,43988,857433,NA,Sternberg Task,122,111550,130,yes,1024
93.89312977,93.89312977,857.0229008,857.0229008,black,experiment,legacy,legacy,legacy,0,uniform,1,undefined,1,right,130,0,0,130,130,0,0,130,130,130,130,130,0,130,0,Sun Oct 27 20:57:33 2019,The main experiment item,yes,SternnbergTask.osexp,/Users/kaylicolpitts/Desktop/adv quant/lab 3,no,mono,no,18,no,white,no,yes,768,legacy,118,11,/Users/kaylicolpitts/Desktop/adv quant/lab 3/KC-subject-4.csv,legacy,6 9 4 5 2,Kafkaesque Koffka,3.2.8,0,n,0,right,left,right,right,NA,720,40462,4185,720,NA,2,legacy,5,1024,2,48000,-16,experiment,4,even,1,861449,3512,118402,858103,859210,3486,122589,859222,708328,863461,864185,860234,43988,863461,NA,Sternberg Task,123,112270,131,yes,1024
93.93939394,93.93939394,856.0530303,856.0530303,black,experiment,legacy,legacy,legacy,0,uniform,1,undefined,1,right,131,0,0,131,131,0,0,131,131,131,131,131,0,131,0,Sun Oct 27 20:57:33 2019,The main experiment item,yes,SternnbergTask.osexp,/Users/kaylicolpitts/Desktop/adv quant/lab 3,no,mono,no,18,no,white,no,yes,768,legacy,119,11,/Users/kaylicolpitts/Desktop/adv quant/lab 3/KC-subject-4.csv,legacy,7 6 4 8 1 2,Kafkaesque Koffka,3.2.8,0,n,0,right,left,right,right,NA,729,40462,4185,729,NA,2,legacy,6,1024,2,48000,-16,experiment,4,even,9,867545,3512,118402,864199,865307,3486,122589,865319,708328,869559,870292,866331,43988,869558,NA,Sternberg Task,124,112999,132,yes,1024
93.98496241,93.98496241,855.3909774,855.3909774,black,experiment,legacy,legacy,legacy,0,uniform,1,undefined,1,left,132,0,0,132,132,0,0,132,132,132,132,132,0,132,0,Sun Oct 27 20:57:33 2019,The main experiment item,yes,SternnbergTask.osexp,/Users/kaylicolpitts/Desktop/adv quant/lab 3,no,mono,no,18,no,white,no,yes,768,legacy,120,11,/Users/kaylicolpitts/Desktop/adv quant/lab 3/KC-subject-4.csv,legacy,8 9 5 6 7,Kafkaesque Koffka,3.2.8,1,y,0,left,left,right,left,NA,768,40462,4185,768,NA,2,legacy,5,1024,2,48000,-16,experiment,4,even,8,873659,3512,118402,870310,871420,3486,122589,871433,708328,875671,876441,872445,43988,875671,NA,Sternberg Task,125,113767,133,yes,1024
94.02985075,94.02985075,853.1865672,853.1865672,black,experiment,legacy,legacy,legacy,0,uniform,1,undefined,1,right,133,0,0,133,133,0,0,133,133,133,133,133,0,133,0,Sun Oct 27 20:57:33 2019,The main experiment item,yes,SternnbergTask.osexp,/Users/kaylicolpitts/Desktop/adv quant/lab 3,no,mono,no,18,no,white,no,yes,768,legacy,121,11,/Users/kaylicolpitts/Desktop/adv quant/lab 3/KC-subject-4.csv,legacy,2 5 1 4,Kafkaesque Koffka,3.2.8,0,n,0,right,left,right,right,NA,560,40462,4185,560,NA,2,legacy,4,1024,2,48000,-16,experiment,4,even,6,879809,3512,118402,876456,877566,3486,122589,877580,708328,881822,882386,878593,43988,881821,NA,Sternberg Task,126,114327,134,yes,1024
94.07407407,94.07407407,851.0666667,851.0666667,black,experiment,legacy,legacy,legacy,0,uniform,1,undefined,1,right,134,0,0,134,134,0,0,134,134,134,134,134,0,134,0,Sun Oct 27 20:57:33 2019,The main experiment item,yes,SternnbergTask.osexp,/Users/kaylicolpitts/Desktop/adv quant/lab 3,no,mono,no,18,no,white,no,yes,768,legacy,122,11,/Users/kaylicolpitts/Desktop/adv quant/lab 3/KC-subject-4.csv,legacy,2 6 4 3 9,Kafkaesque Koffka,3.2.8,0,n,0,right,left,right,right,NA,567,40462,4185,567,NA,2,legacy,5,1024,2,48000,-16,experiment,4,even,1,885748,3512,118402,882399,883508,3486,122589,883521,708328,887760,888331,884534,43988,887760,NA,Sternberg Task,127,114894,135,yes,1024
94.11764706,94.11764706,850.4632353,850.4632353,black,experiment,legacy,legacy,legacy,0,uniform,1,undefined,1,right,135,0,0,135,135,0,0,135,135,135,135,135,0,135,0,Sun Oct 27 20:57:33 2019,The main experiment item,yes,SternnbergTask.osexp,/Users/kaylicolpitts/Desktop/adv quant/lab 3,no,mono,no,18,no,white,no,yes,768,legacy,123,11,/Users/kaylicolpitts/Desktop/adv quant/lab 3/KC-subject-4.csv,legacy,5 7 3,Kafkaesque Koffka,3.2.8,0,n,0,right,left,right,right,NA,769,40462,4185,769,NA,2,legacy,3,1024,2,48000,-16,experiment,4,even,9,891692,3512,118402,888345,889453,3486,122589,889465,708328,893705,894476,890478,43988,893705,NA,Sternberg Task,128,115663,136,yes,1024
94.16058394,94.16058394,848.7883212,848.7883212,black,experiment,legacy,legacy,legacy,0,uniform,1,undefined,1,right,136,0,0,136,136,0,0,136,136,136,136,136,0,136,0,Sun Oct 27 20:57:33 2019,The main experiment item,yes,SternnbergTask.osexp,/Users/kaylicolpitts/Desktop/adv quant/lab 3,no,mono,no,18,no,white,no,yes,768,legacy,124,11,/Users/kaylicolpitts/Desktop/adv quant/lab 3/KC-subject-4.csv,legacy,1,Kafkaesque Koffka,3.2.8,0,n,0,right,left,right,right,NA,621,40462,4185,621,NA,2,legacy,1,1024,2,48000,-16,experiment,4,even,7,897836,3512,118402,894491,895596,3486,122589,895609,708328,899848,900472,896621,43988,899848,NA,Sternberg Task,129,116284,137,yes,1024
94.20289855,94.20289855,850.9347826,850.9347826,black,experiment,legacy,legacy,legacy,0,uniform,1,undefined,1,left,137,0,0,137,137,0,0,137,137,137,137,137,0,137,0,Sun Oct 27 20:57:33 2019,The main experiment item,yes,SternnbergTask.osexp,/Users/kaylicolpitts/Desktop/adv quant/lab 3,no,mono,no,18,no,white,no,yes,768,legacy,125,11,/Users/kaylicolpitts/Desktop/adv quant/lab 3/KC-subject-4.csv,legacy,2 3 7 4,Kafkaesque Koffka,3.2.8,1,y,0,left,left,right,left,NA,1145,40462,4185,1145,NA,2,legacy,4,1024,2,48000,-16,experiment,4,even,2,903836,3512,118402,900489,901596,3486,122589,901609,708328,905849,906997,902621,43988,905849,NA,Sternberg Task,130,117429,138,yes,1024