acc,accuracy,average_response_time,avg_rt,background,block,canvas_backend,clock_backend,color_backend,compensation,coordinates,correct,correct_Instruction1,correct_keyboard_response,correct_response,count_CorrectFeedback,count_ExpSequence,count_ExperimentLoop,count_Fixation,count_ISI,count_Instruction1,count_Instructions2,count_MemorySet,count_PracticeLoop,count_Probe,count_ThankYou,count_experiment,count_incorrectFeedback,count_keyboard_response,count_logger,datetime,description,disable_garbage_collection,experiment_file,experiment_path,font_bold,font_family,font_italic,font_size,font_underline,foreground,form_clicks,fullscreen,height,keyboard_backend,live_row,live_row_PracticeLoop,logfile,mouse_backend,numberSet,opensesame_codename,opensesame_version,posInSet,present,repeat_cycle,response,response_Instruction1,response_Instructions2,response_ThankYou,response_keyboard_response,response_time,response_time_Instruction1,response_time_Instructions2,response_time_ThankYou,response_time_keyboard_response,round_decimals,sampler_backend,setSize,sound_buf_size,sound_channels,sound_freq,sound_sample_size,start,subject_nr,subject_parity,target,time_CorrectFeedback,time_ExpSequence,time_ExperimentLoop,time_Fixation,time_ISI,time_Instruction1,time_Instructions2,time_MemorySet,time_PracticeLoop,time_Probe,time_ThankYou,time_experiment,time_incorrectFeedback,time_keyboard_response,time_logger,title,total_correct,total_response_time,total_responses,uniform_coordinates,width
100,100,815,815,black,practice,legacy,legacy,legacy,0,uniform,1,undefined,1,left,0,0,0,0,0,0,0,0,0,0,0,0,0,0,0,10/27/19 19:27,The main experiment item,yes,SternbergTask.osexp,E:\Classwork\AQMAED,no,mono,no,18,no,white,no,yes,768,legacy,0,0,E:/Classwork/AQMAED/Stenberg/MS-subject-3.csv,legacy,1 5 2 9,Kafkaesque Koffka,3.2.8,2,y,0,left,left,NA,NA,left,815,72833,NA,NA,815,2,legacy,4,1024,2,48000,-16,experiment,3,odd,5,NA,75591,NA,75593,77803,2228,NA,76597,75061,79807,NA,2225,NA,79808,80624,Sternberg Task,1,815,1,yes,1024
100,100,751,751,black,practice,legacy,legacy,legacy,0,uniform,1,undefined,1,right,1,1,0,1,1,0,0,1,0,1,0,0,1,1,1,10/27/19 19:27,The main experiment item,yes,SternbergTask.osexp,E:\Classwork\AQMAED,no,mono,no,18,no,white,no,yes,768,legacy,1,1,E:/Classwork/AQMAED/Stenberg/MS-subject-3.csv,legacy,2 1,Kafkaesque Koffka,3.2.8,0,n,0,right,left,NA,NA,right,687,72833,NA,NA,687,2,legacy,2,1024,2,48000,-16,experiment,3,odd,5,80689,81786,NA,81788,83996,2228,NA,82793,75061,86002,NA,2225,NA,86003,86690,Sternberg Task,2,1502,2,yes,1024
100,100,729,729,black,practice,legacy,legacy,legacy,0,uniform,1,undefined,1,right,2,2,0,2,2,0,0,2,0,2,0,0,2,2,2,10/27/19 19:27,The main experiment item,yes,SternbergTask.osexp,E:\Classwork\AQMAED,no,mono,no,18,no,white,no,yes,768,legacy,2,2,E:/Classwork/AQMAED/Stenberg/MS-subject-3.csv,legacy,4 1 5,Kafkaesque Koffka,3.2.8,0,n,0,right,left,NA,NA,right,685,72833,NA,NA,685,2,legacy,3,1024,2,48000,-16,experiment,3,odd,2,86703,87804,NA,87806,90017,2228,NA,88810,75061,92023,NA,2225,NA,92023,92708,Sternberg Task,3,2187,3,yes,1024
75,75,853,853,black,practice,legacy,legacy,legacy,0,uniform,0,undefined,0,left,3,3,0,3,3,0,0,3,0,3,0,0,3,3,3,10/27/19 19:27,The main experiment item,yes,SternbergTask.osexp,E:\Classwork\AQMAED,no,mono,no,18,no,white,no,yes,768,legacy,3,3,E:/Classwork/AQMAED/Stenberg/MS-subject-3.csv,legacy,2 9 4,Kafkaesque Koffka,3.2.8,3,y,0,right,left,NA,NA,right,1225,72833,NA,NA,1225,2,legacy,3,1024,2,48000,-16,experiment,3,odd,4,92742,93848,NA,93850,96059,2228,NA,94855,75061,98065,NA,2225,NA,98066,99291,Sternberg Task,3,3412,4,yes,1024
80,80,823.6,823.6,black,practice,legacy,legacy,legacy,0,uniform,1,undefined,1,left,4,4,0,4,4,0,0,4,0,4,0,0,4,4,4,10/27/19 19:27,The main experiment item,yes,SternbergTask.osexp,E:\Classwork\AQMAED,no,mono,no,18,no,white,no,yes,768,legacy,4,4,E:/Classwork/AQMAED/Stenberg/MS-subject-3.csv,legacy,6,Kafkaesque Koffka,3.2.8,1,y,0,left,left,NA,NA,left,706,72833,NA,NA,706,2,legacy,1,1024,2,48000,-16,experiment,3,odd,6,92742,100403,NA,100405,102614,2228,NA,101410,75061,104619,NA,2225,99297,104620,105326,Sternberg Task,4,4118,5,yes,1024
83.33333333,83.33333333,816.3333333,816.3333333,black,practice,legacy,legacy,legacy,0,uniform,1,undefined,1,left,5,5,0,5,5,0,0,5,0,5,0,0,5,5,5,10/27/19 19:27,The main experiment item,yes,SternbergTask.osexp,E:\Classwork\AQMAED,no,mono,no,18,no,white,no,yes,768,legacy,5,5,E:/Classwork/AQMAED/Stenberg/MS-subject-3.csv,legacy,4 3 1 7 9 8,Kafkaesque Koffka,3.2.8,1,y,0,left,left,NA,NA,left,780,72833,NA,NA,780,2,legacy,6,1024,2,48000,-16,experiment,3,odd,4,105331,106425,NA,106427,108636,2228,NA,107431,75061,110642,NA,2225,99297,110642,111422,Sternberg Task,5,4898,6,yes,1024
85.71428571,85.71428571,878.4285714,878.4285714,black,practice,legacy,legacy,legacy,0,uniform,1,undefined,1,left,6,6,0,6,6,0,0,6,0,6,0,0,6,6,6,10/27/19 19:27,The main experiment item,yes,SternbergTask.osexp,E:\Classwork\AQMAED,no,mono,no,18,no,white,no,yes,768,legacy,6,6,E:/Classwork/AQMAED/Stenberg/MS-subject-3.csv,legacy,1 7 9 8 5,Kafkaesque Koffka,3.2.8,4,y,0,left,left,NA,NA,left,1251,72833,NA,NA,1251,2,legacy,5,1024,2,48000,-16,experiment,3,odd,8,111427,112523,NA,112525,114735,2228,NA,113530,75061,116741,NA,2225,99297,116741,117992,Sternberg Task,6,6149,7,yes,1024
87.5,87.5,856.625,856.625,black,practice,legacy,legacy,legacy,0,uniform,1,undefined,1,right,7,7,0,7,7,0,0,7,0,7,0,0,7,7,7,10/27/19 19:27,The main experiment item,yes,SternbergTask.osexp,E:\Classwork\AQMAED,no,mono,no,18,no,white,no,yes,768,legacy,7,7,E:/Classwork/AQMAED/Stenberg/MS-subject-3.csv,legacy,5,Kafkaesque Koffka,3.2.8,0,n,0,right,left,NA,NA,right,704,72833,NA,NA,704,2,legacy,1,1024,2,48000,-16,experiment,3,odd,3,117997,119095,NA,119097,121305,2228,NA,120101,75061,123310,NA,2225,99297,123310,124015,Sternberg Task,7,6853,8,yes,1024
88.88888889,88.88888889,853.1111111,853.1111111,black,practice,legacy,legacy,legacy,0,uniform,1,undefined,1,right,8,8,0,8,8,0,0,8,0,8,0,0,8,8,8,10/27/19 19:27,The main experiment item,yes,SternbergTask.osexp,E:\Classwork\AQMAED,no,mono,no,18,no,white,no,yes,768,legacy,8,8,E:/Classwork/AQMAED/Stenberg/MS-subject-3.csv,legacy,9 6 7 4 5,Kafkaesque Koffka,3.2.8,0,n,0,right,left,NA,NA,right,825,72833,NA,NA,825,2,legacy,5,1024,2,48000,-16,experiment,3,odd,3,124020,125128,NA,125130,127339,2228,NA,126134,75061,129344,NA,2225,99297,129344,130169,Sternberg Task,8,7678,9,yes,1024
90,90,849.4,849.4,black,practice,legacy,legacy,legacy,0,uniform,1,undefined,1,right,9,9,0,9,9,0,0,9,0,9,0,0,9,9,9,10/27/19 19:27,The main experiment item,yes,SternbergTask.osexp,E:\Classwork\AQMAED,no,mono,no,18,no,white,no,yes,768,legacy,9,9,E:/Classwork/AQMAED/Stenberg/MS-subject-3.csv,legacy,3 1 9 4,Kafkaesque Koffka,3.2.8,0,n,0,right,left,NA,NA,right,816,72833,NA,NA,816,2,legacy,4,1024,2,48000,-16,experiment,3,odd,6,130176,131280,NA,131282,133493,2228,NA,132287,75061,135498,NA,2225,99297,135499,136315,Sternberg Task,9,8494,10,yes,1024
81.81818182,81.81818182,843.9090909,843.9090909,black,practice,legacy,legacy,legacy,0,uniform,0,undefined,0,left,10,10,0,10,10,0,0,10,0,10,0,0,10,10,10,10/27/19 19:27,The main experiment item,yes,SternbergTask.osexp,E:\Classwork\AQMAED,no,mono,no,18,no,white,no,yes,768,legacy,10,10,E:/Classwork/AQMAED/Stenberg/MS-subject-3.csv,legacy,4 8,Kafkaesque Koffka,3.2.8,1,y,0,right,left,NA,NA,right,789,72833,NA,NA,789,2,legacy,2,1024,2,48000,-16,experiment,3,odd,4,136321,137428,NA,137430,139639,2228,NA,138435,75061,141645,NA,2225,99297,141645,142434,Sternberg Task,9,9283,11,yes,1024
83.33333333,83.33333333,837.3333333,837.3333333,black,practice,legacy,legacy,legacy,0,uniform,1,undefined,1,right,11,11,0,11,11,0,0,11,0,11,0,0,11,11,11,10/27/19 19:27,The main experiment item,yes,SternbergTask.osexp,E:\Classwork\AQMAED,no,mono,no,18,no,white,no,yes,768,legacy,11,11,E:/Classwork/AQMAED/Stenberg/MS-subject-3.csv,legacy,5 7 8 4 1 2,Kafkaesque Koffka,3.2.8,0,n,0,right,left,NA,NA,right,765,72833,NA,NA,765,2,legacy,6,1024,2,48000,-16,experiment,3,odd,6,136321,143539,NA,143541,145751,2228,NA,144545,75061,147755,NA,2225,142439,147755,148521,Sternberg Task,10,10048,12,yes,1024
84.61538462,84.61538462,820.6923077,820.6923077,black,experiment,legacy,legacy,legacy,0,uniform,1,undefined,1,right,12,12,0,12,12,0,0,12,0,12,0,0,12,12,12,10/27/19 19:27,The main experiment item,yes,SternbergTask.osexp,E:\Classwork\AQMAED,no,mono,no,18,no,white,no,yes,768,legacy,0,11,E:/Classwork/AQMAED/Stenberg/MS-subject-3.csv,legacy,6 9 4 5 2,Kafkaesque Koffka,3.2.8,0,n,0,right,left,left,NA,right,621,72833,86980,NA,621,2,legacy,5,1024,2,48000,-16,experiment,3,odd,1,148526,236638,236544,236639,238848,2228,149564,237643,75061,240853,NA,2225,142439,240854,241475,Sternberg Task,11,10669,13,yes,1024
85.71428571,85.71428571,842.2857143,842.2857143,black,experiment,legacy,legacy,legacy,0,uniform,1,undefined,1,left,13,13,0,13,13,0,0,13,0,13,0,0,13,13,13,10/27/19 19:27,The main experiment item,yes,SternbergTask.osexp,E:\Classwork\AQMAED,no,mono,no,18,no,white,no,yes,768,legacy,1,11,E:/Classwork/AQMAED/Stenberg/MS-subject-3.csv,legacy,4 6 2 5 1,Kafkaesque Koffka,3.2.8,5,y,0,left,left,left,NA,left,1123,72833,86980,NA,1123,2,legacy,5,1024,2,48000,-16,experiment,3,odd,1,241491,242597,236544,242599,244810,2228,149564,243604,75061,246815,NA,2225,142439,246815,247938,Sternberg Task,12,11792,14,yes,1024
86.66666667,86.66666667,846.5333333,846.5333333,black,experiment,legacy,legacy,legacy,0,uniform,1,undefined,1,left,14,14,0,14,14,0,0,14,0,14,0,0,14,14,14,10/27/19 19:27,The main experiment item,yes,SternbergTask.osexp,E:\Classwork\AQMAED,no,mono,no,18,no,white,no,yes,768,legacy,2,11,E:/Classwork/AQMAED/Stenberg/MS-subject-3.csv,legacy,8 1 6,Kafkaesque Koffka,3.2.8,3,y,0,left,left,left,NA,left,906,72833,86980,NA,906,2,legacy,3,1024,2,48000,-16,experiment,3,odd,6,247946,249050,236544,249052,251260,2228,149564,250055,75061,253264,NA,2225,142439,253265,254171,Sternberg Task,13,12698,15,yes,1024
87.5,87.5,850.5,850.5,black,experiment,legacy,legacy,legacy,0,uniform,1,undefined,1,right,15,15,0,15,15,0,0,15,0,15,0,0,15,15,15,10/27/19 19:27,The main experiment item,yes,SternbergTask.osexp,E:\Classwork\AQMAED,no,mono,no,18,no,white,no,yes,768,legacy,3,11,E:/Classwork/AQMAED/Stenberg/MS-subject-3.csv,legacy,3 9 8 1 6 4,Kafkaesque Koffka,3.2.8,0,n,0,right,left,left,NA,right,910,72833,86980,NA,910,2,legacy,6,1024,2,48000,-16,experiment,3,odd,7,254178,255273,236544,255275,257486,2228,149564,256280,75061,259492,NA,2225,142439,259492,260402,Sternberg Task,14,13608,16,yes,1024
88.23529412,88.23529412,843.2941176,843.2941176,black,experiment,legacy,legacy,legacy,0,uniform,1,undefined,1,right,16,16,0,16,16,0,0,16,0,16,0,0,16,16,16,10/27/19 19:27,The main experiment item,yes,SternbergTask.osexp,E:\Classwork\AQMAED,no,mono,no,18,no,white,no,yes,768,legacy,4,11,E:/Classwork/AQMAED/Stenberg/MS-subject-3.csv,legacy,2 8 6 3 1,Kafkaesque Koffka,3.2.8,0,n,0,right,left,left,NA,right,728,72833,86980,NA,728,2,legacy,5,1024,2,48000,-16,experiment,3,odd,7,260407,261503,236544,261504,263713,2228,149564,262508,75061,265720,NA,2225,142439,265720,266449,Sternberg Task,15,14336,17,yes,1024
88.88888889,88.88888889,843.8333333,843.8333333,black,experiment,legacy,legacy,legacy,0,uniform,1,undefined,1,left,17,17,0,17,17,0,0,17,0,17,0,0,17,17,17,10/27/19 19:27,The main experiment item,yes,SternbergTask.osexp,E:\Classwork\AQMAED,no,mono,no,18,no,white,no,yes,768,legacy,5,11,E:/Classwork/AQMAED/Stenberg/MS-subject-3.csv,legacy,8 3,Kafkaesque Koffka,3.2.8,2,y,0,left,left,left,NA,left,853,72833,86980,NA,853,2,legacy,2,1024,2,48000,-16,experiment,3,odd,3,266454,267548,236544,267550,269766,2228,149564,268555,75061,271772,NA,2225,142439,271772,272625,Sternberg Task,16,15189,18,yes,1024
84.21052632,84.21052632,847.6315789,847.6315789,black,experiment,legacy,legacy,legacy,0,uniform,0,undefined,0,right,18,18,0,18,18,0,0,18,0,18,0,0,18,18,18,10/27/19 19:27,The main experiment item,yes,SternbergTask.osexp,E:\Classwork\AQMAED,no,mono,no,18,no,white,no,yes,768,legacy,6,11,E:/Classwork/AQMAED/Stenberg/MS-subject-3.csv,legacy,2 3 8 5 6 7,Kafkaesque Koffka,3.2.8,0,n,0,left,left,left,NA,left,916,72833,86980,NA,916,2,legacy,6,1024,2,48000,-16,experiment,3,odd,1,272631,273735,236544,273737,275947,2228,149564,274741,75061,277952,NA,2225,142439,277952,278868,Sternberg Task,16,16105,19,yes,1024
85,85,844.85,844.85,black,experiment,legacy,legacy,legacy,0,uniform,1,undefined,1,left,19,19,0,19,19,0,0,19,0,19,0,0,19,19,19,10/27/19 19:27,The main experiment item,yes,SternbergTask.osexp,E:\Classwork\AQMAED,no,mono,no,18,no,white,no,yes,768,legacy,7,11,E:/Classwork/AQMAED/Stenberg/MS-subject-3.csv,legacy,4 1 5,Kafkaesque Koffka,3.2.8,2,y,0,left,left,left,NA,left,792,72833,86980,NA,792,2,legacy,3,1024,2,48000,-16,experiment,3,odd,1,272631,279965,236544,279967,282176,2228,149564,280972,75061,284181,NA,2225,278873,284182,284975,Sternberg Task,17,16897,20,yes,1024
85.71428571,85.71428571,852.047619,852.047619,black,experiment,legacy,legacy,legacy,0,uniform,1,undefined,1,left,20,20,0,20,20,0,0,20,0,20,0,0,20,20,20,10/27/19 19:27,The main experiment item,yes,SternbergTask.osexp,E:\Classwork\AQMAED,no,mono,no,18,no,white,no,yes,768,legacy,8,11,E:/Classwork/AQMAED/Stenberg/MS-subject-3.csv,legacy,2 3 7 4,Kafkaesque Koffka,3.2.8,1,y,0,left,left,left,NA,left,996,72833,86980,NA,996,2,legacy,4,1024,2,48000,-16,experiment,3,odd,2,284987,286075,236544,286077,288287,2228,149564,287081,75061,290291,NA,2225,278873,290292,291289,Sternberg Task,18,17893,21,yes,1024
86.36363636,86.36363636,847.3181818,847.3181818,black,experiment,legacy,legacy,legacy,0,uniform,1,undefined,1,right,21,21,0,21,21,0,0,21,0,21,0,0,21,21,21,10/27/19 19:27,The main experiment item,yes,SternbergTask.osexp,E:\Classwork\AQMAED,no,mono,no,18,no,white,no,yes,768,legacy,9,11,E:/Classwork/AQMAED/Stenberg/MS-subject-3.csv,legacy,6 9 7 3 8 2,Kafkaesque Koffka,3.2.8,0,n,0,right,left,left,NA,right,748,72833,86980,NA,748,2,legacy,6,1024,2,48000,-16,experiment,3,odd,5,291305,292402,236544,292403,294613,2228,149564,293407,75061,296620,NA,2225,278873,296620,297369,Sternberg Task,19,18641,22,yes,1024
86.95652174,86.95652174,846.4347826,846.4347826,black,experiment,legacy,legacy,legacy,0,uniform,1,undefined,1,right,22,22,0,22,22,0,0,22,0,22,0,0,22,22,22,10/27/19 19:27,The main experiment item,yes,SternbergTask.osexp,E:\Classwork\AQMAED,no,mono,no,18,no,white,no,yes,768,legacy,10,11,E:/Classwork/AQMAED/Stenberg/MS-subject-3.csv,legacy,8 2 1 4 5 9,Kafkaesque Koffka,3.2.8,0,n,0,right,left,left,NA,right,827,72833,86980,NA,827,2,legacy,6,1024,2,48000,-16,experiment,3,odd,7,297376,298463,236544,298465,300675,2228,149564,299470,75061,302680,NA,2225,278873,302680,303508,Sternberg Task,20,19468,23,yes,1024
87.5,87.5,841.9583333,841.9583333,black,experiment,legacy,legacy,legacy,0,uniform,1,undefined,1,left,23,23,0,23,23,0,0,23,0,23,0,0,23,23,23,10/27/19 19:27,The main experiment item,yes,SternbergTask.osexp,E:\Classwork\AQMAED,no,mono,no,18,no,white,no,yes,768,legacy,11,11,E:/Classwork/AQMAED/Stenberg/MS-subject-3.csv,legacy,4 6 5 8,Kafkaesque Koffka,3.2.8,1,y,0,left,left,left,NA,left,739,72833,86980,NA,739,2,legacy,4,1024,2,48000,-16,experiment,3,odd,4,303513,304620,236544,304622,306833,2228,149564,305627,75061,308837,NA,2225,278873,308838,309578,Sternberg Task,21,20207,24,yes,1024
88,88,849.08,849.08,black,experiment,legacy,legacy,legacy,0,uniform,1,undefined,1,left,24,24,0,24,24,0,0,24,0,24,0,0,24,24,24,10/27/19 19:27,The main experiment item,yes,SternbergTask.osexp,E:\Classwork\AQMAED,no,mono,no,18,no,white,no,yes,768,legacy,12,11,E:/Classwork/AQMAED/Stenberg/MS-subject-3.csv,legacy,4 1 8 7 5,Kafkaesque Koffka,3.2.8,3,y,0,left,left,left,NA,left,1020,72833,86980,NA,1020,2,legacy,5,1024,2,48000,-16,experiment,3,odd,8,309597,310692,236544,310694,312904,2228,149564,311698,75061,314908,NA,2225,278873,314909,315930,Sternberg Task,22,21227,25,yes,1024
88.46153846,88.46153846,846.5384615,846.5384615,black,experiment,legacy,legacy,legacy,0,uniform,1,undefined,1,right,25,25,0,25,25,0,0,25,0,25,0,0,25,25,25,10/27/19 19:27,The main experiment item,yes,SternbergTask.osexp,E:\Classwork\AQMAED,no,mono,no,18,no,white,no,yes,768,legacy,13,11,E:/Classwork/AQMAED/Stenberg/MS-subject-3.csv,legacy,6 9 5,Kafkaesque Koffka,3.2.8,0,n,0,right,left,left,NA,right,783,72833,86980,NA,783,2,legacy,3,1024,2,48000,-16,experiment,3,odd,8,315938,317046,236544,317048,319258,2228,149564,318052,75061,321263,NA,2225,278873,321263,322047,Sternberg Task,23,22010,26,yes,1024
88.88888889,88.88888889,846.8518519,846.8518519,black,experiment,legacy,legacy,legacy,0,uniform,1,undefined,1,left,26,26,0,26,26,0,0,26,0,26,0,0,26,26,26,10/27/19 19:27,The main experiment item,yes,SternbergTask.osexp,E:\Classwork\AQMAED,no,mono,no,18,no,white,no,yes,768,legacy,14,11,E:/Classwork/AQMAED/Stenberg/MS-subject-3.csv,legacy,8 5 1 3 9,Kafkaesque Koffka,3.2.8,4,y,0,left,left,left,NA,left,855,72833,86980,NA,855,2,legacy,5,1024,2,48000,-16,experiment,3,odd,3,322052,323147,236544,323149,325358,2228,149564,324153,75061,327363,NA,2225,278873,327363,328219,Sternberg Task,24,22865,27,yes,1024
89.28571429,89.28571429,845.0714286,845.0714286,black,experiment,legacy,legacy,legacy,0,uniform,1,undefined,1,right,27,27,0,27,27,0,0,27,0,27,0,0,27,27,27,10/27/19 19:27,The main experiment item,yes,SternbergTask.osexp,E:\Classwork\AQMAED,no,mono,no,18,no,white,no,yes,768,legacy,15,11,E:/Classwork/AQMAED/Stenberg/MS-subject-3.csv,legacy,1 4 9 2 5,Kafkaesque Koffka,3.2.8,0,n,0,right,left,left,NA,right,797,72833,86980,NA,797,2,legacy,5,1024,2,48000,-16,experiment,3,odd,7,328224,329319,236544,329321,331531,2228,149564,330325,75061,333533,NA,2225,278873,333533,334330,Sternberg Task,25,23662,28,yes,1024
86.20689655,86.20689655,847.5862069,847.5862069,black,experiment,legacy,legacy,legacy,0,uniform,0,undefined,0,left,28,28,0,28,28,0,0,28,0,28,0,0,28,28,28,10/27/19 19:27,The main experiment item,yes,SternbergTask.osexp,E:\Classwork\AQMAED,no,mono,no,18,no,white,no,yes,768,legacy,16,11,E:/Classwork/AQMAED/Stenberg/MS-subject-3.csv,legacy,5 2 9 6 1 7,Kafkaesque Koffka,3.2.8,3,y,0,right,left,left,NA,right,918,72833,86980,NA,918,2,legacy,6,1024,2,48000,-16,experiment,3,odd,9,334335,335440,236544,335441,337648,2228,149564,336444,75061,339654,NA,2225,278873,339654,340572,Sternberg Task,25,24580,29,yes,1024
83.33333333,83.33333333,849.0666667,849.0666667,black,experiment,legacy,legacy,legacy,0,uniform,0,undefined,0,left,29,29,0,29,29,0,0,29,0,29,0,0,29,29,29,10/27/19 19:27,The main experiment item,yes,SternbergTask.osexp,E:\Classwork\AQMAED,no,mono,no,18,no,white,no,yes,768,legacy,17,11,E:/Classwork/AQMAED/Stenberg/MS-subject-3.csv,legacy,4 7 6 8 2 3,Kafkaesque Koffka,3.2.8,6,y,0,right,left,left,NA,right,892,72833,86980,NA,892,2,legacy,6,1024,2,48000,-16,experiment,3,odd,3,334335,341674,236544,341676,343885,2228,149564,342681,75061,345889,NA,2225,340578,345890,346783,Sternberg Task,25,25472,30,yes,1024
83.87096774,83.87096774,847.0322581,847.0322581,black,experiment,legacy,legacy,legacy,0,uniform,1,undefined,1,right,30,30,0,30,30,0,0,30,0,30,0,0,30,30,30,10/27/19 19:27,The main experiment item,yes,SternbergTask.osexp,E:\Classwork\AQMAED,no,mono,no,18,no,white,no,yes,768,legacy,18,11,E:/Classwork/AQMAED/Stenberg/MS-subject-3.csv,legacy,3 9 1,Kafkaesque Koffka,3.2.8,0,n,0,right,left,left,NA,right,786,72833,86980,NA,786,2,legacy,3,1024,2,48000,-16,experiment,3,odd,7,334335,347898,236544,347899,350108,2228,149564,348904,75061,352114,NA,2225,346788,352114,352900,Sternberg Task,26,26258,31,yes,1024
84.375,84.375,844.15625,844.15625,black,experiment,legacy,legacy,legacy,0,uniform,1,undefined,1,left,31,31,0,31,31,0,0,31,0,31,0,0,31,31,31,10/27/19 19:27,The main experiment item,yes,SternbergTask.osexp,E:\Classwork\AQMAED,no,mono,no,18,no,white,no,yes,768,legacy,19,11,E:/Classwork/AQMAED/Stenberg/MS-subject-3.csv,legacy,6 2,Kafkaesque Koffka,3.2.8,1,y,0,left,left,left,NA,left,755,72833,86980,NA,755,2,legacy,2,1024,2,48000,-16,experiment,3,odd,6,352905,353997,236544,353999,356208,2228,149564,355004,75061,358214,NA,2225,346788,358215,358971,Sternberg Task,27,27013,32,yes,1024
84.84848485,84.84848485,837.7878788,837.7878788,black,experiment,legacy,legacy,legacy,0,uniform,1,undefined,1,right,32,32,0,32,32,0,0,32,0,32,0,0,32,32,32,10/27/19 19:27,The main experiment item,yes,SternbergTask.osexp,E:\Classwork\AQMAED,no,mono,no,18,no,white,no,yes,768,legacy,20,11,E:/Classwork/AQMAED/Stenberg/MS-subject-3.csv,legacy,1 4 9 3,Kafkaesque Koffka,3.2.8,0,n,0,right,left,left,NA,right,634,72833,86980,NA,634,2,legacy,4,1024,2,48000,-16,experiment,3,odd,5,358985,360092,236544,360094,362301,2228,149564,361095,75061,364307,NA,2225,346788,364307,364942,Sternberg Task,28,27647,33,yes,1024
85.29411765,85.29411765,830.8529412,830.8529412,black,experiment,legacy,legacy,legacy,0,uniform,1,undefined,1,right,33,33,0,33,33,0,0,33,0,33,0,0,33,33,33,10/27/19 19:27,The main experiment item,yes,SternbergTask.osexp,E:\Classwork\AQMAED,no,mono,no,18,no,white,no,yes,768,legacy,21,11,E:/Classwork/AQMAED/Stenberg/MS-subject-3.csv,legacy,4 8 1 2,Kafkaesque Koffka,3.2.8,0,n,0,right,left,left,NA,right,602,72833,86980,NA,602,2,legacy,4,1024,2,48000,-16,experiment,3,odd,7,364949,366064,236544,366066,368276,2228,149564,367071,75061,370281,NA,2225,346788,370282,370884,Sternberg Task,29,28249,34,yes,1024
85.71428571,85.71428571,829.5142857,829.5142857,black,experiment,legacy,legacy,legacy,0,uniform,1,undefined,1,right,34,34,0,34,34,0,0,34,0,34,0,0,34,34,34,10/27/19 19:27,The main experiment item,yes,SternbergTask.osexp,E:\Classwork\AQMAED,no,mono,no,18,no,white,no,yes,768,legacy,22,11,E:/Classwork/AQMAED/Stenberg/MS-subject-3.csv,legacy,2 8 7 9 5 3,Kafkaesque Koffka,3.2.8,0,n,0,right,left,left,NA,right,784,72833,86980,NA,784,2,legacy,6,1024,2,48000,-16,experiment,3,odd,6,370890,371980,236544,371981,374191,2228,149564,372985,75061,376196,NA,2225,346788,376196,376980,Sternberg Task,30,29033,35,yes,1024
86.11111111,86.11111111,822.75,822.75,black,experiment,legacy,legacy,legacy,0,uniform,1,undefined,1,right,35,35,0,35,35,0,0,35,0,35,0,0,35,35,35,10/27/19 19:27,The main experiment item,yes,SternbergTask.osexp,E:\Classwork\AQMAED,no,mono,no,18,no,white,no,yes,768,legacy,23,11,E:/Classwork/AQMAED/Stenberg/MS-subject-3.csv,legacy,1,Kafkaesque Koffka,3.2.8,0,n,0,right,left,left,NA,right,586,72833,86980,NA,586,2,legacy,1,1024,2,48000,-16,experiment,3,odd,7,376986,378081,236544,378083,380295,2228,149564,379088,75061,382301,NA,2225,346788,382302,382889,Sternberg Task,31,29619,36,yes,1024
86.48648649,86.48648649,821.972973,821.972973,black,experiment,legacy,legacy,legacy,0,uniform,1,undefined,1,right,36,36,0,36,36,0,0,36,0,36,0,0,36,36,36,10/27/19 19:27,The main experiment item,yes,SternbergTask.osexp,E:\Classwork\AQMAED,no,mono,no,18,no,white,no,yes,768,legacy,24,11,E:/Classwork/AQMAED/Stenberg/MS-subject-3.csv,legacy,8 4 3 5,Kafkaesque Koffka,3.2.8,0,n,0,right,left,left,NA,right,794,72833,86980,NA,794,2,legacy,4,1024,2,48000,-16,experiment,3,odd,6,382894,383993,236544,383995,386205,2228,149564,384999,75061,388210,NA,2225,346788,388210,389005,Sternberg Task,32,30413,37,yes,1024
86.84210526,86.84210526,824.9473684,824.9473684,black,experiment,legacy,legacy,legacy,0,uniform,1,undefined,1,left,37,37,0,37,37,0,0,37,0,37,0,0,37,37,37,10/27/19 19:27,The main experiment item,yes,SternbergTask.osexp,E:\Classwork\AQMAED,no,mono,no,18,no,white,no,yes,768,legacy,25,11,E:/Classwork/AQMAED/Stenberg/MS-subject-3.csv,legacy,3 4,Kafkaesque Koffka,3.2.8,1,y,0,left,left,left,NA,left,935,72833,86980,NA,935,2,legacy,2,1024,2,48000,-16,experiment,3,odd,3,389010,390114,236544,390116,392326,2228,149564,391123,75061,394332,NA,2225,346788,394332,395268,Sternberg Task,33,31348,38,yes,1024
87.17948718,87.17948718,828.0512821,828.0512821,black,experiment,legacy,legacy,legacy,0,uniform,1,undefined,1,right,38,38,0,38,38,0,0,38,0,38,0,0,38,38,38,10/27/19 19:27,The main experiment item,yes,SternbergTask.osexp,E:\Classwork\AQMAED,no,mono,no,18,no,white,no,yes,768,legacy,26,11,E:/Classwork/AQMAED/Stenberg/MS-subject-3.csv,legacy,7 8 6 1,Kafkaesque Koffka,3.2.8,0,n,0,right,left,left,NA,right,946,72833,86980,NA,946,2,legacy,4,1024,2,48000,-16,experiment,3,odd,3,395274,396381,236544,396383,398592,2228,149564,397387,75061,400598,NA,2225,346788,400598,401545,Sternberg Task,34,32294,39,yes,1024
87.5,87.5,825.7,825.7,black,experiment,legacy,legacy,legacy,0,uniform,1,undefined,1,right,39,39,0,39,39,0,0,39,0,39,0,0,39,39,39,10/27/19 19:27,The main experiment item,yes,SternbergTask.osexp,E:\Classwork\AQMAED,no,mono,no,18,no,white,no,yes,768,legacy,27,11,E:/Classwork/AQMAED/Stenberg/MS-subject-3.csv,legacy,1 6 4 3 9 7,Kafkaesque Koffka,3.2.8,0,n,0,right,left,left,NA,right,734,72833,86980,NA,734,2,legacy,6,1024,2,48000,-16,experiment,3,odd,8,401550,402648,236544,402650,404860,2228,149564,403655,75061,406865,NA,2225,346788,406866,407601,Sternberg Task,35,33028,40,yes,1024
87.80487805,87.80487805,827.5853659,827.5853659,black,experiment,legacy,legacy,legacy,0,uniform,1,undefined,1,left,40,40,0,40,40,0,0,40,0,40,0,0,40,40,40,10/27/19 19:27,The main experiment item,yes,SternbergTask.osexp,E:\Classwork\AQMAED,no,mono,no,18,no,white,no,yes,768,legacy,28,11,E:/Classwork/AQMAED/Stenberg/MS-subject-3.csv,legacy,2 4 6 9,Kafkaesque Koffka,3.2.8,3,y,0,left,left,left,NA,left,903,72833,86980,NA,903,2,legacy,4,1024,2,48000,-16,experiment,3,odd,6,407607,408713,236544,408715,410922,2228,149564,409720,75061,412924,NA,2225,346788,412924,413828,Sternberg Task,36,33931,41,yes,1024
85.71428571,85.71428571,825.4047619,825.4047619,black,experiment,legacy,legacy,legacy,0,uniform,0,undefined,0,left,41,41,0,41,41,0,0,41,0,41,0,0,41,41,41,10/27/19 19:27,The main experiment item,yes,SternbergTask.osexp,E:\Classwork\AQMAED,no,mono,no,18,no,white,no,yes,768,legacy,29,11,E:/Classwork/AQMAED/Stenberg/MS-subject-3.csv,legacy,7 4 2 6 3 5,Kafkaesque Koffka,3.2.8,6,y,0,right,left,left,NA,right,736,72833,86980,NA,736,2,legacy,6,1024,2,48000,-16,experiment,3,odd,5,413833,414942,236544,414944,417153,2228,149564,415948,75061,419158,NA,2225,346788,419158,419894,Sternberg Task,36,34667,42,yes,1024
86.04651163,86.04651163,820.9534884,820.9534884,black,experiment,legacy,legacy,legacy,0,uniform,1,undefined,1,right,42,42,0,42,42,0,0,42,0,42,0,0,42,42,42,10/27/19 19:27,The main experiment item,yes,SternbergTask.osexp,E:\Classwork\AQMAED,no,mono,no,18,no,white,no,yes,768,legacy,30,11,E:/Classwork/AQMAED/Stenberg/MS-subject-3.csv,legacy,1 7 5 2,Kafkaesque Koffka,3.2.8,0,n,0,right,left,left,NA,right,634,72833,86980,NA,634,2,legacy,4,1024,2,48000,-16,experiment,3,odd,3,413833,421007,236544,421009,423215,2228,149564,422012,75061,425221,NA,2225,419899,425221,425856,Sternberg Task,37,35301,43,yes,1024
86.36363636,86.36363636,815.6590909,815.6590909,black,experiment,legacy,legacy,legacy,0,uniform,1,undefined,1,right,43,43,0,43,43,0,0,43,0,43,0,0,43,43,43,10/27/19 19:27,The main experiment item,yes,SternbergTask.osexp,E:\Classwork\AQMAED,no,mono,no,18,no,white,no,yes,768,legacy,31,11,E:/Classwork/AQMAED/Stenberg/MS-subject-3.csv,legacy,2 5 1 4,Kafkaesque Koffka,3.2.8,0,n,0,right,left,left,NA,right,588,72833,86980,NA,588,2,legacy,4,1024,2,48000,-16,experiment,3,odd,6,425861,426957,236544,426959,429169,2228,149564,427963,75061,431172,NA,2225,419899,431173,431762,Sternberg Task,38,35889,44,yes,1024
84.44444444,84.44444444,817.3333333,817.3333333,black,experiment,legacy,legacy,legacy,0,uniform,0,undefined,0,left,44,44,0,44,44,0,0,44,0,44,0,0,44,44,44,10/27/19 19:27,The main experiment item,yes,SternbergTask.osexp,E:\Classwork\AQMAED,no,mono,no,18,no,white,no,yes,768,legacy,32,11,E:/Classwork/AQMAED/Stenberg/MS-subject-3.csv,legacy,6 9 7 4 5 1,Kafkaesque Koffka,3.2.8,2,y,0,right,left,left,NA,right,891,72833,86980,NA,891,2,legacy,6,1024,2,48000,-16,experiment,3,odd,9,431767,432867,236544,432868,435078,2228,149564,433873,75061,437083,NA,2225,419899,437083,437974,Sternberg Task,38,36780,45,yes,1024
84.7826087,84.7826087,817,817,black,experiment,legacy,legacy,legacy,0,uniform,1,undefined,1,right,45,45,0,45,45,0,0,45,0,45,0,0,45,45,45,10/27/19 19:27,The main experiment item,yes,SternbergTask.osexp,E:\Classwork\AQMAED,no,mono,no,18,no,white,no,yes,768,legacy,33,11,E:/Classwork/AQMAED/Stenberg/MS-subject-3.csv,legacy,3 4 9 6 7 8,Kafkaesque Koffka,3.2.8,0,n,0,right,left,left,NA,right,802,72833,86980,NA,802,2,legacy,6,1024,2,48000,-16,experiment,3,odd,2,431767,439087,236544,439089,441296,2228,149564,440092,75061,443302,NA,2225,437979,443302,444105,Sternberg Task,39,37582,46,yes,1024
85.10638298,85.10638298,812.9574468,812.9574468,black,experiment,legacy,legacy,legacy,0,uniform,1,undefined,1,right,46,46,0,46,46,0,0,46,0,46,0,0,46,46,46,10/27/19 19:27,The main experiment item,yes,SternbergTask.osexp,E:\Classwork\AQMAED,no,mono,no,18,no,white,no,yes,768,legacy,34,11,E:/Classwork/AQMAED/Stenberg/MS-subject-3.csv,legacy,1 7 5 2 9,Kafkaesque Koffka,3.2.8,0,n,0,right,left,left,NA,right,627,72833,86980,NA,627,2,legacy,5,1024,2,48000,-16,experiment,3,odd,3,444120,445226,236544,445228,447438,2228,149564,446232,75061,449443,NA,2225,437979,449444,450071,Sternberg Task,40,38209,47,yes,1024
85.41666667,85.41666667,814.9375,814.9375,black,experiment,legacy,legacy,legacy,0,uniform,1,undefined,1,left,47,47,0,47,47,0,0,47,0,47,0,0,47,47,47,10/27/19 19:27,The main experiment item,yes,SternbergTask.osexp,E:\Classwork\AQMAED,no,mono,no,18,no,white,no,yes,768,legacy,35,11,E:/Classwork/AQMAED/Stenberg/MS-subject-3.csv,legacy,3 9 6 2,Kafkaesque Koffka,3.2.8,4,y,0,left,left,left,NA,left,908,72833,86980,NA,908,2,legacy,4,1024,2,48000,-16,experiment,3,odd,2,450078,451174,236544,451175,453385,2228,149564,452180,75061,455390,NA,2225,437979,455391,456299,Sternberg Task,41,39117,48,yes,1024
85.71428571,85.71428571,814.9591837,814.9591837,black,experiment,legacy,legacy,legacy,0,uniform,1,undefined,1,left,48,48,0,48,48,0,0,48,0,48,0,0,48,48,48,10/27/19 19:27,The main experiment item,yes,SternbergTask.osexp,E:\Classwork\AQMAED,no,mono,no,18,no,white,no,yes,768,legacy,36,11,E:/Classwork/AQMAED/Stenberg/MS-subject-3.csv,legacy,7 2 3,Kafkaesque Koffka,3.2.8,3,y,0,left,left,left,NA,left,816,72833,86980,NA,816,2,legacy,3,1024,2,48000,-16,experiment,3,odd,3,456311,457407,236544,457408,459618,2228,149564,458412,75061,461623,NA,2225,437979,461623,462439,Sternberg Task,42,39933,49,yes,1024
86,86,815.18,815.18,black,experiment,legacy,legacy,legacy,0,uniform,1,undefined,1,right,49,49,0,49,49,0,0,49,0,49,0,0,49,49,49,10/27/19 19:27,The main experiment item,yes,SternbergTask.osexp,E:\Classwork\AQMAED,no,mono,no,18,no,white,no,yes,768,legacy,37,11,E:/Classwork/AQMAED/Stenberg/MS-subject-3.csv,legacy,5 9 2 3,Kafkaesque Koffka,3.2.8,0,n,0,right,left,left,NA,right,826,72833,86980,NA,826,2,legacy,4,1024,2,48000,-16,experiment,3,odd,8,462445,463553,236544,463555,465764,2228,149564,464560,75061,467769,NA,2225,437979,467769,468596,Sternberg Task,43,40759,50,yes,1024
86.2745098,86.2745098,815.0980392,815.0980392,black,experiment,legacy,legacy,legacy,0,uniform,1,undefined,1,left,50,50,0,50,50,0,0,50,0,50,0,0,50,50,50,10/27/19 19:27,The main experiment item,yes,SternbergTask.osexp,E:\Classwork\AQMAED,no,mono,no,18,no,white,no,yes,768,legacy,38,11,E:/Classwork/AQMAED/Stenberg/MS-subject-3.csv,legacy,6 5,Kafkaesque Koffka,3.2.8,2,y,0,left,left,left,NA,left,811,72833,86980,NA,811,2,legacy,2,1024,2,48000,-16,experiment,3,odd,5,468602,469713,236544,469715,471927,2228,149564,470720,75061,473931,NA,2225,437979,473932,474743,Sternberg Task,44,41570,51,yes,1024
86.53846154,86.53846154,814.3076923,814.3076923,black,experiment,legacy,legacy,legacy,0,uniform,1,undefined,1,right,51,51,0,51,51,0,0,51,0,51,0,0,51,51,51,10/27/19 19:27,The main experiment item,yes,SternbergTask.osexp,E:\Classwork\AQMAED,no,mono,no,18,no,white,no,yes,768,legacy,39,11,E:/Classwork/AQMAED/Stenberg/MS-subject-3.csv,legacy,5 3 2 6 9 8,Kafkaesque Koffka,3.2.8,0,n,0,right,left,left,NA,right,774,72833,86980,NA,774,2,legacy,6,1024,2,48000,-16,experiment,3,odd,4,474748,475852,236544,475853,478064,2228,149564,476859,75061,480070,NA,2225,437979,480070,480844,Sternberg Task,45,42344,52,yes,1024
86.79245283,86.79245283,812.7169811,812.7169811,black,experiment,legacy,legacy,legacy,0,uniform,1,undefined,1,right,52,52,0,52,52,0,0,52,0,52,0,0,52,52,52,10/27/19 19:27,The main experiment item,yes,SternbergTask.osexp,E:\Classwork\AQMAED,no,mono,no,18,no,white,no,yes,768,legacy,40,11,E:/Classwork/AQMAED/Stenberg/MS-subject-3.csv,legacy,5 2,Kafkaesque Koffka,3.2.8,0,n,0,right,left,left,NA,right,730,72833,86980,NA,730,2,legacy,2,1024,2,48000,-16,experiment,3,odd,7,480850,481951,236544,481953,484161,2228,149564,482958,75061,486165,NA,2225,437979,486165,486896,Sternberg Task,46,43074,53,yes,1024
87.03703704,87.03703704,813.3148148,813.3148148,black,experiment,legacy,legacy,legacy,0,uniform,1,undefined,1,left,53,53,0,53,53,0,0,53,0,53,0,0,53,53,53,10/27/19 19:27,The main experiment item,yes,SternbergTask.osexp,E:\Classwork\AQMAED,no,mono,no,18,no,white,no,yes,768,legacy,41,11,E:/Classwork/AQMAED/Stenberg/MS-subject-3.csv,legacy,9 8 4,Kafkaesque Koffka,3.2.8,1,y,0,left,left,left,NA,left,845,72833,86980,NA,845,2,legacy,3,1024,2,48000,-16,experiment,3,odd,9,486902,488003,236544,488005,490215,2228,149564,489010,75061,492221,NA,2225,437979,492221,493067,Sternberg Task,47,43919,54,yes,1024
87.27272727,87.27272727,810.1818182,810.1818182,black,experiment,legacy,legacy,legacy,0,uniform,1,undefined,1,left,54,54,0,54,54,0,0,54,0,54,0,0,54,54,54,10/27/19 19:27,The main experiment item,yes,SternbergTask.osexp,E:\Classwork\AQMAED,no,mono,no,18,no,white,no,yes,768,legacy,42,11,E:/Classwork/AQMAED/Stenberg/MS-subject-3.csv,legacy,4,Kafkaesque Koffka,3.2.8,1,y,0,left,left,left,NA,left,641,72833,86980,NA,641,2,legacy,1,1024,2,48000,-16,experiment,3,odd,4,493072,494162,236544,494163,496373,2228,149564,495168,75061,498375,NA,2225,437979,498375,499017,Sternberg Task,48,44560,55,yes,1024
85.71428571,85.71428571,812.5178571,812.5178571,black,experiment,legacy,legacy,legacy,0,uniform,0,undefined,0,left,55,55,0,55,55,0,0,55,0,55,0,0,55,55,55,10/27/19 19:27,The main experiment item,yes,SternbergTask.osexp,E:\Classwork\AQMAED,no,mono,no,18,no,white,no,yes,768,legacy,43,11,E:/Classwork/AQMAED/Stenberg/MS-subject-3.csv,legacy,7 1 8 5 6 2,Kafkaesque Koffka,3.2.8,2,y,0,right,left,left,NA,right,941,72833,86980,NA,941,2,legacy,6,1024,2,48000,-16,experiment,3,odd,1,499022,500133,236544,500135,502338,2228,149564,501137,75061,504341,NA,2225,437979,504341,505283,Sternberg Task,48,45501,56,yes,1024
85.96491228,85.96491228,812.5789474,812.5789474,black,experiment,legacy,legacy,legacy,0,uniform,1,undefined,1,left,56,56,0,56,56,0,0,56,0,56,0,0,56,56,56,10/27/19 19:27,The main experiment item,yes,SternbergTask.osexp,E:\Classwork\AQMAED,no,mono,no,18,no,white,no,yes,768,legacy,44,11,E:/Classwork/AQMAED/Stenberg/MS-subject-3.csv,legacy,6 9 3 1,Kafkaesque Koffka,3.2.8,4,y,0,left,left,left,NA,left,816,72833,86980,NA,816,2,legacy,4,1024,2,48000,-16,experiment,3,odd,1,499022,506364,236544,506366,508576,2228,149564,507371,75061,510581,NA,2225,505288,510582,511399,Sternberg Task,49,46317,57,yes,1024
86.20689655,86.20689655,811.0689655,811.0689655,black,experiment,legacy,legacy,legacy,0,uniform,1,undefined,1,left,57,57,0,57,57,0,0,57,0,57,0,0,57,57,57,10/27/19 19:27,The main experiment item,yes,SternbergTask.osexp,E:\Classwork\AQMAED,no,mono,no,18,no,white,no,yes,768,legacy,45,11,E:/Classwork/AQMAED/Stenberg/MS-subject-3.csv,legacy,9 4 2,Kafkaesque Koffka,3.2.8,1,y,0,left,left,left,NA,left,725,72833,86980,NA,725,2,legacy,3,1024,2,48000,-16,experiment,3,odd,9,511404,512512,236544,512514,514723,2228,149564,513519,75061,516729,NA,2225,505288,516729,517455,Sternberg Task,50,47042,58,yes,1024
86.44067797,86.44067797,813.3050847,813.3050847,black,experiment,legacy,legacy,legacy,0,uniform,1,undefined,1,left,58,58,0,58,58,0,0,58,0,58,0,0,58,58,58,10/27/19 19:27,The main experiment item,yes,SternbergTask.osexp,E:\Classwork\AQMAED,no,mono,no,18,no,white,no,yes,768,legacy,46,11,E:/Classwork/AQMAED/Stenberg/MS-subject-3.csv,legacy,9 1 6 7 8,Kafkaesque Koffka,3.2.8,1,y,0,left,left,left,NA,left,943,72833,86980,NA,943,2,legacy,5,1024,2,48000,-16,experiment,3,odd,9,517460,518556,236544,518558,520768,2228,149564,519563,75061,522772,NA,2225,505288,522772,523716,Sternberg Task,51,47985,59,yes,1024
86.66666667,86.66666667,810.35,810.35,black,experiment,legacy,legacy,legacy,0,uniform,1,undefined,1,right,59,59,0,59,59,0,0,59,0,59,0,0,59,59,59,10/27/19 19:27,The main experiment item,yes,SternbergTask.osexp,E:\Classwork\AQMAED,no,mono,no,18,no,white,no,yes,768,legacy,47,11,E:/Classwork/AQMAED/Stenberg/MS-subject-3.csv,legacy,4 1,Kafkaesque Koffka,3.2.8,0,n,0,right,left,left,NA,right,636,72833,86980,NA,636,2,legacy,2,1024,2,48000,-16,experiment,3,odd,6,523727,524830,236544,524831,527041,2228,149564,525835,75061,529046,NA,2225,505288,529046,529682,Sternberg Task,52,48621,60,yes,1024
86.8852459,86.8852459,814.4098361,814.4098361,black,experiment,legacy,legacy,legacy,0,uniform,1,undefined,1,left,60,60,0,60,60,0,0,60,0,60,0,0,60,60,60,10/27/19 19:27,The main experiment item,yes,SternbergTask.osexp,E:\Classwork\AQMAED,no,mono,no,18,no,white,no,yes,768,legacy,48,11,E:/Classwork/AQMAED/Stenberg/MS-subject-3.csv,legacy,7 8 6 3 1,Kafkaesque Koffka,3.2.8,5,y,0,left,left,left,NA,left,1058,72833,86980,NA,1058,2,legacy,5,1024,2,48000,-16,experiment,3,odd,1,529692,530786,236544,530788,532998,2228,149564,531793,75061,535003,NA,2225,505288,535003,536062,Sternberg Task,53,49679,61,yes,1024
87.09677419,87.09677419,813.3225806,813.3225806,black,experiment,legacy,legacy,legacy,0,uniform,1,undefined,1,right,61,61,0,61,61,0,0,61,0,61,0,0,61,61,61,10/27/19 19:27,The main experiment item,yes,SternbergTask.osexp,E:\Classwork\AQMAED,no,mono,no,18,no,white,no,yes,768,legacy,49,11,E:/Classwork/AQMAED/Stenberg/MS-subject-3.csv,legacy,9 7 4 5 8,Kafkaesque Koffka,3.2.8,0,n,0,right,left,left,NA,right,747,72833,86980,NA,747,2,legacy,5,1024,2,48000,-16,experiment,3,odd,6,536070,537175,236544,537177,539387,2228,149564,538181,75061,541392,NA,2225,505288,541393,542141,Sternberg Task,54,50426,62,yes,1024
87.3015873,87.3015873,814.4920635,814.4920635,black,experiment,legacy,legacy,legacy,0,uniform,1,undefined,1,left,62,62,0,62,62,0,0,62,0,62,0,0,62,62,62,10/27/19 19:27,The main experiment item,yes,SternbergTask.osexp,E:\Classwork\AQMAED,no,mono,no,18,no,white,no,yes,768,legacy,50,11,E:/Classwork/AQMAED/Stenberg/MS-subject-3.csv,legacy,9 6 2 4 1,Kafkaesque Koffka,3.2.8,4,y,0,left,left,left,NA,left,887,72833,86980,NA,887,2,legacy,5,1024,2,48000,-16,experiment,3,odd,4,542146,543233,236544,543235,545443,2228,149564,544237,75061,547448,NA,2225,505288,547448,548336,Sternberg Task,55,51313,63,yes,1024
87.5,87.5,816.78125,816.78125,black,experiment,legacy,legacy,legacy,0,uniform,1,undefined,1,left,63,63,0,63,63,0,0,63,0,63,0,0,63,63,63,10/27/19 19:27,The main experiment item,yes,SternbergTask.osexp,E:\Classwork\AQMAED,no,mono,no,18,no,white,no,yes,768,legacy,51,11,E:/Classwork/AQMAED/Stenberg/MS-subject-3.csv,legacy,9 3 1 2 5,Kafkaesque Koffka,3.2.8,4,y,0,left,left,left,NA,left,961,72833,86980,NA,961,2,legacy,5,1024,2,48000,-16,experiment,3,odd,2,548341,549423,236544,549424,551634,2228,149564,550429,75061,553639,NA,2225,505288,553640,554602,Sternberg Task,56,52274,64,yes,1024
87.69230769,87.69230769,814.2615385,814.2615385,black,experiment,legacy,legacy,legacy,0,uniform,1,undefined,1,left,64,64,0,64,64,0,0,64,0,64,0,0,64,64,64,10/27/19 19:27,The main experiment item,yes,SternbergTask.osexp,E:\Classwork\AQMAED,no,mono,no,18,no,white,no,yes,768,legacy,52,11,E:/Classwork/AQMAED/Stenberg/MS-subject-3.csv,legacy,3 5 7 1,Kafkaesque Koffka,3.2.8,3,y,0,left,left,left,NA,left,653,72833,86980,NA,653,2,legacy,4,1024,2,48000,-16,experiment,3,odd,7,554607,555705,236544,555707,557917,2228,149564,556711,75061,559919,NA,2225,505288,559920,560574,Sternberg Task,57,52927,65,yes,1024
87.87878788,87.87878788,814.3181818,814.3181818,black,experiment,legacy,legacy,legacy,0,uniform,1,undefined,1,right,65,65,0,65,65,0,0,65,0,65,0,0,65,65,65,10/27/19 19:27,The main experiment item,yes,SternbergTask.osexp,E:\Classwork\AQMAED,no,mono,no,18,no,white,no,yes,768,legacy,53,11,E:/Classwork/AQMAED/Stenberg/MS-subject-3.csv,legacy,8 5 4 2 9 6,Kafkaesque Koffka,3.2.8,0,n,0,right,left,left,NA,right,818,72833,86980,NA,818,2,legacy,6,1024,2,48000,-16,experiment,3,odd,3,560578,561664,236544,561666,563876,2228,149564,562671,75061,565881,NA,2225,505288,565881,566700,Sternberg Task,58,53745,66,yes,1024
88.05970149,88.05970149,815.9104478,815.9104478,black,experiment,legacy,legacy,legacy,0,uniform,1,undefined,1,left,66,66,0,66,66,0,0,66,0,66,0,0,66,66,66,10/27/19 19:27,The main experiment item,yes,SternbergTask.osexp,E:\Classwork\AQMAED,no,mono,no,18,no,white,no,yes,768,legacy,54,11,E:/Classwork/AQMAED/Stenberg/MS-subject-3.csv,legacy,3 9 7 6 4,Kafkaesque Koffka,3.2.8,3,y,0,left,left,left,NA,left,921,72833,86980,NA,921,2,legacy,5,1024,2,48000,-16,experiment,3,odd,7,566704,567808,236544,567810,570021,2228,149564,568814,75061,572026,NA,2225,505288,572026,572947,Sternberg Task,59,54666,67,yes,1024
88.23529412,88.23529412,817.2058824,817.2058824,black,experiment,legacy,legacy,legacy,0,uniform,1,undefined,1,left,67,67,0,67,67,0,0,67,0,67,0,0,67,67,67,10/27/19 19:27,The main experiment item,yes,SternbergTask.osexp,E:\Classwork\AQMAED,no,mono,no,18,no,white,no,yes,768,legacy,55,11,E:/Classwork/AQMAED/Stenberg/MS-subject-3.csv,legacy,5 2 6,Kafkaesque Koffka,3.2.8,2,y,0,left,left,left,NA,left,904,72833,86980,NA,904,2,legacy,3,1024,2,48000,-16,experiment,3,odd,2,572953,574055,236544,574057,576266,2228,149564,575062,75061,578271,NA,2225,505288,578272,579177,Sternberg Task,60,55570,68,yes,1024
88.4057971,88.4057971,813.6666667,813.6666667,black,experiment,legacy,legacy,legacy,0,uniform,1,undefined,1,left,68,68,0,68,68,0,0,68,0,68,0,0,68,68,68,10/27/19 19:27,The main experiment item,yes,SternbergTask.osexp,E:\Classwork\AQMAED,no,mono,no,18,no,white,no,yes,768,legacy,56,11,E:/Classwork/AQMAED/Stenberg/MS-subject-3.csv,legacy,7 1 3,Kafkaesque Koffka,3.2.8,2,y,0,left,left,left,NA,left,573,72833,86980,NA,573,2,legacy,3,1024,2,48000,-16,experiment,3,odd,1,579182,580262,236544,580263,582472,2228,149564,581266,75061,584477,NA,2225,505288,584477,585051,Sternberg Task,61,56143,69,yes,1024
88.57142857,88.57142857,821.9428571,821.9428571,black,experiment,legacy,legacy,legacy,0,uniform,1,undefined,1,left,69,69,0,69,69,0,0,69,0,69,0,0,69,69,69,10/27/19 19:27,The main experiment item,yes,SternbergTask.osexp,E:\Classwork\AQMAED,no,mono,no,18,no,white,no,yes,768,legacy,57,11,E:/Classwork/AQMAED/Stenberg/MS-subject-3.csv,legacy,4 9 7 8 5 3,Kafkaesque Koffka,3.2.8,4,y,0,left,left,left,NA,left,1393,72833,86980,NA,1393,2,legacy,6,1024,2,48000,-16,experiment,3,odd,8,585056,586161,236544,586163,588374,2228,149564,587169,75061,590380,NA,2225,505288,590380,591774,Sternberg Task,62,57536,70,yes,1024
87.32394366,87.32394366,825.056338,825.056338,black,experiment,legacy,legacy,legacy,0,uniform,0,undefined,0,right,70,70,0,70,70,0,0,70,0,70,0,0,70,70,70,10/27/19 19:27,The main experiment item,yes,SternbergTask.osexp,E:\Classwork\AQMAED,no,mono,no,18,no,white,no,yes,768,legacy,58,11,E:/Classwork/AQMAED/Stenberg/MS-subject-3.csv,legacy,6 9 4 5 3 2,Kafkaesque Koffka,3.2.8,0,n,0,left,left,left,NA,left,1043,72833,86980,NA,1043,2,legacy,6,1024,2,48000,-16,experiment,3,odd,8,591780,592886,236544,592888,595098,2228,149564,593893,75061,597103,NA,2225,505288,597103,598147,Sternberg Task,62,58579,71,yes,1024
87.5,87.5,828.0555556,828.0555556,black,experiment,legacy,legacy,legacy,0,uniform,1,undefined,1,left,71,71,0,71,71,0,0,71,0,71,0,0,71,71,71,10/27/19 19:27,The main experiment item,yes,SternbergTask.osexp,E:\Classwork\AQMAED,no,mono,no,18,no,white,no,yes,768,legacy,59,11,E:/Classwork/AQMAED/Stenberg/MS-subject-3.csv,legacy,5 7 3 6 2,Kafkaesque Koffka,3.2.8,5,y,0,left,left,left,NA,left,1041,72833,86980,NA,1041,2,legacy,5,1024,2,48000,-16,experiment,3,odd,2,591780,599258,236544,599260,601470,2228,149564,600265,75061,603474,NA,2225,598152,603475,604517,Sternberg Task,63,59620,72,yes,1024
87.67123288,87.67123288,831.0821918,831.0821918,black,experiment,legacy,legacy,legacy,0,uniform,1,undefined,1,left,72,72,0,72,72,0,0,72,0,72,0,0,72,72,72,10/27/19 19:27,The main experiment item,yes,SternbergTask.osexp,E:\Classwork\AQMAED,no,mono,no,18,no,white,no,yes,768,legacy,60,11,E:/Classwork/AQMAED/Stenberg/MS-subject-3.csv,legacy,7 8 4 6 9 5,Kafkaesque Koffka,3.2.8,4,y,0,left,left,left,NA,left,1049,72833,86980,NA,1049,2,legacy,6,1024,2,48000,-16,experiment,3,odd,6,604528,605624,236544,605626,607837,2228,149564,606631,75061,609842,NA,2225,598152,609842,610892,Sternberg Task,64,60669,73,yes,1024
87.83783784,87.83783784,838.7702703,838.7702703,black,experiment,legacy,legacy,legacy,0,uniform,1,undefined,1,right,73,73,0,73,73,0,0,73,0,73,0,0,73,73,73,10/27/19 19:27,The main experiment item,yes,SternbergTask.osexp,E:\Classwork\AQMAED,no,mono,no,18,no,white,no,yes,768,legacy,61,11,E:/Classwork/AQMAED/Stenberg/MS-subject-3.csv,legacy,7 4 2 8 1 9,Kafkaesque Koffka,3.2.8,0,n,0,right,left,left,NA,right,1400,72833,86980,NA,1400,2,legacy,6,1024,2,48000,-16,experiment,3,odd,5,610906,612011,236544,612013,614220,2228,149564,613018,75061,616225,NA,2225,598152,616225,617626,Sternberg Task,65,62069,74,yes,1024
88,88,838.3733333,838.3733333,black,experiment,legacy,legacy,legacy,0,uniform,1,undefined,1,right,74,74,0,74,74,0,0,74,0,74,0,0,74,74,74,10/27/19 19:27,The main experiment item,yes,SternbergTask.osexp,E:\Classwork\AQMAED,no,mono,no,18,no,white,no,yes,768,legacy,62,11,E:/Classwork/AQMAED/Stenberg/MS-subject-3.csv,legacy,9 5 3 2 8 6,Kafkaesque Koffka,3.2.8,0,n,0,right,left,left,NA,right,809,72833,86980,NA,809,2,legacy,6,1024,2,48000,-16,experiment,3,odd,7,617632,618733,236544,618735,620945,2228,149564,619740,75061,622951,NA,2225,598152,622951,623761,Sternberg Task,66,62878,75,yes,1024
88.15789474,88.15789474,844.8421053,844.8421053,black,experiment,legacy,legacy,legacy,0,uniform,1,undefined,1,right,75,75,0,75,75,0,0,75,0,75,0,0,75,75,75,10/27/19 19:27,The main experiment item,yes,SternbergTask.osexp,E:\Classwork\AQMAED,no,mono,no,18,no,white,no,yes,768,legacy,63,11,E:/Classwork/AQMAED/Stenberg/MS-subject-3.csv,legacy,9 8 2 7 4,Kafkaesque Koffka,3.2.8,0,n,0,right,left,left,NA,right,1330,72833,86980,NA,1330,2,legacy,5,1024,2,48000,-16,experiment,3,odd,5,623766,624882,236544,624884,627095,2228,149564,625889,75061,629101,NA,2225,598152,629101,630432,Sternberg Task,67,64208,76,yes,1024
88.31168831,88.31168831,844.2207792,844.2207792,black,experiment,legacy,legacy,legacy,0,uniform,1,undefined,1,left,76,76,0,76,76,0,0,76,0,76,0,0,76,76,76,10/27/19 19:27,The main experiment item,yes,SternbergTask.osexp,E:\Classwork\AQMAED,no,mono,no,18,no,white,no,yes,768,legacy,64,11,E:/Classwork/AQMAED/Stenberg/MS-subject-3.csv,legacy,3 5 9 6 2 4,Kafkaesque Koffka,3.2.8,1,y,0,left,left,left,NA,left,797,72833,86980,NA,797,2,legacy,6,1024,2,48000,-16,experiment,3,odd,3,630438,631536,236544,631538,633748,2228,149564,632543,75061,635751,NA,2225,598152,635751,636549,Sternberg Task,68,65005,77,yes,1024
88.46153846,88.46153846,847.1410256,847.1410256,black,experiment,legacy,legacy,legacy,0,uniform,1,undefined,1,right,77,77,0,77,77,0,0,77,0,77,0,0,77,77,77,10/27/19 19:27,The main experiment item,yes,SternbergTask.osexp,E:\Classwork\AQMAED,no,mono,no,18,no,white,no,yes,768,legacy,65,11,E:/Classwork/AQMAED/Stenberg/MS-subject-3.csv,legacy,8 4 3 9,Kafkaesque Koffka,3.2.8,0,n,0,right,left,left,NA,right,1072,72833,86980,NA,1072,2,legacy,4,1024,2,48000,-16,experiment,3,odd,5,636554,637664,236544,637666,639876,2228,149564,638670,75061,641882,NA,2225,598152,641882,642955,Sternberg Task,69,66077,78,yes,1024
87.34177215,87.34177215,861.7341772,861.7341772,black,experiment,legacy,legacy,legacy,0,uniform,0,undefined,0,left,78,78,0,78,78,0,0,78,0,78,0,0,78,78,78,10/27/19 19:27,The main experiment item,yes,SternbergTask.osexp,E:\Classwork\AQMAED,no,mono,no,18,no,white,no,yes,768,legacy,66,11,E:/Classwork/AQMAED/Stenberg/MS-subject-3.csv,legacy,8,Kafkaesque Koffka,3.2.8,1,y,0,None,left,left,NA,None,2000,72833,86980,NA,2000,2,legacy,1,1024,2,48000,-16,experiment,3,odd,8,642960,644072,236544,644074,646284,2228,149564,645079,75061,648288,NA,2225,598152,648289,650289,Sternberg Task,69,68077,79,yes,1024
86.25,86.25,863.325,863.325,black,experiment,legacy,legacy,legacy,0,uniform,0,undefined,0,left,79,79,0,79,79,0,0,79,0,79,0,0,79,79,79,10/27/19 19:27,The main experiment item,yes,SternbergTask.osexp,E:\Classwork\AQMAED,no,mono,no,18,no,white,no,yes,768,legacy,67,11,E:/Classwork/AQMAED/Stenberg/MS-subject-3.csv,legacy,6 7 8 5,Kafkaesque Koffka,3.2.8,3,y,0,right,left,left,NA,right,989,72833,86980,NA,989,2,legacy,4,1024,2,48000,-16,experiment,3,odd,8,642960,651389,236544,651391,653600,2228,149564,652395,75061,655606,NA,2225,650295,655606,656596,Sternberg Task,69,69066,80,yes,1024
86.41975309,86.41975309,862.037037,862.037037,black,experiment,legacy,legacy,legacy,0,uniform,1,undefined,1,left,80,80,0,80,80,0,0,80,0,80,0,0,80,80,80,10/27/19 19:27,The main experiment item,yes,SternbergTask.osexp,E:\Classwork\AQMAED,no,mono,no,18,no,white,no,yes,768,legacy,68,11,E:/Classwork/AQMAED/Stenberg/MS-subject-3.csv,legacy,8 9 6 1,Kafkaesque Koffka,3.2.8,2,y,0,left,left,left,NA,left,759,72833,86980,NA,759,2,legacy,4,1024,2,48000,-16,experiment,3,odd,9,642960,657702,236544,657703,659914,2228,149564,658709,75061,661920,NA,2225,656601,661920,662680,Sternberg Task,70,69825,81,yes,1024
86.58536585,86.58536585,860.7804878,860.7804878,black,experiment,legacy,legacy,legacy,0,uniform,1,undefined,1,left,81,81,0,81,81,0,0,81,0,81,0,0,81,81,81,10/27/19 19:27,The main experiment item,yes,SternbergTask.osexp,E:\Classwork\AQMAED,no,mono,no,18,no,white,no,yes,768,legacy,69,11,E:/Classwork/AQMAED/Stenberg/MS-subject-3.csv,legacy,3 2 1 4 7,Kafkaesque Koffka,3.2.8,2,y,0,left,left,left,NA,left,759,72833,86980,NA,759,2,legacy,5,1024,2,48000,-16,experiment,3,odd,2,662687,663797,236544,663799,666008,2228,149564,664803,75061,668014,NA,2225,656601,668014,668774,Sternberg Task,71,70584,82,yes,1024
86.74698795,86.74698795,858.5421687,858.5421687,black,experiment,legacy,legacy,legacy,0,uniform,1,undefined,1,left,82,82,0,82,82,0,0,82,0,82,0,0,82,82,82,10/27/19 19:27,The main experiment item,yes,SternbergTask.osexp,E:\Classwork\AQMAED,no,mono,no,18,no,white,no,yes,768,legacy,70,11,E:/Classwork/AQMAED/Stenberg/MS-subject-3.csv,legacy,3 4 9 6 2 9,Kafkaesque Koffka,3.2.8,5,y,0,left,left,left,NA,left,675,72833,86980,NA,675,2,legacy,6,1024,2,48000,-16,experiment,3,odd,2,668779,669879,236544,669881,672093,2228,149564,670887,75061,674098,NA,2225,656601,674098,674774,Sternberg Task,72,71259,83,yes,1024
86.9047619,86.9047619,855.5952381,855.5952381,black,experiment,legacy,legacy,legacy,0,uniform,1,undefined,1,right,83,83,0,83,83,0,0,83,0,83,0,0,83,83,83,10/27/19 19:27,The main experiment item,yes,SternbergTask.osexp,E:\Classwork\AQMAED,no,mono,no,18,no,white,no,yes,768,legacy,71,11,E:/Classwork/AQMAED/Stenberg/MS-subject-3.csv,legacy,1 6 4,Kafkaesque Koffka,3.2.8,0,n,0,right,left,left,NA,right,611,72833,86980,NA,611,2,legacy,3,1024,2,48000,-16,experiment,3,odd,7,674779,675877,236544,675878,678088,2228,149564,676884,75061,680093,NA,2225,656601,680093,680704,Sternberg Task,73,71870,84,yes,1024
85.88235294,85.88235294,857.0705882,857.0705882,black,experiment,legacy,legacy,legacy,0,uniform,0,undefined,0,left,84,84,0,84,84,0,0,84,0,84,0,0,84,84,84,10/27/19 19:27,The main experiment item,yes,SternbergTask.osexp,E:\Classwork\AQMAED,no,mono,no,18,no,white,no,yes,768,legacy,72,11,E:/Classwork/AQMAED/Stenberg/MS-subject-3.csv,legacy,6 7 9 3 1 2,Kafkaesque Koffka,3.2.8,1,y,0,right,left,left,NA,right,981,72833,86980,NA,981,2,legacy,6,1024,2,48000,-16,experiment,3,odd,6,680709,681806,236544,681808,684019,2228,149564,682813,75061,686025,NA,2225,656601,686025,687007,Sternberg Task,73,72851,85,yes,1024
86.04651163,86.04651163,857.1744186,857.1744186,black,experiment,legacy,legacy,legacy,0,uniform,1,undefined,1,right,85,85,0,85,85,0,0,85,0,85,0,0,85,85,85,10/27/19 19:27,The main experiment item,yes,SternbergTask.osexp,E:\Classwork\AQMAED,no,mono,no,18,no,white,no,yes,768,legacy,73,11,E:/Classwork/AQMAED/Stenberg/MS-subject-3.csv,legacy,1 4 3 6 5,Kafkaesque Koffka,3.2.8,0,n,0,right,left,left,NA,right,866,72833,86980,NA,866,2,legacy,5,1024,2,48000,-16,experiment,3,odd,8,680709,688113,236544,688114,690324,2228,149564,689119,75061,692329,NA,2225,687017,692330,693197,Sternberg Task,74,73717,86,yes,1024
86.20689655,86.20689655,857.4827586,857.4827586,black,experiment,legacy,legacy,legacy,0,uniform,1,undefined,1,right,86,86,0,86,86,0,0,86,0,86,0,0,86,86,86,10/27/19 19:27,The main experiment item,yes,SternbergTask.osexp,E:\Classwork\AQMAED,no,mono,no,18,no,white,no,yes,768,legacy,74,11,E:/Classwork/AQMAED/Stenberg/MS-subject-3.csv,legacy,8 6 3 4 7,Kafkaesque Koffka,3.2.8,0,n,0,right,left,left,NA,right,884,72833,86980,NA,884,2,legacy,5,1024,2,48000,-16,experiment,3,odd,1,693206,694305,236544,694307,696517,2228,149564,695312,75061,698523,NA,2225,687017,698523,699408,Sternberg Task,75,74601,87,yes,1024
86.36363636,86.36363636,855.4772727,855.4772727,black,experiment,legacy,legacy,legacy,0,uniform,1,undefined,1,right,87,87,0,87,87,0,0,87,0,87,0,0,87,87,87,10/27/19 19:27,The main experiment item,yes,SternbergTask.osexp,E:\Classwork\AQMAED,no,mono,no,18,no,white,no,yes,768,legacy,75,11,E:/Classwork/AQMAED/Stenberg/MS-subject-3.csv,legacy,5 7 3,Kafkaesque Koffka,3.2.8,0,n,0,right,left,left,NA,right,681,72833,86980,NA,681,2,legacy,3,1024,2,48000,-16,experiment,3,odd,9,699413,700517,236544,700519,702726,2228,149564,701521,75061,704730,NA,2225,687017,704731,705413,Sternberg Task,76,75282,88,yes,1024
86.51685393,86.51685393,853.7865169,853.7865169,black,experiment,legacy,legacy,legacy,0,uniform,1,undefined,1,right,88,88,0,88,88,0,0,88,0,88,0,0,88,88,88,10/27/19 19:27,The main experiment item,yes,SternbergTask.osexp,E:\Classwork\AQMAED,no,mono,no,18,no,white,no,yes,768,legacy,76,11,E:/Classwork/AQMAED/Stenberg/MS-subject-3.csv,legacy,1 5 3 2 8,Kafkaesque Koffka,3.2.8,0,n,0,right,left,left,NA,right,705,72833,86980,NA,705,2,legacy,5,1024,2,48000,-16,experiment,3,odd,4,705418,706532,236544,706534,708745,2228,149564,707539,75061,710750,NA,2225,687017,710750,711456,Sternberg Task,77,75987,89,yes,1024
86.66666667,86.66666667,852.7,852.7,black,experiment,legacy,legacy,legacy,0,uniform,1,undefined,1,left,89,89,0,89,89,0,0,89,0,89,0,0,89,89,89,10/27/19 19:27,The main experiment item,yes,SternbergTask.osexp,E:\Classwork\AQMAED,no,mono,no,18,no,white,no,yes,768,legacy,77,11,E:/Classwork/AQMAED/Stenberg/MS-subject-3.csv,legacy,2 3,Kafkaesque Koffka,3.2.8,1,y,0,left,left,left,NA,left,756,72833,86980,NA,756,2,legacy,2,1024,2,48000,-16,experiment,3,odd,2,711461,712569,236544,712571,714781,2228,149564,713577,75061,716787,NA,2225,687017,716787,717544,Sternberg Task,78,76743,90,yes,1024
85.71428571,85.71428571,851.4725275,851.4725275,black,experiment,legacy,legacy,legacy,0,uniform,0,undefined,0,left,90,90,0,90,90,0,0,90,0,90,0,0,90,90,90,10/27/19 19:27,The main experiment item,yes,SternbergTask.osexp,E:\Classwork\AQMAED,no,mono,no,18,no,white,no,yes,768,legacy,78,11,E:/Classwork/AQMAED/Stenberg/MS-subject-3.csv,legacy,7 6,Kafkaesque Koffka,3.2.8,2,y,0,right,left,left,NA,right,741,72833,86980,NA,741,2,legacy,2,1024,2,48000,-16,experiment,3,odd,6,717548,718654,236544,718656,720866,2228,149564,719661,75061,722871,NA,2225,687017,722871,723613,Sternberg Task,78,77484,91,yes,1024
85.86956522,85.86956522,849.7282609,849.7282609,black,experiment,legacy,legacy,legacy,0,uniform,1,undefined,1,right,91,91,0,91,91,0,0,91,0,91,0,0,91,91,91,10/27/19 19:27,The main experiment item,yes,SternbergTask.osexp,E:\Classwork\AQMAED,no,mono,no,18,no,white,no,yes,768,legacy,79,11,E:/Classwork/AQMAED/Stenberg/MS-subject-3.csv,legacy,8 9,Kafkaesque Koffka,3.2.8,0,n,0,right,left,left,NA,right,691,72833,86980,NA,691,2,legacy,2,1024,2,48000,-16,experiment,3,odd,5,717548,724722,236544,724724,726934,2228,149564,725728,75061,728937,NA,2225,723618,728937,729629,Sternberg Task,79,78175,92,yes,1024
84.94623656,84.94623656,849.3978495,849.3978495,black,experiment,legacy,legacy,legacy,0,uniform,0,undefined,0,left,92,92,0,92,92,0,0,92,0,92,0,0,92,92,92,10/27/19 19:27,The main experiment item,yes,SternbergTask.osexp,E:\Classwork\AQMAED,no,mono,no,18,no,white,no,yes,768,legacy,80,11,E:/Classwork/AQMAED/Stenberg/MS-subject-3.csv,legacy,8 9 5 6 7,Kafkaesque Koffka,3.2.8,1,y,0,right,left,left,NA,right,819,72833,86980,NA,819,2,legacy,5,1024,2,48000,-16,experiment,3,odd,8,729634,730730,236544,730732,732943,2228,149564,731737,75061,734949,NA,2225,723618,734949,735769,Sternberg Task,79,78994,93,yes,1024
85.10638298,85.10638298,848.0425532,848.0425532,black,experiment,legacy,legacy,legacy,0,uniform,1,undefined,1,right,93,93,0,93,93,0,0,93,0,93,0,0,93,93,93,10/27/19 19:27,The main experiment item,yes,SternbergTask.osexp,E:\Classwork\AQMAED,no,mono,no,18,no,white,no,yes,768,legacy,81,11,E:/Classwork/AQMAED/Stenberg/MS-subject-3.csv,legacy,7 9 1 6,Kafkaesque Koffka,3.2.8,0,n,0,right,left,left,NA,right,722,72833,86980,NA,722,2,legacy,4,1024,2,48000,-16,experiment,3,odd,4,729634,736873,236544,736875,739084,2228,149564,737879,75061,741090,NA,2225,735774,741091,741814,Sternberg Task,80,79716,94,yes,1024
84.21052632,84.21052632,850.3368421,850.3368421,black,experiment,legacy,legacy,legacy,0,uniform,0,undefined,0,right,94,94,0,94,94,0,0,94,0,94,0,0,94,94,94,10/27/19 19:27,The main experiment item,yes,SternbergTask.osexp,E:\Classwork\AQMAED,no,mono,no,18,no,white,no,yes,768,legacy,82,11,E:/Classwork/AQMAED/Stenberg/MS-subject-3.csv,legacy,2 8 9 4 1,Kafkaesque Koffka,3.2.8,0,n,0,left,left,left,NA,left,1066,72833,86980,NA,1066,2,legacy,5,1024,2,48000,-16,experiment,3,odd,5,741819,742910,236544,742912,745122,2228,149564,743917,75061,747127,NA,2225,735774,747128,748195,Sternberg Task,80,80782,95,yes,1024
84.375,84.375,850.9479167,850.9479167,black,experiment,legacy,legacy,legacy,0,uniform,1,undefined,1,right,95,95,0,95,95,0,0,95,0,95,0,0,95,95,95,10/27/19 19:27,The main experiment item,yes,SternbergTask.osexp,E:\Classwork\AQMAED,no,mono,no,18,no,white,no,yes,768,legacy,83,11,E:/Classwork/AQMAED/Stenberg/MS-subject-3.csv,legacy,4 2 6 9,Kafkaesque Koffka,3.2.8,0,n,0,right,left,left,NA,right,909,72833,86980,NA,909,2,legacy,4,1024,2,48000,-16,experiment,3,odd,7,741819,749294,236544,749296,751506,2228,149564,750300,75061,753510,NA,2225,748200,753510,754420,Sternberg Task,81,81691,96,yes,1024
84.53608247,84.53608247,849.628866,849.628866,black,experiment,legacy,legacy,legacy,0,uniform,1,undefined,1,left,96,96,0,96,96,0,0,96,0,96,0,0,96,96,96,10/27/19 19:27,The main experiment item,yes,SternbergTask.osexp,E:\Classwork\AQMAED,no,mono,no,18,no,white,no,yes,768,legacy,84,11,E:/Classwork/AQMAED/Stenberg/MS-subject-3.csv,legacy,2 4 8 5 1 3,Kafkaesque Koffka,3.2.8,1,y,0,left,left,left,NA,left,723,72833,86980,NA,723,2,legacy,6,1024,2,48000,-16,experiment,3,odd,2,754432,755531,236544,755533,757744,2228,149564,756538,75061,759751,NA,2225,748200,759751,760476,Sternberg Task,82,82414,97,yes,1024
83.67346939,83.67346939,851.1938776,851.1938776,black,experiment,legacy,legacy,legacy,0,uniform,0,undefined,0,right,97,97,0,97,97,0,0,97,0,97,0,0,97,97,97,10/27/19 19:27,The main experiment item,yes,SternbergTask.osexp,E:\Classwork\AQMAED,no,mono,no,18,no,white,no,yes,768,legacy,85,11,E:/Classwork/AQMAED/Stenberg/MS-subject-3.csv,legacy,2 7 5,Kafkaesque Koffka,3.2.8,0,n,0,left,left,left,NA,left,1003,72833,86980,NA,1003,2,legacy,3,1024,2,48000,-16,experiment,3,odd,8,760486,761575,236544,761577,763784,2228,149564,762579,75061,765787,NA,2225,748200,765787,766791,Sternberg Task,82,83417,98,yes,1024
83.83838384,83.83838384,849.2626263,849.2626263,black,experiment,legacy,legacy,legacy,0,uniform,1,undefined,1,left,98,98,0,98,98,0,0,98,0,98,0,0,98,98,98,10/27/19 19:27,The main experiment item,yes,SternbergTask.osexp,E:\Classwork\AQMAED,no,mono,no,18,no,white,no,yes,768,legacy,86,11,E:/Classwork/AQMAED/Stenberg/MS-subject-3.csv,legacy,8 7 3,Kafkaesque Koffka,3.2.8,1,y,0,left,left,left,NA,left,660,72833,86980,NA,660,2,legacy,3,1024,2,48000,-16,experiment,3,odd,8,760486,767901,236544,767903,770115,2228,149564,768910,75061,772121,NA,2225,766803,772121,772782,Sternberg Task,83,84077,99,yes,1024
84,84,848.39,848.39,black,experiment,legacy,legacy,legacy,0,uniform,1,undefined,1,right,99,99,0,99,99,0,0,99,0,99,0,0,99,99,99,10/27/19 19:27,The main experiment item,yes,SternbergTask.osexp,E:\Classwork\AQMAED,no,mono,no,18,no,white,no,yes,768,legacy,87,11,E:/Classwork/AQMAED/Stenberg/MS-subject-3.csv,legacy,7 3 2 8,Kafkaesque Koffka,3.2.8,0,n,0,right,left,left,NA,right,762,72833,86980,NA,762,2,legacy,4,1024,2,48000,-16,experiment,3,odd,4,772789,773877,236544,773879,776088,2228,149564,774884,75061,778094,NA,2225,766803,778094,778857,Sternberg Task,84,84839,100,yes,1024
84.15841584,84.15841584,849.5049505,849.5049505,black,experiment,legacy,legacy,legacy,0,uniform,1,undefined,1,right,100,100,0,100,100,0,0,100,0,100,0,0,100,100,100,10/27/19 19:27,The main experiment item,yes,SternbergTask.osexp,E:\Classwork\AQMAED,no,mono,no,18,no,white,no,yes,768,legacy,88,11,E:/Classwork/AQMAED/Stenberg/MS-subject-3.csv,legacy,7 6 4 8 1 2,Kafkaesque Koffka,3.2.8,0,n,0,right,left,left,NA,right,961,72833,86980,NA,961,2,legacy,6,1024,2,48000,-16,experiment,3,odd,9,778862,779963,236544,779965,782173,2228,149564,780968,75061,784178,NA,2225,766803,784178,785140,Sternberg Task,85,85800,101,yes,1024
84.31372549,84.31372549,851.1078431,851.1078431,black,experiment,legacy,legacy,legacy,0,uniform,1,undefined,1,left,101,101,0,101,101,0,0,101,0,101,0,0,101,101,101,10/27/19 19:27,The main experiment item,yes,SternbergTask.osexp,E:\Classwork\AQMAED,no,mono,no,18,no,white,no,yes,768,legacy,89,11,E:/Classwork/AQMAED/Stenberg/MS-subject-3.csv,legacy,2 8 5 1,Kafkaesque Koffka,3.2.8,4,y,0,left,left,left,NA,left,1013,72833,86980,NA,1013,2,legacy,4,1024,2,48000,-16,experiment,3,odd,1,785146,786234,236544,786235,788444,2228,149564,787240,75061,790450,NA,2225,766803,790450,791465,Sternberg Task,86,86813,102,yes,1024
84.46601942,84.46601942,854.0873786,854.0873786,black,experiment,legacy,legacy,legacy,0,uniform,1,undefined,1,left,102,102,0,102,102,0,0,102,0,102,0,0,102,102,102,10/27/19 19:27,The main experiment item,yes,SternbergTask.osexp,E:\Classwork\AQMAED,no,mono,no,18,no,white,no,yes,768,legacy,90,11,E:/Classwork/AQMAED/Stenberg/MS-subject-3.csv,legacy,8 5 4 7 3 1,Kafkaesque Koffka,3.2.8,2,y,0,left,left,left,NA,left,1158,72833,86980,NA,1158,2,legacy,6,1024,2,48000,-16,experiment,3,odd,5,791470,792557,236544,792559,794767,2228,149564,793564,75061,796772,NA,2225,766803,796772,797932,Sternberg Task,87,87971,103,yes,1024
84.61538462,84.61538462,855.8269231,855.8269231,black,experiment,legacy,legacy,legacy,0,uniform,1,undefined,1,left,103,103,0,103,103,0,0,103,0,103,0,0,103,103,103,10/27/19 19:27,The main experiment item,yes,SternbergTask.osexp,E:\Classwork\AQMAED,no,mono,no,18,no,white,no,yes,768,legacy,91,11,E:/Classwork/AQMAED/Stenberg/MS-subject-3.csv,legacy,5 7 8 2 3 8,Kafkaesque Koffka,3.2.8,5,y,0,left,left,left,NA,left,1035,72833,86980,NA,1035,2,legacy,6,1024,2,48000,-16,experiment,3,odd,3,797936,799058,236544,799060,801271,2228,149564,800065,75061,803276,NA,2225,766803,803276,804312,Sternberg Task,88,89006,104,yes,1024
84.76190476,84.76190476,853.8571429,853.8571429,black,experiment,legacy,legacy,legacy,0,uniform,1,undefined,1,right,104,104,0,104,104,0,0,104,0,104,0,0,104,104,104,10/27/19 19:27,The main experiment item,yes,SternbergTask.osexp,E:\Classwork\AQMAED,no,mono,no,18,no,white,no,yes,768,legacy,92,11,E:/Classwork/AQMAED/Stenberg/MS-subject-3.csv,legacy,6 8 4,Kafkaesque Koffka,3.2.8,0,n,0,right,left,left,NA,right,649,72833,86980,NA,649,2,legacy,3,1024,2,48000,-16,experiment,3,odd,1,804317,805410,236544,805412,807622,2228,149564,806417,75061,809628,NA,2225,766803,809628,810278,Sternberg Task,89,89655,105,yes,1024
84.90566038,84.90566038,853.3867925,853.3867925,black,experiment,legacy,legacy,legacy,0,uniform,1,undefined,1,right,105,105,0,105,105,0,0,105,0,105,0,0,105,105,105,10/27/19 19:27,The main experiment item,yes,SternbergTask.osexp,E:\Classwork\AQMAED,no,mono,no,18,no,white,no,yes,768,legacy,93,11,E:/Classwork/AQMAED/Stenberg/MS-subject-3.csv,legacy,2 6 4 3 9,Kafkaesque Koffka,3.2.8,0,n,0,right,left,left,NA,right,804,72833,86980,NA,804,2,legacy,5,1024,2,48000,-16,experiment,3,odd,1,810288,811395,236544,811397,813607,2228,149564,812402,75061,815612,NA,2225,766803,815613,816419,Sternberg Task,90,90459,106,yes,1024
85.04672897,85.04672897,851.046729,851.046729,black,experiment,legacy,legacy,legacy,0,uniform,1,undefined,1,left,106,106,0,106,106,0,0,106,0,106,0,0,106,106,106,10/27/19 19:27,The main experiment item,yes,SternbergTask.osexp,E:\Classwork\AQMAED,no,mono,no,18,no,white,no,yes,768,legacy,94,11,E:/Classwork/AQMAED/Stenberg/MS-subject-3.csv,legacy,9 1 7 2,Kafkaesque Koffka,3.2.8,2,y,0,left,left,left,NA,left,603,72833,86980,NA,603,2,legacy,4,1024,2,48000,-16,experiment,3,odd,1,816427,817525,236544,817526,819736,2228,149564,818531,75061,821743,NA,2225,766803,821743,822347,Sternberg Task,91,91062,107,yes,1024
85.18518519,85.18518519,853.1481481,853.1481481,black,experiment,legacy,legacy,legacy,0,uniform,1,undefined,1,left,107,107,0,107,107,0,0,107,0,107,0,0,107,107,107,10/27/19 19:27,The main experiment item,yes,SternbergTask.osexp,E:\Classwork\AQMAED,no,mono,no,18,no,white,no,yes,768,legacy,95,11,E:/Classwork/AQMAED/Stenberg/MS-subject-3.csv,legacy,4 3 2 5 8,Kafkaesque Koffka,3.2.8,2,y,0,left,left,left,NA,left,1078,72833,86980,NA,1078,2,legacy,5,1024,2,48000,-16,experiment,3,odd,3,822354,823460,236544,823462,825674,2228,149564,824468,75061,827679,NA,2225,766803,827679,828759,Sternberg Task,92,92140,108,yes,1024
85.32110092,85.32110092,854.4954128,854.4954128,black,experiment,legacy,legacy,legacy,0,uniform,1,undefined,1,left,108,108,0,108,108,0,0,108,0,108,0,0,108,108,108,10/27/19 19:27,The main experiment item,yes,SternbergTask.osexp,E:\Classwork\AQMAED,no,mono,no,18,no,white,no,yes,768,legacy,96,11,E:/Classwork/AQMAED/Stenberg/MS-subject-3.csv,legacy,9 3 8 2 1 4,Kafkaesque Koffka,3.2.8,3,y,0,left,left,left,NA,left,1000,72833,86980,NA,1000,2,legacy,6,1024,2,48000,-16,experiment,3,odd,8,828765,829862,236544,829864,832073,2228,149564,830869,75061,834077,NA,2225,766803,834078,835079,Sternberg Task,93,93140,109,yes,1024
85.45454545,85.45454545,854.3272727,854.3272727,black,experiment,legacy,legacy,legacy,0,uniform,1,undefined,1,right,109,109,0,109,109,0,0,109,0,109,0,0,109,109,109,10/27/19 19:27,The main experiment item,yes,SternbergTask.osexp,E:\Classwork\AQMAED,no,mono,no,18,no,white,no,yes,768,legacy,97,11,E:/Classwork/AQMAED/Stenberg/MS-subject-3.csv,legacy,1 7 8 3 9,Kafkaesque Koffka,3.2.8,0,n,0,right,left,left,NA,right,836,72833,86980,NA,836,2,legacy,5,1024,2,48000,-16,experiment,3,odd,2,835084,836185,236544,836187,838397,2228,149564,837192,75061,840403,NA,2225,766803,840403,841240,Sternberg Task,94,93976,110,yes,1024
85.58558559,85.58558559,853.4414414,853.4414414,black,experiment,legacy,legacy,legacy,0,uniform,1,undefined,1,left,110,110,0,110,110,0,0,110,0,110,0,0,110,110,110,10/27/19 19:27,The main experiment item,yes,SternbergTask.osexp,E:\Classwork\AQMAED,no,mono,no,18,no,white,no,yes,768,legacy,98,11,E:/Classwork/AQMAED/Stenberg/MS-subject-3.csv,legacy,1 4 9 3 2 5,Kafkaesque Koffka,3.2.8,3,y,0,left,left,left,NA,left,756,72833,86980,NA,756,2,legacy,6,1024,2,48000,-16,experiment,3,odd,9,841244,842357,236544,842359,844566,2228,149564,843364,75061,846572,NA,2225,766803,846573,847330,Sternberg Task,95,94732,111,yes,1024
85.71428571,85.71428571,851.3392857,851.3392857,black,experiment,legacy,legacy,legacy,0,uniform,1,undefined,1,left,111,111,0,111,111,0,0,111,0,111,0,0,111,111,111,10/27/19 19:27,The main experiment item,yes,SternbergTask.osexp,E:\Classwork\AQMAED,no,mono,no,18,no,white,no,yes,768,legacy,99,11,E:/Classwork/AQMAED/Stenberg/MS-subject-3.csv,legacy,2 6 1 7 4,Kafkaesque Koffka,3.2.8,2,y,0,left,left,left,NA,left,618,72833,86980,NA,618,2,legacy,5,1024,2,48000,-16,experiment,3,odd,6,847336,848439,236544,848441,850653,2228,149564,849447,75061,852658,NA,2225,766803,852658,853276,Sternberg Task,96,95350,112,yes,1024
85.84070796,85.84070796,849.8318584,849.8318584,black,experiment,legacy,legacy,legacy,0,uniform,1,undefined,1,right,112,112,0,112,112,0,0,112,0,112,0,0,112,112,112,10/27/19 19:27,The main experiment item,yes,SternbergTask.osexp,E:\Classwork\AQMAED,no,mono,no,18,no,white,no,yes,768,legacy,100,11,E:/Classwork/AQMAED/Stenberg/MS-subject-3.csv,legacy,5,Kafkaesque Koffka,3.2.8,0,n,0,right,left,left,NA,right,681,72833,86980,NA,681,2,legacy,1,1024,2,48000,-16,experiment,3,odd,8,853282,854376,236544,854378,856588,2228,149564,855383,75061,858594,NA,2225,766803,858594,859276,Sternberg Task,97,96031,113,yes,1024
85.96491228,85.96491228,850.9561404,850.9561404,black,experiment,legacy,legacy,legacy,0,uniform,1,undefined,1,left,113,113,0,113,113,0,0,113,0,113,0,0,113,113,113,10/27/19 19:27,The main experiment item,yes,SternbergTask.osexp,E:\Classwork\AQMAED,no,mono,no,18,no,white,no,yes,768,legacy,101,11,E:/Classwork/AQMAED/Stenberg/MS-subject-3.csv,legacy,6 8 9 3 4 9,Kafkaesque Koffka,3.2.8,5,y,0,left,left,left,NA,left,978,72833,86980,NA,978,2,legacy,6,1024,2,48000,-16,experiment,3,odd,4,859281,860386,236544,860388,862595,2228,149564,861393,75061,864598,NA,2225,766803,864598,865578,Sternberg Task,98,97009,114,yes,1024
86.08695652,86.08695652,848.3130435,848.3130435,black,experiment,legacy,legacy,legacy,0,uniform,1,undefined,1,right,114,114,0,114,114,0,0,114,0,114,0,0,114,114,114,10/27/19 19:27,The main experiment item,yes,SternbergTask.osexp,E:\Classwork\AQMAED,no,mono,no,18,no,white,no,yes,768,legacy,102,11,E:/Classwork/AQMAED/Stenberg/MS-subject-3.csv,legacy,9,Kafkaesque Koffka,3.2.8,0,n,0,right,left,left,NA,right,547,72833,86980,NA,547,2,legacy,1,1024,2,48000,-16,experiment,3,odd,6,865583,866711,236544,866713,868924,2228,149564,867718,75061,870929,NA,2225,766803,870930,871478,Sternberg Task,99,97556,115,yes,1024
86.20689655,86.20689655,848.9051724,848.9051724,black,experiment,legacy,legacy,legacy,0,uniform,1,undefined,1,right,115,115,0,115,115,0,0,115,0,115,0,0,115,115,115,10/27/19 19:27,The main experiment item,yes,SternbergTask.osexp,E:\Classwork\AQMAED,no,mono,no,18,no,white,no,yes,768,legacy,103,11,E:/Classwork/AQMAED/Stenberg/MS-subject-3.csv,legacy,7 1 8 4 9 3,Kafkaesque Koffka,3.2.8,0,n,0,right,left,left,NA,right,917,72833,86980,NA,917,2,legacy,6,1024,2,48000,-16,experiment,3,odd,6,871487,872587,236544,872589,874799,2228,149564,873594,75061,876804,NA,2225,766803,876805,877723,Sternberg Task,100,98473,116,yes,1024
86.32478632,86.32478632,846.974359,846.974359,black,experiment,legacy,legacy,legacy,0,uniform,1,undefined,1,right,116,116,0,116,116,0,0,116,0,116,0,0,116,116,116,10/27/19 19:27,The main experiment item,yes,SternbergTask.osexp,E:\Classwork\AQMAED,no,mono,no,18,no,white,no,yes,768,legacy,104,11,E:/Classwork/AQMAED/Stenberg/MS-subject-3.csv,legacy,7 9,Kafkaesque Koffka,3.2.8,0,n,0,right,left,left,NA,right,623,72833,86980,NA,623,2,legacy,2,1024,2,48000,-16,experiment,3,odd,1,877731,878828,236544,878829,881039,2228,149564,879834,75061,883044,NA,2225,766803,883045,883669,Sternberg Task,101,99096,117,yes,1024
86.44067797,86.44067797,845.1016949,845.1016949,black,experiment,legacy,legacy,legacy,0,uniform,1,undefined,1,right,117,117,0,117,117,0,0,117,0,117,0,0,117,117,117,10/27/19 19:27,The main experiment item,yes,SternbergTask.osexp,E:\Classwork\AQMAED,no,mono,no,18,no,white,no,yes,768,legacy,105,11,E:/Classwork/AQMAED/Stenberg/MS-subject-3.csv,legacy,7 1,Kafkaesque Koffka,3.2.8,0,n,0,right,left,left,NA,right,626,72833,86980,NA,626,2,legacy,2,1024,2,48000,-16,experiment,3,odd,8,883675,884770,236544,884772,886980,2228,149564,885777,75061,888985,NA,2225,766803,888985,889612,Sternberg Task,102,99722,118,yes,1024
86.55462185,86.55462185,843.2605042,843.2605042,black,experiment,legacy,legacy,legacy,0,uniform,1,undefined,1,right,118,118,0,118,118,0,0,118,0,118,0,0,118,118,118,10/27/19 19:27,The main experiment item,yes,SternbergTask.osexp,E:\Classwork\AQMAED,no,mono,no,18,no,white,no,yes,768,legacy,106,11,E:/Classwork/AQMAED/Stenberg/MS-subject-3.csv,legacy,8 5 7 3 6,Kafkaesque Koffka,3.2.8,0,n,0,right,left,left,NA,right,626,72833,86980,NA,626,2,legacy,5,1024,2,48000,-16,experiment,3,odd,9,889617,890719,236544,890720,892926,2228,149564,891721,75061,894931,NA,2225,766803,894931,895558,Sternberg Task,103,100348,119,yes,1024
86.66666667,86.66666667,844.8166667,844.8166667,black,experiment,legacy,legacy,legacy,0,uniform,1,undefined,1,left,119,119,0,119,119,0,0,119,0,119,0,0,119,119,119,10/27/19 19:27,The main experiment item,yes,SternbergTask.osexp,E:\Classwork\AQMAED,no,mono,no,18,no,white,no,yes,768,legacy,107,11,E:/Classwork/AQMAED/Stenberg/MS-subject-3.csv,legacy,8 5 3 7 4 6,Kafkaesque Koffka,3.2.8,6,y,0,left,left,left,NA,left,1030,72833,86980,NA,1030,2,legacy,6,1024,2,48000,-16,experiment,3,odd,6,895563,896663,236544,896665,898876,2228,149564,897670,75061,900881,NA,2225,766803,900881,901912,Sternberg Task,104,101378,120,yes,1024
86.7768595,86.7768595,843.8347107,843.8347107,black,experiment,legacy,legacy,legacy,0,uniform,1,undefined,1,right,120,120,0,120,120,0,0,120,0,120,0,0,120,120,120,10/27/19 19:27,The main experiment item,yes,SternbergTask.osexp,E:\Classwork\AQMAED,no,mono,no,18,no,white,no,yes,768,legacy,108,11,E:/Classwork/AQMAED/Stenberg/MS-subject-3.csv,legacy,3 4 2,Kafkaesque Koffka,3.2.8,0,n,0,right,left,left,NA,right,726,72833,86980,NA,726,2,legacy,3,1024,2,48000,-16,experiment,3,odd,5,901917,903015,236544,903017,905226,2228,149564,904021,75061,907231,NA,2225,766803,907231,907958,Sternberg Task,105,102104,121,yes,1024
86.8852459,86.8852459,842.5,842.5,black,experiment,legacy,legacy,legacy,0,uniform,1,undefined,1,right,121,121,0,121,121,0,0,121,0,121,0,0,121,121,121,10/27/19 19:27,The main experiment item,yes,SternbergTask.osexp,E:\Classwork\AQMAED,no,mono,no,18,no,white,no,yes,768,legacy,109,11,E:/Classwork/AQMAED/Stenberg/MS-subject-3.csv,legacy,6 3 1 7 9 8,Kafkaesque Koffka,3.2.8,0,n,0,right,left,left,NA,right,681,72833,86980,NA,681,2,legacy,6,1024,2,48000,-16,experiment,3,odd,4,907964,909040,236544,909042,911252,2228,149564,910047,75061,913258,NA,2225,766803,913259,913941,Sternberg Task,106,102785,122,yes,1024
86.99186992,86.99186992,840.4634146,840.4634146,black,experiment,legacy,legacy,legacy,0,uniform,1,undefined,1,right,122,122,0,122,122,0,0,122,0,122,0,0,122,122,122,10/27/19 19:27,The main experiment item,yes,SternbergTask.osexp,E:\Classwork\AQMAED,no,mono,no,18,no,white,no,yes,768,legacy,110,11,E:/Classwork/AQMAED/Stenberg/MS-subject-3.csv,legacy,6 7 5 9,Kafkaesque Koffka,3.2.8,0,n,0,right,left,left,NA,right,592,72833,86980,NA,592,2,legacy,4,1024,2,48000,-16,experiment,3,odd,2,913946,915047,236544,915049,917260,2228,149564,916054,75061,919263,NA,2225,766803,919263,919856,Sternberg Task,107,103377,123,yes,1024
86.29032258,86.29032258,838.8548387,838.8548387,black,experiment,legacy,legacy,legacy,0,uniform,0,undefined,0,left,123,123,0,123,123,0,0,123,0,123,0,0,123,123,123,10/27/19 19:27,The main experiment item,yes,SternbergTask.osexp,E:\Classwork\AQMAED,no,mono,no,18,no,white,no,yes,768,legacy,111,11,E:/Classwork/AQMAED/Stenberg/MS-subject-3.csv,legacy,9 5 8 1,Kafkaesque Koffka,3.2.8,2,y,0,right,left,left,NA,right,641,72833,86980,NA,641,2,legacy,4,1024,2,48000,-16,experiment,3,odd,5,919868,920967,236544,920969,923179,2228,149564,921974,75061,925184,NA,2225,766803,925184,925826,Sternberg Task,107,104018,124,yes,1024
86.4,86.4,837.808,837.808,black,experiment,legacy,legacy,legacy,0,uniform,1,undefined,1,right,124,124,0,124,124,0,0,124,0,124,0,0,124,124,124,10/27/19 19:27,The main experiment item,yes,SternbergTask.osexp,E:\Classwork\AQMAED,no,mono,no,18,no,white,no,yes,768,legacy,112,11,E:/Classwork/AQMAED/Stenberg/MS-subject-3.csv,legacy,1 3 2 6 9,Kafkaesque Koffka,3.2.8,0,n,0,right,left,left,NA,right,708,72833,86980,NA,708,2,legacy,5,1024,2,48000,-16,experiment,3,odd,5,919868,926939,236544,926941,929149,2228,149564,927945,75061,931151,NA,2225,925833,931151,931860,Sternberg Task,108,104726,125,yes,1024
85.71428571,85.71428571,837.1666667,837.1666667,black,experiment,legacy,legacy,legacy,0,uniform,0,undefined,0,left,125,125,0,125,125,0,0,125,0,125,0,0,125,125,125,10/27/19 19:27,The main experiment item,yes,SternbergTask.osexp,E:\Classwork\AQMAED,no,mono,no,18,no,white,no,yes,768,legacy,113,11,E:/Classwork/AQMAED/Stenberg/MS-subject-3.csv,legacy,8 9 5 7 1 6,Kafkaesque Koffka,3.2.8,4,y,0,right,left,left,NA,right,757,72833,86980,NA,757,2,legacy,6,1024,2,48000,-16,experiment,3,odd,7,931872,932982,236544,932984,935192,2228,149564,933989,75061,937197,NA,2225,925833,937197,937956,Sternberg Task,108,105483,126,yes,1024
85.82677165,85.82677165,837.0787402,837.0787402,black,experiment,legacy,legacy,legacy,0,uniform,1,undefined,1,right,126,126,0,126,126,0,0,126,0,126,0,0,126,126,126,10/27/19 19:27,The main experiment item,yes,SternbergTask.osexp,E:\Classwork\AQMAED,no,mono,no,18,no,white,no,yes,768,legacy,114,11,E:/Classwork/AQMAED/Stenberg/MS-subject-3.csv,legacy,6 8,Kafkaesque Koffka,3.2.8,0,n,0,right,left,left,NA,right,826,72833,86980,NA,826,2,legacy,2,1024,2,48000,-16,experiment,3,odd,9,931872,939076,236544,939078,941288,2228,149564,940083,75061,943293,NA,2225,937965,943293,944121,Sternberg Task,109,106309,127,yes,1024
85.9375,85.9375,836.0703125,836.0703125,black,experiment,legacy,legacy,legacy,0,uniform,1,undefined,1,right,127,127,0,127,127,0,0,127,0,127,0,0,127,127,127,10/27/19 19:27,The main experiment item,yes,SternbergTask.osexp,E:\Classwork\AQMAED,no,mono,no,18,no,white,no,yes,768,legacy,115,11,E:/Classwork/AQMAED/Stenberg/MS-subject-3.csv,legacy,2 8 9,Kafkaesque Koffka,3.2.8,0,n,0,right,left,left,NA,right,708,72833,86980,NA,708,2,legacy,3,1024,2,48000,-16,experiment,3,odd,6,944126,945224,236544,945226,947436,2228,149564,946230,75061,949440,NA,2225,937965,949441,950150,Sternberg Task,110,107017,128,yes,1024
86.04651163,86.04651163,838.7906977,838.7906977,black,experiment,legacy,legacy,legacy,0,uniform,1,undefined,1,left,128,128,0,128,128,0,0,128,0,128,0,0,128,128,128,10/27/19 19:27,The main experiment item,yes,SternbergTask.osexp,E:\Classwork\AQMAED,no,mono,no,18,no,white,no,yes,768,legacy,116,11,E:/Classwork/AQMAED/Stenberg/MS-subject-3.csv,legacy,2 5 4 8 7,Kafkaesque Koffka,3.2.8,3,y,0,left,left,left,NA,left,1187,72833,86980,NA,1187,2,legacy,5,1024,2,48000,-16,experiment,3,odd,4,950155,951245,236544,951247,953457,2228,149564,952251,75061,955459,NA,2225,937965,955459,956649,Sternberg Task,111,108204,129,yes,1024
86.15384615,86.15384615,837.5230769,837.5230769,black,experiment,legacy,legacy,legacy,0,uniform,1,undefined,1,right,129,129,0,129,129,0,0,129,0,129,0,0,129,129,129,10/27/19 19:27,The main experiment item,yes,SternbergTask.osexp,E:\Classwork\AQMAED,no,mono,no,18,no,white,no,yes,768,legacy,117,11,E:/Classwork/AQMAED/Stenberg/MS-subject-3.csv,legacy,6 2 9 3 8 4,Kafkaesque Koffka,3.2.8,0,n,0,right,left,left,NA,right,674,72833,86980,NA,674,2,legacy,6,1024,2,48000,-16,experiment,3,odd,1,956656,957747,236544,957749,959957,2228,149564,958752,75061,961962,NA,2225,937965,961962,962637,Sternberg Task,112,108878,130,yes,1024
86.25954198,86.25954198,838.389313,838.389313,black,experiment,legacy,legacy,legacy,0,uniform,1,undefined,1,left,130,130,0,130,130,0,0,130,0,130,0,0,130,130,130,10/27/19 19:27,The main experiment item,yes,SternbergTask.osexp,E:\Classwork\AQMAED,no,mono,no,18,no,white,no,yes,768,legacy,118,11,E:/Classwork/AQMAED/Stenberg/MS-subject-3.csv,legacy,6 1 2,Kafkaesque Koffka,3.2.8,3,y,0,left,left,left,NA,left,951,72833,86980,NA,951,2,legacy,3,1024,2,48000,-16,experiment,3,odd,2,962642,963732,236544,963734,965937,2228,149564,964735,75061,967939,NA,2225,937965,967939,968892,Sternberg Task,113,109829,131,yes,1024
86.36363636,86.36363636,838.1212121,838.1212121,black,experiment,legacy,legacy,legacy,0,uniform,1,undefined,1,right,131,131,0,131,131,0,0,131,0,131,0,0,131,131,131,10/27/19 19:27,The main experiment item,yes,SternbergTask.osexp,E:\Classwork\AQMAED,no,mono,no,18,no,white,no,yes,768,legacy,119,11,E:/Classwork/AQMAED/Stenberg/MS-subject-3.csv,legacy,4 2 7 6 1 3,Kafkaesque Koffka,3.2.8,0,n,0,right,left,left,NA,right,803,72833,86980,NA,803,2,legacy,6,1024,2,48000,-16,experiment,3,odd,8,968898,969982,236544,969985,972188,2228,149564,970987,75061,974192,NA,2225,937965,974192,974996,Sternberg Task,114,110632,132,yes,1024
86.46616541,86.46616541,836.6390977,836.6390977,black,experiment,legacy,legacy,legacy,0,uniform,1,undefined,1,right,132,132,0,132,132,0,0,132,0,132,0,0,132,132,132,10/27/19 19:27,The main experiment item,yes,SternbergTask.osexp,E:\Classwork\AQMAED,no,mono,no,18,no,white,no,yes,768,legacy,120,11,E:/Classwork/AQMAED/Stenberg/MS-subject-3.csv,legacy,5 3 8 7 2 4,Kafkaesque Koffka,3.2.8,0,n,0,right,left,left,NA,right,641,72833,86980,NA,641,2,legacy,6,1024,2,48000,-16,experiment,3,odd,9,975002,976097,236544,976098,978309,2228,149564,977104,75061,980311,NA,2225,937965,980311,980954,Sternberg Task,115,111273,133,yes,1024
86.56716418,86.56716418,835.858209,835.858209,black,experiment,legacy,legacy,legacy,0,uniform,1,undefined,1,left,133,133,0,133,133,0,0,133,0,133,0,0,133,133,133,10/27/19 19:27,The main experiment item,yes,SternbergTask.osexp,E:\Classwork\AQMAED,no,mono,no,18,no,white,no,yes,768,legacy,121,11,E:/Classwork/AQMAED/Stenberg/MS-subject-3.csv,legacy,7,Kafkaesque Koffka,3.2.8,1,y,0,left,left,left,NA,left,732,72833,86980,NA,732,2,legacy,1,1024,2,48000,-16,experiment,3,odd,7,980958,982049,236544,982051,984256,2228,149564,983053,75061,986259,NA,2225,937965,986259,986994,Sternberg Task,116,112005,134,yes,1024
86.66666667,86.66666667,835.9703704,835.9703704,black,experiment,legacy,legacy,legacy,0,uniform,1,undefined,1,left,134,134,0,134,134,0,0,134,0,134,0,0,134,134,134,10/27/19 19:27,The main experiment item,yes,SternbergTask.osexp,E:\Classwork\AQMAED,no,mono,no,18,no,white,no,yes,768,legacy,122,11,E:/Classwork/AQMAED/Stenberg/MS-subject-3.csv,legacy,9 5 3 8 4,Kafkaesque Koffka,3.2.8,1,y,0,left,left,left,NA,left,851,72833,86980,NA,851,2,legacy,5,1024,2,48000,-16,experiment,3,odd,9,987005,988100,236544,988102,990308,2228,149564,989104,75061,992313,NA,2225,937965,992313,993165,Sternberg Task,117,112856,135,yes,1024
86.76470588,86.76470588,834.5882353,834.5882353,black,experiment,legacy,legacy,legacy,0,uniform,1,undefined,1,right,135,135,0,135,135,0,0,135,0,135,0,0,135,135,135,10/27/19 19:27,The main experiment item,yes,SternbergTask.osexp,E:\Classwork\AQMAED,no,mono,no,18,no,white,no,yes,768,legacy,123,11,E:/Classwork/AQMAED/Stenberg/MS-subject-3.csv,legacy,1 8 7,Kafkaesque Koffka,3.2.8,0,n,0,right,left,left,NA,right,648,72833,86980,NA,648,2,legacy,3,1024,2,48000,-16,experiment,3,odd,4,993171,994263,236544,994265,996475,2228,149564,995269,75061,998480,NA,2225,937965,998481,999130,Sternberg Task,118,113504,136,yes,1024
86.86131387,86.86131387,837,837,black,experiment,legacy,legacy,legacy,0,uniform,1,undefined,1,right,136,136,0,136,136,0,0,136,0,136,0,0,136,136,136,10/27/19 19:27,The main experiment item,yes,SternbergTask.osexp,E:\Classwork\AQMAED,no,mono,no,18,no,white,no,yes,768,legacy,124,11,E:/Classwork/AQMAED/Stenberg/MS-subject-3.csv,legacy,7 1 5 6 3,Kafkaesque Koffka,3.2.8,0,n,0,right,left,left,NA,right,1165,72833,86980,NA,1165,2,legacy,5,1024,2,48000,-16,experiment,3,odd,8,999139,1000236,236544,1000238,1002448,2228,149564,1001243,75061,1004451,NA,2225,937965,1004451,1005617,Sternberg Task,119,114669,137,yes,1024
86.95652174,86.95652174,838.057971,838.057971,black,experiment,legacy,legacy,legacy,0,uniform,1,undefined,1,left,137,137,0,137,137,0,0,137,0,137,0,0,137,137,137,10/27/19 19:27,The main experiment item,yes,SternbergTask.osexp,E:\Classwork\AQMAED,no,mono,no,18,no,white,no,yes,768,legacy,125,11,E:/Classwork/AQMAED/Stenberg/MS-subject-3.csv,legacy,3 5 4 7,Kafkaesque Koffka,3.2.8,1,y,0,left,left,left,NA,left,983,72833,86980,NA,983,2,legacy,4,1024,2,48000,-16,experiment,3,odd,3,1005624,1006744,236544,1006747,1008957,2228,149564,1007752,75061,1010962,NA,2225,937965,1010962,1011947,Sternberg Task,120,115652,138,yes,1024