acc,accuracy,average_response_time,avg_rt,background,block,canvas_backend,clock_backend,color_backend,compensation,coordinates,correct,correct_instruction1,correct_keyboard_response,correct_response,count_ISI,count_correctFeedback,count_expSequence,count_experiment,count_experimentLoop,count_fixation,count_incorrectFeedback,count_instruction1,count_instructions2,count_keyboard_response,count_logger,count_memorySet,count_practiceLoop,count_probe,count_thankYou,datetime,description,disable_garbage_collection,experiment_file,experiment_path,font_bold,font_family,font_italic,font_size,font_underline,foreground,form_clicks,fullscreen,height,keyboard_backend,live_row,live_row_practiceLoop,logfile,mouse_backend,numberSet,opensesame_codename,opensesame_version,posInSet,present,repeat_cycle,response,response_instruction1,response_instructions2,response_keyboard_response,response_thankYou,response_time,response_time_instruction1,response_time_instructions2,response_time_keyboard_response,response_time_thankYou,round_decimals,sampler_backend,setSize,sound_buf_size,sound_channels,sound_freq,sound_sample_size,start,subject_nr,subject_parity,target,time_ISI,time_correctFeedback,time_expSequence,time_experiment,time_experimentLoop,time_fixation,time_incorrectFeedback,time_instruction1,time_instructions2,time_keyboard_response,time_logger,time_memorySet,time_practiceLoop,time_probe,time_thankYou,title,total_correct,total_response_time,total_responses,uniform_coordinates,width
100,100,1691,1691,black,practice,legacy,legacy,legacy,0,uniform,1,undefined,1,right,0,0,0,0,0,0,0,0,0,0,0,0,0,0,0,Fri Oct 25 12:57:14 2019,The main experiment item,yes,SternbergTask.osexp,/Users/Zenny/Desktop,no,mono,no,18,no,white,no,no,768,legacy,0,0,/Users/Zenny/Desktop/quickrun.csv,legacy,2 1,Kafkaesque Koffka,3.2.8,0,n,0,right,right,NA,right,NA,1691,55384,NA,1691,NA,2,legacy,2,1024,2,48000,-16,experiment,999,odd,5,60504,NA,58207,2569,NA,58239,NA,2652,NA,62534,64226,59270,58046,62534,NA,SternbergTask,1,1691,1,yes,1024
100,100,1363,1363,black,practice,legacy,legacy,legacy,0,uniform,1,undefined,1,left,1,1,1,0,0,1,1,0,0,1,1,1,0,1,0,Fri Oct 25 12:57:14 2019,The main experiment item,yes,SternbergTask.osexp,/Users/Zenny/Desktop,no,mono,no,18,no,white,no,no,768,legacy,1,1,/Users/Zenny/Desktop/quickrun.csv,legacy,4 8,Kafkaesque Koffka,3.2.8,1,y,0,left,right,NA,left,NA,1035,55384,NA,1035,NA,2,legacy,2,1024,2,48000,-16,experiment,999,odd,4,67816,64354,65518,2569,NA,65550,NA,2652,NA,69852,70889,66582,58046,69851,NA,SternbergTask,2,2726,2,yes,1024
66.66666667,66.66666667,1379.666667,1379.666667,black,practice,legacy,legacy,legacy,0,uniform,0,undefined,0,left,2,2,2,0,0,2,2,0,0,2,2,2,0,2,0,Fri Oct 25 12:57:14 2019,The main experiment item,yes,SternbergTask.osexp,/Users/Zenny/Desktop,no,mono,no,18,no,white,no,no,768,legacy,2,2,/Users/Zenny/Desktop/quickrun.csv,legacy,6,Kafkaesque Koffka,3.2.8,1,y,0,right,right,NA,right,NA,1413,55384,NA,1413,NA,2,legacy,1,1024,2,48000,-16,experiment,999,odd,6,74352,70924,72054,2569,NA,72086,NA,2652,NA,76386,77801,73120,58046,76386,NA,SternbergTask,2,4139,3,yes,1024
75,75,1407.75,1407.75,black,practice,legacy,legacy,legacy,0,uniform,1,undefined,1,right,3,3,3,0,0,3,3,0,0,3,3,3,0,3,0,Fri Oct 25 12:57:14 2019,The main experiment item,yes,SternbergTask.osexp,/Users/Zenny/Desktop,no,mono,no,18,no,white,no,no,768,legacy,3,3,/Users/Zenny/Desktop/quickrun.csv,legacy,4 1 5,Kafkaesque Koffka,3.2.8,0,n,0,right,right,NA,right,NA,1492,55384,NA,1492,NA,2,legacy,3,1024,2,48000,-16,experiment,999,odd,2,81263,70924,78958,2569,NA,79000,77841,2652,NA,83295,84788,80032,58046,83294,NA,SternbergTask,3,5631,4,yes,1024
80,80,1327.8,1327.8,black,practice,legacy,legacy,legacy,0,uniform,1,undefined,1,left,4,4,4,0,0,4,4,0,0,4,4,4,0,4,0,Fri Oct 25 12:57:14 2019,The main experiment item,yes,SternbergTask.osexp,/Users/Zenny/Desktop,no,mono,no,18,no,white,no,no,768,legacy,4,4,/Users/Zenny/Desktop/quickrun.csv,legacy,1 5 2 9,Kafkaesque Koffka,3.2.8,2,y,0,left,right,NA,left,NA,1008,55384,NA,1008,NA,2,legacy,4,1024,2,48000,-16,experiment,999,odd,5,88270,84826,85976,2569,NA,86006,77841,2652,NA,90301,91311,87037,58046,90300,NA,SternbergTask,4,6639,5,yes,1024
66.66666667,66.66666667,1267.166667,1267.166667,black,practice,legacy,legacy,legacy,0,uniform,0,undefined,0,left,5,5,5,0,0,5,5,0,0,5,5,5,0,5,0,Fri Oct 25 12:57:14 2019,The main experiment item,yes,SternbergTask.osexp,/Users/Zenny/Desktop,no,mono,no,18,no,white,no,no,768,legacy,5,5,/Users/Zenny/Desktop/quickrun.csv,legacy,2 9 4,Kafkaesque Koffka,3.2.8,3,y,0,right,right,NA,right,NA,964,55384,NA,964,NA,2,legacy,3,1024,2,48000,-16,experiment,999,odd,4,94797,91348,92501,2569,NA,92534,77841,2652,NA,96833,97798,93565,58046,96833,NA,SternbergTask,4,7603,6,yes,1024
71.42857143,71.42857143,1295.428571,1295.428571,black,practice,legacy,legacy,legacy,0,uniform,1,undefined,1,right,6,6,6,0,0,6,6,0,0,6,6,6,0,6,0,Fri Oct 25 12:57:14 2019,The main experiment item,yes,SternbergTask.osexp,/Users/Zenny/Desktop,no,mono,no,18,no,white,no,no,768,legacy,6,6,/Users/Zenny/Desktop/quickrun.csv,legacy,5 7 8 4 1 2,Kafkaesque Koffka,3.2.8,0,n,0,right,right,NA,right,NA,1465,55384,NA,1465,NA,2,legacy,6,1024,2,48000,-16,experiment,999,odd,6,101282,91348,98986,2569,NA,99017,97834,2652,NA,103316,104782,100049,58046,103316,NA,SternbergTask,5,9068,7,yes,1024
75,75,1249.125,1249.125,black,practice,legacy,legacy,legacy,0,uniform,1,undefined,1,left,7,7,7,0,0,7,7,0,0,7,7,7,0,7,0,Fri Oct 25 12:57:14 2019,The main experiment item,yes,SternbergTask.osexp,/Users/Zenny/Desktop,no,mono,no,18,no,white,no,no,768,legacy,7,7,/Users/Zenny/Desktop/quickrun.csv,legacy,1 7 9 8 5,Kafkaesque Koffka,3.2.8,4,y,0,left,right,NA,left,NA,925,55384,NA,925,NA,2,legacy,5,1024,2,48000,-16,experiment,999,odd,8,108244,104817,105943,2569,NA,105981,97834,2652,NA,110277,111204,107013,58046,110276,NA,SternbergTask,6,9993,8,yes,1024
77.77777778,77.77777778,1192.333333,1192.333333,black,practice,legacy,legacy,legacy,0,uniform,1,undefined,1,right,8,8,8,0,0,8,8,0,0,8,8,8,0,8,0,Fri Oct 25 12:57:14 2019,The main experiment item,yes,SternbergTask.osexp,/Users/Zenny/Desktop,no,mono,no,18,no,white,no,no,768,legacy,8,8,/Users/Zenny/Desktop/quickrun.csv,legacy,9 6 7 4 5,Kafkaesque Koffka,3.2.8,0,n,0,right,right,NA,right,NA,738,55384,NA,738,NA,2,legacy,5,1024,2,48000,-16,experiment,999,odd,3,114644,111240,112351,2569,NA,112383,97834,2652,NA,116676,117416,113414,58046,116676,NA,SternbergTask,7,10731,9,yes,1024
80,80,1177.5,1177.5,black,practice,legacy,legacy,legacy,0,uniform,1,undefined,1,right,9,9,9,0,0,9,9,0,0,9,9,9,0,9,0,Fri Oct 25 12:57:14 2019,The main experiment item,yes,SternbergTask.osexp,/Users/Zenny/Desktop,no,mono,no,18,no,white,no,no,768,legacy,9,9,/Users/Zenny/Desktop/quickrun.csv,legacy,3 1 9 4,Kafkaesque Koffka,3.2.8,0,n,0,right,right,NA,right,NA,1044,55384,NA,1044,NA,2,legacy,4,1024,2,48000,-16,experiment,999,odd,6,120909,117459,118613,2569,NA,118645,97834,2652,NA,122941,123987,119676,58046,122941,NA,SternbergTask,8,11775,10,yes,1024
81.81818182,81.81818182,1160.090909,1160.090909,black,practice,legacy,legacy,legacy,0,uniform,1,undefined,1,left,10,10,10,0,0,10,10,0,0,10,10,10,0,10,0,Fri Oct 25 12:57:14 2019,The main experiment item,yes,SternbergTask.osexp,/Users/Zenny/Desktop,no,mono,no,18,no,white,no,no,768,legacy,10,10,/Users/Zenny/Desktop/quickrun.csv,legacy,4 3 1 7 9 8,Kafkaesque Koffka,3.2.8,1,y,0,left,right,NA,left,NA,986,55384,NA,986,NA,2,legacy,6,1024,2,48000,-16,experiment,999,odd,4,127472,124023,125173,2569,NA,125208,97834,2652,NA,129510,130498,126239,58046,129510,NA,SternbergTask,9,12761,11,yes,1024
83.33333333,83.33333333,1141,1141,black,practice,legacy,legacy,legacy,0,uniform,1,undefined,1,right,11,11,11,0,0,11,11,0,0,11,11,11,0,11,0,Fri Oct 25 12:57:14 2019,The main experiment item,yes,SternbergTask.osexp,/Users/Zenny/Desktop,no,mono,no,18,no,white,no,no,768,legacy,11,11,/Users/Zenny/Desktop/quickrun.csv,legacy,5,Kafkaesque Koffka,3.2.8,0,n,0,right,right,NA,right,NA,931,55384,NA,931,NA,2,legacy,1,1024,2,48000,-16,experiment,999,odd,3,134043,130536,131682,2569,NA,131773,97834,2652,NA,136074,137006,132810,58046,136074,NA,SternbergTask,10,13692,12,yes,1024
76.92307692,76.92307692,1143.230769,1143.230769,black,experiment,legacy,legacy,legacy,0,uniform,0,undefined,0,left,12,12,12,0,0,12,12,0,0,12,12,12,0,12,0,Fri Oct 25 12:57:14 2019,The main experiment item,yes,SternbergTask.osexp,/Users/Zenny/Desktop,no,mono,no,18,no,white,no,no,768,legacy,0,11,/Users/Zenny/Desktop/quickrun.csv,legacy,3 5 9 6 2 4,Kafkaesque Koffka,3.2.8,1,y,0,right,right,right,right,NA,1170,55384,22510,1170,NA,2,legacy,6,1024,2,48000,-16,experiment,999,odd,3,163125,137051,160829,2569,160628,160861,97834,2652,138117,165156,166327,161892,58046,165156,NA,SternbergTask,10,14862,13,yes,1024
78.57142857,78.57142857,1144.785714,1144.785714,black,experiment,legacy,legacy,legacy,0,uniform,1,undefined,1,right,13,13,13,0,0,13,13,0,0,13,13,13,0,13,0,Fri Oct 25 12:57:14 2019,The main experiment item,yes,SternbergTask.osexp,/Users/Zenny/Desktop,no,mono,no,18,no,white,no,no,768,legacy,1,11,/Users/Zenny/Desktop/quickrun.csv,legacy,6 9 4 5 2,Kafkaesque Koffka,3.2.8,0,n,0,right,right,right,right,NA,1165,55384,22510,1165,NA,2,legacy,5,1024,2,48000,-16,experiment,999,odd,1,169819,137051,167513,2569,160628,167551,166367,2652,138117,171851,173017,168584,58046,171851,NA,SternbergTask,11,16027,14,yes,1024
80,80,1130.066667,1130.066667,black,experiment,legacy,legacy,legacy,0,uniform,1,undefined,1,left,14,14,14,0,0,14,14,0,0,14,14,14,0,14,0,Fri Oct 25 12:57:14 2019,The main experiment item,yes,SternbergTask.osexp,/Users/Zenny/Desktop,no,mono,no,18,no,white,no,no,768,legacy,2,11,/Users/Zenny/Desktop/quickrun.csv,legacy,6 7 9 3 1 2,Kafkaesque Koffka,3.2.8,1,y,0,left,right,right,left,NA,924,55384,22510,924,NA,2,legacy,6,1024,2,48000,-16,experiment,999,odd,6,176511,173057,174208,2569,160628,174245,166367,2652,138117,178542,179468,175278,58046,178542,NA,SternbergTask,12,16951,15,yes,1024
81.25,81.25,1123.375,1123.375,black,experiment,legacy,legacy,legacy,0,uniform,1,undefined,1,left,15,15,15,0,0,15,15,0,0,15,15,15,0,15,0,Fri Oct 25 12:57:14 2019,The main experiment item,yes,SternbergTask.osexp,/Users/Zenny/Desktop,no,mono,no,18,no,white,no,no,768,legacy,3,11,/Users/Zenny/Desktop/quickrun.csv,legacy,3 5 7 1,Kafkaesque Koffka,3.2.8,3,y,0,left,right,right,left,NA,1023,55384,22510,1023,NA,2,legacy,4,1024,2,48000,-16,experiment,999,odd,7,182934,179503,180635,2569,160628,180667,166367,2652,138117,184966,185991,181699,58046,184966,NA,SternbergTask,13,17974,16,yes,1024
82.35294118,82.35294118,1110.352941,1110.352941,black,experiment,legacy,legacy,legacy,0,uniform,1,undefined,1,right,16,16,16,0,0,16,16,0,0,16,16,16,0,16,0,Fri Oct 25 12:57:14 2019,The main experiment item,yes,SternbergTask.osexp,/Users/Zenny/Desktop,no,mono,no,18,no,white,no,no,768,legacy,4,11,/Users/Zenny/Desktop/quickrun.csv,legacy,9 7 4 5 8,Kafkaesque Koffka,3.2.8,0,n,0,right,right,right,right,NA,902,55384,22510,902,NA,2,legacy,5,1024,2,48000,-16,experiment,999,odd,6,189437,186028,187139,2569,160628,187172,166367,2652,138117,191469,192372,188205,58046,191469,NA,SternbergTask,14,18876,17,yes,1024
83.33333333,83.33333333,1097.333333,1097.333333,black,experiment,legacy,legacy,legacy,0,uniform,1,undefined,1,right,17,17,17,0,0,17,17,0,0,17,17,17,0,17,0,Fri Oct 25 12:57:14 2019,The main experiment item,yes,SternbergTask.osexp,/Users/Zenny/Desktop,no,mono,no,18,no,white,no,no,768,legacy,5,11,/Users/Zenny/Desktop/quickrun.csv,legacy,6 3 1 7 9 8,Kafkaesque Koffka,3.2.8,0,n,0,right,right,right,right,NA,876,55384,22510,876,NA,2,legacy,6,1024,2,48000,-16,experiment,999,odd,4,195868,192409,193563,2569,160628,193604,166367,2652,138117,197899,198776,194636,58046,197899,NA,SternbergTask,15,19752,18,yes,1024
84.21052632,84.21052632,1080.210526,1080.210526,black,experiment,legacy,legacy,legacy,0,uniform,1,undefined,1,left,18,18,18,0,0,18,18,0,0,18,18,18,0,18,0,Fri Oct 25 12:57:14 2019,The main experiment item,yes,SternbergTask.osexp,/Users/Zenny/Desktop,no,mono,no,18,no,white,no,no,768,legacy,6,11,/Users/Zenny/Desktop/quickrun.csv,legacy,9 3 8 2 1 4,Kafkaesque Koffka,3.2.8,3,y,0,left,right,right,left,NA,772,55384,22510,772,NA,2,legacy,6,1024,2,48000,-16,experiment,999,odd,8,202226,198810,199930,2569,160628,199962,166367,2652,138117,204257,205031,200994,58046,204257,NA,SternbergTask,16,20524,19,yes,1024
85,85,1070.35,1070.35,black,experiment,legacy,legacy,legacy,0,uniform,1,undefined,1,right,19,19,19,0,0,19,19,0,0,19,19,19,0,19,0,Fri Oct 25 12:57:14 2019,The main experiment item,yes,SternbergTask.osexp,/Users/Zenny/Desktop,no,mono,no,18,no,white,no,no,768,legacy,7,11,/Users/Zenny/Desktop/quickrun.csv,legacy,7 4 2 8 1 9,Kafkaesque Koffka,3.2.8,0,n,0,right,right,right,right,NA,883,55384,22510,883,NA,2,legacy,6,1024,2,48000,-16,experiment,999,odd,5,208517,205080,206223,2569,160628,206254,166367,2652,138117,210549,211433,207286,58046,210548,NA,SternbergTask,17,21407,20,yes,1024
85.71428571,85.71428571,1072.666667,1072.666667,black,experiment,legacy,legacy,legacy,0,uniform,1,undefined,1,right,20,20,20,0,0,20,20,0,0,20,20,20,0,20,0,Fri Oct 25 12:57:14 2019,The main experiment item,yes,SternbergTask.osexp,/Users/Zenny/Desktop,no,mono,no,18,no,white,no,no,768,legacy,8,11,/Users/Zenny/Desktop/quickrun.csv,legacy,1 4 9 2 5,Kafkaesque Koffka,3.2.8,0,n,0,right,right,right,right,NA,1119,55384,22510,1119,NA,2,legacy,5,1024,2,48000,-16,experiment,999,odd,7,214901,211468,212603,2569,160628,212634,166367,2652,138117,216932,218053,213667,58046,216932,NA,SternbergTask,18,22526,21,yes,1024
86.36363636,86.36363636,1076.090909,1076.090909,black,experiment,legacy,legacy,legacy,0,uniform,1,undefined,1,right,21,21,21,0,0,21,21,0,0,21,21,21,0,21,0,Fri Oct 25 12:57:14 2019,The main experiment item,yes,SternbergTask.osexp,/Users/Zenny/Desktop,no,mono,no,18,no,white,no,no,768,legacy,9,11,/Users/Zenny/Desktop/quickrun.csv,legacy,8 2 1 4 5 9,Kafkaesque Koffka,3.2.8,0,n,0,right,right,right,right,NA,1148,55384,22510,1148,NA,2,legacy,6,1024,2,48000,-16,experiment,999,odd,7,221497,218090,219201,2569,160628,219234,166367,2652,138117,223528,224677,220266,58046,223528,NA,SternbergTask,19,23674,22,yes,1024
82.60869565,82.60869565,1071.130435,1071.130435,black,experiment,legacy,legacy,legacy,0,uniform,0,undefined,0,left,22,22,22,0,0,22,22,0,0,22,22,22,0,22,0,Fri Oct 25 12:57:14 2019,The main experiment item,yes,SternbergTask.osexp,/Users/Zenny/Desktop,no,mono,no,18,no,white,no,no,768,legacy,10,11,/Users/Zenny/Desktop/quickrun.csv,legacy,6 9 3 1,Kafkaesque Koffka,3.2.8,4,y,0,right,right,right,right,NA,962,55384,22510,962,NA,2,legacy,4,1024,2,48000,-16,experiment,999,odd,1,228161,224716,225866,2569,160628,225898,166367,2652,138117,230193,231156,226929,58046,230193,NA,SternbergTask,19,24636,23,yes,1024
83.33333333,83.33333333,1068.583333,1068.583333,black,experiment,legacy,legacy,legacy,0,uniform,1,undefined,1,right,23,23,23,0,0,23,23,0,0,23,23,23,0,23,0,Fri Oct 25 12:57:14 2019,The main experiment item,yes,SternbergTask.osexp,/Users/Zenny/Desktop,no,mono,no,18,no,white,no,no,768,legacy,11,11,/Users/Zenny/Desktop/quickrun.csv,legacy,3 9 8 1 6 4,Kafkaesque Koffka,3.2.8,0,n,0,right,right,right,right,NA,1010,55384,22510,1010,NA,2,legacy,6,1024,2,48000,-16,experiment,999,odd,7,234650,224716,232344,2569,160628,232377,231194,2652,138117,236683,237699,233416,58046,236683,NA,SternbergTask,20,25646,24,yes,1024
84,84,1065.24,1065.24,black,experiment,legacy,legacy,legacy,0,uniform,1,undefined,1,left,24,24,24,0,0,24,24,0,0,24,24,24,0,24,0,Fri Oct 25 12:57:14 2019,The main experiment item,yes,SternbergTask.osexp,/Users/Zenny/Desktop,no,mono,no,18,no,white,no,no,768,legacy,12,11,/Users/Zenny/Desktop/quickrun.csv,legacy,6 7 8 5,Kafkaesque Koffka,3.2.8,3,y,0,left,right,right,left,NA,985,55384,22510,985,NA,2,legacy,4,1024,2,48000,-16,experiment,999,odd,8,241233,237777,238927,2569,160628,238958,231194,2652,138117,243266,244253,240000,58046,243266,NA,SternbergTask,21,26631,25,yes,1024
84.61538462,84.61538462,1061.538462,1061.538462,black,experiment,legacy,legacy,legacy,0,uniform,1,undefined,1,left,25,25,25,0,0,25,25,0,0,25,25,25,0,25,0,Fri Oct 25 12:57:14 2019,The main experiment item,yes,SternbergTask.osexp,/Users/Zenny/Desktop,no,mono,no,18,no,white,no,no,768,legacy,13,11,/Users/Zenny/Desktop/quickrun.csv,legacy,4,Kafkaesque Koffka,3.2.8,1,y,0,left,right,right,left,NA,969,55384,22510,969,NA,2,legacy,1,1024,2,48000,-16,experiment,999,odd,4,247780,244292,245433,2569,160628,245466,231194,2652,138117,249812,250783,246498,58046,249812,NA,SternbergTask,22,27600,26,yes,1024
85.18518519,85.18518519,1062.333333,1062.333333,black,experiment,legacy,legacy,legacy,0,uniform,1,undefined,1,left,26,26,26,0,0,26,26,0,0,26,26,26,0,26,0,Fri Oct 25 12:57:14 2019,The main experiment item,yes,SternbergTask.osexp,/Users/Zenny/Desktop,no,mono,no,18,no,white,no,no,768,legacy,14,11,/Users/Zenny/Desktop/quickrun.csv,legacy,9 8 4,Kafkaesque Koffka,3.2.8,1,y,0,left,right,right,left,NA,1083,55384,22510,1083,NA,2,legacy,3,1024,2,48000,-16,experiment,999,odd,9,254272,250822,251977,2569,160628,252008,231194,2652,138117,256303,257388,253039,58046,256303,NA,SternbergTask,23,28683,27,yes,1024
85.71428571,85.71428571,1048.392857,1048.392857,black,experiment,legacy,legacy,legacy,0,uniform,1,undefined,1,right,27,27,27,0,0,27,27,0,0,27,27,27,0,27,0,Fri Oct 25 12:57:14 2019,The main experiment item,yes,SternbergTask.osexp,/Users/Zenny/Desktop,no,mono,no,18,no,white,no,no,768,legacy,15,11,/Users/Zenny/Desktop/quickrun.csv,legacy,3 9 1,Kafkaesque Koffka,3.2.8,0,n,0,right,right,right,right,NA,672,55384,22510,672,NA,2,legacy,3,1024,2,48000,-16,experiment,999,odd,7,260837,257422,258541,2569,160628,258573,231194,2652,138117,262868,263542,259605,58046,262868,NA,SternbergTask,24,29355,28,yes,1024
82.75862069,82.75862069,1039.034483,1039.034483,black,experiment,legacy,legacy,legacy,0,uniform,0,undefined,0,left,28,28,28,0,0,28,28,0,0,28,28,28,0,28,0,Fri Oct 25 12:57:14 2019,The main experiment item,yes,SternbergTask.osexp,/Users/Zenny/Desktop,no,mono,no,18,no,white,no,no,768,legacy,16,11,/Users/Zenny/Desktop/quickrun.csv,legacy,7 2 3,Kafkaesque Koffka,3.2.8,3,y,0,right,right,right,right,NA,777,55384,22510,777,NA,2,legacy,3,1024,2,48000,-16,experiment,999,odd,3,267037,263576,264685,2569,160628,264772,231194,2652,138117,269068,269847,265803,58046,269068,NA,SternbergTask,24,30132,29,yes,1024
83.33333333,83.33333333,1035.466667,1035.466667,black,experiment,legacy,legacy,legacy,0,uniform,1,undefined,1,left,29,29,29,0,0,29,29,0,0,29,29,29,0,29,0,Fri Oct 25 12:57:14 2019,The main experiment item,yes,SternbergTask.osexp,/Users/Zenny/Desktop,no,mono,no,18,no,white,no,no,768,legacy,17,11,/Users/Zenny/Desktop/quickrun.csv,legacy,2 4 6 9,Kafkaesque Koffka,3.2.8,3,y,0,left,right,right,left,NA,932,55384,22510,932,NA,2,legacy,4,1024,2,48000,-16,experiment,999,odd,6,273328,263576,271031,2569,160628,271064,269884,2652,138117,275361,276295,272095,58046,275361,NA,SternbergTask,25,31064,30,yes,1024
83.87096774,83.87096774,1021.709677,1021.709677,black,experiment,legacy,legacy,legacy,0,uniform,1,undefined,1,right,30,30,30,0,0,30,30,0,0,30,30,30,0,30,0,Fri Oct 25 12:57:14 2019,The main experiment item,yes,SternbergTask.osexp,/Users/Zenny/Desktop,no,mono,no,18,no,white,no,no,768,legacy,18,11,/Users/Zenny/Desktop/quickrun.csv,legacy,6 7 5 9,Kafkaesque Koffka,3.2.8,0,n,0,right,right,right,right,NA,609,55384,22510,609,NA,2,legacy,4,1024,2,48000,-16,experiment,999,odd,2,279786,276332,277468,2569,160628,277501,269884,2652,138117,281818,282429,278534,58046,281818,NA,SternbergTask,26,31673,31,yes,1024
84.375,84.375,1011.625,1011.625,black,experiment,legacy,legacy,legacy,0,uniform,1,undefined,1,left,31,31,31,0,0,31,31,0,0,31,31,31,0,31,0,Fri Oct 25 12:57:14 2019,The main experiment item,yes,SternbergTask.osexp,/Users/Zenny/Desktop,no,mono,no,18,no,white,no,no,768,legacy,19,11,/Users/Zenny/Desktop/quickrun.csv,legacy,6 2,Kafkaesque Koffka,3.2.8,1,y,0,left,right,right,left,NA,699,55384,22510,699,NA,2,legacy,2,1024,2,48000,-16,experiment,999,odd,6,285871,282465,283573,2569,160628,283606,269884,2652,138117,287903,288603,284638,58046,287903,NA,SternbergTask,27,32372,32,yes,1024
84.84848485,84.84848485,1004.454545,1004.454545,black,experiment,legacy,legacy,legacy,0,uniform,1,undefined,1,right,32,32,32,0,0,32,32,0,0,32,32,32,0,32,0,Fri Oct 25 12:57:14 2019,The main experiment item,yes,SternbergTask.osexp,/Users/Zenny/Desktop,no,mono,no,18,no,white,no,no,768,legacy,20,11,/Users/Zenny/Desktop/quickrun.csv,legacy,7 8 6 1,Kafkaesque Koffka,3.2.8,0,n,0,right,right,right,right,NA,775,55384,22510,775,NA,2,legacy,4,1024,2,48000,-16,experiment,999,odd,3,292099,288646,289802,2569,160628,289834,269884,2652,138117,294135,294911,290867,58046,294134,NA,SternbergTask,28,33147,33,yes,1024
85.29411765,85.29411765,999.4411765,999.4411765,black,experiment,legacy,legacy,legacy,0,uniform,1,undefined,1,right,33,33,33,0,0,33,33,0,0,33,33,33,0,33,0,Fri Oct 25 12:57:14 2019,The main experiment item,yes,SternbergTask.osexp,/Users/Zenny/Desktop,no,mono,no,18,no,white,no,no,768,legacy,21,11,/Users/Zenny/Desktop/quickrun.csv,legacy,1 7 5 2,Kafkaesque Koffka,3.2.8,0,n,0,right,right,right,right,NA,834,55384,22510,834,NA,2,legacy,4,1024,2,48000,-16,experiment,999,odd,3,298348,294945,296054,2569,160628,296085,269884,2652,138117,300379,301215,297116,58046,300379,NA,SternbergTask,29,33981,34,yes,1024
85.71428571,85.71428571,992.8571429,992.8571429,black,experiment,legacy,legacy,legacy,0,uniform,1,undefined,1,right,34,34,34,0,0,34,34,0,0,34,34,34,0,34,0,Fri Oct 25 12:57:14 2019,The main experiment item,yes,SternbergTask.osexp,/Users/Zenny/Desktop,no,mono,no,18,no,white,no,no,768,legacy,22,11,/Users/Zenny/Desktop/quickrun.csv,legacy,7 1 8 4 9 3,Kafkaesque Koffka,3.2.8,0,n,0,right,right,right,right,NA,769,55384,22510,769,NA,2,legacy,6,1024,2,48000,-16,experiment,999,odd,6,304699,301255,302403,2569,160628,302435,269884,2652,138117,306773,307543,303467,58046,306772,NA,SternbergTask,30,34750,35,yes,1024
86.11111111,86.11111111,986.3333333,986.3333333,black,experiment,legacy,legacy,legacy,0,uniform,1,undefined,1,left,35,35,35,0,0,35,35,0,0,35,35,35,0,35,0,Fri Oct 25 12:57:14 2019,The main experiment item,yes,SternbergTask.osexp,/Users/Zenny/Desktop,no,mono,no,18,no,white,no,no,768,legacy,23,11,/Users/Zenny/Desktop/quickrun.csv,legacy,7 1 3,Kafkaesque Koffka,3.2.8,2,y,0,left,right,right,left,NA,758,55384,22510,758,NA,2,legacy,3,1024,2,48000,-16,experiment,999,odd,1,311035,307577,308687,2569,160628,308772,269884,2652,138117,313068,313827,309803,58046,313068,NA,SternbergTask,31,35508,36,yes,1024
86.48648649,86.48648649,979.1891892,979.1891892,black,experiment,legacy,legacy,legacy,0,uniform,1,undefined,1,right,36,36,36,0,0,36,36,0,0,36,36,36,0,36,0,Fri Oct 25 12:57:14 2019,The main experiment item,yes,SternbergTask.osexp,/Users/Zenny/Desktop,no,mono,no,18,no,white,no,no,768,legacy,24,11,/Users/Zenny/Desktop/quickrun.csv,legacy,4 1,Kafkaesque Koffka,3.2.8,0,n,0,right,right,right,right,NA,722,55384,22510,722,NA,2,legacy,2,1024,2,48000,-16,experiment,999,odd,6,317310,313863,315013,2569,160628,315045,269884,2652,138117,319344,320067,316077,58046,319344,NA,SternbergTask,32,36230,37,yes,1024
86.84210526,86.84210526,979.0526316,979.0526316,black,experiment,legacy,legacy,legacy,0,uniform,1,undefined,1,left,37,37,37,0,0,37,37,0,0,37,37,37,0,37,0,Fri Oct 25 12:57:14 2019,The main experiment item,yes,SternbergTask.osexp,/Users/Zenny/Desktop,no,mono,no,18,no,white,no,no,768,legacy,25,11,/Users/Zenny/Desktop/quickrun.csv,legacy,9 4 2,Kafkaesque Koffka,3.2.8,1,y,0,left,right,right,left,NA,974,55384,22510,974,NA,2,legacy,3,1024,2,48000,-16,experiment,999,odd,9,323507,320101,321210,2569,160628,321242,269884,2652,138117,325538,326514,322273,58046,325538,NA,SternbergTask,33,37204,38,yes,1024
87.17948718,87.17948718,972.2051282,972.2051282,black,experiment,legacy,legacy,legacy,0,uniform,1,undefined,1,right,38,38,38,0,0,38,38,0,0,38,38,38,0,38,0,Fri Oct 25 12:57:14 2019,The main experiment item,yes,SternbergTask.osexp,/Users/Zenny/Desktop,no,mono,no,18,no,white,no,no,768,legacy,26,11,/Users/Zenny/Desktop/quickrun.csv,legacy,1 8 7,Kafkaesque Koffka,3.2.8,0,n,0,right,right,right,right,NA,712,55384,22510,712,NA,2,legacy,3,1024,2,48000,-16,experiment,999,odd,4,330044,326550,327704,2569,160628,327778,269884,2652,138117,332075,332788,328811,58046,332075,NA,SternbergTask,34,37916,39,yes,1024
87.5,87.5,988.325,988.325,black,experiment,legacy,legacy,legacy,0,uniform,1,undefined,1,left,39,39,39,0,0,39,39,0,0,39,39,39,0,39,0,Fri Oct 25 12:57:14 2019,The main experiment item,yes,SternbergTask.osexp,/Users/Zenny/Desktop,no,mono,no,18,no,white,no,no,768,legacy,27,11,/Users/Zenny/Desktop/quickrun.csv,legacy,7 4 2 6 3 5,Kafkaesque Koffka,3.2.8,6,y,0,left,right,right,left,NA,1617,55384,22510,1617,NA,2,legacy,6,1024,2,48000,-16,experiment,999,odd,5,336230,332823,333934,2569,160628,333966,269884,2652,138117,338261,339880,334997,58046,338261,NA,SternbergTask,35,39533,40,yes,1024
87.80487805,87.80487805,985.3170732,985.3170732,black,experiment,legacy,legacy,legacy,0,uniform,1,undefined,1,right,40,40,40,0,0,40,40,0,0,40,40,40,0,40,0,Fri Oct 25 12:57:14 2019,The main experiment item,yes,SternbergTask.osexp,/Users/Zenny/Desktop,no,mono,no,18,no,white,no,no,768,legacy,28,11,/Users/Zenny/Desktop/quickrun.csv,legacy,8 5 4 2 9 6,Kafkaesque Koffka,3.2.8,0,n,0,right,right,right,right,NA,865,55384,22510,865,NA,2,legacy,6,1024,2,48000,-16,experiment,999,odd,3,343363,339918,341066,2569,160628,341098,269884,2652,138117,345394,346261,342130,58046,345394,NA,SternbergTask,36,40398,41,yes,1024
88.0952381,88.0952381,980.5714286,980.5714286,black,experiment,legacy,legacy,legacy,0,uniform,1,undefined,1,right,41,41,41,0,0,41,41,0,0,41,41,41,0,41,0,Fri Oct 25 12:57:14 2019,The main experiment item,yes,SternbergTask.osexp,/Users/Zenny/Desktop,no,mono,no,18,no,white,no,no,768,legacy,29,11,/Users/Zenny/Desktop/quickrun.csv,legacy,2 8 7 9 5 3,Kafkaesque Koffka,3.2.8,0,n,0,right,right,right,right,NA,786,55384,22510,786,NA,2,legacy,6,1024,2,48000,-16,experiment,999,odd,6,349703,346295,347410,2569,160628,347441,269884,2652,138117,351774,352562,348472,58046,351774,NA,SternbergTask,37,41184,42,yes,1024
86.04651163,86.04651163,980.4418605,980.4418605,black,experiment,legacy,legacy,legacy,0,uniform,0,undefined,0,left,42,42,42,0,0,42,42,0,0,42,42,42,0,42,0,Fri Oct 25 12:57:14 2019,The main experiment item,yes,SternbergTask.osexp,/Users/Zenny/Desktop,no,mono,no,18,no,white,no,no,768,legacy,30,11,/Users/Zenny/Desktop/quickrun.csv,legacy,1 4 9 3 2 5,Kafkaesque Koffka,3.2.8,3,y,0,right,right,right,right,NA,975,55384,22510,975,NA,2,legacy,6,1024,2,48000,-16,experiment,999,odd,9,356069,352601,353758,2569,160628,353804,269884,2652,138117,358100,359076,354837,58046,358100,NA,SternbergTask,37,42159,43,yes,1024
84.09090909,84.09090909,985.9090909,985.9090909,black,experiment,legacy,legacy,legacy,0,uniform,0,undefined,0,left,43,43,43,0,0,43,43,0,0,43,43,43,0,43,0,Fri Oct 25 12:57:14 2019,The main experiment item,yes,SternbergTask.osexp,/Users/Zenny/Desktop,no,mono,no,18,no,white,no,no,768,legacy,31,11,/Users/Zenny/Desktop/quickrun.csv,legacy,8 5 1 3 9,Kafkaesque Koffka,3.2.8,4,y,0,right,right,right,right,NA,1221,55384,22510,1221,NA,2,legacy,5,1024,2,48000,-16,experiment,999,odd,3,362569,352601,360272,2569,160628,360305,359113,2652,138117,364601,365824,361336,58046,364601,NA,SternbergTask,37,43380,44,yes,1024
82.22222222,82.22222222,986.5111111,986.5111111,black,experiment,legacy,legacy,legacy,0,uniform,0,undefined,0,right,44,44,44,0,0,44,44,0,0,44,44,44,0,44,0,Fri Oct 25 12:57:14 2019,The main experiment item,yes,SternbergTask.osexp,/Users/Zenny/Desktop,no,mono,no,18,no,white,no,no,768,legacy,32,11,/Users/Zenny/Desktop/quickrun.csv,legacy,2 8 9 4 1,Kafkaesque Koffka,3.2.8,0,n,0,left,right,right,left,NA,1013,55384,22510,1013,NA,2,legacy,5,1024,2,48000,-16,experiment,999,odd,5,369316,352601,367019,2569,160628,367051,365863,2652,138117,371348,372363,368082,58046,371348,NA,SternbergTask,37,44393,45,yes,1024
82.60869565,82.60869565,983.173913,983.173913,black,experiment,legacy,legacy,legacy,0,uniform,1,undefined,1,right,45,45,45,0,0,45,45,0,0,45,45,45,0,45,0,Fri Oct 25 12:57:14 2019,The main experiment item,yes,SternbergTask.osexp,/Users/Zenny/Desktop,no,mono,no,18,no,white,no,no,768,legacy,33,11,/Users/Zenny/Desktop/quickrun.csv,legacy,1 7 5 2 9,Kafkaesque Koffka,3.2.8,0,n,0,right,right,right,right,NA,833,55384,22510,833,NA,2,legacy,5,1024,2,48000,-16,experiment,999,odd,3,375843,352601,373538,2569,160628,373576,372398,2652,138117,377875,378711,374609,58046,377874,NA,SternbergTask,38,45226,46,yes,1024
82.9787234,82.9787234,989.2340426,989.2340426,black,experiment,legacy,legacy,legacy,0,uniform,1,undefined,1,right,46,46,46,0,0,46,46,0,0,46,46,46,0,46,0,Fri Oct 25 12:57:14 2019,The main experiment item,yes,SternbergTask.osexp,/Users/Zenny/Desktop,no,mono,no,18,no,white,no,no,768,legacy,34,11,/Users/Zenny/Desktop/quickrun.csv,legacy,4 8 1 2,Kafkaesque Koffka,3.2.8,0,n,0,right,right,right,right,NA,1268,55384,22510,1268,NA,2,legacy,4,1024,2,48000,-16,experiment,999,odd,7,382178,378774,379884,2569,160628,379916,372398,2652,138117,384211,385481,380947,58046,384211,NA,SternbergTask,39,46494,47,yes,1024
81.25,81.25,995.3125,995.3125,black,experiment,legacy,legacy,legacy,0,uniform,0,undefined,0,left,47,47,47,0,0,47,47,0,0,47,47,47,0,47,0,Fri Oct 25 12:57:14 2019,The main experiment item,yes,SternbergTask.osexp,/Users/Zenny/Desktop,no,mono,no,18,no,white,no,no,768,legacy,35,11,/Users/Zenny/Desktop/quickrun.csv,legacy,8 9 5 7 1 6,Kafkaesque Koffka,3.2.8,4,y,0,right,right,right,right,NA,1281,55384,22510,1281,NA,2,legacy,6,1024,2,48000,-16,experiment,999,odd,7,389009,385522,386670,2569,160628,386703,372398,2652,138117,391039,392322,387777,58046,391039,NA,SternbergTask,39,47775,48,yes,1024
81.63265306,81.63265306,1004.244898,1004.244898,black,experiment,legacy,legacy,legacy,0,uniform,1,undefined,1,left,48,48,48,0,0,48,48,0,0,48,48,48,0,48,0,Fri Oct 25 12:57:14 2019,The main experiment item,yes,SternbergTask.osexp,/Users/Zenny/Desktop,no,mono,no,18,no,white,no,no,768,legacy,36,11,/Users/Zenny/Desktop/quickrun.csv,legacy,2 8 5 1,Kafkaesque Koffka,3.2.8,4,y,0,left,right,right,left,NA,1433,55384,22510,1433,NA,2,legacy,4,1024,2,48000,-16,experiment,999,odd,1,395808,385522,393514,2569,160628,393546,392361,2652,138117,397840,399276,394577,58046,397840,NA,SternbergTask,40,49208,49,yes,1024
82,82,1001.9,1001.9,black,experiment,legacy,legacy,legacy,0,uniform,1,undefined,1,right,49,49,49,0,0,49,49,0,0,49,49,49,0,49,0,Fri Oct 25 12:57:14 2019,The main experiment item,yes,SternbergTask.osexp,/Users/Zenny/Desktop,no,mono,no,18,no,white,no,no,768,legacy,37,11,/Users/Zenny/Desktop/quickrun.csv,legacy,6 9 7 3 8 2,Kafkaesque Koffka,3.2.8,0,n,0,right,right,right,right,NA,887,55384,22510,887,NA,2,legacy,6,1024,2,48000,-16,experiment,999,odd,5,402780,399312,400452,2569,160628,400484,392361,2652,138117,404813,405701,401515,58046,404813,NA,SternbergTask,41,50095,50,yes,1024
82.35294118,82.35294118,996.5490196,996.5490196,black,experiment,legacy,legacy,legacy,0,uniform,1,undefined,1,left,50,50,50,0,0,50,50,0,0,50,50,50,0,50,0,Fri Oct 25 12:57:14 2019,The main experiment item,yes,SternbergTask.osexp,/Users/Zenny/Desktop,no,mono,no,18,no,white,no,no,768,legacy,38,11,/Users/Zenny/Desktop/quickrun.csv,legacy,7,Kafkaesque Koffka,3.2.8,1,y,0,left,right,right,left,NA,729,55384,22510,729,NA,2,legacy,1,1024,2,48000,-16,experiment,999,odd,7,409213,405782,406917,2569,160628,406949,392361,2652,138117,411244,411975,407980,58046,411244,NA,SternbergTask,42,50824,51,yes,1024
82.69230769,82.69230769,996.7692308,996.7692308,black,experiment,legacy,legacy,legacy,0,uniform,1,undefined,1,left,51,51,51,0,0,51,51,0,0,51,51,51,0,51,0,Fri Oct 25 12:57:14 2019,The main experiment item,yes,SternbergTask.osexp,/Users/Zenny/Desktop,no,mono,no,18,no,white,no,no,768,legacy,39,11,/Users/Zenny/Desktop/quickrun.csv,legacy,8 9 6 1,Kafkaesque Koffka,3.2.8,2,y,0,left,right,right,left,NA,1008,55384,22510,1008,NA,2,legacy,4,1024,2,48000,-16,experiment,999,odd,9,415416,412010,413121,2569,160628,413152,392361,2652,138117,417447,418457,414183,58046,417447,NA,SternbergTask,43,51832,52,yes,1024
83.01886792,83.01886792,1001.603774,1001.603774,black,experiment,legacy,legacy,legacy,0,uniform,1,undefined,1,left,52,52,52,0,0,52,52,0,0,52,52,52,0,52,0,Fri Oct 25 12:57:14 2019,The main experiment item,yes,SternbergTask.osexp,/Users/Zenny/Desktop,no,mono,no,18,no,white,no,no,768,legacy,40,11,/Users/Zenny/Desktop/quickrun.csv,legacy,6 8 9 3 4 9,Kafkaesque Koffka,3.2.8,5,y,0,left,right,right,left,NA,1253,55384,22510,1253,NA,2,legacy,6,1024,2,48000,-16,experiment,999,odd,4,421941,418495,419642,2569,160628,419675,392361,2652,138117,423974,425229,420707,58046,423974,NA,SternbergTask,44,53085,53,yes,1024
83.33333333,83.33333333,999.462963,999.462963,black,experiment,legacy,legacy,legacy,0,uniform,1,undefined,1,right,53,53,53,0,0,53,53,0,0,53,53,53,0,53,0,Fri Oct 25 12:57:14 2019,The main experiment item,yes,SternbergTask.osexp,/Users/Zenny/Desktop,no,mono,no,18,no,white,no,no,768,legacy,41,11,/Users/Zenny/Desktop/quickrun.csv,legacy,1 6 4,Kafkaesque Koffka,3.2.8,0,n,0,right,right,right,right,NA,886,55384,22510,886,NA,2,legacy,3,1024,2,48000,-16,experiment,999,odd,7,428695,425265,426398,2569,160628,426429,392361,2652,138117,430777,431665,427461,58046,430776,NA,SternbergTask,45,53971,54,yes,1024
83.63636364,83.63636364,995.9636364,995.9636364,black,experiment,legacy,legacy,legacy,0,uniform,1,undefined,1,right,54,54,54,0,0,54,54,0,0,54,54,54,0,54,0,Fri Oct 25 12:57:14 2019,The main experiment item,yes,SternbergTask.osexp,/Users/Zenny/Desktop,no,mono,no,18,no,white,no,no,768,legacy,42,11,/Users/Zenny/Desktop/quickrun.csv,legacy,5 2,Kafkaesque Koffka,3.2.8,0,n,0,right,right,right,right,NA,807,55384,22510,807,NA,2,legacy,2,1024,2,48000,-16,experiment,999,odd,7,435113,431700,432818,2569,160628,432850,392361,2652,138117,437145,437954,433882,58046,437144,NA,SternbergTask,46,54778,55,yes,1024
83.92857143,83.92857143,999.3035714,999.3035714,black,experiment,legacy,legacy,legacy,0,uniform,1,undefined,1,right,55,55,55,0,0,55,55,0,0,55,55,55,0,55,0,Fri Oct 25 12:57:14 2019,The main experiment item,yes,SternbergTask.osexp,/Users/Zenny/Desktop,no,mono,no,18,no,white,no,no,768,legacy,43,11,/Users/Zenny/Desktop/quickrun.csv,legacy,9,Kafkaesque Koffka,3.2.8,0,n,0,right,right,right,right,NA,1183,55384,22510,1183,NA,2,legacy,1,1024,2,48000,-16,experiment,999,odd,6,441426,437991,439130,2569,160628,439162,392361,2652,138117,443459,444645,440193,58046,443458,NA,SternbergTask,47,55961,56,yes,1024
84.21052632,84.21052632,1001.666667,1001.666667,black,experiment,legacy,legacy,legacy,0,uniform,1,undefined,1,left,56,56,56,0,0,56,56,0,0,56,56,56,0,56,0,Fri Oct 25 12:57:14 2019,The main experiment item,yes,SternbergTask.osexp,/Users/Zenny/Desktop,no,mono,no,18,no,white,no,no,768,legacy,44,11,/Users/Zenny/Desktop/quickrun.csv,legacy,9 1 7 2,Kafkaesque Koffka,3.2.8,2,y,0,left,right,right,left,NA,1134,55384,22510,1134,NA,2,legacy,4,1024,2,48000,-16,experiment,999,odd,1,448146,444689,445851,2569,160628,445883,392361,2652,138117,450179,451315,446914,58046,450179,NA,SternbergTask,48,57095,57,yes,1024
84.48275862,84.48275862,997.2241379,997.2241379,black,experiment,legacy,legacy,legacy,0,uniform,1,undefined,1,right,57,57,57,0,0,57,57,0,0,57,57,57,0,57,0,Fri Oct 25 12:57:14 2019,The main experiment item,yes,SternbergTask.osexp,/Users/Zenny/Desktop,no,mono,no,18,no,white,no,no,768,legacy,45,11,/Users/Zenny/Desktop/quickrun.csv,legacy,7 9 1 6,Kafkaesque Koffka,3.2.8,0,n,0,right,right,right,right,NA,744,55384,22510,744,NA,2,legacy,4,1024,2,48000,-16,experiment,999,odd,4,454813,451365,452519,2569,160628,452552,392361,2652,138117,456845,457591,453583,58046,456845,NA,SternbergTask,49,57839,58,yes,1024
84.74576271,84.74576271,992.3728814,992.3728814,black,experiment,legacy,legacy,legacy,0,uniform,1,undefined,1,right,58,58,58,0,0,58,58,0,0,58,58,58,0,58,0,Fri Oct 25 12:57:14 2019,The main experiment item,yes,SternbergTask.osexp,/Users/Zenny/Desktop,no,mono,no,18,no,white,no,no,768,legacy,46,11,/Users/Zenny/Desktop/quickrun.csv,legacy,8 4 3 5,Kafkaesque Koffka,3.2.8,0,n,0,right,right,right,right,NA,711,55384,22510,711,NA,2,legacy,4,1024,2,48000,-16,experiment,999,odd,6,461036,457625,458738,2569,160628,458774,392361,2652,138117,463068,463781,459804,58046,463068,NA,SternbergTask,50,58550,59,yes,1024
85,85,989.65,989.65,black,experiment,legacy,legacy,legacy,0,uniform,1,undefined,1,right,59,59,59,0,0,59,59,0,0,59,59,59,0,59,0,Fri Oct 25 12:57:14 2019,The main experiment item,yes,SternbergTask.osexp,/Users/Zenny/Desktop,no,mono,no,18,no,white,no,no,768,legacy,47,11,/Users/Zenny/Desktop/quickrun.csv,legacy,4 2 6 9,Kafkaesque Koffka,3.2.8,0,n,0,right,right,right,right,NA,829,55384,22510,829,NA,2,legacy,4,1024,2,48000,-16,experiment,999,odd,7,467271,463823,464976,2569,160628,465007,392361,2652,138117,469303,470134,466038,58046,469303,NA,SternbergTask,51,59379,60,yes,1024
85.24590164,85.24590164,987.5409836,987.5409836,black,experiment,legacy,legacy,legacy,0,uniform,1,undefined,1,left,60,60,60,0,0,60,60,0,0,60,60,60,0,60,0,Fri Oct 25 12:57:14 2019,The main experiment item,yes,SternbergTask.osexp,/Users/Zenny/Desktop,no,mono,no,18,no,white,no,no,768,legacy,48,11,/Users/Zenny/Desktop/quickrun.csv,legacy,2 3,Kafkaesque Koffka,3.2.8,1,y,0,left,right,right,left,NA,861,55384,22510,861,NA,2,legacy,2,1024,2,48000,-16,experiment,999,odd,2,473571,470168,471278,2569,160628,471309,392361,2652,138117,475603,476466,472340,58046,475603,NA,SternbergTask,52,60240,61,yes,1024
85.48387097,85.48387097,985.8387097,985.8387097,black,experiment,legacy,legacy,legacy,0,uniform,1,undefined,1,right,61,61,61,0,0,61,61,0,0,61,61,61,0,61,0,Fri Oct 25 12:57:14 2019,The main experiment item,yes,SternbergTask.osexp,/Users/Zenny/Desktop,no,mono,no,18,no,white,no,no,768,legacy,49,11,/Users/Zenny/Desktop/quickrun.csv,legacy,6 8 4,Kafkaesque Koffka,3.2.8,0,n,0,right,right,right,right,NA,882,55384,22510,882,NA,2,legacy,3,1024,2,48000,-16,experiment,999,odd,1,480006,476513,477662,2569,160628,477696,392361,2652,138117,482037,482921,478773,58046,482037,NA,SternbergTask,53,61122,62,yes,1024
85.71428571,85.71428571,993.968254,993.968254,black,experiment,legacy,legacy,legacy,0,uniform,1,undefined,1,left,62,62,62,0,0,62,62,0,0,62,62,62,0,62,0,Fri Oct 25 12:57:14 2019,The main experiment item,yes,SternbergTask.osexp,/Users/Zenny/Desktop,no,mono,no,18,no,white,no,no,768,legacy,50,11,/Users/Zenny/Desktop/quickrun.csv,legacy,3 2 1 4 7,Kafkaesque Koffka,3.2.8,2,y,0,left,right,right,left,NA,1498,55384,22510,1498,NA,2,legacy,5,1024,2,48000,-16,experiment,999,odd,2,486381,482955,484081,2569,160628,484113,392361,2652,138117,488414,489914,485149,58046,488414,NA,SternbergTask,54,62620,63,yes,1024
85.9375,85.9375,992.515625,992.515625,black,experiment,legacy,legacy,legacy,0,uniform,1,undefined,1,right,63,63,63,0,0,63,63,0,0,63,63,63,0,63,0,Fri Oct 25 12:57:14 2019,The main experiment item,yes,SternbergTask.osexp,/Users/Zenny/Desktop,no,mono,no,18,no,white,no,no,768,legacy,51,11,/Users/Zenny/Desktop/quickrun.csv,legacy,1 4 9 3,Kafkaesque Koffka,3.2.8,0,n,0,right,right,right,right,NA,901,55384,22510,901,NA,2,legacy,4,1024,2,48000,-16,experiment,999,odd,5,493366,489953,491068,2569,160628,491100,392361,2652,138117,495403,496306,492133,58046,495402,NA,SternbergTask,55,63521,64,yes,1024
86.15384615,86.15384615,987.3076923,987.3076923,black,experiment,legacy,legacy,legacy,0,uniform,1,undefined,1,left,64,64,64,0,0,64,64,0,0,64,64,64,0,64,0,Fri Oct 25 12:57:14 2019,The main experiment item,yes,SternbergTask.osexp,/Users/Zenny/Desktop,no,mono,no,18,no,white,no,no,768,legacy,52,11,/Users/Zenny/Desktop/quickrun.csv,legacy,8 5 4 7 3 1,Kafkaesque Koffka,3.2.8,2,y,0,left,right,right,left,NA,654,55384,22510,654,NA,2,legacy,6,1024,2,48000,-16,experiment,999,odd,5,499808,496353,497516,2569,160628,497547,392361,2652,138117,501839,502495,498578,58046,501839,NA,SternbergTask,56,64175,65,yes,1024
86.36363636,86.36363636,983.030303,983.030303,black,experiment,legacy,legacy,legacy,0,uniform,1,undefined,1,left,65,65,65,0,0,65,65,0,0,65,65,65,0,65,0,Fri Oct 25 12:57:14 2019,The main experiment item,yes,SternbergTask.osexp,/Users/Zenny/Desktop,no,mono,no,18,no,white,no,no,768,legacy,53,11,/Users/Zenny/Desktop/quickrun.csv,legacy,7 8 6 3 1,Kafkaesque Koffka,3.2.8,5,y,0,left,right,right,left,NA,705,55384,22510,705,NA,2,legacy,5,1024,2,48000,-16,experiment,999,odd,1,505936,502528,503639,2569,160628,503670,392361,2652,138117,507968,508675,504701,58046,507968,NA,SternbergTask,57,64880,66,yes,1024
86.56716418,86.56716418,980.880597,980.880597,black,experiment,legacy,legacy,legacy,0,uniform,1,undefined,1,left,66,66,66,0,0,66,66,0,0,66,66,66,0,66,0,Fri Oct 25 12:57:14 2019,The main experiment item,yes,SternbergTask.osexp,/Users/Zenny/Desktop,no,mono,no,18,no,white,no,no,768,legacy,54,11,/Users/Zenny/Desktop/quickrun.csv,legacy,4 7 6 8 2 3,Kafkaesque Koffka,3.2.8,6,y,0,left,right,right,left,NA,839,55384,22510,839,NA,2,legacy,6,1024,2,48000,-16,experiment,999,odd,3,512162,508712,509864,2569,160628,509898,392361,2652,138117,514194,515036,510929,58046,514194,NA,SternbergTask,58,65719,67,yes,1024
86.76470588,86.76470588,977.1029412,977.1029412,black,experiment,legacy,legacy,legacy,0,uniform,1,undefined,1,left,67,67,67,0,0,67,67,0,0,67,67,67,0,67,0,Fri Oct 25 12:57:14 2019,The main experiment item,yes,SternbergTask.osexp,/Users/Zenny/Desktop,no,mono,no,18,no,white,no,no,768,legacy,55,11,/Users/Zenny/Desktop/quickrun.csv,legacy,7 6,Kafkaesque Koffka,3.2.8,2,y,0,left,right,right,left,NA,724,55384,22510,724,NA,2,legacy,2,1024,2,48000,-16,experiment,999,odd,6,518489,515076,516188,2569,160628,516219,392361,2652,138117,520521,521248,517250,58046,520521,NA,SternbergTask,59,66443,68,yes,1024
86.95652174,86.95652174,973.1594203,973.1594203,black,experiment,legacy,legacy,legacy,0,uniform,1,undefined,1,right,68,68,68,0,0,68,68,0,0,68,68,68,0,68,0,Fri Oct 25 12:57:14 2019,The main experiment item,yes,SternbergTask.osexp,/Users/Zenny/Desktop,no,mono,no,18,no,white,no,no,768,legacy,56,11,/Users/Zenny/Desktop/quickrun.csv,legacy,1 5 3 2 8,Kafkaesque Koffka,3.2.8,0,n,0,right,right,right,right,NA,705,55384,22510,705,NA,2,legacy,5,1024,2,48000,-16,experiment,999,odd,4,524780,521284,522438,2569,160628,522478,392361,2652,138117,526811,527518,523509,58046,526811,NA,SternbergTask,60,67148,69,yes,1024
87.14285714,87.14285714,971.5714286,971.5714286,black,experiment,legacy,legacy,legacy,0,uniform,1,undefined,1,right,69,69,69,0,0,69,69,0,0,69,69,69,0,69,0,Fri Oct 25 12:57:14 2019,The main experiment item,yes,SternbergTask.osexp,/Users/Zenny/Desktop,no,mono,no,18,no,white,no,no,768,legacy,57,11,/Users/Zenny/Desktop/quickrun.csv,legacy,9 5 3 2 8 6,Kafkaesque Koffka,3.2.8,0,n,0,right,right,right,right,NA,862,55384,22510,862,NA,2,legacy,6,1024,2,48000,-16,experiment,999,odd,7,531020,527551,528663,2569,160628,528695,392361,2652,138117,533054,533918,529783,58046,533053,NA,SternbergTask,61,68010,70,yes,1024
87.32394366,87.32394366,975.7323944,975.7323944,black,experiment,legacy,legacy,legacy,0,uniform,1,undefined,1,right,70,70,70,0,0,70,70,0,0,70,70,70,0,70,0,Fri Oct 25 12:57:14 2019,The main experiment item,yes,SternbergTask.osexp,/Users/Zenny/Desktop,no,mono,no,18,no,white,no,no,768,legacy,58,11,/Users/Zenny/Desktop/quickrun.csv,legacy,2 8 6 3 1,Kafkaesque Koffka,3.2.8,0,n,0,right,right,right,right,NA,1267,55384,22510,1267,NA,2,legacy,5,1024,2,48000,-16,experiment,999,odd,7,537410,533953,535104,2569,160628,535145,392361,2652,138117,539441,540711,536177,58046,539441,NA,SternbergTask,62,69277,71,yes,1024
87.5,87.5,974.5,974.5,black,experiment,legacy,legacy,legacy,0,uniform,1,undefined,1,left,71,71,71,0,0,71,71,0,0,71,71,71,0,71,0,Fri Oct 25 12:57:14 2019,The main experiment item,yes,SternbergTask.osexp,/Users/Zenny/Desktop,no,mono,no,18,no,white,no,no,768,legacy,59,11,/Users/Zenny/Desktop/quickrun.csv,legacy,8 5 3 7 4 6,Kafkaesque Koffka,3.2.8,6,y,0,left,right,right,left,NA,887,55384,22510,887,NA,2,legacy,6,1024,2,48000,-16,experiment,999,odd,6,544222,540771,541925,2569,160628,541958,392361,2652,138117,546254,547144,542989,58046,546254,NA,SternbergTask,63,70164,72,yes,1024
87.67123288,87.67123288,971.4383562,971.4383562,black,experiment,legacy,legacy,legacy,0,uniform,1,undefined,1,left,72,72,72,0,0,72,72,0,0,72,72,72,0,72,0,Fri Oct 25 12:57:14 2019,The main experiment item,yes,SternbergTask.osexp,/Users/Zenny/Desktop,no,mono,no,18,no,white,no,no,768,legacy,60,11,/Users/Zenny/Desktop/quickrun.csv,legacy,9 5 3 8 4,Kafkaesque Koffka,3.2.8,1,y,0,left,right,right,left,NA,751,55384,22510,751,NA,2,legacy,5,1024,2,48000,-16,experiment,999,odd,9,550596,547183,548301,2569,160628,548332,392361,2652,138117,552631,553385,549364,58046,552630,NA,SternbergTask,64,70915,73,yes,1024
87.83783784,87.83783784,972.7027027,972.7027027,black,experiment,legacy,legacy,legacy,0,uniform,1,undefined,1,right,73,73,73,0,0,73,73,0,0,73,73,73,0,73,0,Fri Oct 25 12:57:14 2019,The main experiment item,yes,SternbergTask.osexp,/Users/Zenny/Desktop,no,mono,no,18,no,white,no,no,768,legacy,61,11,/Users/Zenny/Desktop/quickrun.csv,legacy,5 3 8 7 2 4,Kafkaesque Koffka,3.2.8,0,n,0,right,right,right,right,NA,1065,55384,22510,1065,NA,2,legacy,6,1024,2,48000,-16,experiment,999,odd,9,556871,553420,554572,2569,160628,554603,392361,2652,138117,558902,559970,555637,58046,558902,NA,SternbergTask,65,71980,74,yes,1024
88,88,972.1733333,972.1733333,black,experiment,legacy,legacy,legacy,0,uniform,1,undefined,1,left,74,74,74,0,0,74,74,0,0,74,74,74,0,74,0,Fri Oct 25 12:57:14 2019,The main experiment item,yes,SternbergTask.osexp,/Users/Zenny/Desktop,no,mono,no,18,no,white,no,no,768,legacy,62,11,/Users/Zenny/Desktop/quickrun.csv,legacy,8 3,Kafkaesque Koffka,3.2.8,2,y,0,left,right,right,left,NA,933,55384,22510,933,NA,2,legacy,2,1024,2,48000,-16,experiment,999,odd,3,563458,560006,561163,2569,160628,561195,392361,2652,138117,565492,566428,562226,58046,565492,NA,SternbergTask,66,72913,75,yes,1024
88.15789474,88.15789474,967.7894737,967.7894737,black,experiment,legacy,legacy,legacy,0,uniform,1,undefined,1,right,75,75,75,0,0,75,75,0,0,75,75,75,0,75,0,Fri Oct 25 12:57:14 2019,The main experiment item,yes,SternbergTask.osexp,/Users/Zenny/Desktop,no,mono,no,18,no,white,no,no,768,legacy,63,11,/Users/Zenny/Desktop/quickrun.csv,legacy,8 9,Kafkaesque Koffka,3.2.8,0,n,0,right,right,right,right,NA,639,55384,22510,639,NA,2,legacy,2,1024,2,48000,-16,experiment,999,odd,5,569920,566470,567623,2569,160628,567656,392361,2652,138117,571952,572593,568687,58046,571952,NA,SternbergTask,67,73552,76,yes,1024
88.31168831,88.31168831,967.5324675,967.5324675,black,experiment,legacy,legacy,legacy,0,uniform,1,undefined,1,left,76,76,76,0,0,76,76,0,0,76,76,76,0,76,0,Fri Oct 25 12:57:14 2019,The main experiment item,yes,SternbergTask.osexp,/Users/Zenny/Desktop,no,mono,no,18,no,white,no,no,768,legacy,64,11,/Users/Zenny/Desktop/quickrun.csv,legacy,9 1 6 7 8,Kafkaesque Koffka,3.2.8,1,y,0,left,right,right,left,NA,948,55384,22510,948,NA,2,legacy,5,1024,2,48000,-16,experiment,999,odd,9,576036,572628,573740,2569,160628,573773,392361,2652,138117,578067,579017,574803,58046,578067,NA,SternbergTask,68,74500,77,yes,1024
88.46153846,88.46153846,964.9871795,964.9871795,black,experiment,legacy,legacy,legacy,0,uniform,1,undefined,1,right,77,77,77,0,0,77,77,0,0,77,77,77,0,77,0,Fri Oct 25 12:57:14 2019,The main experiment item,yes,SternbergTask.osexp,/Users/Zenny/Desktop,no,mono,no,18,no,white,no,no,768,legacy,65,11,/Users/Zenny/Desktop/quickrun.csv,legacy,5 7 3,Kafkaesque Koffka,3.2.8,0,n,0,right,right,right,right,NA,769,55384,22510,769,NA,2,legacy,3,1024,2,48000,-16,experiment,999,odd,9,582516,579055,580208,2569,160628,580251,392361,2652,138117,584547,585318,581283,58046,584547,NA,SternbergTask,69,75269,78,yes,1024
88.60759494,88.60759494,962.5443038,962.5443038,black,experiment,legacy,legacy,legacy,0,uniform,1,undefined,1,left,78,78,78,0,0,78,78,0,0,78,78,78,0,78,0,Fri Oct 25 12:57:14 2019,The main experiment item,yes,SternbergTask.osexp,/Users/Zenny/Desktop,no,mono,no,18,no,white,no,no,768,legacy,66,11,/Users/Zenny/Desktop/quickrun.csv,legacy,3 4,Kafkaesque Koffka,3.2.8,1,y,0,left,right,right,left,NA,772,55384,22510,772,NA,2,legacy,2,1024,2,48000,-16,experiment,999,odd,3,588777,585352,586462,2569,160628,586493,392361,2652,138117,590808,591583,587524,58046,590808,NA,SternbergTask,70,76041,79,yes,1024
87.5,87.5,957.725,957.725,black,experiment,legacy,legacy,legacy,0,uniform,0,undefined,0,left,79,79,79,0,0,79,79,0,0,79,79,79,0,79,0,Fri Oct 25 12:57:14 2019,The main experiment item,yes,SternbergTask.osexp,/Users/Zenny/Desktop,no,mono,no,18,no,white,no,no,768,legacy,67,11,/Users/Zenny/Desktop/quickrun.csv,legacy,8 1 6,Kafkaesque Koffka,3.2.8,3,y,0,right,right,right,right,NA,577,55384,22510,577,NA,2,legacy,3,1024,2,48000,-16,experiment,999,odd,6,595069,591626,592768,2569,160628,592801,392361,2652,138117,597101,597680,593836,58046,597101,NA,SternbergTask,70,76618,80,yes,1024
87.65432099,87.65432099,958.4938272,958.4938272,black,experiment,legacy,legacy,legacy,0,uniform,1,undefined,1,right,80,80,80,0,0,80,80,0,0,80,80,80,0,80,0,Fri Oct 25 12:57:14 2019,The main experiment item,yes,SternbergTask.osexp,/Users/Zenny/Desktop,no,mono,no,18,no,white,no,no,768,legacy,68,11,/Users/Zenny/Desktop/quickrun.csv,legacy,1,Kafkaesque Koffka,3.2.8,0,n,0,right,right,right,right,NA,1020,55384,22510,1020,NA,2,legacy,1,1024,2,48000,-16,experiment,999,odd,7,601129,591626,598834,2569,160628,598865,597720,2652,138117,603161,604184,599897,58046,603161,NA,SternbergTask,71,77638,81,yes,1024
87.80487805,87.80487805,967.7195122,967.7195122,black,experiment,legacy,legacy,legacy,0,uniform,1,undefined,1,right,81,81,81,0,0,81,81,0,0,81,81,81,0,81,0,Fri Oct 25 12:57:14 2019,The main experiment item,yes,SternbergTask.osexp,/Users/Zenny/Desktop,no,mono,no,18,no,white,no,no,768,legacy,69,11,/Users/Zenny/Desktop/quickrun.csv,legacy,8 5 7 3 6,Kafkaesque Koffka,3.2.8,0,n,0,right,right,right,right,NA,1715,55384,22510,1715,NA,2,legacy,5,1024,2,48000,-16,experiment,999,odd,9,607670,604226,605376,2569,160628,605408,597720,2652,138117,609701,611419,606438,58046,609701,NA,SternbergTask,72,79353,82,yes,1024
87.95180723,87.95180723,965.3975904,965.3975904,black,experiment,legacy,legacy,legacy,0,uniform,1,undefined,1,left,82,82,82,0,0,82,82,0,0,82,82,82,0,82,0,Fri Oct 25 12:57:14 2019,The main experiment item,yes,SternbergTask.osexp,/Users/Zenny/Desktop,no,mono,no,18,no,white,no,no,768,legacy,70,11,/Users/Zenny/Desktop/quickrun.csv,legacy,2 5 4 8 7,Kafkaesque Koffka,3.2.8,3,y,0,left,right,right,left,NA,775,55384,22510,775,NA,2,legacy,5,1024,2,48000,-16,experiment,999,odd,4,614911,611455,612607,2569,160628,612639,597720,2652,138117,616944,617722,613677,58046,616944,NA,SternbergTask,73,80128,83,yes,1024
86.9047619,86.9047619,964.9761905,964.9761905,black,experiment,legacy,legacy,legacy,0,uniform,0,undefined,0,left,83,83,83,0,0,83,83,0,0,83,83,83,0,83,0,Fri Oct 25 12:57:14 2019,The main experiment item,yes,SternbergTask.osexp,/Users/Zenny/Desktop,no,mono,no,18,no,white,no,no,768,legacy,71,11,/Users/Zenny/Desktop/quickrun.csv,legacy,3 9 6 2,Kafkaesque Koffka,3.2.8,4,y,0,right,right,right,right,NA,930,55384,22510,930,NA,2,legacy,4,1024,2,48000,-16,experiment,999,odd,2,621198,617786,618897,2569,160628,618929,597720,2652,138117,623229,624162,619960,58046,623229,NA,SternbergTask,73,81058,84,yes,1024
87.05882353,87.05882353,962.3647059,962.3647059,black,experiment,legacy,legacy,legacy,0,uniform,1,undefined,1,left,84,84,84,0,0,84,84,0,0,84,84,84,0,84,0,Fri Oct 25 12:57:14 2019,The main experiment item,yes,SternbergTask.osexp,/Users/Zenny/Desktop,no,mono,no,18,no,white,no,no,768,legacy,72,11,/Users/Zenny/Desktop/quickrun.csv,legacy,8 7 3,Kafkaesque Koffka,3.2.8,1,y,0,left,right,right,left,NA,743,55384,22510,743,NA,2,legacy,3,1024,2,48000,-16,experiment,999,odd,8,627656,617786,625351,2569,160628,625392,624196,2652,138117,629687,630432,626424,58046,629687,NA,SternbergTask,74,81801,85,yes,1024
87.20930233,87.20930233,962.8255814,962.8255814,black,experiment,legacy,legacy,legacy,0,uniform,1,undefined,1,right,85,85,85,0,0,85,85,0,0,85,85,85,0,85,0,Fri Oct 25 12:57:14 2019,The main experiment item,yes,SternbergTask.osexp,/Users/Zenny/Desktop,no,mono,no,18,no,white,no,no,768,legacy,73,11,/Users/Zenny/Desktop/quickrun.csv,legacy,4 2 7 6 1 3,Kafkaesque Koffka,3.2.8,0,n,0,right,right,right,right,NA,1002,55384,22510,1002,NA,2,legacy,6,1024,2,48000,-16,experiment,999,odd,8,633878,630466,631577,2569,160628,631609,624196,2652,138117,635909,636914,632641,58046,635909,NA,SternbergTask,75,82803,86,yes,1024
87.35632184,87.35632184,959.183908,959.183908,black,experiment,legacy,legacy,legacy,0,uniform,1,undefined,1,left,86,86,86,0,0,86,86,0,0,86,86,86,0,86,0,Fri Oct 25 12:57:14 2019,The main experiment item,yes,SternbergTask.osexp,/Users/Zenny/Desktop,no,mono,no,18,no,white,no,no,768,legacy,74,11,/Users/Zenny/Desktop/quickrun.csv,legacy,4 1 5,Kafkaesque Koffka,3.2.8,2,y,0,left,right,right,left,NA,646,55384,22510,646,NA,2,legacy,3,1024,2,48000,-16,experiment,999,odd,1,640397,636954,638103,2569,160628,638135,624196,2652,138117,642428,643077,639166,58046,642428,NA,SternbergTask,76,83449,87,yes,1024
87.5,87.5,969.8068182,969.8068182,black,experiment,legacy,legacy,legacy,0,uniform,1,undefined,1,right,87,87,87,0,0,87,87,0,0,87,87,87,0,87,0,Fri Oct 25 12:57:14 2019,The main experiment item,yes,SternbergTask.osexp,/Users/Zenny/Desktop,no,mono,no,18,no,white,no,no,768,legacy,75,11,/Users/Zenny/Desktop/quickrun.csv,legacy,6 9 4 5 3 2,Kafkaesque Koffka,3.2.8,0,n,0,right,right,right,right,NA,1894,55384,22510,1894,NA,2,legacy,6,1024,2,48000,-16,experiment,999,odd,8,646521,643113,644226,2569,160628,644257,624196,2652,138117,648554,650451,645288,58046,648554,NA,SternbergTask,77,85343,88,yes,1024
87.64044944,87.64044944,966.5280899,966.5280899,black,experiment,legacy,legacy,legacy,0,uniform,1,undefined,1,left,88,88,88,0,0,88,88,0,0,88,88,88,0,88,0,Fri Oct 25 12:57:14 2019,The main experiment item,yes,SternbergTask.osexp,/Users/Zenny/Desktop,no,mono,no,18,no,white,no,no,768,legacy,76,11,/Users/Zenny/Desktop/quickrun.csv,legacy,4 1 8 7 5,Kafkaesque Koffka,3.2.8,3,y,0,left,right,right,left,NA,678,55384,22510,678,NA,2,legacy,5,1024,2,48000,-16,experiment,999,odd,8,653936,650492,651639,2569,160628,651671,624196,2652,138117,655967,656647,652702,58046,655967,NA,SternbergTask,78,86021,89,yes,1024
87.77777778,87.77777778,966.6111111,966.6111111,black,experiment,legacy,legacy,legacy,0,uniform,1,undefined,1,left,89,89,89,0,0,89,89,0,0,89,89,89,0,89,0,Fri Oct 25 12:57:14 2019,The main experiment item,yes,SternbergTask.osexp,/Users/Zenny/Desktop,no,mono,no,18,no,white,no,no,768,legacy,77,11,/Users/Zenny/Desktop/quickrun.csv,legacy,6 1 2,Kafkaesque Koffka,3.2.8,3,y,0,left,right,right,left,NA,974,55384,22510,974,NA,2,legacy,3,1024,2,48000,-16,experiment,999,odd,2,660091,656682,657794,2569,160628,657827,624196,2652,138117,662122,663099,658858,58046,662122,NA,SternbergTask,79,86995,90,yes,1024
87.91208791,87.91208791,965.3516484,965.3516484,black,experiment,legacy,legacy,legacy,0,uniform,1,undefined,1,left,90,90,90,0,0,90,90,0,0,90,90,90,0,90,0,Fri Oct 25 12:57:14 2019,The main experiment item,yes,SternbergTask.osexp,/Users/Zenny/Desktop,no,mono,no,18,no,white,no,no,768,legacy,78,11,/Users/Zenny/Desktop/quickrun.csv,legacy,4 3 2 5 8,Kafkaesque Koffka,3.2.8,2,y,0,left,right,right,left,NA,852,55384,22510,852,NA,2,legacy,5,1024,2,48000,-16,experiment,999,odd,3,666586,663137,664290,2569,160628,664322,624196,2652,138117,668618,669473,665353,58046,668618,NA,SternbergTask,80,87847,91,yes,1024
88.04347826,88.04347826,963.9021739,963.9021739,black,experiment,legacy,legacy,legacy,0,uniform,1,undefined,1,right,91,91,91,0,0,91,91,0,0,91,91,91,0,91,0,Fri Oct 25 12:57:14 2019,The main experiment item,yes,SternbergTask.osexp,/Users/Zenny/Desktop,no,mono,no,18,no,white,no,no,768,legacy,79,11,/Users/Zenny/Desktop/quickrun.csv,legacy,2 6 4 3 9,Kafkaesque Koffka,3.2.8,0,n,0,right,right,right,right,NA,832,55384,22510,832,NA,2,legacy,5,1024,2,48000,-16,experiment,999,odd,1,672912,669507,670618,2569,160628,670649,624196,2652,138117,674946,675780,671680,58046,674946,NA,SternbergTask,81,88679,92,yes,1024
88.17204301,88.17204301,964.6774194,964.6774194,black,experiment,legacy,legacy,legacy,0,uniform,1,undefined,1,right,92,92,92,0,0,92,92,0,0,92,92,92,0,92,0,Fri Oct 25 12:57:14 2019,The main experiment item,yes,SternbergTask.osexp,/Users/Zenny/Desktop,no,mono,no,18,no,white,no,no,768,legacy,80,11,/Users/Zenny/Desktop/quickrun.csv,legacy,2 8 9,Kafkaesque Koffka,3.2.8,0,n,0,right,right,right,right,NA,1036,55384,22510,1036,NA,2,legacy,3,1024,2,48000,-16,experiment,999,odd,6,679273,675822,676977,2569,160628,677008,624196,2652,138117,681304,682344,678039,58046,681304,NA,SternbergTask,82,89715,93,yes,1024
88.29787234,88.29787234,963.2765957,963.2765957,black,experiment,legacy,legacy,legacy,0,uniform,1,undefined,1,right,93,93,93,0,0,93,93,0,0,93,93,93,0,93,0,Fri Oct 25 12:57:14 2019,The main experiment item,yes,SternbergTask.osexp,/Users/Zenny/Desktop,no,mono,no,18,no,white,no,no,768,legacy,81,11,/Users/Zenny/Desktop/quickrun.csv,legacy,1 3 2 6 9,Kafkaesque Koffka,3.2.8,0,n,0,right,right,right,right,NA,833,55384,22510,833,NA,2,legacy,5,1024,2,48000,-16,experiment,999,odd,5,685831,682384,683536,2569,160628,683568,624196,2652,138117,687864,688699,684599,58046,687864,NA,SternbergTask,83,90548,94,yes,1024
88.42105263,88.42105263,961.2421053,961.2421053,black,experiment,legacy,legacy,legacy,0,uniform,1,undefined,1,left,94,94,94,0,0,94,94,0,0,94,94,94,0,94,0,Fri Oct 25 12:57:14 2019,The main experiment item,yes,SternbergTask.osexp,/Users/Zenny/Desktop,no,mono,no,18,no,white,no,no,768,legacy,82,11,/Users/Zenny/Desktop/quickrun.csv,legacy,2 3 7 4,Kafkaesque Koffka,3.2.8,1,y,0,left,right,right,left,NA,770,55384,22510,770,NA,2,legacy,4,1024,2,48000,-16,experiment,999,odd,2,692186,688773,689885,2569,160628,689923,624196,2652,138117,694219,694992,690954,58046,694218,NA,SternbergTask,84,91318,95,yes,1024
88.54166667,88.54166667,959.8541667,959.8541667,black,experiment,legacy,legacy,legacy,0,uniform,1,undefined,1,right,95,95,95,0,0,95,95,0,0,95,95,95,0,95,0,Fri Oct 25 12:57:14 2019,The main experiment item,yes,SternbergTask.osexp,/Users/Zenny/Desktop,no,mono,no,18,no,white,no,no,768,legacy,83,11,/Users/Zenny/Desktop/quickrun.csv,legacy,9 8 2 7 4,Kafkaesque Koffka,3.2.8,0,n,0,right,right,right,right,NA,828,55384,22510,828,NA,2,legacy,5,1024,2,48000,-16,experiment,999,odd,5,698475,695026,696175,2569,160628,696208,624196,2652,138117,700506,701336,697242,58046,700506,NA,SternbergTask,85,92146,96,yes,1024
88.65979381,88.65979381,961.5979381,961.5979381,black,experiment,legacy,legacy,legacy,0,uniform,1,undefined,1,left,96,96,96,0,0,96,96,0,0,96,96,96,0,96,0,Fri Oct 25 12:57:14 2019,The main experiment item,yes,SternbergTask.osexp,/Users/Zenny/Desktop,no,mono,no,18,no,white,no,no,768,legacy,84,11,/Users/Zenny/Desktop/quickrun.csv,legacy,9 3 1 2 5,Kafkaesque Koffka,3.2.8,4,y,0,left,right,right,left,NA,1129,55384,22510,1129,NA,2,legacy,5,1024,2,48000,-16,experiment,999,odd,2,704778,701369,702480,2569,160628,702512,624196,2652,138117,706813,707945,703543,58046,706812,NA,SternbergTask,86,93275,97,yes,1024
88.7755102,88.7755102,959.3265306,959.3265306,black,experiment,legacy,legacy,legacy,0,uniform,1,undefined,1,left,97,97,97,0,0,97,97,0,0,97,97,97,0,97,0,Fri Oct 25 12:57:14 2019,The main experiment item,yes,SternbergTask.osexp,/Users/Zenny/Desktop,no,mono,no,18,no,white,no,no,768,legacy,85,11,/Users/Zenny/Desktop/quickrun.csv,legacy,7 1 8 5 6 2,Kafkaesque Koffka,3.2.8,2,y,0,left,right,right,left,NA,739,55384,22510,739,NA,2,legacy,6,1024,2,48000,-16,experiment,999,odd,1,711424,707979,709126,2569,160628,709159,624196,2652,138117,713456,714200,710190,58046,713456,NA,SternbergTask,87,94014,98,yes,1024
88.88888889,88.88888889,958.8282828,958.8282828,black,experiment,legacy,legacy,legacy,0,uniform,1,undefined,1,right,98,98,98,0,0,98,98,0,0,98,98,98,0,98,0,Fri Oct 25 12:57:14 2019,The main experiment item,yes,SternbergTask.osexp,/Users/Zenny/Desktop,no,mono,no,18,no,white,no,no,768,legacy,86,11,/Users/Zenny/Desktop/quickrun.csv,legacy,1 6 4 3 9 7,Kafkaesque Koffka,3.2.8,0,n,0,right,right,right,right,NA,910,55384,22510,910,NA,2,legacy,6,1024,2,48000,-16,experiment,999,odd,8,717643,714234,715345,2569,160628,715376,624196,2652,138117,719675,720589,716407,58046,719675,NA,SternbergTask,88,94924,99,yes,1024
89,89,957.62,957.62,black,experiment,legacy,legacy,legacy,0,uniform,1,undefined,1,left,99,99,99,0,0,99,99,0,0,99,99,99,0,99,0,Fri Oct 25 12:57:14 2019,The main experiment item,yes,SternbergTask.osexp,/Users/Zenny/Desktop,no,mono,no,18,no,white,no,no,768,legacy,87,11,/Users/Zenny/Desktop/quickrun.csv,legacy,9 6 2 4 1,Kafkaesque Koffka,3.2.8,4,y,0,left,right,right,left,NA,838,55384,22510,838,NA,2,legacy,5,1024,2,48000,-16,experiment,999,odd,4,724088,720640,721792,2569,160628,721824,624196,2652,138117,726119,726960,722856,58046,726119,NA,SternbergTask,89,95762,100,yes,1024
89.10891089,89.10891089,954.8019802,954.8019802,black,experiment,legacy,legacy,legacy,0,uniform,1,undefined,1,right,100,100,100,0,0,100,100,0,0,100,100,100,0,100,0,Fri Oct 25 12:57:14 2019,The main experiment item,yes,SternbergTask.osexp,/Users/Zenny/Desktop,no,mono,no,18,no,white,no,no,768,legacy,88,11,/Users/Zenny/Desktop/quickrun.csv,legacy,5,Kafkaesque Koffka,3.2.8,0,n,0,right,right,right,right,NA,673,55384,22510,673,NA,2,legacy,1,1024,2,48000,-16,experiment,999,odd,8,730402,726998,728107,2569,160628,728139,624196,2652,138117,732434,733110,729170,58046,732434,NA,SternbergTask,90,96435,101,yes,1024
89.21568627,89.21568627,954.8627451,954.8627451,black,experiment,legacy,legacy,legacy,0,uniform,1,undefined,1,right,101,101,101,0,0,101,101,0,0,101,101,101,0,101,0,Fri Oct 25 12:57:14 2019,The main experiment item,yes,SternbergTask.osexp,/Users/Zenny/Desktop,no,mono,no,18,no,white,no,no,768,legacy,89,11,/Users/Zenny/Desktop/quickrun.csv,legacy,6 9 5,Kafkaesque Koffka,3.2.8,0,n,0,right,right,right,right,NA,961,55384,22510,961,NA,2,legacy,3,1024,2,48000,-16,experiment,999,odd,8,736593,733147,734295,2569,160628,734328,624196,2652,138117,738628,739591,735360,58046,738627,NA,SternbergTask,91,97396,102,yes,1024
89.32038835,89.32038835,956.0485437,956.0485437,black,experiment,legacy,legacy,legacy,0,uniform,1,undefined,1,left,102,102,102,0,0,102,102,0,0,102,102,102,0,102,0,Fri Oct 25 12:57:14 2019,The main experiment item,yes,SternbergTask.osexp,/Users/Zenny/Desktop,no,mono,no,18,no,white,no,no,768,legacy,90,11,/Users/Zenny/Desktop/quickrun.csv,legacy,5 7 8 2 3 8,Kafkaesque Koffka,3.2.8,5,y,0,left,right,right,left,NA,1077,55384,22510,1077,NA,2,legacy,6,1024,2,48000,-16,experiment,999,odd,3,743081,739625,740786,2569,160628,740818,624196,2652,138117,745112,746191,741849,58046,745112,NA,SternbergTask,92,98473,103,yes,1024
89.42307692,89.42307692,956.3653846,956.3653846,black,experiment,legacy,legacy,legacy,0,uniform,1,undefined,1,right,103,103,103,0,0,103,103,0,0,103,103,103,0,103,0,Fri Oct 25 12:57:14 2019,The main experiment item,yes,SternbergTask.osexp,/Users/Zenny/Desktop,no,mono,no,18,no,white,no,no,768,legacy,91,11,/Users/Zenny/Desktop/quickrun.csv,legacy,8 6 3 4 7,Kafkaesque Koffka,3.2.8,0,n,0,right,right,right,right,NA,989,55384,22510,989,NA,2,legacy,5,1024,2,48000,-16,experiment,999,odd,1,749676,746229,747382,2569,160628,747414,624196,2652,138117,751707,752699,748445,58046,751707,NA,SternbergTask,93,99462,104,yes,1024
89.52380952,89.52380952,955.1619048,955.1619048,black,experiment,legacy,legacy,legacy,0,uniform,1,undefined,1,right,104,104,104,0,0,104,104,0,0,104,104,104,0,104,0,Fri Oct 25 12:57:14 2019,The main experiment item,yes,SternbergTask.osexp,/Users/Zenny/Desktop,no,mono,no,18,no,white,no,no,768,legacy,92,11,/Users/Zenny/Desktop/quickrun.csv,legacy,5 3 2 6 9 8,Kafkaesque Koffka,3.2.8,0,n,0,right,right,right,right,NA,830,55384,22510,830,NA,2,legacy,6,1024,2,48000,-16,experiment,999,odd,4,756233,752775,753936,2569,160628,753968,624196,2652,138117,758265,759098,755000,58046,758265,NA,SternbergTask,94,100292,105,yes,1024
89.62264151,89.62264151,954.4150943,954.4150943,black,experiment,legacy,legacy,legacy,0,uniform,1,undefined,1,left,105,105,105,0,0,105,105,0,0,105,105,105,0,105,0,Fri Oct 25 12:57:14 2019,The main experiment item,yes,SternbergTask.osexp,/Users/Zenny/Desktop,no,mono,no,18,no,white,no,no,768,legacy,93,11,/Users/Zenny/Desktop/quickrun.csv,legacy,8,Kafkaesque Koffka,3.2.8,1,y,0,left,right,right,left,NA,876,55384,22510,876,NA,2,legacy,1,1024,2,48000,-16,experiment,999,odd,8,762536,759132,760241,2569,160628,760274,624196,2652,138117,764568,765447,761305,58046,764568,NA,SternbergTask,95,101168,106,yes,1024
89.71962617,89.71962617,951.7009346,951.7009346,black,experiment,legacy,legacy,legacy,0,uniform,1,undefined,1,right,106,106,106,0,0,106,106,0,0,106,106,106,0,106,0,Fri Oct 25 12:57:14 2019,The main experiment item,yes,SternbergTask.osexp,/Users/Zenny/Desktop,no,mono,no,18,no,white,no,no,768,legacy,94,11,/Users/Zenny/Desktop/quickrun.csv,legacy,7 3 2 8,Kafkaesque Koffka,3.2.8,0,n,0,right,right,right,right,NA,664,55384,22510,664,NA,2,legacy,4,1024,2,48000,-16,experiment,999,odd,4,768940,765482,766637,2569,160628,766673,624196,2652,138117,770971,771638,767705,58046,770971,NA,SternbergTask,96,101832,107,yes,1024
88.88888889,88.88888889,951.1666667,951.1666667,black,experiment,legacy,legacy,legacy,0,uniform,0,undefined,0,left,107,107,107,0,0,107,107,0,0,107,107,107,0,107,0,Fri Oct 25 12:57:14 2019,The main experiment item,yes,SternbergTask.osexp,/Users/Zenny/Desktop,no,mono,no,18,no,white,no,no,768,legacy,95,11,/Users/Zenny/Desktop/quickrun.csv,legacy,3 5 4 7,Kafkaesque Koffka,3.2.8,1,y,0,right,right,right,right,NA,894,55384,22510,894,NA,2,legacy,4,1024,2,48000,-16,experiment,999,odd,3,775081,771671,772785,2569,160628,772816,624196,2652,138117,777112,778009,773849,58046,777112,NA,SternbergTask,96,102726,108,yes,1024
88.99082569,88.99082569,950.7155963,950.7155963,black,experiment,legacy,legacy,legacy,0,uniform,1,undefined,1,right,108,108,108,0,0,108,108,0,0,108,108,108,0,108,0,Fri Oct 25 12:57:14 2019,The main experiment item,yes,SternbergTask.osexp,/Users/Zenny/Desktop,no,mono,no,18,no,white,no,no,768,legacy,96,11,/Users/Zenny/Desktop/quickrun.csv,legacy,1 4 3 6 5,Kafkaesque Koffka,3.2.8,0,n,0,right,right,right,right,NA,902,55384,22510,902,NA,2,legacy,5,1024,2,48000,-16,experiment,999,odd,8,781495,771671,779198,2569,160628,779231,778046,2652,138117,783527,784431,780262,58046,783527,NA,SternbergTask,97,103628,109,yes,1024
89.09090909,89.09090909,950.7727273,950.7727273,black,experiment,legacy,legacy,legacy,0,uniform,1,undefined,1,right,109,109,109,0,0,109,109,0,0,109,109,109,0,109,0,Fri Oct 25 12:57:14 2019,The main experiment item,yes,SternbergTask.osexp,/Users/Zenny/Desktop,no,mono,no,18,no,white,no,no,768,legacy,97,11,/Users/Zenny/Desktop/quickrun.csv,legacy,8 4 3 9,Kafkaesque Koffka,3.2.8,0,n,0,right,right,right,right,NA,957,55384,22510,957,NA,2,legacy,4,1024,2,48000,-16,experiment,999,odd,5,787891,784466,785595,2569,160628,785627,778046,2652,138117,789923,790882,786658,58046,789923,NA,SternbergTask,98,104585,110,yes,1024
89.18918919,89.18918919,951.6756757,951.6756757,black,experiment,legacy,legacy,legacy,0,uniform,1,undefined,1,left,110,110,110,0,0,110,110,0,0,110,110,110,0,110,0,Fri Oct 25 12:57:14 2019,The main experiment item,yes,SternbergTask.osexp,/Users/Zenny/Desktop,no,mono,no,18,no,white,no,no,768,legacy,98,11,/Users/Zenny/Desktop/quickrun.csv,legacy,4 9 7 8 5 3,Kafkaesque Koffka,3.2.8,4,y,0,left,right,right,left,NA,1051,55384,22510,1051,NA,2,legacy,6,1024,2,48000,-16,experiment,999,odd,8,794332,790919,792038,2569,160628,792069,778046,2652,138117,796366,797420,793101,58046,796365,NA,SternbergTask,99,105636,111,yes,1024
89.28571429,89.28571429,952.625,952.625,black,experiment,legacy,legacy,legacy,0,uniform,1,undefined,1,left,111,111,111,0,0,111,111,0,0,111,111,111,0,111,0,Fri Oct 25 12:57:14 2019,The main experiment item,yes,SternbergTask.osexp,/Users/Zenny/Desktop,no,mono,no,18,no,white,no,no,768,legacy,99,11,/Users/Zenny/Desktop/quickrun.csv,legacy,2 6 1 7 4,Kafkaesque Koffka,3.2.8,2,y,0,left,right,right,left,NA,1058,55384,22510,1058,NA,2,legacy,5,1024,2,48000,-16,experiment,999,odd,6,800903,797455,798606,2569,160628,798638,778046,2652,138117,802934,803995,799669,58046,802934,NA,SternbergTask,100,106694,112,yes,1024
89.38053097,89.38053097,950.8318584,950.8318584,black,experiment,legacy,legacy,legacy,0,uniform,1,undefined,1,right,112,112,112,0,0,112,112,0,0,112,112,112,0,112,0,Fri Oct 25 12:57:14 2019,The main experiment item,yes,SternbergTask.osexp,/Users/Zenny/Desktop,no,mono,no,18,no,white,no,no,768,legacy,100,11,/Users/Zenny/Desktop/quickrun.csv,legacy,5 9 2 3,Kafkaesque Koffka,3.2.8,0,n,0,right,right,right,right,NA,750,55384,22510,750,NA,2,legacy,4,1024,2,48000,-16,experiment,999,odd,8,807486,804029,805189,2569,160628,805220,778046,2652,138117,809517,810269,806253,58046,809517,NA,SternbergTask,101,107444,113,yes,1024
89.47368421,89.47368421,949.8333333,949.8333333,black,experiment,legacy,legacy,legacy,0,uniform,1,undefined,1,right,113,113,113,0,0,113,113,0,0,113,113,113,0,113,0,Fri Oct 25 12:57:14 2019,The main experiment item,yes,SternbergTask.osexp,/Users/Zenny/Desktop,no,mono,no,18,no,white,no,no,768,legacy,101,11,/Users/Zenny/Desktop/quickrun.csv,legacy,1 7 8 3 9,Kafkaesque Koffka,3.2.8,0,n,0,right,right,right,right,NA,837,55384,22510,837,NA,2,legacy,5,1024,2,48000,-16,experiment,999,odd,2,813713,810304,811415,2569,160628,811446,778046,2652,138117,815783,816623,812479,58046,815783,NA,SternbergTask,102,108281,114,yes,1024
89.56521739,89.56521739,950.826087,950.826087,black,experiment,legacy,legacy,legacy,0,uniform,1,undefined,1,right,114,114,114,0,0,114,114,0,0,114,114,114,0,114,0,Fri Oct 25 12:57:14 2019,The main experiment item,yes,SternbergTask.osexp,/Users/Zenny/Desktop,no,mono,no,18,no,white,no,no,768,legacy,102,11,/Users/Zenny/Desktop/quickrun.csv,legacy,3 4 9 6 7 8,Kafkaesque Koffka,3.2.8,0,n,0,right,right,right,right,NA,1064,55384,22510,1064,NA,2,legacy,6,1024,2,48000,-16,experiment,999,odd,2,820119,816666,817820,2569,160628,817853,778046,2652,138117,822150,823217,818885,58046,822150,NA,SternbergTask,103,109345,115,yes,1024
89.65517241,89.65517241,948.4224138,948.4224138,black,experiment,legacy,legacy,legacy,0,uniform,1,undefined,1,left,115,115,115,0,0,115,115,0,0,115,115,115,0,115,0,Fri Oct 25 12:57:14 2019,The main experiment item,yes,SternbergTask.osexp,/Users/Zenny/Desktop,no,mono,no,18,no,white,no,no,768,legacy,103,11,/Users/Zenny/Desktop/quickrun.csv,legacy,6 5,Kafkaesque Koffka,3.2.8,2,y,0,left,right,right,left,NA,672,55384,22510,672,NA,2,legacy,2,1024,2,48000,-16,experiment,999,odd,5,826717,823259,824420,2569,160628,824452,778046,2652,138117,828780,829455,825483,58046,828780,NA,SternbergTask,104,110017,116,yes,1024
88.88888889,88.88888889,947.4786325,947.4786325,black,experiment,legacy,legacy,legacy,0,uniform,0,undefined,0,left,116,116,116,0,0,116,116,0,0,116,116,116,0,116,0,Fri Oct 25 12:57:14 2019,The main experiment item,yes,SternbergTask.osexp,/Users/Zenny/Desktop,no,mono,no,18,no,white,no,no,768,legacy,104,11,/Users/Zenny/Desktop/quickrun.csv,legacy,4 6 2 5 1,Kafkaesque Koffka,3.2.8,5,y,0,right,right,right,right,NA,838,55384,22510,838,NA,2,legacy,5,1024,2,48000,-16,experiment,999,odd,1,832900,829491,830603,2569,160628,830634,778046,2652,138117,834932,835773,831665,58046,834932,NA,SternbergTask,104,110855,117,yes,1024
88.98305085,88.98305085,950.9322034,950.9322034,black,experiment,legacy,legacy,legacy,0,uniform,1,undefined,1,right,117,117,117,0,0,117,117,0,0,117,117,117,0,117,0,Fri Oct 25 12:57:14 2019,The main experiment item,yes,SternbergTask.osexp,/Users/Zenny/Desktop,no,mono,no,18,no,white,no,no,768,legacy,105,11,/Users/Zenny/Desktop/quickrun.csv,legacy,6 8,Kafkaesque Koffka,3.2.8,0,n,0,right,right,right,right,NA,1355,55384,22510,1355,NA,2,legacy,2,1024,2,48000,-16,experiment,999,odd,9,839261,829491,836965,2569,160628,836998,835816,2652,138117,841292,842666,838028,58046,841292,NA,SternbergTask,105,112210,118,yes,1024
89.07563025,89.07563025,950.4453782,950.4453782,black,experiment,legacy,legacy,legacy,0,uniform,1,undefined,1,right,118,118,118,0,0,118,118,0,0,118,118,118,0,118,0,Fri Oct 25 12:57:14 2019,The main experiment item,yes,SternbergTask.osexp,/Users/Zenny/Desktop,no,mono,no,18,no,white,no,no,768,legacy,106,11,/Users/Zenny/Desktop/quickrun.csv,legacy,6 2 9 3 8 4,Kafkaesque Koffka,3.2.8,0,n,0,right,right,right,right,NA,893,55384,22510,893,NA,2,legacy,6,1024,2,48000,-16,experiment,999,odd,1,846165,842703,843861,2569,160628,843896,835816,2652,138117,848196,849091,844932,58046,848196,NA,SternbergTask,106,113103,119,yes,1024
89.16666667,89.16666667,953.4666667,953.4666667,black,experiment,legacy,legacy,legacy,0,uniform,1,undefined,1,right,119,119,119,0,0,119,119,0,0,119,119,119,0,119,0,Fri Oct 25 12:57:14 2019,The main experiment item,yes,SternbergTask.osexp,/Users/Zenny/Desktop,no,mono,no,18,no,white,no,no,768,legacy,107,11,/Users/Zenny/Desktop/quickrun.csv,legacy,2 5 1 4,Kafkaesque Koffka,3.2.8,0,n,0,right,right,right,right,NA,1313,55384,22510,1313,NA,2,legacy,4,1024,2,48000,-16,experiment,999,odd,6,852539,849126,850242,2569,160628,850274,835816,2652,138117,854573,855889,851307,58046,854573,NA,SternbergTask,107,114416,120,yes,1024
89.25619835,89.25619835,959.768595,959.768595,black,experiment,legacy,legacy,legacy,0,uniform,1,undefined,1,right,120,120,120,0,0,120,120,0,0,120,120,120,0,120,0,Fri Oct 25 12:57:14 2019,The main experiment item,yes,SternbergTask.osexp,/Users/Zenny/Desktop,no,mono,no,18,no,white,no,no,768,legacy,108,11,/Users/Zenny/Desktop/quickrun.csv,legacy,2 7 5,Kafkaesque Koffka,3.2.8,0,n,0,right,right,right,right,NA,1716,55384,22510,1716,NA,2,legacy,3,1024,2,48000,-16,experiment,999,odd,8,859381,855923,857080,2569,160628,857112,835816,2652,138117,861413,863132,858147,58046,861413,NA,SternbergTask,108,116132,121,yes,1024
89.3442623,89.3442623,961.4180328,961.4180328,black,experiment,legacy,legacy,legacy,0,uniform,1,undefined,1,left,121,121,121,0,0,121,121,0,0,121,121,121,0,121,0,Fri Oct 25 12:57:14 2019,The main experiment item,yes,SternbergTask.osexp,/Users/Zenny/Desktop,no,mono,no,18,no,white,no,no,768,legacy,109,11,/Users/Zenny/Desktop/quickrun.csv,legacy,5 2 9 6 1 7,Kafkaesque Koffka,3.2.8,3,y,0,left,right,right,left,NA,1161,55384,22510,1161,NA,2,legacy,6,1024,2,48000,-16,experiment,999,odd,9,866625,863171,864328,2569,160628,864361,835816,2652,138117,868656,869820,865393,58046,868656,NA,SternbergTask,109,117293,122,yes,1024
89.43089431,89.43089431,963.8455285,963.8455285,black,experiment,legacy,legacy,legacy,0,uniform,1,undefined,1,right,122,122,122,0,0,122,122,0,0,122,122,122,0,122,0,Fri Oct 25 12:57:14 2019,The main experiment item,yes,SternbergTask.osexp,/Users/Zenny/Desktop,no,mono,no,18,no,white,no,no,768,legacy,110,11,/Users/Zenny/Desktop/quickrun.csv,legacy,7 1 5 6 3,Kafkaesque Koffka,3.2.8,0,n,0,right,right,right,right,NA,1260,55384,22510,1260,NA,2,legacy,5,1024,2,48000,-16,experiment,999,odd,8,873315,869860,871018,2569,160628,871050,835816,2652,138117,875346,876609,872082,58046,875346,NA,SternbergTask,110,118553,123,yes,1024
89.51612903,89.51612903,969.3548387,969.3548387,black,experiment,legacy,legacy,legacy,0,uniform,1,undefined,1,right,123,123,123,0,0,123,123,0,0,123,123,123,0,123,0,Fri Oct 25 12:57:14 2019,The main experiment item,yes,SternbergTask.osexp,/Users/Zenny/Desktop,no,mono,no,18,no,white,no,no,768,legacy,111,11,/Users/Zenny/Desktop/quickrun.csv,legacy,7 1,Kafkaesque Koffka,3.2.8,0,n,0,right,right,right,right,NA,1647,55384,22510,1647,NA,2,legacy,2,1024,2,48000,-16,experiment,999,odd,8,880098,876645,877801,2569,160628,877834,835816,2652,138117,882130,883780,878866,58046,882130,NA,SternbergTask,111,120200,124,yes,1024
89.6,89.6,967.576,967.576,black,experiment,legacy,legacy,legacy,0,uniform,1,undefined,1,left,124,124,124,0,0,124,124,0,0,124,124,124,0,124,0,Fri Oct 25 12:57:14 2019,The main experiment item,yes,SternbergTask.osexp,/Users/Zenny/Desktop,no,mono,no,18,no,white,no,no,768,legacy,112,11,/Users/Zenny/Desktop/quickrun.csv,legacy,2 4 8 5 1 3,Kafkaesque Koffka,3.2.8,1,y,0,left,right,right,left,NA,747,55384,22510,747,NA,2,legacy,6,1024,2,48000,-16,experiment,999,odd,2,887265,883816,884964,2569,160628,885000,835816,2652,138117,889296,890046,886032,58046,889296,NA,SternbergTask,112,120947,125,yes,1024
89.68253968,89.68253968,968.1269841,968.1269841,black,experiment,legacy,legacy,legacy,0,uniform,1,undefined,1,left,125,125,125,0,0,125,125,0,0,125,125,125,0,125,0,Fri Oct 25 12:57:14 2019,The main experiment item,yes,SternbergTask.osexp,/Users/Zenny/Desktop,no,mono,no,18,no,white,no,no,768,legacy,113,11,/Users/Zenny/Desktop/quickrun.csv,legacy,3 9 7 6 4,Kafkaesque Koffka,3.2.8,3,y,0,left,right,right,left,NA,1037,55384,22510,1037,NA,2,legacy,5,1024,2,48000,-16,experiment,999,odd,7,893489,890081,891193,2569,160628,891225,835816,2652,138117,895521,896561,892256,58046,895521,NA,SternbergTask,113,121984,126,yes,1024
89.76377953,89.76377953,969.4409449,969.4409449,black,experiment,legacy,legacy,legacy,0,uniform,1,undefined,1,right,126,126,126,0,0,126,126,0,0,126,126,126,0,126,0,Fri Oct 25 12:57:14 2019,The main experiment item,yes,SternbergTask.osexp,/Users/Zenny/Desktop,no,mono,no,18,no,white,no,no,768,legacy,114,11,/Users/Zenny/Desktop/quickrun.csv,legacy,7 6 4 8 1 2,Kafkaesque Koffka,3.2.8,0,n,0,right,right,right,right,NA,1135,55384,22510,1135,NA,2,legacy,6,1024,2,48000,-16,experiment,999,odd,9,900048,896597,897746,2569,160628,897783,835816,2652,138117,902082,903220,898814,58046,902081,NA,SternbergTask,114,123119,127,yes,1024
89.84375,89.84375,968.2734375,968.2734375,black,experiment,legacy,legacy,legacy,0,uniform,1,undefined,1,left,127,127,127,0,0,127,127,0,0,127,127,127,0,127,0,Fri Oct 25 12:57:14 2019,The main experiment item,yes,SternbergTask.osexp,/Users/Zenny/Desktop,no,mono,no,18,no,white,no,no,768,legacy,115,11,/Users/Zenny/Desktop/quickrun.csv,legacy,8 9 5 6 7,Kafkaesque Koffka,3.2.8,1,y,0,left,right,right,left,NA,820,55384,22510,820,NA,2,legacy,5,1024,2,48000,-16,experiment,999,odd,8,906706,903257,904410,2569,160628,904442,835816,2652,138117,908777,909601,905473,58046,908777,NA,SternbergTask,115,123939,128,yes,1024
89.92248062,89.92248062,965.6356589,965.6356589,black,experiment,legacy,legacy,legacy,0,uniform,1,undefined,1,right,128,128,128,0,0,128,128,0,0,128,128,128,0,128,0,Fri Oct 25 12:57:14 2019,The main experiment item,yes,SternbergTask.osexp,/Users/Zenny/Desktop,no,mono,no,18,no,white,no,no,768,legacy,116,11,/Users/Zenny/Desktop/quickrun.csv,legacy,2 3 8 5 6 7,Kafkaesque Koffka,3.2.8,0,n,0,right,right,right,right,NA,628,55384,22510,628,NA,2,legacy,6,1024,2,48000,-16,experiment,999,odd,1,913050,909635,910747,2569,160628,910786,835816,2652,138117,915081,915713,911817,58046,915081,NA,SternbergTask,116,124567,129,yes,1024
90,90,963.0230769,963.0230769,black,experiment,legacy,legacy,legacy,0,uniform,1,undefined,1,left,129,129,129,0,0,129,129,0,0,129,129,129,0,129,0,Fri Oct 25 12:57:14 2019,The main experiment item,yes,SternbergTask.osexp,/Users/Zenny/Desktop,no,mono,no,18,no,white,no,no,768,legacy,117,11,/Users/Zenny/Desktop/quickrun.csv,legacy,6 9 7 4 5 1,Kafkaesque Koffka,3.2.8,2,y,0,left,right,right,left,NA,626,55384,22510,626,NA,2,legacy,6,1024,2,48000,-16,experiment,999,odd,9,919237,915782,916941,2569,160628,916973,835816,2652,138117,921268,921897,918003,58046,921268,NA,SternbergTask,117,125193,130,yes,1024
90.07633588,90.07633588,962.2442748,962.2442748,black,experiment,legacy,legacy,legacy,0,uniform,1,undefined,1,left,130,130,130,0,0,130,130,0,0,130,130,130,0,130,0,Fri Oct 25 12:57:14 2019,The main experiment item,yes,SternbergTask.osexp,/Users/Zenny/Desktop,no,mono,no,18,no,white,no,no,768,legacy,118,11,/Users/Zenny/Desktop/quickrun.csv,legacy,5 2 6,Kafkaesque Koffka,3.2.8,2,y,0,left,right,right,left,NA,861,55384,22510,861,NA,2,legacy,3,1024,2,48000,-16,experiment,999,odd,2,925335,921930,923039,2569,160628,923071,835816,2652,138117,927366,928230,924102,58046,927366,NA,SternbergTask,118,126054,131,yes,1024
90.15151515,90.15151515,961.6969697,961.6969697,black,experiment,legacy,legacy,legacy,0,uniform,1,undefined,1,left,131,131,131,0,0,131,131,0,0,131,131,131,0,131,0,Fri Oct 25 12:57:14 2019,The main experiment item,yes,SternbergTask.osexp,/Users/Zenny/Desktop,no,mono,no,18,no,white,no,no,768,legacy,119,11,/Users/Zenny/Desktop/quickrun.csv,legacy,9 5 8 1,Kafkaesque Koffka,3.2.8,2,y,0,left,right,right,left,NA,890,55384,22510,890,NA,2,legacy,4,1024,2,48000,-16,experiment,999,odd,5,931720,928267,929420,2569,160628,929454,835816,2652,138117,933785,934678,930485,58046,933785,NA,SternbergTask,119,126944,132,yes,1024
90.22556391,90.22556391,960.8120301,960.8120301,black,experiment,legacy,legacy,legacy,0,uniform,1,undefined,1,right,132,132,132,0,0,132,132,0,0,132,132,132,0,132,0,Fri Oct 25 12:57:14 2019,The main experiment item,yes,SternbergTask.osexp,/Users/Zenny/Desktop,no,mono,no,18,no,white,no,no,768,legacy,120,11,/Users/Zenny/Desktop/quickrun.csv,legacy,3 4 2,Kafkaesque Koffka,3.2.8,0,n,0,right,right,right,right,NA,844,55384,22510,844,NA,2,legacy,3,1024,2,48000,-16,experiment,999,odd,5,938176,934722,935880,2569,160628,935912,835816,2652,138117,940208,941055,936943,58046,940208,NA,SternbergTask,120,127788,133,yes,1024
90.29850746,90.29850746,961.2537313,961.2537313,black,experiment,legacy,legacy,legacy,0,uniform,1,undefined,1,left,133,133,133,0,0,133,133,0,0,133,133,133,0,133,0,Fri Oct 25 12:57:14 2019,The main experiment item,yes,SternbergTask.osexp,/Users/Zenny/Desktop,no,mono,no,18,no,white,no,no,768,legacy,121,11,/Users/Zenny/Desktop/quickrun.csv,legacy,5 7 3 6 2,Kafkaesque Koffka,3.2.8,5,y,0,left,right,right,left,NA,1020,55384,22510,1020,NA,2,legacy,5,1024,2,48000,-16,experiment,999,odd,2,944493,941090,942200,2569,160628,942231,835816,2652,138117,946528,947551,943262,58046,946527,NA,SternbergTask,121,128808,134,yes,1024
90.37037037,90.37037037,960.8148148,960.8148148,black,experiment,legacy,legacy,legacy,0,uniform,1,undefined,1,right,134,134,134,0,0,134,134,0,0,134,134,134,0,134,0,Fri Oct 25 12:57:14 2019,The main experiment item,yes,SternbergTask.osexp,/Users/Zenny/Desktop,no,mono,no,18,no,white,no,no,768,legacy,122,11,/Users/Zenny/Desktop/quickrun.csv,legacy,7 9,Kafkaesque Koffka,3.2.8,0,n,0,right,right,right,right,NA,902,55384,22510,902,NA,2,legacy,2,1024,2,48000,-16,experiment,999,odd,1,951047,947589,948714,2569,160628,948784,835816,2652,138117,953079,953983,949815,58046,953079,NA,SternbergTask,122,129710,135,yes,1024
90.44117647,90.44117647,962.2573529,962.2573529,black,experiment,legacy,legacy,legacy,0,uniform,1,undefined,1,left,135,135,135,0,0,135,135,0,0,135,135,135,0,135,0,Fri Oct 25 12:57:14 2019,The main experiment item,yes,SternbergTask.osexp,/Users/Zenny/Desktop,no,mono,no,18,no,white,no,no,768,legacy,123,11,/Users/Zenny/Desktop/quickrun.csv,legacy,7 8 4 6 9 5,Kafkaesque Koffka,3.2.8,4,y,0,left,right,right,left,NA,1157,55384,22510,1157,NA,2,legacy,6,1024,2,48000,-16,experiment,999,odd,6,957436,954016,955136,2569,160628,955171,835816,2652,138117,959467,960629,956204,58046,959467,NA,SternbergTask,123,130867,136,yes,1024
90.51094891,90.51094891,960.9051095,960.9051095,black,experiment,legacy,legacy,legacy,0,uniform,1,undefined,1,left,136,136,136,0,0,136,136,0,0,136,136,136,0,136,0,Fri Oct 25 12:57:14 2019,The main experiment item,yes,SternbergTask.osexp,/Users/Zenny/Desktop,no,mono,no,18,no,white,no,no,768,legacy,124,11,/Users/Zenny/Desktop/quickrun.csv,legacy,4 6 5 8,Kafkaesque Koffka,3.2.8,1,y,0,left,right,right,left,NA,777,55384,22510,777,NA,2,legacy,4,1024,2,48000,-16,experiment,999,odd,4,964096,960675,961800,2569,160628,961833,835816,2652,138117,966130,966910,962864,58046,966130,NA,SternbergTask,124,131644,137,yes,1024
89.85507246,89.85507246,959.2028986,959.2028986,black,experiment,legacy,legacy,legacy,0,uniform,0,undefined,0,left,137,137,137,0,0,137,137,0,0,137,137,137,0,137,0,Fri Oct 25 12:57:14 2019,The main experiment item,yes,SternbergTask.osexp,/Users/Zenny/Desktop,no,mono,no,18,no,white,no,no,768,legacy,125,11,/Users/Zenny/Desktop/quickrun.csv,legacy,3 4 9 6 2 9,Kafkaesque Koffka,3.2.8,5,y,0,right,right,right,right,NA,726,55384,22510,726,NA,2,legacy,6,1024,2,48000,-16,experiment,999,odd,2,970386,966945,968090,2569,160628,968122,835816,2652,138117,972423,973151,969153,58046,972423,NA,SternbergTask,124,132370,138,yes,1024